{"pdf_atom_id": "ig34_p0124_a022", "pdf_atom_type": "TABLE_ROW", "pdf_source": "SDTMIG v3.4 (no header footer).pdf", "pdf_page": 124, "pdf_parent_section": "§6.1.4 [Meal Data (ML)]", "pdf_verbatim": "7 | ABC123 | ML | ABC123-001 | 7 | APPLE | 3 | WEEK 3 | 2015-09-22", "figure_ref": null, "candidates": [{"md_atom_id": "md_dmML_ex_a047", "md_file": "knowledge_base/domains/ML/examples.md", "md_atom_type": "TABLE_ROW", "md_parent_section": "§ML.2 [Example 2]", "md_verbatim": "| 7 | ABC123 | ML | ABC123-001 | 7 | APPLE | 3 | WEEK 3 | 2015-09-22 |", "score": 1.0, "match_basis": "verbatim_token+domain_route:ML"}, {"md_atom_id": "md_dmML_ex_a044", "md_file": "knowledge_base/domains/ML/examples.md", "md_atom_type": "TABLE_ROW", "md_parent_section": "§ML.2 [Example 2]", "md_verbatim": "| 4 | ABC123 | ML | ABC123-001 | 4 | BANANA | 2 | WEEK 2 | 2015-09-17 |", "score": 0.76, "match_basis": "verbatim_token+domain_route:ML"}, {"md_atom_id": "md_dmML_ex_a046", "md_file": "knowledge_base/domains/ML/examples.md", "md_atom_type": "TABLE_ROW", "md_parent_section": "§ML.2 [Example 2]", "md_verbatim": "| 6 | ABC123 | ML | ABC123-001 | 6 | PIZZA | 2 | WEEK 2 | 2015-09-17 |", "score": 0.76, "match_basis": "verbatim_token+domain_route:ML"}, {"md_atom_id": "md_dmML_ex_a049", "md_file": "knowledge_base/domains/ML/examples.md", "md_atom_type": "TABLE_ROW", "md_parent_section": "§ML.2 [Example 2]", "md_verbatim": "| 9 | ABC123 | ML | ABC123-001 | 9 | SALAD | 3 | WEEK 3 | 2015-09-22 |", "score": 0.76, "match_basis": "verbatim_token+domain_route:ML"}, {"md_atom_id": "md_dmML_ex_a042", "md_file": "knowledge_base/domains/ML/examples.md", "md_atom_type": "TABLE_ROW", "md_parent_section": "§ML.2 [Example 2]", "md_verbatim": "| 2 | ABC123 | ML | ABC123-001 | 2 | WHITE MILK | 1 | WEEK 1 | 2015-09-09 |", "score": 0.7176, "match_basis": "verbatim_token+domain_route:ML"}], "candidate_count": 5, "zero_candidate": false}
{"pdf_atom_id": "ig34_p0124_a023", "pdf_atom_type": "TABLE_ROW", "pdf_source": "SDTMIG v3.4 (no header footer).pdf", "pdf_page": 124, "pdf_parent_section": "§6.1.4 [Meal Data (ML)]", "pdf_verbatim": "8 | ABC123 | ML | ABC123-001 | 8 | WHITE MILK | 3 | WEEK 3 | 2015-09-22", "figure_ref": null, "candidates": [{"md_atom_id": "md_dmML_ex_a042", "md_file": "knowledge_base/domains/ML/examples.md", "md_atom_type": "TABLE_ROW", "md_parent_section": "§ML.2 [Example 2]", "md_verbatim": "| 2 | ABC123 | ML | ABC123-001 | 2 | WHITE MILK | 1 | WEEK 1 | 2015-09-09 |", "score": 1.0, "match_basis": "verbatim_token+domain_route:ML"}, {"md_atom_id": "md_dmML_ex_a048", "md_file": "knowledge_base/domains/ML/examples.md", "md_atom_type": "TABLE_ROW", "md_parent_section": "§ML.2 [Example 2]", "md_verbatim": "| 8 | ABC123 | ML | ABC123-001 | 8 | WHITE MILK | 3 | WEEK 3 | 2015-09-22 |", "score": 1.0, "match_basis": "verbatim_token+domain_route:ML"}, {"md_atom_id": "md_dmML_ex_a044", "md_file": "knowledge_base/domains/ML/examples.md", "md_atom_type": "TABLE_ROW", "md_parent_section": "§ML.2 [Example 2]", "md_verbatim": "| 4 | ABC123 | ML | ABC123-001 | 4 | BANANA | 2 | WEEK 2 | 2015-09-17 |", "score": 0.7176, "match_basis": "verbatim_token+domain_route:ML"}, {"md_atom_id": "md_dmML_ex_a046", "md_file": "knowledge_base/domains/ML/examples.md", "md_atom_type": "TABLE_ROW", "md_parent_section": "§ML.2 [Example 2]", "md_verbatim": "| 6 | ABC123 | ML | ABC123-001 | 6 | PIZZA | 2 | WEEK 2 | 2015-09-17 |", "score": 0.7176, "match_basis": "verbatim_token+domain_route:ML"}, {"md_atom_id": "md_dmML_ex_a047", "md_file": "knowledge_base/domains/ML/examples.md", "md_atom_type": "TABLE_ROW", "md_parent_section": "§ML.2 [Example 2]", "md_verbatim": "| 7 | ABC123 | ML | ABC123-001 | 7 | APPLE | 3 | WEEK 3 | 2015-09-22 |", "score": 0.7176, "match_basis": "verbatim_token+domain_route:ML"}], "candidate_count": 5, "zero_candidate": false}
{"pdf_atom_id": "ig34_p0124_a024", "pdf_atom_type": "TABLE_ROW", "pdf_source": "SDTMIG v3.4 (no header footer).pdf", "pdf_page": 124, "pdf_parent_section": "§6.1.4 [Meal Data (ML)]", "pdf_verbatim": "9 | ABC123 | ML | ABC123-001 | 9 | SALAD | 3 | WEEK 3 | 2015-09-22", "figure_ref": null, "candidates": [{"md_atom_id": "md_dmML_ex_a049", "md_file": "knowledge_base/domains/ML/examples.md", "md_atom_type": "TABLE_ROW", "md_parent_section": "§ML.2 [Example 2]", "md_verbatim": "| 9 | ABC123 | ML | ABC123-001 | 9 | SALAD | 3 | WEEK 3 | 2015-09-22 |", "score": 1.0, "match_basis": "verbatim_token+domain_route:ML"}, {"md_atom_id": "md_dmML_ex_a044", "md_file": "knowledge_base/domains/ML/examples.md", "md_atom_type": "TABLE_ROW", "md_parent_section": "§ML.2 [Example 2]", "md_verbatim": "| 4 | ABC123 | ML | ABC123-001 | 4 | BANANA | 2 | WEEK 2 | 2015-09-17 |", "score": 0.76, "match_basis": "verbatim_token+domain_route:ML"}, {"md_atom_id": "md_dmML_ex_a046", "md_file": "knowledge_base/domains/ML/examples.md", "md_atom_type": "TABLE_ROW", "md_parent_section": "§ML.2 [Example 2]", "md_verbatim": "| 6 | ABC123 | ML | ABC123-001 | 6 | PIZZA | 2 | WEEK 2 | 2015-09-17 |", "score": 0.76, "match_basis": "verbatim_token+domain_route:ML"}, {"md_atom_id": "md_dmML_ex_a047", "md_file": "knowledge_base/domains/ML/examples.md", "md_atom_type": "TABLE_ROW", "md_parent_section": "§ML.2 [Example 2]", "md_verbatim": "| 7 | ABC123 | ML | ABC123-001 | 7 | APPLE | 3 | WEEK 3 | 2015-09-22 |", "score": 0.76, "match_basis": "verbatim_token+domain_route:ML"}, {"md_atom_id": "md_dmML_ex_a042", "md_file": "knowledge_base/domains/ML/examples.md", "md_atom_type": "TABLE_ROW", "md_parent_section": "§ML.2 [Example 2]", "md_verbatim": "| 2 | ABC123 | ML | ABC123-001 | 2 | WHITE MILK | 1 | WEEK 1 | 2015-09-09 |", "score": 0.7176, "match_basis": "verbatim_token+domain_route:ML"}], "candidate_count": 5, "zero_candidate": false}
{"pdf_atom_id": "ig34_p0125_a001", "pdf_atom_type": "HEADING", "pdf_source": "SDTMIG v3.4 (no header footer).pdf", "pdf_page": 125, "pdf_parent_section": "§6.1 [Models for Interventions Domains]", "pdf_verbatim": "6.1.5 Procedures (PR)", "figure_ref": null, "candidates": [{"md_atom_id": "md_varindex_a1173", "md_file": "knowledge_base/VARIABLE_INDEX.md", "md_atom_type": "HEADING", "md_parent_section": "§ 二、领域专属变量（仅 1 个域，共 1499 个），按域分组", "md_verbatim": "### PR — Procedures (Interventions)", "score": 0.5526, "match_basis": "verbatim_token+global_search"}, {"md_atom_id": "md_varindex_a093", "md_file": "knowledge_base/VARIABLE_INDEX.md", "md_atom_type": "HEADING", "md_parent_section": "§ 二、领域专属变量（仅 1 个域，共 1499 个），按域分组", "md_verbatim": "### AG — Procedure Agents (Interventions)", "score": 0.4909, "match_basis": "verbatim_token+global_search"}, {"md_atom_id": "md_dmTV_ex_a042", "md_file": "knowledge_base/domains/TV/examples.md", "md_atom_type": "HEADING", "md_parent_section": "§TV.2 [Trial Visits Issues]", "md_verbatim": "### Visit Schedules Expressed with Ranges", "score": 0.3414, "match_basis": "verbatim_token+global_search"}, {"md_atom_id": "md_model01_a058", "md_file": "knowledge_base/model/01_concepts_and_terms.md", "md_atom_type": "HEADING", "md_parent_section": "§2.2 [Table Structure]", "md_verbatim": "## 2.2 Table Structure", "score": 0.3353, "match_basis": "verbatim_token+global_search"}, {"md_atom_id": "md_model03_a105", "md_file": "knowledge_base/model/03_special_purpose_domains.md", "md_atom_type": "HEADING", "md_parent_section": "§ Subject Repro Stages", "md_verbatim": "## Subject Repro Stages", "score": 0.3316, "match_basis": "verbatim_token+global_search"}], "candidate_count": 5, "zero_candidate": false}
{"pdf_atom_id": "ig34_p0125_a002", "pdf_atom_type": "HEADING", "pdf_source": "SDTMIG v3.4 (no header footer).pdf", "pdf_page": 125, "pdf_parent_section": "§6.1.5 [Procedures (PR)]", "pdf_verbatim": "PR – Description/Overview", "figure_ref": null, "candidates": [{"md_atom_id": "md_dmPR_assn_a001", "md_file": "knowledge_base/domains/PR/assumptions.md", "md_atom_type": "HEADING", "md_parent_section": "§PR [PR — Assumptions]", "md_verbatim": "# PR — Assumptions", "score": 0.4857, "match_basis": "verbatim_token+domain_route:PR"}, {"md_atom_id": "md_dmPR_ex_a001", "md_file": "knowledge_base/domains/PR/examples.md", "md_atom_type": "HEADING", "md_parent_section": "§PR [PR — Examples]", "md_verbatim": "# PR — Examples", "score": 0.4, "match_basis": "verbatim_token+domain_route:PR"}, {"md_atom_id": "md_dmPR_ex_a002", "md_file": "knowledge_base/domains/PR/examples.md", "md_atom_type": "HEADING", "md_parent_section": "§PR [PR — Examples]", "md_verbatim": "## Example 1", "score": 0.4, "match_basis": "verbatim_token+domain_route:PR"}, {"md_atom_id": "md_dmPR_ex_a011", "md_file": "knowledge_base/domains/PR/examples.md", "md_atom_type": "HEADING", "md_parent_section": "§PR [PR — Examples]", "md_verbatim": "## Example 2", "score": 0.4, "match_basis": "verbatim_token+domain_route:PR"}, {"md_atom_id": "md_dmPR_ex_a028", "md_file": "knowledge_base/domains/PR/examples.md", "md_atom_type": "HEADING", "md_parent_section": "§PR [PR — Examples]", "md_verbatim": "## Example 3", "score": 0.4, "match_basis": "verbatim_token+domain_route:PR"}], "candidate_count": 5, "zero_candidate": false}
{"pdf_atom_id": "ig34_p0125_a003", "pdf_atom_type": "SENTENCE", "pdf_source": "SDTMIG v3.4 (no header footer).pdf", "pdf_page": 125, "pdf_parent_section": "§6.1.5 [Procedures (PR)]", "pdf_verbatim": "An interventions domain that contains interventional activity intended to have diagnostic, preventive, therapeutic, or palliative effects.", "figure_ref": null, "candidates": [{"md_atom_id": "md_dmPR_ex_a013", "md_file": "knowledge_base/domains/PR/examples.md", "md_atom_type": "SENTENCE", "md_parent_section": "§PR.2 [Example 2]", "md_verbatim": "The start and end of the Holter monitoring procedure are represented in the PR domain.", "score": 0.4625, "match_basis": "verbatim_token+domain_route:PR"}, {"md_atom_id": "md_dmPR_ex_a029", "md_file": "knowledge_base/domains/PR/examples.md", "md_atom_type": "SENTENCE", "md_parent_section": "§PR.3 [Example 3]", "md_verbatim": "This example shows data for 3 subjects who had on-study radiotherapy. Dose, dose unit, location, and timing are represented. In this study, the sponsor chose to consider verbatim text in PRTRT as long text represented in mixed case. See Section 4.2.4, Text Case in Submitted Data.", "score": 0.4612, "match_basis": "verbatim_token+domain_route:PR"}, {"md_atom_id": "md_dmPR_ex_a003", "md_file": "knowledge_base/domains/PR/examples.md", "md_atom_type": "SENTENCE", "md_parent_section": "§PR.1 [Example 1]", "md_verbatim": "A procedures log CRF may collect verbatim values (procedure names) and dates performed. This example shows a subject who had 5 procedures collected and represented in the PR domain. In this study, the sponsor chose to consider verbatim text in PRTRT as long text represented in mixed case. See Section 4.2.4, Text Case in Submitted Data.", "score": 0.4559, "match_basis": "verbatim_token+domain_route:PR"}, {"md_atom_id": "md_dmPR_ex_a017", "md_file": "knowledge_base/domains/PR/examples.md", "md_atom_type": "SENTENCE", "md_parent_section": "§PR.2 [Example 2]", "md_verbatim": "The heart rate findings from the procedure are represented in the ECG Test Results (EG) domain.", "score": 0.4475, "match_basis": "verbatim_token+domain_route:PR"}, {"md_atom_id": "md_dmPR_ex_a023", "md_file": "knowledge_base/domains/PR/examples.md", "md_atom_type": "SENTENCE", "md_parent_section": "§PR.2 [Example 2]", "md_verbatim": "The relrec.xpt reflects a one-to-many dataset-level relationship between PR and EG using --LNKID.", "score": 0.4466, "match_basis": "verbatim_token+domain_route:PR"}], "candidate_count": 5, "zero_candidate": false}
{"pdf_atom_id": "ig34_p0125_a004", "pdf_atom_type": "HEADING", "pdf_source": "SDTMIG v3.4 (no header footer).pdf", "pdf_page": 125, "pdf_parent_section": "§6.1.5 [Procedures (PR)]", "pdf_verbatim": "PR – Specification", "figure_ref": null, "candidates": [{"md_atom_id": "md_dmPR_assn_a001", "md_file": "knowledge_base/domains/PR/assumptions.md", "md_atom_type": "HEADING", "md_parent_section": "§PR [PR — Assumptions]", "md_verbatim": "# PR — Assumptions", "score": 0.4667, "match_basis": "verbatim_token+domain_route:PR"}, {"md_atom_id": "md_dmPR_ex_a001", "md_file": "knowledge_base/domains/PR/examples.md", "md_atom_type": "HEADING", "md_parent_section": "§PR [PR — Examples]", "md_verbatim": "# PR — Examples", "score": 0.4, "match_basis": "verbatim_token+domain_route:PR"}, {"md_atom_id": "md_dmPR_ex_a002", "md_file": "knowledge_base/domains/PR/examples.md", "md_atom_type": "HEADING", "md_parent_section": "§PR [PR — Examples]", "md_verbatim": "## Example 1", "score": 0.4, "match_basis": "verbatim_token+domain_route:PR"}, {"md_atom_id": "md_dmPR_ex_a011", "md_file": "knowledge_base/domains/PR/examples.md", "md_atom_type": "HEADING", "md_parent_section": "§PR [PR — Examples]", "md_verbatim": "## Example 2", "score": 0.4, "match_basis": "verbatim_token+domain_route:PR"}, {"md_atom_id": "md_dmPR_ex_a028", "md_file": "knowledge_base/domains/PR/examples.md", "md_atom_type": "HEADING", "md_parent_section": "§PR [PR — Examples]", "md_verbatim": "## Example 3", "score": 0.4, "match_basis": "verbatim_token+domain_route:PR"}], "candidate_count": 5, "zero_candidate": false}
{"pdf_atom_id": "ig34_p0125_a005", "pdf_atom_type": "SENTENCE", "pdf_source": "SDTMIG v3.4 (no header footer).pdf", "pdf_page": 125, "pdf_parent_section": "§6.1.5 [Procedures (PR)]", "pdf_verbatim": "pr.xpt, Procedures — Interventions. One record per recorded procedure per occurrence per subject, Tabulation.", "figure_ref": null, "candidates": [{"md_atom_id": "md_dmPR_ex_a003", "md_file": "knowledge_base/domains/PR/examples.md", "md_atom_type": "SENTENCE", "md_parent_section": "§PR.1 [Example 1]", "md_verbatim": "A procedures log CRF may collect verbatim values (procedure names) and dates performed. This example shows a subject who had 5 procedures collected and represented in the PR domain. In this study, the sponsor chose to consider verbatim text in PRTRT as long text represented in mixed case. See Section 4.2.4, Text Case in Submitted Data.", "score": 0.4882, "match_basis": "verbatim_token+domain_route:PR"}, {"md_atom_id": "md_dmPR_ex_a013", "md_file": "knowledge_base/domains/PR/examples.md", "md_atom_type": "SENTENCE", "md_parent_section": "§PR.2 [Example 2]", "md_verbatim": "The start and end of the Holter monitoring procedure are represented in the PR domain.", "score": 0.488, "match_basis": "verbatim_token+domain_route:PR"}, {"md_atom_id": "md_dmPR_ex_a017", "md_file": "knowledge_base/domains/PR/examples.md", "md_atom_type": "SENTENCE", "md_parent_section": "§PR.2 [Example 2]", "md_verbatim": "The heart rate findings from the procedure are represented in the ECG Test Results (EG) domain.", "score": 0.4759, "match_basis": "verbatim_token+domain_route:PR"}, {"md_atom_id": "md_dmPR_ex_a023", "md_file": "knowledge_base/domains/PR/examples.md", "md_atom_type": "SENTENCE", "md_parent_section": "§PR.2 [Example 2]", "md_verbatim": "The relrec.xpt reflects a one-to-many dataset-level relationship between PR and EG using --LNKID.", "score": 0.4659, "match_basis": "verbatim_token+domain_route:PR"}, {"md_atom_id": "md_dmPR_ex_a012", "md_file": "knowledge_base/domains/PR/examples.md", "md_atom_type": "SENTENCE", "md_parent_section": "§PR.2 [Example 2]", "md_verbatim": "This example shows data from a 24-hour Holter monitor, an ambulatory electrocardiography device that records a continuous electrocardiographic rhythm pattern.", "score": 0.4579, "match_basis": "verbatim_token+domain_route:PR"}], "candidate_count": 5, "zero_candidate": false}
{"pdf_atom_id": "ig34_p0125_a006", "pdf_atom_type": "TABLE_HEADER", "pdf_source": "SDTMIG v3.4 (no header footer).pdf", "pdf_page": 125, "pdf_parent_section": "§6.1.5 [Procedures (PR)]", "pdf_verbatim": "Variable Name | Variable Label | Type | Controlled Terms, Codelist or Format | Role | CDISC Notes | Core", "figure_ref": null, "candidates": [{"md_atom_id": "md_dmPR_ex_a025", "md_file": "knowledge_base/domains/PR/examples.md", "md_atom_type": "TABLE_HEADER", "md_parent_section": "§PR.2 [Example 2]", "md_verbatim": "| Row | STUDYID | RDOMAIN | USUBJID | IDVAR | IDVARVAL | RELTYPE | RELID |\n|-----|---------|---------|---------|-------|----------|---------|-------|", "score": 0.4353, "match_basis": "verbatim_token+domain_route:PR"}, {"md_atom_id": "md_dmPR_ex_a015", "md_file": "knowledge_base/domains/PR/examples.md", "md_atom_type": "TABLE_HEADER", "md_parent_section": "§PR.2 [Example 2]", "md_verbatim": "| Row | STUDYID | DOMAIN | USUBJID | PRSEQ | PRLNKID | PRTRT | PRDECOD | PRPRESP | PROCCUR | PRSTDTC | PRENDTC |\n|-----|---------|--------|---------|-------|---------|-------|---------|---------|---------|---------|---------|", "score": 0.4067, "match_basis": "verbatim_token+domain_route:PR"}, {"md_atom_id": "md_dmPR_ex_a019", "md_file": "knowledge_base/domains/PR/examples.md", "md_atom_type": "TABLE_HEADER", "md_parent_section": "§PR.2 [Example 2]", "md_verbatim": "| Row | STUDYID | DOMAIN | USUBJID | EGSEQ | EGLNKID | EGTESTCD | EGTEST | EGORRES | EGORRESU | EGMETHOD | EGDTC | EGENDTC |\n|-----|---------|--------|---------|-------|---------|----------|--------|---------|----------|----------|-------|---------|", "score": 0.4067, "match_basis": "verbatim_token+domain_route:PR"}, {"md_atom_id": "md_dmPR_ex_a005", "md_file": "knowledge_base/domains/PR/examples.md", "md_atom_type": "TABLE_HEADER", "md_parent_section": "§PR.1 [Example 1]", "md_verbatim": "| Row | STUDYID | DOMAIN | USUBJID | PRSEQ | PRTRT | PRSTDTC | PRENDTC |\n|-----|---------|--------|---------|-------|-------|---------|---------|", "score": 0.4, "match_basis": "verbatim_token+domain_route:PR"}, {"md_atom_id": "md_dmPR_ex_a031", "md_file": "knowledge_base/domains/PR/examples.md", "md_atom_type": "TABLE_HEADER", "md_parent_section": "§PR.3 [Example 3]", "md_verbatim": "| Row | STUDYID | DOMAIN | USUBJID | PRSEQ | PRTRT | PRDOSE | PRDOSU | PRLOC | PRLAT | PRSTDTC | PRENDTC |\n|-----|---------|--------|---------|-------|-------|--------|--------|-------|-------|---------|---------|", "score": 0.4, "match_basis": "verbatim_token+domain_route:PR"}], "candidate_count": 5, "zero_candidate": false}
{"pdf_atom_id": "ig34_p0125_a007", "pdf_atom_type": "TABLE_ROW", "pdf_source": "SDTMIG v3.4 (no header footer).pdf", "pdf_page": 125, "pdf_parent_section": "§6.1.5 [Procedures (PR)]", "pdf_verbatim": "STUDYID | Study Identifier | Char | | Identifier | Unique identifier for a study. | Req", "figure_ref": null, "candidates": [{"md_atom_id": "md_dmPR_ex_a016", "md_file": "knowledge_base/domains/PR/examples.md", "md_atom_type": "TABLE_ROW", "md_parent_section": "§PR.2 [Example 2]", "md_verbatim": "| 1 | ABC123 | PR | ABC123-001 | 1 | 20110101_20110102 | 24-HOUR HOLTER MONITOR | HOLTER CONTINUOUS ECG RECORDING | Y | Y | 2011-01-01T08:00 | 2011-01-02T09:45 |", "score": 0.4094, "match_basis": "verbatim_token+domain_route:PR"}, {"md_atom_id": "md_dmPR_ex_a022", "md_file": "knowledge_base/domains/PR/examples.md", "md_atom_type": "TABLE_ROW", "md_parent_section": "§PR.2 [Example 2]", "md_verbatim": "| 3 | ABC123 | EG | ABC123-001 | 3 | 20110101_20110102 | EGHRMEAN | ECG Mean Heart Rate | 75 | beats/min | HOLTER CONTINUOUS ECG RECORDING | 2011-01-01T08:00 | 2011-01-02T09:45 |", "score": 0.4083, "match_basis": "verbatim_token+domain_route:PR"}, {"md_atom_id": "md_dmPR_ex_a020", "md_file": "knowledge_base/domains/PR/examples.md", "md_atom_type": "TABLE_ROW", "md_parent_section": "§PR.2 [Example 2]", "md_verbatim": "| 1 | ABC123 | EG | ABC123-001 | 1 | 20110101_20110102 | EGHRMIN | ECG Minimum Heart Rate | 70 | beats/min | HOLTER CONTINUOUS ECG RECORDING | 2011-01-01T08:00 | 2011-01-02T09:45 |", "score": 0.4081, "match_basis": "verbatim_token+domain_route:PR"}, {"md_atom_id": "md_dmPR_ex_a021", "md_file": "knowledge_base/domains/PR/examples.md", "md_atom_type": "TABLE_ROW", "md_parent_section": "§PR.2 [Example 2]", "md_verbatim": "| 2 | ABC123 | EG | ABC123-001 | 2 | 20110101_20110102 | EGHRMAX | ECG Maximum Heart Rate | 100 | beats/min | HOLTER CONTINUOUS ECG RECORDING | 2011-01-01T08:00 | 2011-01-02T09:45 |", "score": 0.4079, "match_basis": "verbatim_token+domain_route:PR"}, {"md_atom_id": "md_dmPR_ex_a005", "md_file": "knowledge_base/domains/PR/examples.md", "md_atom_type": "TABLE_HEADER", "md_parent_section": "§PR.1 [Example 1]", "md_verbatim": "| Row | STUDYID | DOMAIN | USUBJID | PRSEQ | PRTRT | PRSTDTC | PRENDTC |\n|-----|---------|--------|---------|-------|-------|---------|---------|", "score": 0.4067, "match_basis": "verbatim_token+domain_route:PR"}], "candidate_count": 5, "zero_candidate": false}
{"pdf_atom_id": "ig34_p0125_a008", "pdf_atom_type": "TABLE_ROW", "pdf_source": "SDTMIG v3.4 (no header footer).pdf", "pdf_page": 125, "pdf_parent_section": "§6.1.5 [Procedures (PR)]", "pdf_verbatim": "DOMAIN | Domain Abbreviation | Char | PR | Identifier | Two-character abbreviation for the domain. | Req", "figure_ref": null, "candidates": [{"md_atom_id": "md_dmPR_ex_a032", "md_file": "knowledge_base/domains/PR/examples.md", "md_atom_type": "TABLE_ROW", "md_parent_section": "§PR.3 [Example 3]", "md_verbatim": "| 1 | ABC123 | PR | ABC123-1001 | 1 | External beam radiation therapy | 70 | Gy | BREAST | RIGHT | 2011-06-01 | 2011-06-25 |", "score": 0.4689, "match_basis": "verbatim_token+domain_route:PR"}, {"md_atom_id": "md_dmPR_ex_a006", "md_file": "knowledge_base/domains/PR/examples.md", "md_atom_type": "TABLE_ROW", "md_parent_section": "§PR.1 [Example 1]", "md_verbatim": "| 1 | XYZ | PR | XYZ789-002 | 1 | Wisdom Teeth Extraction | 2010-06-08 | 2010-06-08 |", "score": 0.46, "match_basis": "verbatim_token+domain_route:PR"}, {"md_atom_id": "md_dmPR_ex_a008", "md_file": "knowledge_base/domains/PR/examples.md", "md_atom_type": "TABLE_ROW", "md_parent_section": "§PR.1 [Example 1]", "md_verbatim": "| 3 | XYZ | PR | XYZ789-002 | 3 | Prostate Examination | 2010-12-12 | 2010-12-12 |", "score": 0.4346, "match_basis": "verbatim_token+domain_route:PR"}, {"md_atom_id": "md_dmPR_ex_a033", "md_file": "knowledge_base/domains/PR/examples.md", "md_atom_type": "TABLE_ROW", "md_parent_section": "§PR.3 [Example 3]", "md_verbatim": "| 2 | ABC123 | PR | ABC123-2002 | 1 | Brachytherapy | 25 | Gy | PROSTATE | | 2011-07-15 | 2011-07-15 |", "score": 0.4214, "match_basis": "verbatim_token+domain_route:PR"}, {"md_atom_id": "md_dmPR_ex_a016", "md_file": "knowledge_base/domains/PR/examples.md", "md_atom_type": "TABLE_ROW", "md_parent_section": "§PR.2 [Example 2]", "md_verbatim": "| 1 | ABC123 | PR | ABC123-001 | 1 | 20110101_20110102 | 24-HOUR HOLTER MONITOR | HOLTER CONTINUOUS ECG RECORDING | Y | Y | 2011-01-01T08:00 | 2011-01-02T09:45 |", "score": 0.416, "match_basis": "verbatim_token+domain_route:PR"}], "candidate_count": 5, "zero_candidate": false}
{"pdf_atom_id": "ig34_p0125_a009", "pdf_atom_type": "TABLE_ROW", "pdf_source": "SDTMIG v3.4 (no header footer).pdf", "pdf_page": 125, "pdf_parent_section": "§6.1.5 [Procedures (PR)]", "pdf_verbatim": "USUBJID | Unique Subject Identifier | Char | | Identifier | Identifier used to uniquely identify a subject across all studies for all applications or submissions | Req", "figure_ref": null, "candidates": [{"md_atom_id": "md_dmPR_ex_a008", "md_file": "knowledge_base/domains/PR/examples.md", "md_atom_type": "TABLE_ROW", "md_parent_section": "§PR.1 [Example 1]", "md_verbatim": "| 3 | XYZ | PR | XYZ789-002 | 3 | Prostate Examination | 2010-12-12 | 2010-12-12 |", "score": 0.4329, "match_basis": "verbatim_token+domain_route:PR"}, {"md_atom_id": "md_dmPR_ex_a032", "md_file": "knowledge_base/domains/PR/examples.md", "md_atom_type": "TABLE_ROW", "md_parent_section": "§PR.3 [Example 3]", "md_verbatim": "| 1 | ABC123 | PR | ABC123-1001 | 1 | External beam radiation therapy | 70 | Gy | BREAST | RIGHT | 2011-06-01 | 2011-06-25 |", "score": 0.4207, "match_basis": "verbatim_token+domain_route:PR"}, {"md_atom_id": "md_dmPR_ex_a006", "md_file": "knowledge_base/domains/PR/examples.md", "md_atom_type": "TABLE_ROW", "md_parent_section": "§PR.1 [Example 1]", "md_verbatim": "| 1 | XYZ | PR | XYZ789-002 | 1 | Wisdom Teeth Extraction | 2010-06-08 | 2010-06-08 |", "score": 0.416, "match_basis": "verbatim_token+domain_route:PR"}, {"md_atom_id": "md_dmPR_ex_a033", "md_file": "knowledge_base/domains/PR/examples.md", "md_atom_type": "TABLE_ROW", "md_parent_section": "§PR.3 [Example 3]", "md_verbatim": "| 2 | ABC123 | PR | ABC123-2002 | 1 | Brachytherapy | 25 | Gy | PROSTATE | | 2011-07-15 | 2011-07-15 |", "score": 0.4076, "match_basis": "verbatim_token+domain_route:PR"}, {"md_atom_id": "md_dmPR_ex_a016", "md_file": "knowledge_base/domains/PR/examples.md", "md_atom_type": "TABLE_ROW", "md_parent_section": "§PR.2 [Example 2]", "md_verbatim": "| 1 | ABC123 | PR | ABC123-001 | 1 | 20110101_20110102 | 24-HOUR HOLTER MONITOR | HOLTER CONTINUOUS ECG RECORDING | Y | Y | 2011-01-01T08:00 | 2011-01-02T09:45 |", "score": 0.4061, "match_basis": "verbatim_token+domain_route:PR"}], "candidate_count": 5, "zero_candidate": false}
{"pdf_atom_id": "ig34_p0125_a010", "pdf_atom_type": "TABLE_ROW", "pdf_source": "SDTMIG v3.4 (no header footer).pdf", "pdf_page": 125, "pdf_parent_section": "§6.1.5 [Procedures (PR)]", "pdf_verbatim": "PRSEQ | Sequence Number | Num | | Identifier | Sequence number given to ensure uniqueness of subject records within a domain. May be any valid number. | Req", "figure_ref": null, "candidates": [{"md_atom_id": "md_dmPR_ex_a016", "md_file": "knowledge_base/domains/PR/examples.md", "md_atom_type": "TABLE_ROW", "md_parent_section": "§PR.2 [Example 2]", "md_verbatim": "| 1 | ABC123 | PR | ABC123-001 | 1 | 20110101_20110102 | 24-HOUR HOLTER MONITOR | HOLTER CONTINUOUS ECG RECORDING | Y | Y | 2011-01-01T08:00 | 2011-01-02T09:45 |", "score": 0.4313, "match_basis": "verbatim_token+domain_route:PR"}, {"md_atom_id": "md_dmPR_ex_a022", "md_file": "knowledge_base/domains/PR/examples.md", "md_atom_type": "TABLE_ROW", "md_parent_section": "§PR.2 [Example 2]", "md_verbatim": "| 3 | ABC123 | EG | ABC123-001 | 3 | 20110101_20110102 | EGHRMEAN | ECG Mean Heart Rate | 75 | beats/min | HOLTER CONTINUOUS ECG RECORDING | 2011-01-01T08:00 | 2011-01-02T09:45 |", "score": 0.4288, "match_basis": "verbatim_token+domain_route:PR"}, {"md_atom_id": "md_dmPR_ex_a020", "md_file": "knowledge_base/domains/PR/examples.md", "md_atom_type": "TABLE_ROW", "md_parent_section": "§PR.2 [Example 2]", "md_verbatim": "| 1 | ABC123 | EG | ABC123-001 | 1 | 20110101_20110102 | EGHRMIN | ECG Minimum Heart Rate | 70 | beats/min | HOLTER CONTINUOUS ECG RECORDING | 2011-01-01T08:00 | 2011-01-02T09:45 |", "score": 0.4283, "match_basis": "verbatim_token+domain_route:PR"}, {"md_atom_id": "md_dmPR_ex_a021", "md_file": "knowledge_base/domains/PR/examples.md", "md_atom_type": "TABLE_ROW", "md_parent_section": "§PR.2 [Example 2]", "md_verbatim": "| 2 | ABC123 | EG | ABC123-001 | 2 | 20110101_20110102 | EGHRMAX | ECG Maximum Heart Rate | 100 | beats/min | HOLTER CONTINUOUS ECG RECORDING | 2011-01-01T08:00 | 2011-01-02T09:45 |", "score": 0.4278, "match_basis": "verbatim_token+domain_route:PR"}, {"md_atom_id": "md_dmPR_ex_a005", "md_file": "knowledge_base/domains/PR/examples.md", "md_atom_type": "TABLE_HEADER", "md_parent_section": "§PR.1 [Example 1]", "md_verbatim": "| Row | STUDYID | DOMAIN | USUBJID | PRSEQ | PRTRT | PRSTDTC | PRENDTC |\n|-----|---------|--------|---------|-------|-------|---------|---------|", "score": 0.4101, "match_basis": "verbatim_token+domain_route:PR"}], "candidate_count": 5, "zero_candidate": false}
{"pdf_atom_id": "ig34_p0125_a011", "pdf_atom_type": "TABLE_ROW", "pdf_source": "SDTMIG v3.4 (no header footer).pdf", "pdf_page": 125, "pdf_parent_section": "§6.1.5 [Procedures (PR)]", "pdf_verbatim": "PRGRID | Group ID | Char | | Identifier | Used to tie together a block of related records in a subject in a domain. | Perm", "figure_ref": null, "candidates": [{"md_atom_id": "md_dmPR_ex_a022", "md_file": "knowledge_base/domains/PR/examples.md", "md_atom_type": "TABLE_ROW", "md_parent_section": "§PR.2 [Example 2]", "md_verbatim": "| 3 | ABC123 | EG | ABC123-001 | 3 | 20110101_20110102 | EGHRMEAN | ECG Mean Heart Rate | 75 | beats/min | HOLTER CONTINUOUS ECG RECORDING | 2011-01-01T08:00 | 2011-01-02T09:45 |", "score": 0.4375, "match_basis": "verbatim_token+domain_route:PR"}, {"md_atom_id": "md_dmPR_ex_a020", "md_file": "knowledge_base/domains/PR/examples.md", "md_atom_type": "TABLE_ROW", "md_parent_section": "§PR.2 [Example 2]", "md_verbatim": "| 1 | ABC123 | EG | ABC123-001 | 1 | 20110101_20110102 | EGHRMIN | ECG Minimum Heart Rate | 70 | beats/min | HOLTER CONTINUOUS ECG RECORDING | 2011-01-01T08:00 | 2011-01-02T09:45 |", "score": 0.4367, "match_basis": "verbatim_token+domain_route:PR"}, {"md_atom_id": "md_dmPR_ex_a021", "md_file": "knowledge_base/domains/PR/examples.md", "md_atom_type": "TABLE_ROW", "md_parent_section": "§PR.2 [Example 2]", "md_verbatim": "| 2 | ABC123 | EG | ABC123-001 | 2 | 20110101_20110102 | EGHRMAX | ECG Maximum Heart Rate | 100 | beats/min | HOLTER CONTINUOUS ECG RECORDING | 2011-01-01T08:00 | 2011-01-02T09:45 |", "score": 0.436, "match_basis": "verbatim_token+domain_route:PR"}, {"md_atom_id": "md_dmPR_ex_a016", "md_file": "knowledge_base/domains/PR/examples.md", "md_atom_type": "TABLE_ROW", "md_parent_section": "§PR.2 [Example 2]", "md_verbatim": "| 1 | ABC123 | PR | ABC123-001 | 1 | 20110101_20110102 | 24-HOUR HOLTER MONITOR | HOLTER CONTINUOUS ECG RECORDING | Y | Y | 2011-01-01T08:00 | 2011-01-02T09:45 |", "score": 0.4337, "match_basis": "verbatim_token+domain_route:PR"}, {"md_atom_id": "md_dmPR_ex_a033", "md_file": "knowledge_base/domains/PR/examples.md", "md_atom_type": "TABLE_ROW", "md_parent_section": "§PR.3 [Example 3]", "md_verbatim": "| 2 | ABC123 | PR | ABC123-2002 | 1 | Brachytherapy | 25 | Gy | PROSTATE | | 2011-07-15 | 2011-07-15 |", "score": 0.425, "match_basis": "verbatim_token+domain_route:PR"}], "candidate_count": 5, "zero_candidate": false}
{"pdf_atom_id": "ig34_p0125_a012", "pdf_atom_type": "TABLE_ROW", "pdf_source": "SDTMIG v3.4 (no header footer).pdf", "pdf_page": 125, "pdf_parent_section": "§6.1.5 [Procedures (PR)]", "pdf_verbatim": "PRSPID | Sponsor-Defined Identifier | Char | | Identifier | Sponsor-defined identifier. Example: preprinted line identifier on a CRF; record identifier defined in the sponsor's operational database. | Perm", "figure_ref": null, "candidates": [{"md_atom_id": "md_dmPR_ex_a032", "md_file": "knowledge_base/domains/PR/examples.md", "md_atom_type": "TABLE_ROW", "md_parent_section": "§PR.3 [Example 3]", "md_verbatim": "| 1 | ABC123 | PR | ABC123-1001 | 1 | External beam radiation therapy | 70 | Gy | BREAST | RIGHT | 2011-06-01 | 2011-06-25 |", "score": 0.4404, "match_basis": "verbatim_token+domain_route:PR"}, {"md_atom_id": "md_dmPR_ex_a008", "md_file": "knowledge_base/domains/PR/examples.md", "md_atom_type": "TABLE_ROW", "md_parent_section": "§PR.1 [Example 1]", "md_verbatim": "| 3 | XYZ | PR | XYZ789-002 | 3 | Prostate Examination | 2010-12-12 | 2010-12-12 |", "score": 0.439, "match_basis": "verbatim_token+domain_route:PR"}, {"md_atom_id": "md_dmPR_ex_a022", "md_file": "knowledge_base/domains/PR/examples.md", "md_atom_type": "TABLE_ROW", "md_parent_section": "§PR.2 [Example 2]", "md_verbatim": "| 3 | ABC123 | EG | ABC123-001 | 3 | 20110101_20110102 | EGHRMEAN | ECG Mean Heart Rate | 75 | beats/min | HOLTER CONTINUOUS ECG RECORDING | 2011-01-01T08:00 | 2011-01-02T09:45 |", "score": 0.434, "match_basis": "verbatim_token+domain_route:PR"}, {"md_atom_id": "md_dmPR_ex_a020", "md_file": "knowledge_base/domains/PR/examples.md", "md_atom_type": "TABLE_ROW", "md_parent_section": "§PR.2 [Example 2]", "md_verbatim": "| 1 | ABC123 | EG | ABC123-001 | 1 | 20110101_20110102 | EGHRMIN | ECG Minimum Heart Rate | 70 | beats/min | HOLTER CONTINUOUS ECG RECORDING | 2011-01-01T08:00 | 2011-01-02T09:45 |", "score": 0.4333, "match_basis": "verbatim_token+domain_route:PR"}, {"md_atom_id": "md_dmPR_ex_a021", "md_file": "knowledge_base/domains/PR/examples.md", "md_atom_type": "TABLE_ROW", "md_parent_section": "§PR.2 [Example 2]", "md_verbatim": "| 2 | ABC123 | EG | ABC123-001 | 2 | 20110101_20110102 | EGHRMAX | ECG Maximum Heart Rate | 100 | beats/min | HOLTER CONTINUOUS ECG RECORDING | 2011-01-01T08:00 | 2011-01-02T09:45 |", "score": 0.4327, "match_basis": "verbatim_token+domain_route:PR"}], "candidate_count": 5, "zero_candidate": false}
{"pdf_atom_id": "ig34_p0125_a013", "pdf_atom_type": "TABLE_ROW", "pdf_source": "SDTMIG v3.4 (no header footer).pdf", "pdf_page": 125, "pdf_parent_section": "§6.1.5 [Procedures (PR)]", "pdf_verbatim": "PRLNKID | Link ID | Char | | Identifier | Identifier used to maintain relationships between records. | Perm", "figure_ref": null, "candidates": [{"md_atom_id": "md_dmPR_ex_a026", "md_file": "knowledge_base/domains/PR/examples.md", "md_atom_type": "TABLE_ROW", "md_parent_section": "§PR.2 [Example 2]", "md_verbatim": "| 1 | ABC123 | PR | | PRLNKID | | ONE | 1 |", "score": 0.4577, "match_basis": "verbatim_token+domain_route:PR"}, {"md_atom_id": "md_dmPR_ex_a016", "md_file": "knowledge_base/domains/PR/examples.md", "md_atom_type": "TABLE_ROW", "md_parent_section": "§PR.2 [Example 2]", "md_verbatim": "| 1 | ABC123 | PR | ABC123-001 | 1 | 20110101_20110102 | 24-HOUR HOLTER MONITOR | HOLTER CONTINUOUS ECG RECORDING | Y | Y | 2011-01-01T08:00 | 2011-01-02T09:45 |", "score": 0.4349, "match_basis": "verbatim_token+domain_route:PR"}, {"md_atom_id": "md_dmPR_ex_a027", "md_file": "knowledge_base/domains/PR/examples.md", "md_atom_type": "TABLE_ROW", "md_parent_section": "§PR.2 [Example 2]", "md_verbatim": "| 2 | ABC123 | EG | | EGLNKID | | MANY | 1 |", "score": 0.4327, "match_basis": "verbatim_token+domain_route:PR"}, {"md_atom_id": "md_dmPR_ex_a022", "md_file": "knowledge_base/domains/PR/examples.md", "md_atom_type": "TABLE_ROW", "md_parent_section": "§PR.2 [Example 2]", "md_verbatim": "| 3 | ABC123 | EG | ABC123-001 | 3 | 20110101_20110102 | EGHRMEAN | ECG Mean Heart Rate | 75 | beats/min | HOLTER CONTINUOUS ECG RECORDING | 2011-01-01T08:00 | 2011-01-02T09:45 |", "score": 0.4319, "match_basis": "verbatim_token+domain_route:PR"}, {"md_atom_id": "md_dmPR_ex_a020", "md_file": "knowledge_base/domains/PR/examples.md", "md_atom_type": "TABLE_ROW", "md_parent_section": "§PR.2 [Example 2]", "md_verbatim": "| 1 | ABC123 | EG | ABC123-001 | 1 | 20110101_20110102 | EGHRMIN | ECG Minimum Heart Rate | 70 | beats/min | HOLTER CONTINUOUS ECG RECORDING | 2011-01-01T08:00 | 2011-01-02T09:45 |", "score": 0.4313, "match_basis": "verbatim_token+domain_route:PR"}], "candidate_count": 5, "zero_candidate": false}
{"pdf_atom_id": "ig34_p0125_a014", "pdf_atom_type": "TABLE_ROW", "pdf_source": "SDTMIG v3.4 (no header footer).pdf", "pdf_page": 125, "pdf_parent_section": "§6.1.5 [Procedures (PR)]", "pdf_verbatim": "PRLNKGRP | Link Group ID | Char | | Identifier | Used to facilitate identification of relationships between records. | Perm", "figure_ref": null, "candidates": [{"md_atom_id": "md_dmPR_ex_a008", "md_file": "knowledge_base/domains/PR/examples.md", "md_atom_type": "TABLE_ROW", "md_parent_section": "§PR.1 [Example 1]", "md_verbatim": "| 3 | XYZ | PR | XYZ789-002 | 3 | Prostate Examination | 2010-12-12 | 2010-12-12 |", "score": 0.4405, "match_basis": "verbatim_token+domain_route:PR"}, {"md_atom_id": "md_dmPR_ex_a022", "md_file": "knowledge_base/domains/PR/examples.md", "md_atom_type": "TABLE_ROW", "md_parent_section": "§PR.2 [Example 2]", "md_verbatim": "| 3 | ABC123 | EG | ABC123-001 | 3 | 20110101_20110102 | EGHRMEAN | ECG Mean Heart Rate | 75 | beats/min | HOLTER CONTINUOUS ECG RECORDING | 2011-01-01T08:00 | 2011-01-02T09:45 |", "score": 0.435, "match_basis": "verbatim_token+domain_route:PR"}, {"md_atom_id": "md_dmPR_ex_a020", "md_file": "knowledge_base/domains/PR/examples.md", "md_atom_type": "TABLE_ROW", "md_parent_section": "§PR.2 [Example 2]", "md_verbatim": "| 1 | ABC123 | EG | ABC123-001 | 1 | 20110101_20110102 | EGHRMIN | ECG Minimum Heart Rate | 70 | beats/min | HOLTER CONTINUOUS ECG RECORDING | 2011-01-01T08:00 | 2011-01-02T09:45 |", "score": 0.4343, "match_basis": "verbatim_token+domain_route:PR"}, {"md_atom_id": "md_dmPR_ex_a021", "md_file": "knowledge_base/domains/PR/examples.md", "md_atom_type": "TABLE_ROW", "md_parent_section": "§PR.2 [Example 2]", "md_verbatim": "| 2 | ABC123 | EG | ABC123-001 | 2 | 20110101_20110102 | EGHRMAX | ECG Maximum Heart Rate | 100 | beats/min | HOLTER CONTINUOUS ECG RECORDING | 2011-01-01T08:00 | 2011-01-02T09:45 |", "score": 0.4336, "match_basis": "verbatim_token+domain_route:PR"}, {"md_atom_id": "md_dmPR_ex_a016", "md_file": "knowledge_base/domains/PR/examples.md", "md_atom_type": "TABLE_ROW", "md_parent_section": "§PR.2 [Example 2]", "md_verbatim": "| 1 | ABC123 | PR | ABC123-001 | 1 | 20110101_20110102 | 24-HOUR HOLTER MONITOR | HOLTER CONTINUOUS ECG RECORDING | Y | Y | 2011-01-01T08:00 | 2011-01-02T09:45 |", "score": 0.4313, "match_basis": "verbatim_token+domain_route:PR"}], "candidate_count": 5, "zero_candidate": false}
{"pdf_atom_id": "ig34_p0125_a015", "pdf_atom_type": "TABLE_ROW", "pdf_source": "SDTMIG v3.4 (no header footer).pdf", "pdf_page": 125, "pdf_parent_section": "§6.1.5 [Procedures (PR)]", "pdf_verbatim": "PRTRT | Reported Name of Procedure | Char | | Topic | Name of procedure performed, either preprinted or collected on a CRF. | Req", "figure_ref": null, "candidates": [{"md_atom_id": "md_dmPR_ex_a033", "md_file": "knowledge_base/domains/PR/examples.md", "md_atom_type": "TABLE_ROW", "md_parent_section": "§PR.3 [Example 3]", "md_verbatim": "| 2 | ABC123 | PR | ABC123-2002 | 1 | Brachytherapy | 25 | Gy | PROSTATE | | 2011-07-15 | 2011-07-15 |", "score": 0.4257, "match_basis": "verbatim_token+domain_route:PR"}, {"md_atom_id": "md_dmPR_ex_a034", "md_file": "knowledge_base/domains/PR/examples.md", "md_atom_type": "TABLE_ROW", "md_parent_section": "§PR.3 [Example 3]", "md_verbatim": "| 3 | ABC123 | PR | ABC123-3003 | 1 | Radiotherapy | 300 | cGy | BONE | | 2011-08-19 | 2011-08-22 |", "score": 0.4179, "match_basis": "verbatim_token+domain_route:PR"}, {"md_atom_id": "md_dmPR_ex_a032", "md_file": "knowledge_base/domains/PR/examples.md", "md_atom_type": "TABLE_ROW", "md_parent_section": "§PR.3 [Example 3]", "md_verbatim": "| 1 | ABC123 | PR | ABC123-1001 | 1 | External beam radiation therapy | 70 | Gy | BREAST | RIGHT | 2011-06-01 | 2011-06-25 |", "score": 0.4148, "match_basis": "verbatim_token+domain_route:PR"}, {"md_atom_id": "md_dmPR_ex_a008", "md_file": "knowledge_base/domains/PR/examples.md", "md_atom_type": "TABLE_ROW", "md_parent_section": "§PR.1 [Example 1]", "md_verbatim": "| 3 | XYZ | PR | XYZ789-002 | 3 | Prostate Examination | 2010-12-12 | 2010-12-12 |", "score": 0.4087, "match_basis": "verbatim_token+domain_route:PR"}, {"md_atom_id": "md_dmPR_ex_a022", "md_file": "knowledge_base/domains/PR/examples.md", "md_atom_type": "TABLE_ROW", "md_parent_section": "§PR.2 [Example 2]", "md_verbatim": "| 3 | ABC123 | EG | ABC123-001 | 3 | 20110101_20110102 | EGHRMEAN | ECG Mean Heart Rate | 75 | beats/min | HOLTER CONTINUOUS ECG RECORDING | 2011-01-01T08:00 | 2011-01-02T09:45 |", "score": 0.4061, "match_basis": "verbatim_token+domain_route:PR"}], "candidate_count": 5, "zero_candidate": false}
{"pdf_atom_id": "ig34_p0125_a016", "pdf_atom_type": "TABLE_ROW", "pdf_source": "SDTMIG v3.4 (no header footer).pdf", "pdf_page": 125, "pdf_parent_section": "§6.1.5 [Procedures (PR)]", "pdf_verbatim": "PRDECOD | Standardized Procedure Name | Char | (PROCEDURE) | Synonym Qualifier | Standardized or dictionary-derived name of PRTRT. If the codelist \"PROCEDURE\" is not used, the sponsor is expected to provide the dictionary name and version used to map the terms in the external codelist element in the Define-XML document. If an intervention, the sponsor may not have a value. | Perm", "figure_ref": null, "candidates": [{"md_atom_id": "md_dmPR_ex_a032", "md_file": "knowledge_base/domains/PR/examples.md", "md_atom_type": "TABLE_ROW", "md_parent_section": "§PR.3 [Example 3]", "md_verbatim": "| 1 | ABC123 | PR | ABC123-1001 | 1 | External beam radiation therapy | 70 | Gy | BREAST | RIGHT | 2011-06-01 | 2011-06-25 |", "score": 0.4375, "match_basis": "verbatim_token+domain_route:PR"}, {"md_atom_id": "md_dmPR_ex_a006", "md_file": "knowledge_base/domains/PR/examples.md", "md_atom_type": "TABLE_ROW", "md_parent_section": "§PR.1 [Example 1]", "md_verbatim": "| 1 | XYZ | PR | XYZ789-002 | 1 | Wisdom Teeth Extraction | 2010-06-08 | 2010-06-08 |", "score": 0.4176, "match_basis": "verbatim_token+domain_route:PR"}, {"md_atom_id": "md_dmPR_ex_a008", "md_file": "knowledge_base/domains/PR/examples.md", "md_atom_type": "TABLE_ROW", "md_parent_section": "§PR.1 [Example 1]", "md_verbatim": "| 3 | XYZ | PR | XYZ789-002 | 3 | Prostate Examination | 2010-12-12 | 2010-12-12 |", "score": 0.4176, "match_basis": "verbatim_token+domain_route:PR"}, {"md_atom_id": "md_dmPR_ex_a016", "md_file": "knowledge_base/domains/PR/examples.md", "md_atom_type": "TABLE_ROW", "md_parent_section": "§PR.2 [Example 2]", "md_verbatim": "| 1 | ABC123 | PR | ABC123-001 | 1 | 20110101_20110102 | 24-HOUR HOLTER MONITOR | HOLTER CONTINUOUS ECG RECORDING | Y | Y | 2011-01-01T08:00 | 2011-01-02T09:45 |", "score": 0.4152, "match_basis": "verbatim_token+domain_route:PR"}, {"md_atom_id": "md_dmPR_ex_a022", "md_file": "knowledge_base/domains/PR/examples.md", "md_atom_type": "TABLE_ROW", "md_parent_section": "§PR.2 [Example 2]", "md_verbatim": "| 3 | ABC123 | EG | ABC123-001 | 3 | 20110101_20110102 | EGHRMEAN | ECG Mean Heart Rate | 75 | beats/min | HOLTER CONTINUOUS ECG RECORDING | 2011-01-01T08:00 | 2011-01-02T09:45 |", "score": 0.4145, "match_basis": "verbatim_token+domain_route:PR"}], "candidate_count": 5, "zero_candidate": false}
{"pdf_atom_id": "ig34_p0125_a017", "pdf_atom_type": "TABLE_ROW", "pdf_source": "SDTMIG v3.4 (no header footer).pdf", "pdf_page": 125, "pdf_parent_section": "§6.1.5 [Procedures (PR)]", "pdf_verbatim": "PRCAT | Category | Char | | Grouping Qualifier | Used to define a category of procedure values. | Perm", "figure_ref": null, "candidates": [{"md_atom_id": "md_dmPR_ex_a008", "md_file": "knowledge_base/domains/PR/examples.md", "md_atom_type": "TABLE_ROW", "md_parent_section": "§PR.1 [Example 1]", "md_verbatim": "| 3 | XYZ | PR | XYZ789-002 | 3 | Prostate Examination | 2010-12-12 | 2010-12-12 |", "score": 0.4194, "match_basis": "verbatim_token+domain_route:PR"}, {"md_atom_id": "md_dmPR_ex_a033", "md_file": "knowledge_base/domains/PR/examples.md", "md_atom_type": "TABLE_ROW", "md_parent_section": "§PR.3 [Example 3]", "md_verbatim": "| 2 | ABC123 | PR | ABC123-2002 | 1 | Brachytherapy | 25 | Gy | PROSTATE | | 2011-07-15 | 2011-07-15 |", "score": 0.4185, "match_basis": "verbatim_token+domain_route:PR"}, {"md_atom_id": "md_dmPR_ex_a022", "md_file": "knowledge_base/domains/PR/examples.md", "md_atom_type": "TABLE_ROW", "md_parent_section": "§PR.2 [Example 2]", "md_verbatim": "| 3 | ABC123 | EG | ABC123-001 | 3 | 20110101_20110102 | EGHRMEAN | ECG Mean Heart Rate | 75 | beats/min | HOLTER CONTINUOUS ECG RECORDING | 2011-01-01T08:00 | 2011-01-02T09:45 |", "score": 0.413, "match_basis": "verbatim_token+domain_route:PR"}, {"md_atom_id": "md_dmPR_ex_a020", "md_file": "knowledge_base/domains/PR/examples.md", "md_atom_type": "TABLE_ROW", "md_parent_section": "§PR.2 [Example 2]", "md_verbatim": "| 1 | ABC123 | EG | ABC123-001 | 1 | 20110101_20110102 | EGHRMIN | ECG Minimum Heart Rate | 70 | beats/min | HOLTER CONTINUOUS ECG RECORDING | 2011-01-01T08:00 | 2011-01-02T09:45 |", "score": 0.4128, "match_basis": "verbatim_token+domain_route:PR"}, {"md_atom_id": "md_dmPR_ex_a021", "md_file": "knowledge_base/domains/PR/examples.md", "md_atom_type": "TABLE_ROW", "md_parent_section": "§PR.2 [Example 2]", "md_verbatim": "| 2 | ABC123 | EG | ABC123-001 | 2 | 20110101_20110102 | EGHRMAX | ECG Maximum Heart Rate | 100 | beats/min | HOLTER CONTINUOUS ECG RECORDING | 2011-01-01T08:00 | 2011-01-02T09:45 |", "score": 0.4125, "match_basis": "verbatim_token+domain_route:PR"}], "candidate_count": 5, "zero_candidate": false}
{"pdf_atom_id": "ig34_p0125_a018", "pdf_atom_type": "TABLE_ROW", "pdf_source": "SDTMIG v3.4 (no header footer).pdf", "pdf_page": 125, "pdf_parent_section": "§6.1.5 [Procedures (PR)]", "pdf_verbatim": "PRSCAT | Subcategory | Char | * | Grouping Qualifier | Used to define a further categorization of PRCAT values. | Perm", "figure_ref": null, "candidates": [{"md_atom_id": "md_dmPR_ex_a032", "md_file": "knowledge_base/domains/PR/examples.md", "md_atom_type": "TABLE_ROW", "md_parent_section": "§PR.3 [Example 3]", "md_verbatim": "| 1 | ABC123 | PR | ABC123-1001 | 1 | External beam radiation therapy | 70 | Gy | BREAST | RIGHT | 2011-06-01 | 2011-06-25 |", "score": 0.4361, "match_basis": "verbatim_token+domain_route:PR"}, {"md_atom_id": "md_dmPR_ex_a008", "md_file": "knowledge_base/domains/PR/examples.md", "md_atom_type": "TABLE_ROW", "md_parent_section": "§PR.1 [Example 1]", "md_verbatim": "| 3 | XYZ | PR | XYZ789-002 | 3 | Prostate Examination | 2010-12-12 | 2010-12-12 |", "score": 0.4338, "match_basis": "verbatim_token+domain_route:PR"}, {"md_atom_id": "md_dmPR_ex_a033", "md_file": "knowledge_base/domains/PR/examples.md", "md_atom_type": "TABLE_ROW", "md_parent_section": "§PR.3 [Example 3]", "md_verbatim": "| 2 | ABC123 | PR | ABC123-2002 | 1 | Brachytherapy | 25 | Gy | PROSTATE | | 2011-07-15 | 2011-07-15 |", "score": 0.424, "match_basis": "verbatim_token+domain_route:PR"}, {"md_atom_id": "md_dmPR_ex_a034", "md_file": "knowledge_base/domains/PR/examples.md", "md_atom_type": "TABLE_ROW", "md_parent_section": "§PR.3 [Example 3]", "md_verbatim": "| 3 | ABC123 | PR | ABC123-3003 | 1 | Radiotherapy | 300 | cGy | BONE | | 2011-08-19 | 2011-08-22 |", "score": 0.4167, "match_basis": "verbatim_token+domain_route:PR"}, {"md_atom_id": "md_dmPR_ex_a006", "md_file": "knowledge_base/domains/PR/examples.md", "md_atom_type": "TABLE_ROW", "md_parent_section": "§PR.1 [Example 1]", "md_verbatim": "| 1 | XYZ | PR | XYZ789-002 | 1 | Wisdom Teeth Extraction | 2010-06-08 | 2010-06-08 |", "score": 0.4164, "match_basis": "verbatim_token+domain_route:PR"}], "candidate_count": 5, "zero_candidate": false}
{"pdf_atom_id": "ig34_p0125_a019", "pdf_atom_type": "TABLE_ROW", "pdf_source": "SDTMIG v3.4 (no header footer).pdf", "pdf_page": 125, "pdf_parent_section": "§6.1.5 [Procedures (PR)]", "pdf_verbatim": "PRPRESP | Pre-specified | Char | (NY) | Variable Qualifier | Used when a specific procedure is pre-specified on a CRF. Values should be \"Y\" or null. | Perm", "figure_ref": null, "candidates": [{"md_atom_id": "md_dmPR_ex_a007", "md_file": "knowledge_base/domains/PR/examples.md", "md_atom_type": "TABLE_ROW", "md_parent_section": "§PR.1 [Example 1]", "md_verbatim": "| 2 | XYZ | PR | XYZ789-002 | 2 | Reset Broken Arm | 2010-08-06 | 2010-08-06 |", "score": 0.4094, "match_basis": "verbatim_token+domain_route:PR"}, {"md_atom_id": "md_dmPR_ex_a008", "md_file": "knowledge_base/domains/PR/examples.md", "md_atom_type": "TABLE_ROW", "md_parent_section": "§PR.1 [Example 1]", "md_verbatim": "| 3 | XYZ | PR | XYZ789-002 | 3 | Prostate Examination | 2010-12-12 | 2010-12-12 |", "score": 0.4085, "match_basis": "verbatim_token+domain_route:PR"}, {"md_atom_id": "md_dmPR_ex_a033", "md_file": "knowledge_base/domains/PR/examples.md", "md_atom_type": "TABLE_ROW", "md_parent_section": "§PR.3 [Example 3]", "md_verbatim": "| 2 | ABC123 | PR | ABC123-2002 | 1 | Brachytherapy | 25 | Gy | PROSTATE | | 2011-07-15 | 2011-07-15 |", "score": 0.4081, "match_basis": "verbatim_token+domain_route:PR"}, {"md_atom_id": "md_dmPR_ex_a016", "md_file": "knowledge_base/domains/PR/examples.md", "md_atom_type": "TABLE_ROW", "md_parent_section": "§PR.2 [Example 2]", "md_verbatim": "| 1 | ABC123 | PR | ABC123-001 | 1 | 20110101_20110102 | 24-HOUR HOLTER MONITOR | HOLTER CONTINUOUS ECG RECORDING | Y | Y | 2011-01-01T08:00 | 2011-01-02T09:45 |", "score": 0.4065, "match_basis": "verbatim_token+domain_route:PR"}, {"md_atom_id": "md_dmPR_ex_a006", "md_file": "knowledge_base/domains/PR/examples.md", "md_atom_type": "TABLE_ROW", "md_parent_section": "§PR.1 [Example 1]", "md_verbatim": "| 1 | XYZ | PR | XYZ789-002 | 1 | Wisdom Teeth Extraction | 2010-06-08 | 2010-06-08 |", "score": 0.4, "match_basis": "verbatim_token+domain_route:PR"}], "candidate_count": 5, "zero_candidate": false}
{"pdf_atom_id": "ig34_p0125_a020", "pdf_atom_type": "TABLE_ROW", "pdf_source": "SDTMIG v3.4 (no header footer).pdf", "pdf_page": 125, "pdf_parent_section": "§6.1.5 [Procedures (PR)]", "pdf_verbatim": "PROCCUR | Occurrence | Char | (NY) | Record Qualifier | Used to record whether a prespecified procedure occurred when information about the occurrence of a specific procedure is solicited. | Perm", "figure_ref": null, "candidates": [{"md_atom_id": "md_dmPR_ex_a032", "md_file": "knowledge_base/domains/PR/examples.md", "md_atom_type": "TABLE_ROW", "md_parent_section": "§PR.3 [Example 3]", "md_verbatim": "| 1 | ABC123 | PR | ABC123-1001 | 1 | External beam radiation therapy | 70 | Gy | BREAST | RIGHT | 2011-06-01 | 2011-06-25 |", "score": 0.4309, "match_basis": "verbatim_token+domain_route:PR"}, {"md_atom_id": "md_dmPR_ex_a008", "md_file": "knowledge_base/domains/PR/examples.md", "md_atom_type": "TABLE_ROW", "md_parent_section": "§PR.1 [Example 1]", "md_verbatim": "| 3 | XYZ | PR | XYZ789-002 | 3 | Prostate Examination | 2010-12-12 | 2010-12-12 |", "score": 0.4282, "match_basis": "verbatim_token+domain_route:PR"}, {"md_atom_id": "md_dmPR_ex_a021", "md_file": "knowledge_base/domains/PR/examples.md", "md_atom_type": "TABLE_ROW", "md_parent_section": "§PR.2 [Example 2]", "md_verbatim": "| 2 | ABC123 | EG | ABC123-001 | 2 | 20110101_20110102 | EGHRMAX | ECG Maximum Heart Rate | 100 | beats/min | HOLTER CONTINUOUS ECG RECORDING | 2011-01-01T08:00 | 2011-01-02T09:45 |", "score": 0.4254, "match_basis": "verbatim_token+domain_route:PR"}, {"md_atom_id": "md_dmPR_ex_a016", "md_file": "knowledge_base/domains/PR/examples.md", "md_atom_type": "TABLE_ROW", "md_parent_section": "§PR.2 [Example 2]", "md_verbatim": "| 1 | ABC123 | PR | ABC123-001 | 1 | 20110101_20110102 | 24-HOUR HOLTER MONITOR | HOLTER CONTINUOUS ECG RECORDING | Y | Y | 2011-01-01T08:00 | 2011-01-02T09:45 |", "score": 0.4224, "match_basis": "verbatim_token+domain_route:PR"}, {"md_atom_id": "md_dmPR_ex_a006", "md_file": "knowledge_base/domains/PR/examples.md", "md_atom_type": "TABLE_ROW", "md_parent_section": "§PR.1 [Example 1]", "md_verbatim": "| 1 | XYZ | PR | XYZ789-002 | 1 | Wisdom Teeth Extraction | 2010-06-08 | 2010-06-08 |", "score": 0.4209, "match_basis": "verbatim_token+domain_route:PR"}], "candidate_count": 5, "zero_candidate": false}
{"pdf_atom_id": "ig34_p0125_a021", "pdf_atom_type": "TABLE_ROW", "pdf_source": "SDTMIG v3.4 (no header footer).pdf", "pdf_page": 125, "pdf_parent_section": "§6.1.5 [Procedures (PR)]", "pdf_verbatim": "PRINDC | Indication | Char | | Record Qualifier | Indication for the procedure. Used only if the procedure result is performed. | Perm", "figure_ref": null, "candidates": [{"md_atom_id": "md_dmPR_ex_a008", "md_file": "knowledge_base/domains/PR/examples.md", "md_atom_type": "TABLE_ROW", "md_parent_section": "§PR.1 [Example 1]", "md_verbatim": "| 3 | XYZ | PR | XYZ789-002 | 3 | Prostate Examination | 2010-12-12 | 2010-12-12 |", "score": 0.4364, "match_basis": "verbatim_token+domain_route:PR"}, {"md_atom_id": "md_dmPR_ex_a022", "md_file": "knowledge_base/domains/PR/examples.md", "md_atom_type": "TABLE_ROW", "md_parent_section": "§PR.2 [Example 2]", "md_verbatim": "| 3 | ABC123 | EG | ABC123-001 | 3 | 20110101_20110102 | EGHRMEAN | ECG Mean Heart Rate | 75 | beats/min | HOLTER CONTINUOUS ECG RECORDING | 2011-01-01T08:00 | 2011-01-02T09:45 |", "score": 0.4316, "match_basis": "verbatim_token+domain_route:PR"}, {"md_atom_id": "md_dmPR_ex_a032", "md_file": "knowledge_base/domains/PR/examples.md", "md_atom_type": "TABLE_ROW", "md_parent_section": "§PR.3 [Example 3]", "md_verbatim": "| 1 | ABC123 | PR | ABC123-1001 | 1 | External beam radiation therapy | 70 | Gy | BREAST | RIGHT | 2011-06-01 | 2011-06-25 |", "score": 0.4304, "match_basis": "verbatim_token+domain_route:PR"}, {"md_atom_id": "md_dmPR_ex_a016", "md_file": "knowledge_base/domains/PR/examples.md", "md_atom_type": "TABLE_ROW", "md_parent_section": "§PR.2 [Example 2]", "md_verbatim": "| 1 | ABC123 | PR | ABC123-001 | 1 | 20110101_20110102 | 24-HOUR HOLTER MONITOR | HOLTER CONTINUOUS ECG RECORDING | Y | Y | 2011-01-01T08:00 | 2011-01-02T09:45 |", "score": 0.4273, "match_basis": "verbatim_token+domain_route:PR"}, {"md_atom_id": "md_dmPR_ex_a020", "md_file": "knowledge_base/domains/PR/examples.md", "md_atom_type": "TABLE_ROW", "md_parent_section": "§PR.2 [Example 2]", "md_verbatim": "| 1 | ABC123 | EG | ABC123-001 | 1 | 20110101_20110102 | EGHRMIN | ECG Minimum Heart Rate | 70 | beats/min | HOLTER CONTINUOUS ECG RECORDING | 2011-01-01T08:00 | 2011-01-02T09:45 |", "score": 0.4245, "match_basis": "verbatim_token+domain_route:PR"}], "candidate_count": 5, "zero_candidate": false}
{"pdf_atom_id": "ig34_p0125_a022", "pdf_atom_type": "TABLE_ROW", "pdf_source": "SDTMIG v3.4 (no header footer).pdf", "pdf_page": 125, "pdf_parent_section": "§6.1.5 [Procedures (PR)]", "pdf_verbatim": "PRDOSE | Dose | Num | | Record Qualifier | Amount of PRTRT administered. Not populated when PRDOSTXT is populated. | Perm", "figure_ref": null, "candidates": [{"md_atom_id": "md_dmPR_ex_a020", "md_file": "knowledge_base/domains/PR/examples.md", "md_atom_type": "TABLE_ROW", "md_parent_section": "§PR.2 [Example 2]", "md_verbatim": "| 1 | ABC123 | EG | ABC123-001 | 1 | 20110101_20110102 | EGHRMIN | ECG Minimum Heart Rate | 70 | beats/min | HOLTER CONTINUOUS ECG RECORDING | 2011-01-01T08:00 | 2011-01-02T09:45 |", "score": 0.4511, "match_basis": "verbatim_token+domain_route:PR"}, {"md_atom_id": "md_dmPR_ex_a022", "md_file": "knowledge_base/domains/PR/examples.md", "md_atom_type": "TABLE_ROW", "md_parent_section": "§PR.2 [Example 2]", "md_verbatim": "| 3 | ABC123 | EG | ABC123-001 | 3 | 20110101_20110102 | EGHRMEAN | ECG Mean Heart Rate | 75 | beats/min | HOLTER CONTINUOUS ECG RECORDING | 2011-01-01T08:00 | 2011-01-02T09:45 |", "score": 0.4452, "match_basis": "verbatim_token+domain_route:PR"}, {"md_atom_id": "md_dmPR_ex_a021", "md_file": "knowledge_base/domains/PR/examples.md", "md_atom_type": "TABLE_ROW", "md_parent_section": "§PR.2 [Example 2]", "md_verbatim": "| 2 | ABC123 | EG | ABC123-001 | 2 | 20110101_20110102 | EGHRMAX | ECG Maximum Heart Rate | 100 | beats/min | HOLTER CONTINUOUS ECG RECORDING | 2011-01-01T08:00 | 2011-01-02T09:45 |", "score": 0.4433, "match_basis": "verbatim_token+domain_route:PR"}, {"md_atom_id": "md_dmPR_ex_a016", "md_file": "knowledge_base/domains/PR/examples.md", "md_atom_type": "TABLE_ROW", "md_parent_section": "§PR.2 [Example 2]", "md_verbatim": "| 1 | ABC123 | PR | ABC123-001 | 1 | 20110101_20110102 | 24-HOUR HOLTER MONITOR | HOLTER CONTINUOUS ECG RECORDING | Y | Y | 2011-01-01T08:00 | 2011-01-02T09:45 |", "score": 0.4345, "match_basis": "verbatim_token+domain_route:PR"}, {"md_atom_id": "md_dmPR_ex_a008", "md_file": "knowledge_base/domains/PR/examples.md", "md_atom_type": "TABLE_ROW", "md_parent_section": "§PR.1 [Example 1]", "md_verbatim": "| 3 | XYZ | PR | XYZ789-002 | 3 | Prostate Examination | 2010-12-12 | 2010-12-12 |", "score": 0.4269, "match_basis": "verbatim_token+domain_route:PR"}], "candidate_count": 5, "zero_candidate": false}
{"pdf_atom_id": "ig34_p0125_a023", "pdf_atom_type": "TABLE_ROW", "pdf_source": "SDTMIG v3.4 (no header footer).pdf", "pdf_page": 125, "pdf_parent_section": "§6.1.5 [Procedures (PR)]", "pdf_verbatim": "PRDOSTXT | Dose Description | Char | | Record Qualifier | Dosing information collected in text form. Examples: \"<1\", \"200-400\". Not populated when PRDOSE is populated. | Perm", "figure_ref": null, "candidates": [{"md_atom_id": "md_dmPR_ex_a008", "md_file": "knowledge_base/domains/PR/examples.md", "md_atom_type": "TABLE_ROW", "md_parent_section": "§PR.1 [Example 1]", "md_verbatim": "| 3 | XYZ | PR | XYZ789-002 | 3 | Prostate Examination | 2010-12-12 | 2010-12-12 |", "score": 0.4512, "match_basis": "verbatim_token+domain_route:PR"}, {"md_atom_id": "md_dmPR_ex_a021", "md_file": "knowledge_base/domains/PR/examples.md", "md_atom_type": "TABLE_ROW", "md_parent_section": "§PR.2 [Example 2]", "md_verbatim": "| 2 | ABC123 | EG | ABC123-001 | 2 | 20110101_20110102 | EGHRMAX | ECG Maximum Heart Rate | 100 | beats/min | HOLTER CONTINUOUS ECG RECORDING | 2011-01-01T08:00 | 2011-01-02T09:45 |", "score": 0.4362, "match_basis": "verbatim_token+domain_route:PR"}, {"md_atom_id": "md_dmPR_ex_a022", "md_file": "knowledge_base/domains/PR/examples.md", "md_atom_type": "TABLE_ROW", "md_parent_section": "§PR.2 [Example 2]", "md_verbatim": "| 3 | ABC123 | EG | ABC123-001 | 3 | 20110101_20110102 | EGHRMEAN | ECG Mean Heart Rate | 75 | beats/min | HOLTER CONTINUOUS ECG RECORDING | 2011-01-01T08:00 | 2011-01-02T09:45 |", "score": 0.4319, "match_basis": "verbatim_token+domain_route:PR"}, {"md_atom_id": "md_dmPR_ex_a020", "md_file": "knowledge_base/domains/PR/examples.md", "md_atom_type": "TABLE_ROW", "md_parent_section": "§PR.2 [Example 2]", "md_verbatim": "| 1 | ABC123 | EG | ABC123-001 | 1 | 20110101_20110102 | EGHRMIN | ECG Minimum Heart Rate | 70 | beats/min | HOLTER CONTINUOUS ECG RECORDING | 2011-01-01T08:00 | 2011-01-02T09:45 |", "score": 0.4313, "match_basis": "verbatim_token+domain_route:PR"}, {"md_atom_id": "md_dmPR_ex_a016", "md_file": "knowledge_base/domains/PR/examples.md", "md_atom_type": "TABLE_ROW", "md_parent_section": "§PR.2 [Example 2]", "md_verbatim": "| 1 | ABC123 | PR | ABC123-001 | 1 | 20110101_20110102 | 24-HOUR HOLTER MONITOR | HOLTER CONTINUOUS ECG RECORDING | Y | Y | 2011-01-01T08:00 | 2011-01-02T09:45 |", "score": 0.4283, "match_basis": "verbatim_token+domain_route:PR"}], "candidate_count": 5, "zero_candidate": false}
{"pdf_atom_id": "ig34_p0125_a024", "pdf_atom_type": "TABLE_ROW", "pdf_source": "SDTMIG v3.4 (no header footer).pdf", "pdf_page": 125, "pdf_parent_section": "§6.1.5 [Procedures (PR)]", "pdf_verbatim": "PRDOSU | Dose Units | Char | (UNIT) | Variable Qualifier | Units for PRDOSE, PRDOSTXT, or PRDOSTXT. | Perm", "figure_ref": null, "candidates": [{"md_atom_id": "md_dmPR_ex_a009", "md_file": "knowledge_base/domains/PR/examples.md", "md_atom_type": "TABLE_ROW", "md_parent_section": "§PR.1 [Example 1]", "md_verbatim": "| 4 | XYZ | PR | XYZ789-002 | 4 | Endoscopy | 2010-12-12 | 2010-12-12 |", "score": 0.4143, "match_basis": "verbatim_token+domain_route:PR"}, {"md_atom_id": "md_dmPR_ex_a008", "md_file": "knowledge_base/domains/PR/examples.md", "md_atom_type": "TABLE_ROW", "md_parent_section": "§PR.1 [Example 1]", "md_verbatim": "| 3 | XYZ | PR | XYZ789-002 | 3 | Prostate Examination | 2010-12-12 | 2010-12-12 |", "score": 0.412, "match_basis": "verbatim_token+domain_route:PR"}, {"md_atom_id": "md_dmPR_ex_a033", "md_file": "knowledge_base/domains/PR/examples.md", "md_atom_type": "TABLE_ROW", "md_parent_section": "§PR.3 [Example 3]", "md_verbatim": "| 2 | ABC123 | PR | ABC123-2002 | 1 | Brachytherapy | 25 | Gy | PROSTATE | | 2011-07-15 | 2011-07-15 |", "score": 0.4113, "match_basis": "verbatim_token+domain_route:PR"}, {"md_atom_id": "md_dmPR_ex_a016", "md_file": "knowledge_base/domains/PR/examples.md", "md_atom_type": "TABLE_ROW", "md_parent_section": "§PR.2 [Example 2]", "md_verbatim": "| 1 | ABC123 | PR | ABC123-001 | 1 | 20110101_20110102 | 24-HOUR HOLTER MONITOR | HOLTER CONTINUOUS ECG RECORDING | Y | Y | 2011-01-01T08:00 | 2011-01-02T09:45 |", "score": 0.4083, "match_basis": "verbatim_token+domain_route:PR"}, {"md_atom_id": "md_dmPR_ex_a006", "md_file": "knowledge_base/domains/PR/examples.md", "md_atom_type": "TABLE_ROW", "md_parent_section": "§PR.1 [Example 1]", "md_verbatim": "| 1 | XYZ | PR | XYZ789-002 | 1 | Wisdom Teeth Extraction | 2010-06-08 | 2010-06-08 |", "score": 0.4, "match_basis": "verbatim_token+domain_route:PR"}], "candidate_count": 5, "zero_candidate": false}
{"pdf_atom_id": "ig34_p0125_a025", "pdf_atom_type": "TABLE_ROW", "pdf_source": "SDTMIG v3.4 (no header footer).pdf", "pdf_page": 125, "pdf_parent_section": "§6.1.5 [Procedures (PR)]", "pdf_verbatim": "PRDOSFRM | Dose Form | Char | (FRM) | Variable Qualifier | Dose form for PRTRT. | Perm", "figure_ref": null, "candidates": [{"md_atom_id": "md_dmPR_ex_a009", "md_file": "knowledge_base/domains/PR/examples.md", "md_atom_type": "TABLE_ROW", "md_parent_section": "§PR.1 [Example 1]", "md_verbatim": "| 4 | XYZ | PR | XYZ789-002 | 4 | Endoscopy | 2010-12-12 | 2010-12-12 |", "score": 0.4143, "match_basis": "verbatim_token+domain_route:PR"}, {"md_atom_id": "md_dmPR_ex_a031", "md_file": "knowledge_base/domains/PR/examples.md", "md_atom_type": "TABLE_HEADER", "md_parent_section": "§PR.3 [Example 3]", "md_verbatim": "| Row | STUDYID | DOMAIN | USUBJID | PRSEQ | PRTRT | PRDOSE | PRDOSU | PRLOC | PRLAT | PRSTDTC | PRENDTC |\n|-----|---------|--------|---------|-------|-------|--------|--------|-------|-------|---------|---------|", "score": 0.4089, "match_basis": "verbatim_token+domain_route:PR"}, {"md_atom_id": "md_dmPR_ex_a006", "md_file": "knowledge_base/domains/PR/examples.md", "md_atom_type": "TABLE_ROW", "md_parent_section": "§PR.1 [Example 1]", "md_verbatim": "| 1 | XYZ | PR | XYZ789-002 | 1 | Wisdom Teeth Extraction | 2010-06-08 | 2010-06-08 |", "score": 0.4, "match_basis": "verbatim_token+domain_route:PR"}, {"md_atom_id": "md_dmPR_ex_a007", "md_file": "knowledge_base/domains/PR/examples.md", "md_atom_type": "TABLE_ROW", "md_parent_section": "§PR.1 [Example 1]", "md_verbatim": "| 2 | XYZ | PR | XYZ789-002 | 2 | Reset Broken Arm | 2010-08-06 | 2010-08-06 |", "score": 0.4, "match_basis": "verbatim_token+domain_route:PR"}, {"md_atom_id": "md_dmPR_ex_a008", "md_file": "knowledge_base/domains/PR/examples.md", "md_atom_type": "TABLE_ROW", "md_parent_section": "§PR.1 [Example 1]", "md_verbatim": "| 3 | XYZ | PR | XYZ789-002 | 3 | Prostate Examination | 2010-12-12 | 2010-12-12 |", "score": 0.4, "match_basis": "verbatim_token+domain_route:PR"}], "candidate_count": 5, "zero_candidate": false}
{"pdf_atom_id": "ig34_p0125_a026", "pdf_atom_type": "TABLE_ROW", "pdf_source": "SDTMIG v3.4 (no header footer).pdf", "pdf_page": 125, "pdf_parent_section": "§6.1.5 [Procedures (PR)]", "pdf_verbatim": "PRDOSFRQ | Dosing Frequency per Interval | Char | (FREQ) | Record Qualifier | Usually expressed as the number of doses given per a specific interval. | Perm", "figure_ref": null, "candidates": [{"md_atom_id": "md_dmPR_ex_a016", "md_file": "knowledge_base/domains/PR/examples.md", "md_atom_type": "TABLE_ROW", "md_parent_section": "§PR.2 [Example 2]", "md_verbatim": "| 1 | ABC123 | PR | ABC123-001 | 1 | 20110101_20110102 | 24-HOUR HOLTER MONITOR | HOLTER CONTINUOUS ECG RECORDING | Y | Y | 2011-01-01T08:00 | 2011-01-02T09:45 |", "score": 0.4356, "match_basis": "verbatim_token+domain_route:PR"}, {"md_atom_id": "md_dmPR_ex_a022", "md_file": "knowledge_base/domains/PR/examples.md", "md_atom_type": "TABLE_ROW", "md_parent_section": "§PR.2 [Example 2]", "md_verbatim": "| 3 | ABC123 | EG | ABC123-001 | 3 | 20110101_20110102 | EGHRMEAN | ECG Mean Heart Rate | 75 | beats/min | HOLTER CONTINUOUS ECG RECORDING | 2011-01-01T08:00 | 2011-01-02T09:45 |", "score": 0.433, "match_basis": "verbatim_token+domain_route:PR"}, {"md_atom_id": "md_dmPR_ex_a020", "md_file": "knowledge_base/domains/PR/examples.md", "md_atom_type": "TABLE_ROW", "md_parent_section": "§PR.2 [Example 2]", "md_verbatim": "| 1 | ABC123 | EG | ABC123-001 | 1 | 20110101_20110102 | EGHRMIN | ECG Minimum Heart Rate | 70 | beats/min | HOLTER CONTINUOUS ECG RECORDING | 2011-01-01T08:00 | 2011-01-02T09:45 |", "score": 0.4324, "match_basis": "verbatim_token+domain_route:PR"}, {"md_atom_id": "md_dmPR_ex_a021", "md_file": "knowledge_base/domains/PR/examples.md", "md_atom_type": "TABLE_ROW", "md_parent_section": "§PR.2 [Example 2]", "md_verbatim": "| 2 | ABC123 | EG | ABC123-001 | 2 | 20110101_20110102 | EGHRMAX | ECG Maximum Heart Rate | 100 | beats/min | HOLTER CONTINUOUS ECG RECORDING | 2011-01-01T08:00 | 2011-01-02T09:45 |", "score": 0.4319, "match_basis": "verbatim_token+domain_route:PR"}, {"md_atom_id": "md_dmPR_ex_a032", "md_file": "knowledge_base/domains/PR/examples.md", "md_atom_type": "TABLE_ROW", "md_parent_section": "§PR.3 [Example 3]", "md_verbatim": "| 1 | ABC123 | PR | ABC123-1001 | 1 | External beam radiation therapy | 70 | Gy | BREAST | RIGHT | 2011-06-01 | 2011-06-25 |", "score": 0.4125, "match_basis": "verbatim_token+domain_route:PR"}], "candidate_count": 5, "zero_candidate": false}
{"pdf_atom_id": "ig34_p0125_a027", "pdf_atom_type": "TABLE_ROW", "pdf_source": "SDTMIG v3.4 (no header footer).pdf", "pdf_page": 125, "pdf_parent_section": "§6.1.5 [Procedures (PR)]", "pdf_verbatim": "PRDOSRGM | Intended Dose Regimen | Char | | Record Qualifier | Text description of the intended schedule or regimen for the procedure. | Perm", "figure_ref": null, "candidates": [{"md_atom_id": "md_dmPR_ex_a032", "md_file": "knowledge_base/domains/PR/examples.md", "md_atom_type": "TABLE_ROW", "md_parent_section": "§PR.3 [Example 3]", "md_verbatim": "| 1 | ABC123 | PR | ABC123-1001 | 1 | External beam radiation therapy | 70 | Gy | BREAST | RIGHT | 2011-06-01 | 2011-06-25 |", "score": 0.427, "match_basis": "verbatim_token+domain_route:PR"}, {"md_atom_id": "md_dmPR_ex_a016", "md_file": "knowledge_base/domains/PR/examples.md", "md_atom_type": "TABLE_ROW", "md_parent_section": "§PR.2 [Example 2]", "md_verbatim": "| 1 | ABC123 | PR | ABC123-001 | 1 | 20110101_20110102 | 24-HOUR HOLTER MONITOR | HOLTER CONTINUOUS ECG RECORDING | Y | Y | 2011-01-01T08:00 | 2011-01-02T09:45 |", "score": 0.4245, "match_basis": "verbatim_token+domain_route:PR"}, {"md_atom_id": "md_dmPR_ex_a006", "md_file": "knowledge_base/domains/PR/examples.md", "md_atom_type": "TABLE_ROW", "md_parent_section": "§PR.1 [Example 1]", "md_verbatim": "| 1 | XYZ | PR | XYZ789-002 | 1 | Wisdom Teeth Extraction | 2010-06-08 | 2010-06-08 |", "score": 0.4234, "match_basis": "verbatim_token+domain_route:PR"}, {"md_atom_id": "md_dmPR_ex_a008", "md_file": "knowledge_base/domains/PR/examples.md", "md_atom_type": "TABLE_ROW", "md_parent_section": "§PR.1 [Example 1]", "md_verbatim": "| 3 | XYZ | PR | XYZ789-002 | 3 | Prostate Examination | 2010-12-12 | 2010-12-12 |", "score": 0.4234, "match_basis": "verbatim_token+domain_route:PR"}, {"md_atom_id": "md_dmPR_ex_a022", "md_file": "knowledge_base/domains/PR/examples.md", "md_atom_type": "TABLE_ROW", "md_parent_section": "§PR.2 [Example 2]", "md_verbatim": "| 3 | ABC123 | EG | ABC123-001 | 3 | 20110101_20110102 | EGHRMEAN | ECG Mean Heart Rate | 75 | beats/min | HOLTER CONTINUOUS ECG RECORDING | 2011-01-01T08:00 | 2011-01-02T09:45 |", "score": 0.4226, "match_basis": "verbatim_token+domain_route:PR"}], "candidate_count": 5, "zero_candidate": false}
{"pdf_atom_id": "ig34_p0125_a028", "pdf_atom_type": "TABLE_ROW", "pdf_source": "SDTMIG v3.4 (no header footer).pdf", "pdf_page": 125, "pdf_parent_section": "§6.1.5 [Procedures (PR)]", "pdf_verbatim": "PRROUTE | Route of Administration | Char | (ROUTE) | Variable Qualifier | Route of administration for PRTRT. | Perm", "figure_ref": null, "candidates": [{"md_atom_id": "md_dmPR_ex_a008", "md_file": "knowledge_base/domains/PR/examples.md", "md_atom_type": "TABLE_ROW", "md_parent_section": "§PR.1 [Example 1]", "md_verbatim": "| 3 | XYZ | PR | XYZ789-002 | 3 | Prostate Examination | 2010-12-12 | 2010-12-12 |", "score": 0.4429, "match_basis": "verbatim_token+domain_route:PR"}, {"md_atom_id": "md_dmPR_ex_a006", "md_file": "knowledge_base/domains/PR/examples.md", "md_atom_type": "TABLE_ROW", "md_parent_section": "§PR.1 [Example 1]", "md_verbatim": "| 1 | XYZ | PR | XYZ789-002 | 1 | Wisdom Teeth Extraction | 2010-06-08 | 2010-06-08 |", "score": 0.4316, "match_basis": "verbatim_token+domain_route:PR"}, {"md_atom_id": "md_dmPR_ex_a032", "md_file": "knowledge_base/domains/PR/examples.md", "md_atom_type": "TABLE_ROW", "md_parent_section": "§PR.3 [Example 3]", "md_verbatim": "| 1 | ABC123 | PR | ABC123-1001 | 1 | External beam radiation therapy | 70 | Gy | BREAST | RIGHT | 2011-06-01 | 2011-06-25 |", "score": 0.4257, "match_basis": "verbatim_token+domain_route:PR"}, {"md_atom_id": "md_dmPR_ex_a020", "md_file": "knowledge_base/domains/PR/examples.md", "md_atom_type": "TABLE_ROW", "md_parent_section": "§PR.2 [Example 2]", "md_verbatim": "| 1 | ABC123 | EG | ABC123-001 | 1 | 20110101_20110102 | EGHRMIN | ECG Minimum Heart Rate | 70 | beats/min | HOLTER CONTINUOUS ECG RECORDING | 2011-01-01T08:00 | 2011-01-02T09:45 |", "score": 0.4202, "match_basis": "verbatim_token+domain_route:PR"}, {"md_atom_id": "md_dmPR_ex_a022", "md_file": "knowledge_base/domains/PR/examples.md", "md_atom_type": "TABLE_ROW", "md_parent_section": "§PR.2 [Example 2]", "md_verbatim": "| 3 | ABC123 | EG | ABC123-001 | 3 | 20110101_20110102 | EGHRMEAN | ECG Mean Heart Rate | 75 | beats/min | HOLTER CONTINUOUS ECG RECORDING | 2011-01-01T08:00 | 2011-01-02T09:45 |", "score": 0.4136, "match_basis": "verbatim_token+domain_route:PR"}], "candidate_count": 5, "zero_candidate": false}
{"pdf_atom_id": "ig34_p0126_a001", "pdf_atom_type": "TABLE_HEADER", "pdf_source": "SDTMIG v3.4 (no header footer).pdf", "pdf_page": 126, "pdf_parent_section": "§6.1.5 [Procedures (PR)]", "pdf_verbatim": "| Variable Name | Variable Label | Type | Controlled Terms, Codelist or Format¹ | Role | CDISC Notes | Core |", "figure_ref": null, "candidates": [{"md_atom_id": "md_dmPR_ex_a025", "md_file": "knowledge_base/domains/PR/examples.md", "md_atom_type": "TABLE_HEADER", "md_parent_section": "§PR.2 [Example 2]", "md_verbatim": "| Row | STUDYID | RDOMAIN | USUBJID | IDVAR | IDVARVAL | RELTYPE | RELID |\n|-----|---------|---------|---------|-------|----------|---------|-------|", "score": 0.4353, "match_basis": "verbatim_token+domain_route:PR"}, {"md_atom_id": "md_dmPR_ex_a015", "md_file": "knowledge_base/domains/PR/examples.md", "md_atom_type": "TABLE_HEADER", "md_parent_section": "§PR.2 [Example 2]", "md_verbatim": "| Row | STUDYID | DOMAIN | USUBJID | PRSEQ | PRLNKID | PRTRT | PRDECOD | PRPRESP | PROCCUR | PRSTDTC | PRENDTC |\n|-----|---------|--------|---------|-------|---------|-------|---------|---------|---------|---------|---------|", "score": 0.4067, "match_basis": "verbatim_token+domain_route:PR"}, {"md_atom_id": "md_dmPR_ex_a019", "md_file": "knowledge_base/domains/PR/examples.md", "md_atom_type": "TABLE_HEADER", "md_parent_section": "§PR.2 [Example 2]", "md_verbatim": "| Row | STUDYID | DOMAIN | USUBJID | EGSEQ | EGLNKID | EGTESTCD | EGTEST | EGORRES | EGORRESU | EGMETHOD | EGDTC | EGENDTC |\n|-----|---------|--------|---------|-------|---------|----------|--------|---------|----------|----------|-------|---------|", "score": 0.4067, "match_basis": "verbatim_token+domain_route:PR"}, {"md_atom_id": "md_dmPR_ex_a005", "md_file": "knowledge_base/domains/PR/examples.md", "md_atom_type": "TABLE_HEADER", "md_parent_section": "§PR.1 [Example 1]", "md_verbatim": "| Row | STUDYID | DOMAIN | USUBJID | PRSEQ | PRTRT | PRSTDTC | PRENDTC |\n|-----|---------|--------|---------|-------|-------|---------|---------|", "score": 0.4, "match_basis": "verbatim_token+domain_route:PR"}, {"md_atom_id": "md_dmPR_ex_a031", "md_file": "knowledge_base/domains/PR/examples.md", "md_atom_type": "TABLE_HEADER", "md_parent_section": "§PR.3 [Example 3]", "md_verbatim": "| Row | STUDYID | DOMAIN | USUBJID | PRSEQ | PRTRT | PRDOSE | PRDOSU | PRLOC | PRLAT | PRSTDTC | PRENDTC |\n|-----|---------|--------|---------|-------|-------|--------|--------|-------|-------|---------|---------|", "score": 0.4, "match_basis": "verbatim_token+domain_route:PR"}], "candidate_count": 5, "zero_candidate": false}
{"pdf_atom_id": "ig34_p0126_a002", "pdf_atom_type": "TABLE_ROW", "pdf_source": "SDTMIG v3.4 (no header footer).pdf", "pdf_page": 126, "pdf_parent_section": "§6.1.5 [Procedures (PR)]", "pdf_verbatim": "| PRLOC | Location of Procedure | Char | (LOC) | Record Qualifier | Anatomical location of a procedure. | Perm |", "figure_ref": null, "candidates": [{"md_atom_id": "md_dmPR_ex_a008", "md_file": "knowledge_base/domains/PR/examples.md", "md_atom_type": "TABLE_ROW", "md_parent_section": "§PR.1 [Example 1]", "md_verbatim": "| 3 | XYZ | PR | XYZ789-002 | 3 | Prostate Examination | 2010-12-12 | 2010-12-12 |", "score": 0.4545, "match_basis": "verbatim_token+domain_route:PR"}, {"md_atom_id": "md_dmPR_ex_a016", "md_file": "knowledge_base/domains/PR/examples.md", "md_atom_type": "TABLE_ROW", "md_parent_section": "§PR.2 [Example 2]", "md_verbatim": "| 1 | ABC123 | PR | ABC123-001 | 1 | 20110101_20110102 | 24-HOUR HOLTER MONITOR | HOLTER CONTINUOUS ECG RECORDING | Y | Y | 2011-01-01T08:00 | 2011-01-02T09:45 |", "score": 0.4308, "match_basis": "verbatim_token+domain_route:PR"}, {"md_atom_id": "md_dmPR_ex_a022", "md_file": "knowledge_base/domains/PR/examples.md", "md_atom_type": "TABLE_ROW", "md_parent_section": "§PR.2 [Example 2]", "md_verbatim": "| 3 | ABC123 | EG | ABC123-001 | 3 | 20110101_20110102 | EGHRMEAN | ECG Mean Heart Rate | 75 | beats/min | HOLTER CONTINUOUS ECG RECORDING | 2011-01-01T08:00 | 2011-01-02T09:45 |", "score": 0.4279, "match_basis": "verbatim_token+domain_route:PR"}, {"md_atom_id": "md_dmPR_ex_a020", "md_file": "knowledge_base/domains/PR/examples.md", "md_atom_type": "TABLE_ROW", "md_parent_section": "§PR.2 [Example 2]", "md_verbatim": "| 1 | ABC123 | EG | ABC123-001 | 1 | 20110101_20110102 | EGHRMIN | ECG Minimum Heart Rate | 70 | beats/min | HOLTER CONTINUOUS ECG RECORDING | 2011-01-01T08:00 | 2011-01-02T09:45 |", "score": 0.4273, "match_basis": "verbatim_token+domain_route:PR"}, {"md_atom_id": "md_dmPR_ex_a021", "md_file": "knowledge_base/domains/PR/examples.md", "md_atom_type": "TABLE_ROW", "md_parent_section": "§PR.2 [Example 2]", "md_verbatim": "| 2 | ABC123 | EG | ABC123-001 | 2 | 20110101_20110102 | EGHRMAX | ECG Maximum Heart Rate | 100 | beats/min | HOLTER CONTINUOUS ECG RECORDING | 2011-01-01T08:00 | 2011-01-02T09:45 |", "score": 0.4267, "match_basis": "verbatim_token+domain_route:PR"}], "candidate_count": 5, "zero_candidate": false}
{"pdf_atom_id": "ig34_p0126_a003", "pdf_atom_type": "TABLE_ROW", "pdf_source": "SDTMIG v3.4 (no header footer).pdf", "pdf_page": 126, "pdf_parent_section": "§6.1.5 [Procedures (PR)]", "pdf_verbatim": "| PRLAT | Laterality | Char | (LAT) | Variable Qualifier | Qualifier for anatomical location or specimen further detailing laterality. | Perm |", "figure_ref": null, "candidates": [{"md_atom_id": "md_dmPR_ex_a032", "md_file": "knowledge_base/domains/PR/examples.md", "md_atom_type": "TABLE_ROW", "md_parent_section": "§PR.3 [Example 3]", "md_verbatim": "| 1 | ABC123 | PR | ABC123-1001 | 1 | External beam radiation therapy | 70 | Gy | BREAST | RIGHT | 2011-06-01 | 2011-06-25 |", "score": 0.4483, "match_basis": "verbatim_token+domain_route:PR"}, {"md_atom_id": "md_dmPR_ex_a008", "md_file": "knowledge_base/domains/PR/examples.md", "md_atom_type": "TABLE_ROW", "md_parent_section": "§PR.1 [Example 1]", "md_verbatim": "| 3 | XYZ | PR | XYZ789-002 | 3 | Prostate Examination | 2010-12-12 | 2010-12-12 |", "score": 0.4395, "match_basis": "verbatim_token+domain_route:PR"}, {"md_atom_id": "md_dmPR_ex_a033", "md_file": "knowledge_base/domains/PR/examples.md", "md_atom_type": "TABLE_ROW", "md_parent_section": "§PR.3 [Example 3]", "md_verbatim": "| 2 | ABC123 | PR | ABC123-2002 | 1 | Brachytherapy | 25 | Gy | PROSTATE | | 2011-07-15 | 2011-07-15 |", "score": 0.43, "match_basis": "verbatim_token+domain_route:PR"}, {"md_atom_id": "md_dmPR_ex_a034", "md_file": "knowledge_base/domains/PR/examples.md", "md_atom_type": "TABLE_ROW", "md_parent_section": "§PR.3 [Example 3]", "md_verbatim": "| 3 | ABC123 | PR | ABC123-3003 | 1 | Radiotherapy | 300 | cGy | BONE | | 2011-08-19 | 2011-08-22 |", "score": 0.4234, "match_basis": "verbatim_token+domain_route:PR"}, {"md_atom_id": "md_dmPR_ex_a022", "md_file": "knowledge_base/domains/PR/examples.md", "md_atom_type": "TABLE_ROW", "md_parent_section": "§PR.2 [Example 2]", "md_verbatim": "| 3 | ABC123 | EG | ABC123-001 | 3 | 20110101_20110102 | EGHRMEAN | ECG Mean Heart Rate | 75 | beats/min | HOLTER CONTINUOUS ECG RECORDING | 2011-01-01T08:00 | 2011-01-02T09:45 |", "score": 0.4167, "match_basis": "verbatim_token+domain_route:PR"}], "candidate_count": 5, "zero_candidate": false}
{"pdf_atom_id": "ig34_p0126_a004", "pdf_atom_type": "TABLE_ROW", "pdf_source": "SDTMIG v3.4 (no header footer).pdf", "pdf_page": 126, "pdf_parent_section": "§6.1.5 [Procedures (PR)]", "pdf_verbatim": "| PRDIR | Directionality | Char | (DIR) | Variable Qualifier | Qualifier for anatomical location or specimen further detailing directionality. | Perm |", "figure_ref": null, "candidates": [{"md_atom_id": "md_dmPR_ex_a032", "md_file": "knowledge_base/domains/PR/examples.md", "md_atom_type": "TABLE_ROW", "md_parent_section": "§PR.3 [Example 3]", "md_verbatim": "| 1 | ABC123 | PR | ABC123-1001 | 1 | External beam radiation therapy | 70 | Gy | BREAST | RIGHT | 2011-06-01 | 2011-06-25 |", "score": 0.44, "match_basis": "verbatim_token+domain_route:PR"}, {"md_atom_id": "md_dmPR_ex_a008", "md_file": "knowledge_base/domains/PR/examples.md", "md_atom_type": "TABLE_ROW", "md_parent_section": "§PR.1 [Example 1]", "md_verbatim": "| 3 | XYZ | PR | XYZ789-002 | 3 | Prostate Examination | 2010-12-12 | 2010-12-12 |", "score": 0.4304, "match_basis": "verbatim_token+domain_route:PR"}, {"md_atom_id": "md_dmPR_ex_a006", "md_file": "knowledge_base/domains/PR/examples.md", "md_atom_type": "TABLE_ROW", "md_parent_section": "§PR.1 [Example 1]", "md_verbatim": "| 1 | XYZ | PR | XYZ789-002 | 1 | Wisdom Teeth Extraction | 2010-06-08 | 2010-06-08 |", "score": 0.4225, "match_basis": "verbatim_token+domain_route:PR"}, {"md_atom_id": "md_dmPR_ex_a016", "md_file": "knowledge_base/domains/PR/examples.md", "md_atom_type": "TABLE_ROW", "md_parent_section": "§PR.2 [Example 2]", "md_verbatim": "| 1 | ABC123 | PR | ABC123-001 | 1 | 20110101_20110102 | 24-HOUR HOLTER MONITOR | HOLTER CONTINUOUS ECG RECORDING | Y | Y | 2011-01-01T08:00 | 2011-01-02T09:45 |", "score": 0.4176, "match_basis": "verbatim_token+domain_route:PR"}, {"md_atom_id": "md_dmPR_ex_a022", "md_file": "knowledge_base/domains/PR/examples.md", "md_atom_type": "TABLE_ROW", "md_parent_section": "§PR.2 [Example 2]", "md_verbatim": "| 3 | ABC123 | EG | ABC123-001 | 3 | 20110101_20110102 | EGHRMEAN | ECG Mean Heart Rate | 75 | beats/min | HOLTER CONTINUOUS ECG RECORDING | 2011-01-01T08:00 | 2011-01-02T09:45 |", "score": 0.4164, "match_basis": "verbatim_token+domain_route:PR"}], "candidate_count": 5, "zero_candidate": false}
{"pdf_atom_id": "ig34_p0126_a005", "pdf_atom_type": "TABLE_ROW", "pdf_source": "SDTMIG v3.4 (no header footer).pdf", "pdf_page": 126, "pdf_parent_section": "§6.1.5 [Procedures (PR)]", "pdf_verbatim": "| PRPORTOT | Portion or Totality | Char | (PORTOT) | Variable Qualifier | Qualifier for anatomical location or specimen further detailing the distribution, which means arrangement of, apportioning of. | Perm |", "figure_ref": null, "candidates": [{"md_atom_id": "md_dmPR_ex_a032", "md_file": "knowledge_base/domains/PR/examples.md", "md_atom_type": "TABLE_ROW", "md_parent_section": "§PR.3 [Example 3]", "md_verbatim": "| 1 | ABC123 | PR | ABC123-1001 | 1 | External beam radiation therapy | 70 | Gy | BREAST | RIGHT | 2011-06-01 | 2011-06-25 |", "score": 0.4256, "match_basis": "verbatim_token+domain_route:PR"}, {"md_atom_id": "md_dmPR_ex_a008", "md_file": "knowledge_base/domains/PR/examples.md", "md_atom_type": "TABLE_ROW", "md_parent_section": "§PR.1 [Example 1]", "md_verbatim": "| 3 | XYZ | PR | XYZ789-002 | 3 | Prostate Examination | 2010-12-12 | 2010-12-12 |", "score": 0.4229, "match_basis": "verbatim_token+domain_route:PR"}, {"md_atom_id": "md_dmPR_ex_a022", "md_file": "knowledge_base/domains/PR/examples.md", "md_atom_type": "TABLE_ROW", "md_parent_section": "§PR.2 [Example 2]", "md_verbatim": "| 3 | ABC123 | EG | ABC123-001 | 3 | 20110101_20110102 | EGHRMEAN | ECG Mean Heart Rate | 75 | beats/min | HOLTER CONTINUOUS ECG RECORDING | 2011-01-01T08:00 | 2011-01-02T09:45 |", "score": 0.4132, "match_basis": "verbatim_token+domain_route:PR"}, {"md_atom_id": "md_dmPR_ex_a010", "md_file": "knowledge_base/domains/PR/examples.md", "md_atom_type": "TABLE_ROW", "md_parent_section": "§PR.1 [Example 1]", "md_verbatim": "| 5 | XYZ | PR | XYZ789-002 | 5 | Heart Transplant | 2011-08-29 | 2011-08-29 |", "score": 0.4117, "match_basis": "verbatim_token+domain_route:PR"}, {"md_atom_id": "md_dmPR_ex_a034", "md_file": "knowledge_base/domains/PR/examples.md", "md_atom_type": "TABLE_ROW", "md_parent_section": "§PR.3 [Example 3]", "md_verbatim": "| 3 | ABC123 | PR | ABC123-3003 | 1 | Radiotherapy | 300 | cGy | BONE | | 2011-08-19 | 2011-08-22 |", "score": 0.4113, "match_basis": "verbatim_token+domain_route:PR"}], "candidate_count": 5, "zero_candidate": false}
{"pdf_atom_id": "ig34_p0126_a006", "pdf_atom_type": "TABLE_ROW", "pdf_source": "SDTMIG v3.4 (no header footer).pdf", "pdf_page": 126, "pdf_parent_section": "§6.1.5 [Procedures (PR)]", "pdf_verbatim": "| VISITNUM | Visit Number | Num | | Timing | Clinical encounter number. Numeric version of VISIT, used for sorting. | Perm |", "figure_ref": null, "candidates": [{"md_atom_id": "md_dmPR_ex_a020", "md_file": "knowledge_base/domains/PR/examples.md", "md_atom_type": "TABLE_ROW", "md_parent_section": "§PR.2 [Example 2]", "md_verbatim": "| 1 | ABC123 | EG | ABC123-001 | 1 | 20110101_20110102 | EGHRMIN | ECG Minimum Heart Rate | 70 | beats/min | HOLTER CONTINUOUS ECG RECORDING | 2011-01-01T08:00 | 2011-01-02T09:45 |", "score": 0.4323, "match_basis": "verbatim_token+domain_route:PR"}, {"md_atom_id": "md_dmPR_ex_a022", "md_file": "knowledge_base/domains/PR/examples.md", "md_atom_type": "TABLE_ROW", "md_parent_section": "§PR.2 [Example 2]", "md_verbatim": "| 3 | ABC123 | EG | ABC123-001 | 3 | 20110101_20110102 | EGHRMEAN | ECG Mean Heart Rate | 75 | beats/min | HOLTER CONTINUOUS ECG RECORDING | 2011-01-01T08:00 | 2011-01-02T09:45 |", "score": 0.4261, "match_basis": "verbatim_token+domain_route:PR"}, {"md_atom_id": "md_dmPR_ex_a021", "md_file": "knowledge_base/domains/PR/examples.md", "md_atom_type": "TABLE_ROW", "md_parent_section": "§PR.2 [Example 2]", "md_verbatim": "| 2 | ABC123 | EG | ABC123-001 | 2 | 20110101_20110102 | EGHRMAX | ECG Maximum Heart Rate | 100 | beats/min | HOLTER CONTINUOUS ECG RECORDING | 2011-01-01T08:00 | 2011-01-02T09:45 |", "score": 0.425, "match_basis": "verbatim_token+domain_route:PR"}, {"md_atom_id": "md_dmPR_ex_a016", "md_file": "knowledge_base/domains/PR/examples.md", "md_atom_type": "TABLE_ROW", "md_parent_section": "§PR.2 [Example 2]", "md_verbatim": "| 1 | ABC123 | PR | ABC123-001 | 1 | 20110101_20110102 | 24-HOUR HOLTER MONITOR | HOLTER CONTINUOUS ECG RECORDING | Y | Y | 2011-01-01T08:00 | 2011-01-02T09:45 |", "score": 0.4212, "match_basis": "verbatim_token+domain_route:PR"}, {"md_atom_id": "md_dmPR_ex_a008", "md_file": "knowledge_base/domains/PR/examples.md", "md_atom_type": "TABLE_ROW", "md_parent_section": "§PR.1 [Example 1]", "md_verbatim": "| 3 | XYZ | PR | XYZ789-002 | 3 | Prostate Examination | 2010-12-12 | 2010-12-12 |", "score": 0.4187, "match_basis": "verbatim_token+domain_route:PR"}], "candidate_count": 5, "zero_candidate": false}
{"pdf_atom_id": "ig34_p0126_a007", "pdf_atom_type": "TABLE_ROW", "pdf_source": "SDTMIG v3.4 (no header footer).pdf", "pdf_page": 126, "pdf_parent_section": "§6.1.5 [Procedures (PR)]", "pdf_verbatim": "| VISIT | Visit Name | Char | | Timing | Protocol-defined description of a clinical encounter. | Perm |", "figure_ref": null, "candidates": [{"md_atom_id": "md_dmPR_ex_a008", "md_file": "knowledge_base/domains/PR/examples.md", "md_atom_type": "TABLE_ROW", "md_parent_section": "§PR.1 [Example 1]", "md_verbatim": "| 3 | XYZ | PR | XYZ789-002 | 3 | Prostate Examination | 2010-12-12 | 2010-12-12 |", "score": 0.4375, "match_basis": "verbatim_token+domain_route:PR"}, {"md_atom_id": "md_dmPR_ex_a020", "md_file": "knowledge_base/domains/PR/examples.md", "md_atom_type": "TABLE_ROW", "md_parent_section": "§PR.2 [Example 2]", "md_verbatim": "| 1 | ABC123 | EG | ABC123-001 | 1 | 20110101_20110102 | EGHRMIN | ECG Minimum Heart Rate | 70 | beats/min | HOLTER CONTINUOUS ECG RECORDING | 2011-01-01T08:00 | 2011-01-02T09:45 |", "score": 0.425, "match_basis": "verbatim_token+domain_route:PR"}, {"md_atom_id": "md_dmPR_ex_a032", "md_file": "knowledge_base/domains/PR/examples.md", "md_atom_type": "TABLE_ROW", "md_parent_section": "§PR.3 [Example 3]", "md_verbatim": "| 1 | ABC123 | PR | ABC123-1001 | 1 | External beam radiation therapy | 70 | Gy | BREAST | RIGHT | 2011-06-01 | 2011-06-25 |", "score": 0.4231, "match_basis": "verbatim_token+domain_route:PR"}, {"md_atom_id": "md_dmPR_ex_a022", "md_file": "knowledge_base/domains/PR/examples.md", "md_atom_type": "TABLE_ROW", "md_parent_section": "§PR.2 [Example 2]", "md_verbatim": "| 3 | ABC123 | EG | ABC123-001 | 3 | 20110101_20110102 | EGHRMEAN | ECG Mean Heart Rate | 75 | beats/min | HOLTER CONTINUOUS ECG RECORDING | 2011-01-01T08:00 | 2011-01-02T09:45 |", "score": 0.4189, "match_basis": "verbatim_token+domain_route:PR"}, {"md_atom_id": "md_dmPR_ex_a006", "md_file": "knowledge_base/domains/PR/examples.md", "md_atom_type": "TABLE_ROW", "md_parent_section": "§PR.1 [Example 1]", "md_verbatim": "| 1 | XYZ | PR | XYZ789-002 | 1 | Wisdom Teeth Extraction | 2010-06-08 | 2010-06-08 |", "score": 0.4182, "match_basis": "verbatim_token+domain_route:PR"}], "candidate_count": 5, "zero_candidate": false}
{"pdf_atom_id": "ig34_p0126_a008", "pdf_atom_type": "TABLE_ROW", "pdf_source": "SDTMIG v3.4 (no header footer).pdf", "pdf_page": 126, "pdf_parent_section": "§6.1.5 [Procedures (PR)]", "pdf_verbatim": "| VISITDY | Planned Study Day of Visit | Num | | Timing | Planned study day of VISIT. Should be an integer. | Perm |", "figure_ref": null, "candidates": [{"md_atom_id": "md_dmPR_ex_a010", "md_file": "knowledge_base/domains/PR/examples.md", "md_atom_type": "TABLE_ROW", "md_parent_section": "§PR.1 [Example 1]", "md_verbatim": "| 5 | XYZ | PR | XYZ789-002 | 5 | Heart Transplant | 2011-08-29 | 2011-08-29 |", "score": 0.4261, "match_basis": "verbatim_token+domain_route:PR"}, {"md_atom_id": "md_dmPR_ex_a016", "md_file": "knowledge_base/domains/PR/examples.md", "md_atom_type": "TABLE_ROW", "md_parent_section": "§PR.2 [Example 2]", "md_verbatim": "| 1 | ABC123 | PR | ABC123-001 | 1 | 20110101_20110102 | 24-HOUR HOLTER MONITOR | HOLTER CONTINUOUS ECG RECORDING | Y | Y | 2011-01-01T08:00 | 2011-01-02T09:45 |", "score": 0.4167, "match_basis": "verbatim_token+domain_route:PR"}, {"md_atom_id": "md_dmPR_ex_a022", "md_file": "knowledge_base/domains/PR/examples.md", "md_atom_type": "TABLE_ROW", "md_parent_section": "§PR.2 [Example 2]", "md_verbatim": "| 3 | ABC123 | EG | ABC123-001 | 3 | 20110101_20110102 | EGHRMEAN | ECG Mean Heart Rate | 75 | beats/min | HOLTER CONTINUOUS ECG RECORDING | 2011-01-01T08:00 | 2011-01-02T09:45 |", "score": 0.415, "match_basis": "verbatim_token+domain_route:PR"}, {"md_atom_id": "md_dmPR_ex_a020", "md_file": "knowledge_base/domains/PR/examples.md", "md_atom_type": "TABLE_ROW", "md_parent_section": "§PR.2 [Example 2]", "md_verbatim": "| 1 | ABC123 | EG | ABC123-001 | 1 | 20110101_20110102 | EGHRMIN | ECG Minimum Heart Rate | 70 | beats/min | HOLTER CONTINUOUS ECG RECORDING | 2011-01-01T08:00 | 2011-01-02T09:45 |", "score": 0.4146, "match_basis": "verbatim_token+domain_route:PR"}, {"md_atom_id": "md_dmPR_ex_a021", "md_file": "knowledge_base/domains/PR/examples.md", "md_atom_type": "TABLE_ROW", "md_parent_section": "§PR.2 [Example 2]", "md_verbatim": "| 2 | ABC123 | EG | ABC123-001 | 2 | 20110101_20110102 | EGHRMAX | ECG Maximum Heart Rate | 100 | beats/min | HOLTER CONTINUOUS ECG RECORDING | 2011-01-01T08:00 | 2011-01-02T09:45 |", "score": 0.4143, "match_basis": "verbatim_token+domain_route:PR"}], "candidate_count": 5, "zero_candidate": false}
{"pdf_atom_id": "ig34_p0126_a009", "pdf_atom_type": "TABLE_ROW", "pdf_source": "SDTMIG v3.4 (no header footer).pdf", "pdf_page": 126, "pdf_parent_section": "§6.1.5 [Procedures (PR)]", "pdf_verbatim": "| TAETORD | Planned Order of Element within Arm | Num | | Timing | Number that gives the planned order of the element within the arm. | Perm |", "figure_ref": null, "candidates": [{"md_atom_id": "md_dmPR_ex_a016", "md_file": "knowledge_base/domains/PR/examples.md", "md_atom_type": "TABLE_ROW", "md_parent_section": "§PR.2 [Example 2]", "md_verbatim": "| 1 | ABC123 | PR | ABC123-001 | 1 | 20110101_20110102 | 24-HOUR HOLTER MONITOR | HOLTER CONTINUOUS ECG RECORDING | Y | Y | 2011-01-01T08:00 | 2011-01-02T09:45 |", "score": 0.4228, "match_basis": "verbatim_token+domain_route:PR"}, {"md_atom_id": "md_dmPR_ex_a010", "md_file": "knowledge_base/domains/PR/examples.md", "md_atom_type": "TABLE_ROW", "md_parent_section": "§PR.1 [Example 1]", "md_verbatim": "| 5 | XYZ | PR | XYZ789-002 | 5 | Heart Transplant | 2011-08-29 | 2011-08-29 |", "score": 0.4222, "match_basis": "verbatim_token+domain_route:PR"}, {"md_atom_id": "md_dmPR_ex_a022", "md_file": "knowledge_base/domains/PR/examples.md", "md_atom_type": "TABLE_ROW", "md_parent_section": "§PR.2 [Example 2]", "md_verbatim": "| 3 | ABC123 | EG | ABC123-001 | 3 | 20110101_20110102 | EGHRMEAN | ECG Mean Heart Rate | 75 | beats/min | HOLTER CONTINUOUS ECG RECORDING | 2011-01-01T08:00 | 2011-01-02T09:45 |", "score": 0.4207, "match_basis": "verbatim_token+domain_route:PR"}, {"md_atom_id": "md_dmPR_ex_a020", "md_file": "knowledge_base/domains/PR/examples.md", "md_atom_type": "TABLE_ROW", "md_parent_section": "§PR.2 [Example 2]", "md_verbatim": "| 1 | ABC123 | EG | ABC123-001 | 1 | 20110101_20110102 | EGHRMIN | ECG Minimum Heart Rate | 70 | beats/min | HOLTER CONTINUOUS ECG RECORDING | 2011-01-01T08:00 | 2011-01-02T09:45 |", "score": 0.4202, "match_basis": "verbatim_token+domain_route:PR"}, {"md_atom_id": "md_dmPR_ex_a021", "md_file": "knowledge_base/domains/PR/examples.md", "md_atom_type": "TABLE_ROW", "md_parent_section": "§PR.2 [Example 2]", "md_verbatim": "| 2 | ABC123 | EG | ABC123-001 | 2 | 20110101_20110102 | EGHRMAX | ECG Maximum Heart Rate | 100 | beats/min | HOLTER CONTINUOUS ECG RECORDING | 2011-01-01T08:00 | 2011-01-02T09:45 |", "score": 0.4198, "match_basis": "verbatim_token+domain_route:PR"}], "candidate_count": 5, "zero_candidate": false}
{"pdf_atom_id": "ig34_p0126_a010", "pdf_atom_type": "TABLE_ROW", "pdf_source": "SDTMIG v3.4 (no header footer).pdf", "pdf_page": 126, "pdf_parent_section": "§6.1.5 [Procedures (PR)]", "pdf_verbatim": "| EPOCH | Epoch | Char | (EPOCH) | Timing | Epoch associated with the start date/time of the procedure. | Perm |", "figure_ref": null, "candidates": [{"md_atom_id": "md_dmPR_ex_a008", "md_file": "knowledge_base/domains/PR/examples.md", "md_atom_type": "TABLE_ROW", "md_parent_section": "§PR.1 [Example 1]", "md_verbatim": "| 3 | XYZ | PR | XYZ789-002 | 3 | Prostate Examination | 2010-12-12 | 2010-12-12 |", "score": 0.4462, "match_basis": "verbatim_token+domain_route:PR"}, {"md_atom_id": "md_dmPR_ex_a033", "md_file": "knowledge_base/domains/PR/examples.md", "md_atom_type": "TABLE_ROW", "md_parent_section": "§PR.3 [Example 3]", "md_verbatim": "| 2 | ABC123 | PR | ABC123-2002 | 1 | Brachytherapy | 25 | Gy | PROSTATE | | 2011-07-15 | 2011-07-15 |", "score": 0.4436, "match_basis": "verbatim_token+domain_route:PR"}, {"md_atom_id": "md_dmPR_ex_a022", "md_file": "knowledge_base/domains/PR/examples.md", "md_atom_type": "TABLE_ROW", "md_parent_section": "§PR.2 [Example 2]", "md_verbatim": "| 3 | ABC123 | EG | ABC123-001 | 3 | 20110101_20110102 | EGHRMEAN | ECG Mean Heart Rate | 75 | beats/min | HOLTER CONTINUOUS ECG RECORDING | 2011-01-01T08:00 | 2011-01-02T09:45 |", "score": 0.4293, "match_basis": "verbatim_token+domain_route:PR"}, {"md_atom_id": "md_dmPR_ex_a020", "md_file": "knowledge_base/domains/PR/examples.md", "md_atom_type": "TABLE_ROW", "md_parent_section": "§PR.2 [Example 2]", "md_verbatim": "| 1 | ABC123 | EG | ABC123-001 | 1 | 20110101_20110102 | EGHRMIN | ECG Minimum Heart Rate | 70 | beats/min | HOLTER CONTINUOUS ECG RECORDING | 2011-01-01T08:00 | 2011-01-02T09:45 |", "score": 0.4286, "match_basis": "verbatim_token+domain_route:PR"}, {"md_atom_id": "md_dmPR_ex_a021", "md_file": "knowledge_base/domains/PR/examples.md", "md_atom_type": "TABLE_ROW", "md_parent_section": "§PR.2 [Example 2]", "md_verbatim": "| 2 | ABC123 | EG | ABC123-001 | 2 | 20110101_20110102 | EGHRMAX | ECG Maximum Heart Rate | 100 | beats/min | HOLTER CONTINUOUS ECG RECORDING | 2011-01-01T08:00 | 2011-01-02T09:45 |", "score": 0.4279, "match_basis": "verbatim_token+domain_route:PR"}], "candidate_count": 5, "zero_candidate": false}
{"pdf_atom_id": "ig34_p0126_a011", "pdf_atom_type": "TABLE_ROW", "pdf_source": "SDTMIG v3.4 (no header footer).pdf", "pdf_page": 126, "pdf_parent_section": "§6.1.5 [Procedures (PR)]", "pdf_verbatim": "| PRSTDTC | Start Date/Time of Procedure | Char | ISO 8601 datetime or interval | Timing | Start date/time of the procedure represented in ISO 8601 character format. | Exp |", "figure_ref": null, "candidates": [{"md_atom_id": "md_dmPR_ex_a033", "md_file": "knowledge_base/domains/PR/examples.md", "md_atom_type": "TABLE_ROW", "md_parent_section": "§PR.3 [Example 3]", "md_verbatim": "| 2 | ABC123 | PR | ABC123-2002 | 1 | Brachytherapy | 25 | Gy | PROSTATE | | 2011-07-15 | 2011-07-15 |", "score": 0.4411, "match_basis": "verbatim_token+domain_route:PR"}, {"md_atom_id": "md_dmPR_ex_a021", "md_file": "knowledge_base/domains/PR/examples.md", "md_atom_type": "TABLE_ROW", "md_parent_section": "§PR.2 [Example 2]", "md_verbatim": "| 2 | ABC123 | EG | ABC123-001 | 2 | 20110101_20110102 | EGHRMAX | ECG Maximum Heart Rate | 100 | beats/min | HOLTER CONTINUOUS ECG RECORDING | 2011-01-01T08:00 | 2011-01-02T09:45 |", "score": 0.435, "match_basis": "verbatim_token+domain_route:PR"}, {"md_atom_id": "md_dmPR_ex_a008", "md_file": "knowledge_base/domains/PR/examples.md", "md_atom_type": "TABLE_ROW", "md_parent_section": "§PR.1 [Example 1]", "md_verbatim": "| 3 | XYZ | PR | XYZ789-002 | 3 | Prostate Examination | 2010-12-12 | 2010-12-12 |", "score": 0.4338, "match_basis": "verbatim_token+domain_route:PR"}, {"md_atom_id": "md_dmPR_ex_a022", "md_file": "knowledge_base/domains/PR/examples.md", "md_atom_type": "TABLE_ROW", "md_parent_section": "§PR.2 [Example 2]", "md_verbatim": "| 3 | ABC123 | EG | ABC123-001 | 3 | 20110101_20110102 | EGHRMEAN | ECG Mean Heart Rate | 75 | beats/min | HOLTER CONTINUOUS ECG RECORDING | 2011-01-01T08:00 | 2011-01-02T09:45 |", "score": 0.43, "match_basis": "verbatim_token+domain_route:PR"}, {"md_atom_id": "md_dmPR_ex_a020", "md_file": "knowledge_base/domains/PR/examples.md", "md_atom_type": "TABLE_ROW", "md_parent_section": "§PR.2 [Example 2]", "md_verbatim": "| 1 | ABC123 | EG | ABC123-001 | 1 | 20110101_20110102 | EGHRMIN | ECG Minimum Heart Rate | 70 | beats/min | HOLTER CONTINUOUS ECG RECORDING | 2011-01-01T08:00 | 2011-01-02T09:45 |", "score": 0.4294, "match_basis": "verbatim_token+domain_route:PR"}], "candidate_count": 5, "zero_candidate": false}
{"pdf_atom_id": "ig34_p0126_a012", "pdf_atom_type": "TABLE_ROW", "pdf_source": "SDTMIG v3.4 (no header footer).pdf", "pdf_page": 126, "pdf_parent_section": "§6.1.5 [Procedures (PR)]", "pdf_verbatim": "| PRENDTC | End Date/Time of Procedure | Char | ISO 8601 datetime or interval | Timing | End date/time of the procedure represented in ISO 8601 character format. | Perm |", "figure_ref": null, "candidates": [{"md_atom_id": "md_dmPR_ex_a033", "md_file": "knowledge_base/domains/PR/examples.md", "md_atom_type": "TABLE_ROW", "md_parent_section": "§PR.3 [Example 3]", "md_verbatim": "| 2 | ABC123 | PR | ABC123-2002 | 1 | Brachytherapy | 25 | Gy | PROSTATE | | 2011-07-15 | 2011-07-15 |", "score": 0.4338, "match_basis": "verbatim_token+domain_route:PR"}, {"md_atom_id": "md_dmPR_ex_a021", "md_file": "knowledge_base/domains/PR/examples.md", "md_atom_type": "TABLE_ROW", "md_parent_section": "§PR.2 [Example 2]", "md_verbatim": "| 2 | ABC123 | EG | ABC123-001 | 2 | 20110101_20110102 | EGHRMAX | ECG Maximum Heart Rate | 100 | beats/min | HOLTER CONTINUOUS ECG RECORDING | 2011-01-01T08:00 | 2011-01-02T09:45 |", "score": 0.4297, "match_basis": "verbatim_token+domain_route:PR"}, {"md_atom_id": "md_dmPR_ex_a008", "md_file": "knowledge_base/domains/PR/examples.md", "md_atom_type": "TABLE_ROW", "md_parent_section": "§PR.1 [Example 1]", "md_verbatim": "| 3 | XYZ | PR | XYZ789-002 | 3 | Prostate Examination | 2010-12-12 | 2010-12-12 |", "score": 0.4261, "match_basis": "verbatim_token+domain_route:PR"}, {"md_atom_id": "md_dmPR_ex_a022", "md_file": "knowledge_base/domains/PR/examples.md", "md_atom_type": "TABLE_ROW", "md_parent_section": "§PR.2 [Example 2]", "md_verbatim": "| 3 | ABC123 | EG | ABC123-001 | 3 | 20110101_20110102 | EGHRMEAN | ECG Mean Heart Rate | 75 | beats/min | HOLTER CONTINUOUS ECG RECORDING | 2011-01-01T08:00 | 2011-01-02T09:45 |", "score": 0.4245, "match_basis": "verbatim_token+domain_route:PR"}, {"md_atom_id": "md_dmPR_ex_a020", "md_file": "knowledge_base/domains/PR/examples.md", "md_atom_type": "TABLE_ROW", "md_parent_section": "§PR.2 [Example 2]", "md_verbatim": "| 1 | ABC123 | EG | ABC123-001 | 1 | 20110101_20110102 | EGHRMIN | ECG Minimum Heart Rate | 70 | beats/min | HOLTER CONTINUOUS ECG RECORDING | 2011-01-01T08:00 | 2011-01-02T09:45 |", "score": 0.424, "match_basis": "verbatim_token+domain_route:PR"}], "candidate_count": 5, "zero_candidate": false}
{"pdf_atom_id": "ig34_p0126_a013", "pdf_atom_type": "TABLE_ROW", "pdf_source": "SDTMIG v3.4 (no header footer).pdf", "pdf_page": 126, "pdf_parent_section": "§6.1.5 [Procedures (PR)]", "pdf_verbatim": "| PRSTDY | Study Day of Start of Procedure | Num | | Timing | Study day of start of procedure expressed in integer days relative to the sponsor-defined RFSTDTC in Demographics. | Perm |", "figure_ref": null, "candidates": [{"md_atom_id": "md_dmPR_ex_a008", "md_file": "knowledge_base/domains/PR/examples.md", "md_atom_type": "TABLE_ROW", "md_parent_section": "§PR.1 [Example 1]", "md_verbatim": "| 3 | XYZ | PR | XYZ789-002 | 3 | Prostate Examination | 2010-12-12 | 2010-12-12 |", "score": 0.4276, "match_basis": "verbatim_token+domain_route:PR"}, {"md_atom_id": "md_dmPR_ex_a033", "md_file": "knowledge_base/domains/PR/examples.md", "md_atom_type": "TABLE_ROW", "md_parent_section": "§PR.3 [Example 3]", "md_verbatim": "| 2 | ABC123 | PR | ABC123-2002 | 1 | Brachytherapy | 25 | Gy | PROSTATE | | 2011-07-15 | 2011-07-15 |", "score": 0.4267, "match_basis": "verbatim_token+domain_route:PR"}, {"md_atom_id": "md_dmPR_ex_a032", "md_file": "knowledge_base/domains/PR/examples.md", "md_atom_type": "TABLE_ROW", "md_parent_section": "§PR.3 [Example 3]", "md_verbatim": "| 1 | ABC123 | PR | ABC123-1001 | 1 | External beam radiation therapy | 70 | Gy | BREAST | RIGHT | 2011-06-01 | 2011-06-25 |", "score": 0.4178, "match_basis": "verbatim_token+domain_route:PR"}, {"md_atom_id": "md_dmPR_ex_a022", "md_file": "knowledge_base/domains/PR/examples.md", "md_atom_type": "TABLE_ROW", "md_parent_section": "§PR.2 [Example 2]", "md_verbatim": "| 3 | ABC123 | EG | ABC123-001 | 3 | 20110101_20110102 | EGHRMEAN | ECG Mean Heart Rate | 75 | beats/min | HOLTER CONTINUOUS ECG RECORDING | 2011-01-01T08:00 | 2011-01-02T09:45 |", "score": 0.4153, "match_basis": "verbatim_token+domain_route:PR"}, {"md_atom_id": "md_dmPR_ex_a020", "md_file": "knowledge_base/domains/PR/examples.md", "md_atom_type": "TABLE_ROW", "md_parent_section": "§PR.2 [Example 2]", "md_verbatim": "| 1 | ABC123 | EG | ABC123-001 | 1 | 20110101_20110102 | EGHRMIN | ECG Minimum Heart Rate | 70 | beats/min | HOLTER CONTINUOUS ECG RECORDING | 2011-01-01T08:00 | 2011-01-02T09:45 |", "score": 0.415, "match_basis": "verbatim_token+domain_route:PR"}], "candidate_count": 5, "zero_candidate": false}
{"pdf_atom_id": "ig34_p0126_a014", "pdf_atom_type": "TABLE_ROW", "pdf_source": "SDTMIG v3.4 (no header footer).pdf", "pdf_page": 126, "pdf_parent_section": "§6.1.5 [Procedures (PR)]", "pdf_verbatim": "| PRENDY | Study Day of End of Procedure | Num | | Timing | Study day of end of procedure expressed in integer days relative to the sponsor-defined RFSTDTC in Demographics. | Perm |", "figure_ref": null, "candidates": [{"md_atom_id": "md_dmPR_ex_a008", "md_file": "knowledge_base/domains/PR/examples.md", "md_atom_type": "TABLE_ROW", "md_parent_section": "§PR.1 [Example 1]", "md_verbatim": "| 3 | XYZ | PR | XYZ789-002 | 3 | Prostate Examination | 2010-12-12 | 2010-12-12 |", "score": 0.4212, "match_basis": "verbatim_token+domain_route:PR"}, {"md_atom_id": "md_dmPR_ex_a033", "md_file": "knowledge_base/domains/PR/examples.md", "md_atom_type": "TABLE_ROW", "md_parent_section": "§PR.3 [Example 3]", "md_verbatim": "| 2 | ABC123 | PR | ABC123-2002 | 1 | Brachytherapy | 25 | Gy | PROSTATE | | 2011-07-15 | 2011-07-15 |", "score": 0.4205, "match_basis": "verbatim_token+domain_route:PR"}, {"md_atom_id": "md_dmPR_ex_a032", "md_file": "knowledge_base/domains/PR/examples.md", "md_atom_type": "TABLE_ROW", "md_parent_section": "§PR.3 [Example 3]", "md_verbatim": "| 1 | ABC123 | PR | ABC123-1001 | 1 | External beam radiation therapy | 70 | Gy | BREAST | RIGHT | 2011-06-01 | 2011-06-25 |", "score": 0.4184, "match_basis": "verbatim_token+domain_route:PR"}, {"md_atom_id": "md_dmPR_ex_a034", "md_file": "knowledge_base/domains/PR/examples.md", "md_atom_type": "TABLE_ROW", "md_parent_section": "§PR.3 [Example 3]", "md_verbatim": "| 3 | ABC123 | PR | ABC123-3003 | 1 | Radiotherapy | 300 | cGy | BONE | | 2011-08-19 | 2011-08-22 |", "score": 0.4141, "match_basis": "verbatim_token+domain_route:PR"}, {"md_atom_id": "md_dmPR_ex_a015", "md_file": "knowledge_base/domains/PR/examples.md", "md_atom_type": "TABLE_HEADER", "md_parent_section": "§PR.2 [Example 2]", "md_verbatim": "| Row | STUDYID | DOMAIN | USUBJID | PRSEQ | PRLNKID | PRTRT | PRDECOD | PRPRESP | PROCCUR | PRSTDTC | PRENDTC |\n|-----|---------|--------|---------|-------|---------|-------|---------|---------|---------|---------|---------|", "score": 0.4106, "match_basis": "verbatim_token+domain_route:PR"}], "candidate_count": 5, "zero_candidate": false}
{"pdf_atom_id": "ig34_p0126_a015", "pdf_atom_type": "TABLE_ROW", "pdf_source": "SDTMIG v3.4 (no header footer).pdf", "pdf_page": 126, "pdf_parent_section": "§6.1.5 [Procedures (PR)]", "pdf_verbatim": "| PRDUR | Duration of Procedure | Char | ISO 8601 duration | Timing | Collected duration of a procedure represented in ISO 8601 character format. Used only if collected on the CRF and not derived from start and end date/times. | Perm |", "figure_ref": null, "candidates": [{"md_atom_id": "md_dmPR_ex_a008", "md_file": "knowledge_base/domains/PR/examples.md", "md_atom_type": "TABLE_ROW", "md_parent_section": "§PR.1 [Example 1]", "md_verbatim": "| 3 | XYZ | PR | XYZ789-002 | 3 | Prostate Examination | 2010-12-12 | 2010-12-12 |", "score": 0.4488, "match_basis": "verbatim_token+domain_route:PR"}, {"md_atom_id": "md_dmPR_ex_a021", "md_file": "knowledge_base/domains/PR/examples.md", "md_atom_type": "TABLE_ROW", "md_parent_section": "§PR.2 [Example 2]", "md_verbatim": "| 2 | ABC123 | EG | ABC123-001 | 2 | 20110101_20110102 | EGHRMAX | ECG Maximum Heart Rate | 100 | beats/min | HOLTER CONTINUOUS ECG RECORDING | 2011-01-01T08:00 | 2011-01-02T09:45 |", "score": 0.435, "match_basis": "verbatim_token+domain_route:PR"}, {"md_atom_id": "md_dmPR_ex_a033", "md_file": "knowledge_base/domains/PR/examples.md", "md_atom_type": "TABLE_ROW", "md_parent_section": "§PR.3 [Example 3]", "md_verbatim": "| 2 | ABC123 | PR | ABC123-2002 | 1 | Brachytherapy | 25 | Gy | PROSTATE | | 2011-07-15 | 2011-07-15 |", "score": 0.433, "match_basis": "verbatim_token+domain_route:PR"}, {"md_atom_id": "md_dmPR_ex_a022", "md_file": "knowledge_base/domains/PR/examples.md", "md_atom_type": "TABLE_ROW", "md_parent_section": "§PR.2 [Example 2]", "md_verbatim": "| 3 | ABC123 | EG | ABC123-001 | 3 | 20110101_20110102 | EGHRMEAN | ECG Mean Heart Rate | 75 | beats/min | HOLTER CONTINUOUS ECG RECORDING | 2011-01-01T08:00 | 2011-01-02T09:45 |", "score": 0.4308, "match_basis": "verbatim_token+domain_route:PR"}, {"md_atom_id": "md_dmPR_ex_a020", "md_file": "knowledge_base/domains/PR/examples.md", "md_atom_type": "TABLE_ROW", "md_parent_section": "§PR.2 [Example 2]", "md_verbatim": "| 1 | ABC123 | EG | ABC123-001 | 1 | 20110101_20110102 | EGHRMIN | ECG Minimum Heart Rate | 70 | beats/min | HOLTER CONTINUOUS ECG RECORDING | 2011-01-01T08:00 | 2011-01-02T09:45 |", "score": 0.4303, "match_basis": "verbatim_token+domain_route:PR"}], "candidate_count": 5, "zero_candidate": false}
{"pdf_atom_id": "ig34_p0126_a016", "pdf_atom_type": "TABLE_ROW", "pdf_source": "SDTMIG v3.4 (no header footer).pdf", "pdf_page": 126, "pdf_parent_section": "§6.1.5 [Procedures (PR)]", "pdf_verbatim": "| PRTPT | Planned Time Point Name | Char | | Timing | Text description of time when a procedure should be performed. This may be represented as an elapsed time relative to a fixed reference point, such as time of last dose. See PRTPTNUM and PRTPTREF. | Perm |", "figure_ref": null, "candidates": [{"md_atom_id": "md_dmPR_ex_a008", "md_file": "knowledge_base/domains/PR/examples.md", "md_atom_type": "TABLE_ROW", "md_parent_section": "§PR.1 [Example 1]", "md_verbatim": "| 3 | XYZ | PR | XYZ789-002 | 3 | Prostate Examination | 2010-12-12 | 2010-12-12 |", "score": 0.4263, "match_basis": "verbatim_token+domain_route:PR"}, {"md_atom_id": "md_dmPR_ex_a032", "md_file": "knowledge_base/domains/PR/examples.md", "md_atom_type": "TABLE_ROW", "md_parent_section": "§PR.3 [Example 3]", "md_verbatim": "| 1 | ABC123 | PR | ABC123-1001 | 1 | External beam radiation therapy | 70 | Gy | BREAST | RIGHT | 2011-06-01 | 2011-06-25 |", "score": 0.4236, "match_basis": "verbatim_token+domain_route:PR"}, {"md_atom_id": "md_dmPR_ex_a006", "md_file": "knowledge_base/domains/PR/examples.md", "md_atom_type": "TABLE_ROW", "md_parent_section": "§PR.1 [Example 1]", "md_verbatim": "| 1 | XYZ | PR | XYZ789-002 | 1 | Wisdom Teeth Extraction | 2010-06-08 | 2010-06-08 |", "score": 0.4155, "match_basis": "verbatim_token+domain_route:PR"}, {"md_atom_id": "md_dmPR_ex_a022", "md_file": "knowledge_base/domains/PR/examples.md", "md_atom_type": "TABLE_ROW", "md_parent_section": "§PR.2 [Example 2]", "md_verbatim": "| 3 | ABC123 | EG | ABC123-001 | 3 | 20110101_20110102 | EGHRMEAN | ECG Mean Heart Rate | 75 | beats/min | HOLTER CONTINUOUS ECG RECORDING | 2011-01-01T08:00 | 2011-01-02T09:45 |", "score": 0.4123, "match_basis": "verbatim_token+domain_route:PR"}, {"md_atom_id": "md_dmPR_ex_a007", "md_file": "knowledge_base/domains/PR/examples.md", "md_atom_type": "TABLE_ROW", "md_parent_section": "§PR.1 [Example 1]", "md_verbatim": "| 2 | XYZ | PR | XYZ789-002 | 2 | Reset Broken Arm | 2010-08-06 | 2010-08-06 |", "score": 0.4109, "match_basis": "verbatim_token+domain_route:PR"}], "candidate_count": 5, "zero_candidate": false}
{"pdf_atom_id": "ig34_p0126_a017", "pdf_atom_type": "TABLE_ROW", "pdf_source": "SDTMIG v3.4 (no header footer).pdf", "pdf_page": 126, "pdf_parent_section": "§6.1.5 [Procedures (PR)]", "pdf_verbatim": "| PRTPTNUM | Planned Time Point Number | Num | | Timing | Numerical version of planned time point used in sorting. | Perm |", "figure_ref": null, "candidates": [{"md_atom_id": "md_dmPR_ex_a010", "md_file": "knowledge_base/domains/PR/examples.md", "md_atom_type": "TABLE_ROW", "md_parent_section": "§PR.1 [Example 1]", "md_verbatim": "| 5 | XYZ | PR | XYZ789-002 | 5 | Heart Transplant | 2011-08-29 | 2011-08-29 |", "score": 0.4211, "match_basis": "verbatim_token+domain_route:PR"}, {"md_atom_id": "md_dmPR_ex_a022", "md_file": "knowledge_base/domains/PR/examples.md", "md_atom_type": "TABLE_ROW", "md_parent_section": "§PR.2 [Example 2]", "md_verbatim": "| 3 | ABC123 | EG | ABC123-001 | 3 | 20110101_20110102 | EGHRMEAN | ECG Mean Heart Rate | 75 | beats/min | HOLTER CONTINUOUS ECG RECORDING | 2011-01-01T08:00 | 2011-01-02T09:45 |", "score": 0.42, "match_basis": "verbatim_token+domain_route:PR"}, {"md_atom_id": "md_dmPR_ex_a008", "md_file": "knowledge_base/domains/PR/examples.md", "md_atom_type": "TABLE_ROW", "md_parent_section": "§PR.1 [Example 1]", "md_verbatim": "| 3 | XYZ | PR | XYZ789-002 | 3 | Prostate Examination | 2010-12-12 | 2010-12-12 |", "score": 0.4197, "match_basis": "verbatim_token+domain_route:PR"}, {"md_atom_id": "md_dmPR_ex_a020", "md_file": "knowledge_base/domains/PR/examples.md", "md_atom_type": "TABLE_ROW", "md_parent_section": "§PR.2 [Example 2]", "md_verbatim": "| 1 | ABC123 | EG | ABC123-001 | 1 | 20110101_20110102 | EGHRMIN | ECG Minimum Heart Rate | 70 | beats/min | HOLTER CONTINUOUS ECG RECORDING | 2011-01-01T08:00 | 2011-01-02T09:45 |", "score": 0.4196, "match_basis": "verbatim_token+domain_route:PR"}, {"md_atom_id": "md_dmPR_ex_a021", "md_file": "knowledge_base/domains/PR/examples.md", "md_atom_type": "TABLE_ROW", "md_parent_section": "§PR.2 [Example 2]", "md_verbatim": "| 2 | ABC123 | EG | ABC123-001 | 2 | 20110101_20110102 | EGHRMAX | ECG Maximum Heart Rate | 100 | beats/min | HOLTER CONTINUOUS ECG RECORDING | 2011-01-01T08:00 | 2011-01-02T09:45 |", "score": 0.4191, "match_basis": "verbatim_token+domain_route:PR"}], "candidate_count": 5, "zero_candidate": false}
{"pdf_atom_id": "ig34_p0126_a018", "pdf_atom_type": "TABLE_ROW", "pdf_source": "SDTMIG v3.4 (no header footer).pdf", "pdf_page": 126, "pdf_parent_section": "§6.1.5 [Procedures (PR)]", "pdf_verbatim": "| PRELTM | Planned Elapsed Time from Time Point Ref | Char | ISO 8601 duration | Timing | Planned elapsed time in ISO 8601 format relative to a planned fixed reference (PRTPTREF). This variable is useful where there are repetitive measures. Not a clock time or a date/time variable, but an interval, represented as ISO duration. | Perm |", "figure_ref": null, "candidates": [{"md_atom_id": "md_dmPR_ex_a032", "md_file": "knowledge_base/domains/PR/examples.md", "md_atom_type": "TABLE_ROW", "md_parent_section": "§PR.3 [Example 3]", "md_verbatim": "| 1 | ABC123 | PR | ABC123-1001 | 1 | External beam radiation therapy | 70 | Gy | BREAST | RIGHT | 2011-06-01 | 2011-06-25 |", "score": 0.4318, "match_basis": "verbatim_token+domain_route:PR"}, {"md_atom_id": "md_dmPR_ex_a008", "md_file": "knowledge_base/domains/PR/examples.md", "md_atom_type": "TABLE_ROW", "md_parent_section": "§PR.1 [Example 1]", "md_verbatim": "| 3 | XYZ | PR | XYZ789-002 | 3 | Prostate Examination | 2010-12-12 | 2010-12-12 |", "score": 0.4248, "match_basis": "verbatim_token+domain_route:PR"}, {"md_atom_id": "md_dmPR_ex_a022", "md_file": "knowledge_base/domains/PR/examples.md", "md_atom_type": "TABLE_ROW", "md_parent_section": "§PR.2 [Example 2]", "md_verbatim": "| 3 | ABC123 | EG | ABC123-001 | 3 | 20110101_20110102 | EGHRMEAN | ECG Mean Heart Rate | 75 | beats/min | HOLTER CONTINUOUS ECG RECORDING | 2011-01-01T08:00 | 2011-01-02T09:45 |", "score": 0.424, "match_basis": "verbatim_token+domain_route:PR"}, {"md_atom_id": "md_dmPR_ex_a021", "md_file": "knowledge_base/domains/PR/examples.md", "md_atom_type": "TABLE_ROW", "md_parent_section": "§PR.2 [Example 2]", "md_verbatim": "| 2 | ABC123 | EG | ABC123-001 | 2 | 20110101_20110102 | EGHRMAX | ECG Maximum Heart Rate | 100 | beats/min | HOLTER CONTINUOUS ECG RECORDING | 2011-01-01T08:00 | 2011-01-02T09:45 |", "score": 0.4234, "match_basis": "verbatim_token+domain_route:PR"}, {"md_atom_id": "md_dmPR_ex_a020", "md_file": "knowledge_base/domains/PR/examples.md", "md_atom_type": "TABLE_ROW", "md_parent_section": "§PR.2 [Example 2]", "md_verbatim": "| 1 | ABC123 | EG | ABC123-001 | 1 | 20110101_20110102 | EGHRMIN | ECG Minimum Heart Rate | 70 | beats/min | HOLTER CONTINUOUS ECG RECORDING | 2011-01-01T08:00 | 2011-01-02T09:45 |", "score": 0.4196, "match_basis": "verbatim_token+domain_route:PR"}], "candidate_count": 5, "zero_candidate": false}
{"pdf_atom_id": "ig34_p0126_a019", "pdf_atom_type": "TABLE_ROW", "pdf_source": "SDTMIG v3.4 (no header footer).pdf", "pdf_page": 126, "pdf_parent_section": "§6.1.5 [Procedures (PR)]", "pdf_verbatim": "| PRTPTREF | Time Point Reference | Char | | Timing | Description of the fixed reference point referred to by PRELTM, PRTPTNUM, and PRTPT. | Perm |", "figure_ref": null, "candidates": [{"md_atom_id": "md_dmPR_ex_a008", "md_file": "knowledge_base/domains/PR/examples.md", "md_atom_type": "TABLE_ROW", "md_parent_section": "§PR.1 [Example 1]", "md_verbatim": "| 3 | XYZ | PR | XYZ789-002 | 3 | Prostate Examination | 2010-12-12 | 2010-12-12 |", "score": 0.4269, "match_basis": "verbatim_token+domain_route:PR"}, {"md_atom_id": "md_dmPR_ex_a032", "md_file": "knowledge_base/domains/PR/examples.md", "md_atom_type": "TABLE_ROW", "md_parent_section": "§PR.3 [Example 3]", "md_verbatim": "| 1 | ABC123 | PR | ABC123-1001 | 1 | External beam radiation therapy | 70 | Gy | BREAST | RIGHT | 2011-06-01 | 2011-06-25 |", "score": 0.4225, "match_basis": "verbatim_token+domain_route:PR"}, {"md_atom_id": "md_dmPR_ex_a006", "md_file": "knowledge_base/domains/PR/examples.md", "md_atom_type": "TABLE_ROW", "md_parent_section": "§PR.1 [Example 1]", "md_verbatim": "| 1 | XYZ | PR | XYZ789-002 | 1 | Wisdom Teeth Extraction | 2010-06-08 | 2010-06-08 |", "score": 0.4176, "match_basis": "verbatim_token+domain_route:PR"}, {"md_atom_id": "md_dmPR_ex_a022", "md_file": "knowledge_base/domains/PR/examples.md", "md_atom_type": "TABLE_ROW", "md_parent_section": "§PR.2 [Example 2]", "md_verbatim": "| 3 | ABC123 | EG | ABC123-001 | 3 | 20110101_20110102 | EGHRMEAN | ECG Mean Heart Rate | 75 | beats/min | HOLTER CONTINUOUS ECG RECORDING | 2011-01-01T08:00 | 2011-01-02T09:45 |", "score": 0.4122, "match_basis": "verbatim_token+domain_route:PR"}, {"md_atom_id": "md_dmPR_ex_a020", "md_file": "knowledge_base/domains/PR/examples.md", "md_atom_type": "TABLE_ROW", "md_parent_section": "§PR.2 [Example 2]", "md_verbatim": "| 1 | ABC123 | EG | ABC123-001 | 1 | 20110101_20110102 | EGHRMIN | ECG Minimum Heart Rate | 70 | beats/min | HOLTER CONTINUOUS ECG RECORDING | 2011-01-01T08:00 | 2011-01-02T09:45 |", "score": 0.412, "match_basis": "verbatim_token+domain_route:PR"}], "candidate_count": 5, "zero_candidate": false}
{"pdf_atom_id": "ig34_p0126_a020", "pdf_atom_type": "TABLE_ROW", "pdf_source": "SDTMIG v3.4 (no header footer).pdf", "pdf_page": 126, "pdf_parent_section": "§6.1.5 [Procedures (PR)]", "pdf_verbatim": "| PRRFTDTC | Date/Time of Reference Time Point | Char | ISO 8601 datetime or interval | Timing | Date/time for a fixed reference time point defined by PRTRTREF in ISO 8601 character format. | Perm |", "figure_ref": null, "candidates": [{"md_atom_id": "md_dmPR_ex_a021", "md_file": "knowledge_base/domains/PR/examples.md", "md_atom_type": "TABLE_ROW", "md_parent_section": "§PR.2 [Example 2]", "md_verbatim": "| 2 | ABC123 | EG | ABC123-001 | 2 | 20110101_20110102 | EGHRMAX | ECG Maximum Heart Rate | 100 | beats/min | HOLTER CONTINUOUS ECG RECORDING | 2011-01-01T08:00 | 2011-01-02T09:45 |", "score": 0.4278, "match_basis": "verbatim_token+domain_route:PR"}, {"md_atom_id": "md_dmPR_ex_a022", "md_file": "knowledge_base/domains/PR/examples.md", "md_atom_type": "TABLE_ROW", "md_parent_section": "§PR.2 [Example 2]", "md_verbatim": "| 3 | ABC123 | EG | ABC123-001 | 3 | 20110101_20110102 | EGHRMEAN | ECG Mean Heart Rate | 75 | beats/min | HOLTER CONTINUOUS ECG RECORDING | 2011-01-01T08:00 | 2011-01-02T09:45 |", "score": 0.4229, "match_basis": "verbatim_token+domain_route:PR"}, {"md_atom_id": "md_dmPR_ex_a020", "md_file": "knowledge_base/domains/PR/examples.md", "md_atom_type": "TABLE_ROW", "md_parent_section": "§PR.2 [Example 2]", "md_verbatim": "| 1 | ABC123 | EG | ABC123-001 | 1 | 20110101_20110102 | EGHRMIN | ECG Minimum Heart Rate | 70 | beats/min | HOLTER CONTINUOUS ECG RECORDING | 2011-01-01T08:00 | 2011-01-02T09:45 |", "score": 0.4224, "match_basis": "verbatim_token+domain_route:PR"}, {"md_atom_id": "md_dmPR_ex_a006", "md_file": "knowledge_base/domains/PR/examples.md", "md_atom_type": "TABLE_ROW", "md_parent_section": "§PR.1 [Example 1]", "md_verbatim": "| 1 | XYZ | PR | XYZ789-002 | 1 | Wisdom Teeth Extraction | 2010-06-08 | 2010-06-08 |", "score": 0.4156, "match_basis": "verbatim_token+domain_route:PR"}, {"md_atom_id": "md_dmPR_ex_a008", "md_file": "knowledge_base/domains/PR/examples.md", "md_atom_type": "TABLE_ROW", "md_parent_section": "§PR.1 [Example 1]", "md_verbatim": "| 3 | XYZ | PR | XYZ789-002 | 3 | Prostate Examination | 2010-12-12 | 2010-12-12 |", "score": 0.4156, "match_basis": "verbatim_token+domain_route:PR"}], "candidate_count": 5, "zero_candidate": false}
{"pdf_atom_id": "ig34_p0126_a021", "pdf_atom_type": "TABLE_ROW", "pdf_source": "SDTMIG v3.4 (no header footer).pdf", "pdf_page": 126, "pdf_parent_section": "§6.1.5 [Procedures (PR)]", "pdf_verbatim": "| PRSTRTPT | Start Relative to Reference Time Point | Char | (STENRF) | Timing | Identifies the start of the observation as being before or after the sponsor-defined reference time point defined by variable PRSTTPT. Not all values of the codelist are allowable for this variable. See Section 4.4.7, Use of Relative Timing Variables. | Perm |", "figure_ref": null, "candidates": [{"md_atom_id": "md_dmPR_ex_a008", "md_file": "knowledge_base/domains/PR/examples.md", "md_atom_type": "TABLE_ROW", "md_parent_section": "§PR.1 [Example 1]", "md_verbatim": "| 3 | XYZ | PR | XYZ789-002 | 3 | Prostate Examination | 2010-12-12 | 2010-12-12 |", "score": 0.4242, "match_basis": "verbatim_token+domain_route:PR"}, {"md_atom_id": "md_dmPR_ex_a032", "md_file": "knowledge_base/domains/PR/examples.md", "md_atom_type": "TABLE_ROW", "md_parent_section": "§PR.3 [Example 3]", "md_verbatim": "| 1 | ABC123 | PR | ABC123-1001 | 1 | External beam radiation therapy | 70 | Gy | BREAST | RIGHT | 2011-06-01 | 2011-06-25 |", "score": 0.4219, "match_basis": "verbatim_token+domain_route:PR"}, {"md_atom_id": "md_dmPR_ex_a022", "md_file": "knowledge_base/domains/PR/examples.md", "md_atom_type": "TABLE_ROW", "md_parent_section": "§PR.2 [Example 2]", "md_verbatim": "| 3 | ABC123 | EG | ABC123-001 | 3 | 20110101_20110102 | EGHRMEAN | ECG Mean Heart Rate | 75 | beats/min | HOLTER CONTINUOUS ECG RECORDING | 2011-01-01T08:00 | 2011-01-02T09:45 |", "score": 0.4195, "match_basis": "verbatim_token+domain_route:PR"}, {"md_atom_id": "md_dmPR_ex_a020", "md_file": "knowledge_base/domains/PR/examples.md", "md_atom_type": "TABLE_ROW", "md_parent_section": "§PR.2 [Example 2]", "md_verbatim": "| 1 | ABC123 | EG | ABC123-001 | 1 | 20110101_20110102 | EGHRMIN | ECG Minimum Heart Rate | 70 | beats/min | HOLTER CONTINUOUS ECG RECORDING | 2011-01-01T08:00 | 2011-01-02T09:45 |", "score": 0.4192, "match_basis": "verbatim_token+domain_route:PR"}, {"md_atom_id": "md_dmPR_ex_a021", "md_file": "knowledge_base/domains/PR/examples.md", "md_atom_type": "TABLE_ROW", "md_parent_section": "§PR.2 [Example 2]", "md_verbatim": "| 2 | ABC123 | EG | ABC123-001 | 2 | 20110101_20110102 | EGHRMAX | ECG Maximum Heart Rate | 100 | beats/min | HOLTER CONTINUOUS ECG RECORDING | 2011-01-01T08:00 | 2011-01-02T09:45 |", "score": 0.419, "match_basis": "verbatim_token+domain_route:PR"}], "candidate_count": 5, "zero_candidate": false}
{"pdf_atom_id": "ig34_p0126_a022", "pdf_atom_type": "TABLE_ROW", "pdf_source": "SDTMIG v3.4 (no header footer).pdf", "pdf_page": 126, "pdf_parent_section": "§6.1.5 [Procedures (PR)]", "pdf_verbatim": "| PRSTTPT | Start Reference Time Point | Char | | Timing | Description or date/time in ISO 8601 character format of the sponsor-defined reference point referred to by PRSTRTPT. Examples: \"2003-12-15\", \"VISIT 1\". | Perm |", "figure_ref": null, "candidates": [{"md_atom_id": "md_dmPR_ex_a008", "md_file": "knowledge_base/domains/PR/examples.md", "md_atom_type": "TABLE_ROW", "md_parent_section": "§PR.1 [Example 1]", "md_verbatim": "| 3 | XYZ | PR | XYZ789-002 | 3 | Prostate Examination | 2010-12-12 | 2010-12-12 |", "score": 0.4452, "match_basis": "verbatim_token+domain_route:PR"}, {"md_atom_id": "md_dmPR_ex_a033", "md_file": "knowledge_base/domains/PR/examples.md", "md_atom_type": "TABLE_ROW", "md_parent_section": "§PR.3 [Example 3]", "md_verbatim": "| 2 | ABC123 | PR | ABC123-2002 | 1 | Brachytherapy | 25 | Gy | PROSTATE | | 2011-07-15 | 2011-07-15 |", "score": 0.4306, "match_basis": "verbatim_token+domain_route:PR"}, {"md_atom_id": "md_dmPR_ex_a021", "md_file": "knowledge_base/domains/PR/examples.md", "md_atom_type": "TABLE_ROW", "md_parent_section": "§PR.2 [Example 2]", "md_verbatim": "| 2 | ABC123 | EG | ABC123-001 | 2 | 20110101_20110102 | EGHRMAX | ECG Maximum Heart Rate | 100 | beats/min | HOLTER CONTINUOUS ECG RECORDING | 2011-01-01T08:00 | 2011-01-02T09:45 |", "score": 0.4281, "match_basis": "verbatim_token+domain_route:PR"}, {"md_atom_id": "md_dmPR_ex_a006", "md_file": "knowledge_base/domains/PR/examples.md", "md_atom_type": "TABLE_ROW", "md_parent_section": "§PR.1 [Example 1]", "md_verbatim": "| 1 | XYZ | PR | XYZ789-002 | 1 | Wisdom Teeth Extraction | 2010-06-08 | 2010-06-08 |", "score": 0.425, "match_basis": "verbatim_token+domain_route:PR"}, {"md_atom_id": "md_dmPR_ex_a022", "md_file": "knowledge_base/domains/PR/examples.md", "md_atom_type": "TABLE_ROW", "md_parent_section": "§PR.2 [Example 2]", "md_verbatim": "| 3 | ABC123 | EG | ABC123-001 | 3 | 20110101_20110102 | EGHRMEAN | ECG Mean Heart Rate | 75 | beats/min | HOLTER CONTINUOUS ECG RECORDING | 2011-01-01T08:00 | 2011-01-02T09:45 |", "score": 0.424, "match_basis": "verbatim_token+domain_route:PR"}], "candidate_count": 5, "zero_candidate": false}
{"pdf_atom_id": "ig34_p0126_a023", "pdf_atom_type": "TABLE_ROW", "pdf_source": "SDTMIG v3.4 (no header footer).pdf", "pdf_page": 126, "pdf_parent_section": "§6.1.5 [Procedures (PR)]", "pdf_verbatim": "| PRENRTPT | End Relative to Reference Time Point | Char | (STENRF) | Timing | Identifies the end of the observation as being before or after the sponsor-defined reference time point defined by variable PRENTPT. Not all values of the codelist are allowable for this variable. See Section 4.4.7, Use of Relative Timing Variables. | Perm |", "figure_ref": null, "candidates": [{"md_atom_id": "md_dmPR_ex_a032", "md_file": "knowledge_base/domains/PR/examples.md", "md_atom_type": "TABLE_ROW", "md_parent_section": "§PR.3 [Example 3]", "md_verbatim": "| 1 | ABC123 | PR | ABC123-1001 | 1 | External beam radiation therapy | 70 | Gy | BREAST | RIGHT | 2011-06-01 | 2011-06-25 |", "score": 0.4227, "match_basis": "verbatim_token+domain_route:PR"}, {"md_atom_id": "md_dmPR_ex_a008", "md_file": "knowledge_base/domains/PR/examples.md", "md_atom_type": "TABLE_ROW", "md_parent_section": "§PR.1 [Example 1]", "md_verbatim": "| 3 | XYZ | PR | XYZ789-002 | 3 | Prostate Examination | 2010-12-12 | 2010-12-12 |", "score": 0.42, "match_basis": "verbatim_token+domain_route:PR"}, {"md_atom_id": "md_dmPR_ex_a022", "md_file": "knowledge_base/domains/PR/examples.md", "md_atom_type": "TABLE_ROW", "md_parent_section": "§PR.2 [Example 2]", "md_verbatim": "| 3 | ABC123 | EG | ABC123-001 | 3 | 20110101_20110102 | EGHRMEAN | ECG Mean Heart Rate | 75 | beats/min | HOLTER CONTINUOUS ECG RECORDING | 2011-01-01T08:00 | 2011-01-02T09:45 |", "score": 0.416, "match_basis": "verbatim_token+domain_route:PR"}, {"md_atom_id": "md_dmPR_ex_a020", "md_file": "knowledge_base/domains/PR/examples.md", "md_atom_type": "TABLE_ROW", "md_parent_section": "§PR.2 [Example 2]", "md_verbatim": "| 1 | ABC123 | EG | ABC123-001 | 1 | 20110101_20110102 | EGHRMIN | ECG Minimum Heart Rate | 70 | beats/min | HOLTER CONTINUOUS ECG RECORDING | 2011-01-01T08:00 | 2011-01-02T09:45 |", "score": 0.4158, "match_basis": "verbatim_token+domain_route:PR"}, {"md_atom_id": "md_dmPR_ex_a021", "md_file": "knowledge_base/domains/PR/examples.md", "md_atom_type": "TABLE_ROW", "md_parent_section": "§PR.2 [Example 2]", "md_verbatim": "| 2 | ABC123 | EG | ABC123-001 | 2 | 20110101_20110102 | EGHRMAX | ECG Maximum Heart Rate | 100 | beats/min | HOLTER CONTINUOUS ECG RECORDING | 2011-01-01T08:00 | 2011-01-02T09:45 |", "score": 0.4156, "match_basis": "verbatim_token+domain_route:PR"}], "candidate_count": 5, "zero_candidate": false}
{"pdf_atom_id": "ig34_p0126_a024", "pdf_atom_type": "TABLE_ROW", "pdf_source": "SDTMIG v3.4 (no header footer).pdf", "pdf_page": 126, "pdf_parent_section": "§6.1.5 [Procedures (PR)]", "pdf_verbatim": "| PRENTPT | End Reference Time Point | Char | | Timing | Description or date/time in ISO 8601 character format of the sponsor-defined reference point referred to by PRENRTPT. Examples: \"2003-12-25\", \"VISIT 2\". | Perm |", "figure_ref": null, "candidates": [{"md_atom_id": "md_dmPR_ex_a008", "md_file": "knowledge_base/domains/PR/examples.md", "md_atom_type": "TABLE_ROW", "md_parent_section": "§PR.1 [Example 1]", "md_verbatim": "| 3 | XYZ | PR | XYZ789-002 | 3 | Prostate Examination | 2010-12-12 | 2010-12-12 |", "score": 0.4396, "match_basis": "verbatim_token+domain_route:PR"}, {"md_atom_id": "md_dmPR_ex_a006", "md_file": "knowledge_base/domains/PR/examples.md", "md_atom_type": "TABLE_ROW", "md_parent_section": "§PR.1 [Example 1]", "md_verbatim": "| 1 | XYZ | PR | XYZ789-002 | 1 | Wisdom Teeth Extraction | 2010-06-08 | 2010-06-08 |", "score": 0.4258, "match_basis": "verbatim_token+domain_route:PR"}, {"md_atom_id": "md_dmPR_ex_a033", "md_file": "knowledge_base/domains/PR/examples.md", "md_atom_type": "TABLE_ROW", "md_parent_section": "§PR.3 [Example 3]", "md_verbatim": "| 2 | ABC123 | PR | ABC123-2002 | 1 | Brachytherapy | 25 | Gy | PROSTATE | | 2011-07-15 | 2011-07-15 |", "score": 0.425, "match_basis": "verbatim_token+domain_route:PR"}, {"md_atom_id": "md_dmPR_ex_a021", "md_file": "knowledge_base/domains/PR/examples.md", "md_atom_type": "TABLE_ROW", "md_parent_section": "§PR.2 [Example 2]", "md_verbatim": "| 2 | ABC123 | EG | ABC123-001 | 2 | 20110101_20110102 | EGHRMAX | ECG Maximum Heart Rate | 100 | beats/min | HOLTER CONTINUOUS ECG RECORDING | 2011-01-01T08:00 | 2011-01-02T09:45 |", "score": 0.4238, "match_basis": "verbatim_token+domain_route:PR"}, {"md_atom_id": "md_dmPR_ex_a032", "md_file": "knowledge_base/domains/PR/examples.md", "md_atom_type": "TABLE_ROW", "md_parent_section": "§PR.3 [Example 3]", "md_verbatim": "| 1 | ABC123 | PR | ABC123-1001 | 1 | External beam radiation therapy | 70 | Gy | BREAST | RIGHT | 2011-06-01 | 2011-06-25 |", "score": 0.4226, "match_basis": "verbatim_token+domain_route:PR"}], "candidate_count": 5, "zero_candidate": false}
{"pdf_atom_id": "ig34_p0126_a025", "pdf_atom_type": "NOTE", "pdf_source": "SDTMIG v3.4 (no header footer).pdf", "pdf_page": 126, "pdf_parent_section": "§6.1.5 [Procedures (PR)]", "pdf_verbatim": "¹In this column, an asterisk (*) indicates that the variable may be subject to controlled terminology. CDISC/NCI codelist values are enclosed in parentheses.", "figure_ref": null, "candidates": [{"md_atom_id": "md_dmPR_ex_a003", "md_file": "knowledge_base/domains/PR/examples.md", "md_atom_type": "SENTENCE", "md_parent_section": "§PR.1 [Example 1]", "md_verbatim": "A procedures log CRF may collect verbatim values (procedure names) and dates performed. This example shows a subject who had 5 procedures collected and represented in the PR domain. In this study, the sponsor chose to consider verbatim text in PRTRT as long text represented in mixed case. See Section 4.2.4, Text Case in Submitted Data.", "score": 0.3941, "match_basis": "verbatim_token+domain_route:PR"}, {"md_atom_id": "md_dmPR_ex_a029", "md_file": "knowledge_base/domains/PR/examples.md", "md_atom_type": "SENTENCE", "md_parent_section": "§PR.3 [Example 3]", "md_verbatim": "This example shows data for 3 subjects who had on-study radiotherapy. Dose, dose unit, location, and timing are represented. In this study, the sponsor chose to consider verbatim text in PRTRT as long text represented in mixed case. See Section 4.2.4, Text Case in Submitted Data.", "score": 0.367, "match_basis": "verbatim_token+domain_route:PR"}, {"md_atom_id": "md_dmPR_ex_a017", "md_file": "knowledge_base/domains/PR/examples.md", "md_atom_type": "SENTENCE", "md_parent_section": "§PR.2 [Example 2]", "md_verbatim": "The heart rate findings from the procedure are represented in the ECG Test Results (EG) domain.", "score": 0.3529, "match_basis": "verbatim_token+domain_route:PR"}, {"md_atom_id": "md_dmPR_ex_a012", "md_file": "knowledge_base/domains/PR/examples.md", "md_atom_type": "SENTENCE", "md_parent_section": "§PR.2 [Example 2]", "md_verbatim": "This example shows data from a 24-hour Holter monitor, an ambulatory electrocardiography device that records a continuous electrocardiographic rhythm pattern.", "score": 0.3467, "match_basis": "verbatim_token+domain_route:PR"}, {"md_atom_id": "md_dmPR_ex_a013", "md_file": "knowledge_base/domains/PR/examples.md", "md_atom_type": "SENTENCE", "md_parent_section": "§PR.2 [Example 2]", "md_verbatim": "The start and end of the Holter monitoring procedure are represented in the PR domain.", "score": 0.3368, "match_basis": "verbatim_token+domain_route:PR"}], "candidate_count": 5, "zero_candidate": false}
{"pdf_atom_id": "ig34_p0127_a001", "pdf_atom_type": "HEADING", "pdf_source": "SDTMIG v3.4 (no header footer).pdf", "pdf_page": 127, "pdf_parent_section": "§6.1.5 [Procedures (PR)]", "pdf_verbatim": "PR – Assumptions", "figure_ref": null, "candidates": [{"md_atom_id": "md_dmPR_assn_a001", "md_file": "knowledge_base/domains/PR/assumptions.md", "md_atom_type": "HEADING", "md_parent_section": "§PR [PR — Assumptions]", "md_verbatim": "# PR — Assumptions", "score": 1.0, "match_basis": "verbatim_token+domain_route:PR"}, {"md_atom_id": "md_dmPR_ex_a001", "md_file": "knowledge_base/domains/PR/examples.md", "md_atom_type": "HEADING", "md_parent_section": "§PR [PR — Examples]", "md_verbatim": "# PR — Examples", "score": 0.4, "match_basis": "verbatim_token+domain_route:PR"}, {"md_atom_id": "md_dmPR_ex_a002", "md_file": "knowledge_base/domains/PR/examples.md", "md_atom_type": "HEADING", "md_parent_section": "§PR [PR — Examples]", "md_verbatim": "## Example 1", "score": 0.4, "match_basis": "verbatim_token+domain_route:PR"}, {"md_atom_id": "md_dmPR_ex_a011", "md_file": "knowledge_base/domains/PR/examples.md", "md_atom_type": "HEADING", "md_parent_section": "§PR [PR — Examples]", "md_verbatim": "## Example 2", "score": 0.4, "match_basis": "verbatim_token+domain_route:PR"}, {"md_atom_id": "md_dmPR_ex_a028", "md_file": "knowledge_base/domains/PR/examples.md", "md_atom_type": "HEADING", "md_parent_section": "§PR [PR — Examples]", "md_verbatim": "## Example 3", "score": 0.4, "match_basis": "verbatim_token+domain_route:PR"}], "candidate_count": 5, "zero_candidate": false}
{"pdf_atom_id": "ig34_p0127_a002", "pdf_atom_type": "LIST_ITEM", "pdf_source": "SDTMIG v3.4 (no header footer).pdf", "pdf_page": 127, "pdf_parent_section": "§6.1.5 [Procedures (PR)]", "pdf_verbatim": "1. Some examples of procedures, by type, include the following:", "figure_ref": null, "candidates": [{"md_atom_id": "md_dmPR_assn_a004", "md_file": "knowledge_base/domains/PR/assumptions.md", "md_atom_type": "LIST_ITEM", "md_parent_section": "§PR [PR — Assumptions]", "md_verbatim": "3. PRINDC is used to represent a medical indication, a medical condition which makes a treatment advisable. The reason for a procedure may be something other than a medical indication. For example, an x-ray might be taken to determine whether a fracture was present. Reasons other than medical indications should be represented using the supplemental qualifier PRREAS (see Appendix C1, Supplemental Qualifiers Name Codes).", "score": 0.4694, "match_basis": "verbatim_token+domain_route:PR"}, {"md_atom_id": "md_dmPR_assn_a005", "md_file": "knowledge_base/domains/PR/assumptions.md", "md_atom_type": "LIST_ITEM", "md_parent_section": "§PR [PR — Assumptions]", "md_verbatim": "4. Any identifier variables, timing variables, or interventions general observation-class qualifiers may be added to the PR domain, but the following qualifiers would generally not be used: --MOOD, --LOT.", "score": 0.4557, "match_basis": "verbatim_token+domain_route:PR"}, {"md_atom_id": "md_dmPR_assn_a002", "md_file": "knowledge_base/domains/PR/assumptions.md", "md_atom_type": "LIST_ITEM", "md_parent_section": "§PR [PR — Assumptions]", "md_verbatim": "1. Some examples of procedures, by type, include the following:\n   a. Disease screening (e.g., mammogram, pap smear)\n   b. Endoscopic examinations (e.g., arthroscopy, diagnostic colonoscopy, therapeutic colonoscopy, diagnostic laparoscopy, therapeutic laparoscopy)\n   c. Diagnostic tests (e.g., amniocentesis, biopsy, catheterization, cutaneous oximetry, finger stick, fluorophotometry, imaging techniques (e.g., DXA scan, CT scan, MRI), phlebotomy, pulmonary function test, skin test, stress test, tympanometry)\n   d. Therapeutic procedures (e.g., ablation therapy, catheterization, cryotherapy, mechanical ventilation, phototherapy, radiation therapy/radiotherapy, thermotherapy)\n   e. Surgical procedures (e.g., curative surgery, diagnostic surgery, palliative surgery, therapeutic surgery, prophylactic surgery, resection, stenting, hysterectomy, tubal ligation, implantation)\n\n   The Procedures domain is based on the Interventions observation class. The extent of physiological effect may range from observable to microscopic. Regardless of the extent of effect or whether it is collected in the study, all collected procedures are represented in this domain. The protocol design should specify whether procedure information will be collected. Measurements obtained from procedures are to be represented in their respective Findings domain(s). For example, a biopsy may be performed to obtain a tissue sample that is then evaluated histopathologically. In this case, details of the biopsy procedure can be represented in the PR domain and the histopathology findings in the Microscopic Findings (MI) domain. Describing the relationship between PR and MI records (in RELREC) in this example is dependent on whether the relationship is collected, either explicitly or implicitly.", "score": 0.443, "match_basis": "verbatim_token+domain_route:PR"}, {"md_atom_id": "md_dmPR_assn_a003", "md_file": "knowledge_base/domains/PR/assumptions.md", "md_atom_type": "LIST_ITEM", "md_parent_section": "§PR [PR — Assumptions]", "md_verbatim": "2. In the Findings Observation Class, the test method is represented in the --METHOD variable (e.g., electrophoresis, gram stain, polymerase chain reaction). At times, the test method overlaps with diagnostic/therapeutic procedures (e.g., ultrasound, MRI, x-ray) in-scope for the PR domain. The following is recommended: If timing (start, end or duration) or an indicator populating PROCCUR, PRSTAT, or PRREASND is collected, then a PR record should be created. If only the findings from a procedure are collected, then --METHOD in the Findings domain(s) may be sufficient to reflect the procedure and a related PR record is optional. It is at the sponsor's discretion whether to represent the procedure as both a test method (--METHOD) and related PR record.", "score": 0.4423, "match_basis": "verbatim_token+domain_route:PR"}, {"md_atom_id": "md_dmPR_ex_a013", "md_file": "knowledge_base/domains/PR/examples.md", "md_atom_type": "SENTENCE", "md_parent_section": "§PR.2 [Example 2]", "md_verbatim": "The start and end of the Holter monitoring procedure are represented in the PR domain.", "score": 0.41, "match_basis": "verbatim_token+domain_route:PR"}], "candidate_count": 5, "zero_candidate": false}
{"pdf_atom_id": "ig34_p0127_a003", "pdf_atom_type": "LIST_ITEM", "pdf_source": "SDTMIG v3.4 (no header footer).pdf", "pdf_page": 127, "pdf_parent_section": "§6.1.5 [Procedures (PR)]", "pdf_verbatim": "a. Disease screening (e.g., mammogram, pap smear)", "figure_ref": null, "candidates": [{"md_atom_id": "md_dmPR_assn_a002", "md_file": "knowledge_base/domains/PR/assumptions.md", "md_atom_type": "LIST_ITEM", "md_parent_section": "§PR [PR — Assumptions]", "md_verbatim": "1. Some examples of procedures, by type, include the following:\n   a. Disease screening (e.g., mammogram, pap smear)\n   b. Endoscopic examinations (e.g., arthroscopy, diagnostic colonoscopy, therapeutic colonoscopy, diagnostic laparoscopy, therapeutic laparoscopy)\n   c. Diagnostic tests (e.g., amniocentesis, biopsy, catheterization, cutaneous oximetry, finger stick, fluorophotometry, imaging techniques (e.g., DXA scan, CT scan, MRI), phlebotomy, pulmonary function test, skin test, stress test, tympanometry)\n   d. Therapeutic procedures (e.g., ablation therapy, catheterization, cryotherapy, mechanical ventilation, phototherapy, radiation therapy/radiotherapy, thermotherapy)\n   e. Surgical procedures (e.g., curative surgery, diagnostic surgery, palliative surgery, therapeutic surgery, prophylactic surgery, resection, stenting, hysterectomy, tubal ligation, implantation)\n\n   The Procedures domain is based on the Interventions observation class. The extent of physiological effect may range from observable to microscopic. Regardless of the extent of effect or whether it is collected in the study, all collected procedures are represented in this domain. The protocol design should specify whether procedure information will be collected. Measurements obtained from procedures are to be represented in their respective Findings domain(s). For example, a biopsy may be performed to obtain a tissue sample that is then evaluated histopathologically. In this case, details of the biopsy procedure can be represented in the PR domain and the histopathology findings in the Microscopic Findings (MI) domain. Describing the relationship between PR and MI records (in RELREC) in this example is dependent on whether the relationship is collected, either explicitly or implicitly.", "score": 0.4319, "match_basis": "verbatim_token+domain_route:PR"}, {"md_atom_id": "md_dmPR_assn_a003", "md_file": "knowledge_base/domains/PR/assumptions.md", "md_atom_type": "LIST_ITEM", "md_parent_section": "§PR [PR — Assumptions]", "md_verbatim": "2. In the Findings Observation Class, the test method is represented in the --METHOD variable (e.g., electrophoresis, gram stain, polymerase chain reaction). At times, the test method overlaps with diagnostic/therapeutic procedures (e.g., ultrasound, MRI, x-ray) in-scope for the PR domain. The following is recommended: If timing (start, end or duration) or an indicator populating PROCCUR, PRSTAT, or PRREASND is collected, then a PR record should be created. If only the findings from a procedure are collected, then --METHOD in the Findings domain(s) may be sufficient to reflect the procedure and a related PR record is optional. It is at the sponsor's discretion whether to represent the procedure as both a test method (--METHOD) and related PR record.", "score": 0.4211, "match_basis": "verbatim_token+domain_route:PR"}, {"md_atom_id": "md_dmPR_assn_a004", "md_file": "knowledge_base/domains/PR/assumptions.md", "md_atom_type": "LIST_ITEM", "md_parent_section": "§PR [PR — Assumptions]", "md_verbatim": "3. PRINDC is used to represent a medical indication, a medical condition which makes a treatment advisable. The reason for a procedure may be something other than a medical indication. For example, an x-ray might be taken to determine whether a fracture was present. Reasons other than medical indications should be represented using the supplemental qualifier PRREAS (see Appendix C1, Supplemental Qualifiers Name Codes).", "score": 0.4078, "match_basis": "verbatim_token+domain_route:PR"}, {"md_atom_id": "md_dmPR_assn_a005", "md_file": "knowledge_base/domains/PR/assumptions.md", "md_atom_type": "LIST_ITEM", "md_parent_section": "§PR [PR — Assumptions]", "md_verbatim": "4. Any identifier variables, timing variables, or interventions general observation-class qualifiers may be added to the PR domain, but the following qualifiers would generally not be used: --MOOD, --LOT.", "score": 0.4062, "match_basis": "verbatim_token+domain_route:PR"}, {"md_atom_id": "md_dmPR_ex_a023", "md_file": "knowledge_base/domains/PR/examples.md", "md_atom_type": "SENTENCE", "md_parent_section": "§PR.2 [Example 2]", "md_verbatim": "The relrec.xpt reflects a one-to-many dataset-level relationship between PR and EG using --LNKID.", "score": 0.3381, "match_basis": "verbatim_token+domain_route:PR"}], "candidate_count": 5, "zero_candidate": false}
{"pdf_atom_id": "ig34_p0127_a004", "pdf_atom_type": "LIST_ITEM", "pdf_source": "SDTMIG v3.4 (no header footer).pdf", "pdf_page": 127, "pdf_parent_section": "§6.1.5 [Procedures (PR)]", "pdf_verbatim": "b. Endoscopic examinations (e.g., arthroscopy, diagnostic colonoscopy, therapeutic colonoscopy, diagnostic laparoscopy, therapeutic laparoscopy)", "figure_ref": null, "candidates": [{"md_atom_id": "md_dmPR_assn_a003", "md_file": "knowledge_base/domains/PR/assumptions.md", "md_atom_type": "LIST_ITEM", "md_parent_section": "§PR [PR — Assumptions]", "md_verbatim": "2. In the Findings Observation Class, the test method is represented in the --METHOD variable (e.g., electrophoresis, gram stain, polymerase chain reaction). At times, the test method overlaps with diagnostic/therapeutic procedures (e.g., ultrasound, MRI, x-ray) in-scope for the PR domain. The following is recommended: If timing (start, end or duration) or an indicator populating PROCCUR, PRSTAT, or PRREASND is collected, then a PR record should be created. If only the findings from a procedure are collected, then --METHOD in the Findings domain(s) may be sufficient to reflect the procedure and a related PR record is optional. It is at the sponsor's discretion whether to represent the procedure as both a test method (--METHOD) and related PR record.", "score": 0.4695, "match_basis": "verbatim_token+domain_route:PR"}, {"md_atom_id": "md_dmPR_assn_a002", "md_file": "knowledge_base/domains/PR/assumptions.md", "md_atom_type": "LIST_ITEM", "md_parent_section": "§PR [PR — Assumptions]", "md_verbatim": "1. Some examples of procedures, by type, include the following:\n   a. Disease screening (e.g., mammogram, pap smear)\n   b. Endoscopic examinations (e.g., arthroscopy, diagnostic colonoscopy, therapeutic colonoscopy, diagnostic laparoscopy, therapeutic laparoscopy)\n   c. Diagnostic tests (e.g., amniocentesis, biopsy, catheterization, cutaneous oximetry, finger stick, fluorophotometry, imaging techniques (e.g., DXA scan, CT scan, MRI), phlebotomy, pulmonary function test, skin test, stress test, tympanometry)\n   d. Therapeutic procedures (e.g., ablation therapy, catheterization, cryotherapy, mechanical ventilation, phototherapy, radiation therapy/radiotherapy, thermotherapy)\n   e. Surgical procedures (e.g., curative surgery, diagnostic surgery, palliative surgery, therapeutic surgery, prophylactic surgery, resection, stenting, hysterectomy, tubal ligation, implantation)\n\n   The Procedures domain is based on the Interventions observation class. The extent of physiological effect may range from observable to microscopic. Regardless of the extent of effect or whether it is collected in the study, all collected procedures are represented in this domain. The protocol design should specify whether procedure information will be collected. Measurements obtained from procedures are to be represented in their respective Findings domain(s). For example, a biopsy may be performed to obtain a tissue sample that is then evaluated histopathologically. In this case, details of the biopsy procedure can be represented in the PR domain and the histopathology findings in the Microscopic Findings (MI) domain. Describing the relationship between PR and MI records (in RELREC) in this example is dependent on whether the relationship is collected, either explicitly or implicitly.", "score": 0.4665, "match_basis": "verbatim_token+domain_route:PR"}, {"md_atom_id": "md_dmPR_assn_a005", "md_file": "knowledge_base/domains/PR/assumptions.md", "md_atom_type": "LIST_ITEM", "md_parent_section": "§PR [PR — Assumptions]", "md_verbatim": "4. Any identifier variables, timing variables, or interventions general observation-class qualifiers may be added to the PR domain, but the following qualifiers would generally not be used: --MOOD, --LOT.", "score": 0.4362, "match_basis": "verbatim_token+domain_route:PR"}, {"md_atom_id": "md_dmPR_assn_a004", "md_file": "knowledge_base/domains/PR/assumptions.md", "md_atom_type": "LIST_ITEM", "md_parent_section": "§PR [PR — Assumptions]", "md_verbatim": "3. PRINDC is used to represent a medical indication, a medical condition which makes a treatment advisable. The reason for a procedure may be something other than a medical indication. For example, an x-ray might be taken to determine whether a fracture was present. Reasons other than medical indications should be represented using the supplemental qualifier PRREAS (see Appendix C1, Supplemental Qualifiers Name Codes).", "score": 0.4351, "match_basis": "verbatim_token+domain_route:PR"}, {"md_atom_id": "md_dmPR_ex_a029", "md_file": "knowledge_base/domains/PR/examples.md", "md_atom_type": "SENTENCE", "md_parent_section": "§PR.3 [Example 3]", "md_verbatim": "This example shows data for 3 subjects who had on-study radiotherapy. Dose, dose unit, location, and timing are represented. In this study, the sponsor chose to consider verbatim text in PRTRT as long text represented in mixed case. See Section 4.2.4, Text Case in Submitted Data.", "score": 0.37, "match_basis": "verbatim_token+domain_route:PR"}], "candidate_count": 5, "zero_candidate": false}
{"pdf_atom_id": "ig34_p0127_a005", "pdf_atom_type": "LIST_ITEM", "pdf_source": "SDTMIG v3.4 (no header footer).pdf", "pdf_page": 127, "pdf_parent_section": "§6.1.5 [Procedures (PR)]", "pdf_verbatim": "c. Diagnostic tests (e.g., amniocentesis, biopsy, catheterization, cutaneous oximetry, finger stick, fluorophotometry, imaging techniques (e.g., DXA scan, CT scan, MRI), phlebotomy, pulmonary function test, skin test, stress test, tympanometry)", "figure_ref": null, "candidates": [{"md_atom_id": "md_dmPR_assn_a002", "md_file": "knowledge_base/domains/PR/assumptions.md", "md_atom_type": "LIST_ITEM", "md_parent_section": "§PR [PR — Assumptions]", "md_verbatim": "1. Some examples of procedures, by type, include the following:\n   a. Disease screening (e.g., mammogram, pap smear)\n   b. Endoscopic examinations (e.g., arthroscopy, diagnostic colonoscopy, therapeutic colonoscopy, diagnostic laparoscopy, therapeutic laparoscopy)\n   c. Diagnostic tests (e.g., amniocentesis, biopsy, catheterization, cutaneous oximetry, finger stick, fluorophotometry, imaging techniques (e.g., DXA scan, CT scan, MRI), phlebotomy, pulmonary function test, skin test, stress test, tympanometry)\n   d. Therapeutic procedures (e.g., ablation therapy, catheterization, cryotherapy, mechanical ventilation, phototherapy, radiation therapy/radiotherapy, thermotherapy)\n   e. Surgical procedures (e.g., curative surgery, diagnostic surgery, palliative surgery, therapeutic surgery, prophylactic surgery, resection, stenting, hysterectomy, tubal ligation, implantation)\n\n   The Procedures domain is based on the Interventions observation class. The extent of physiological effect may range from observable to microscopic. Regardless of the extent of effect or whether it is collected in the study, all collected procedures are represented in this domain. The protocol design should specify whether procedure information will be collected. Measurements obtained from procedures are to be represented in their respective Findings domain(s). For example, a biopsy may be performed to obtain a tissue sample that is then evaluated histopathologically. In this case, details of the biopsy procedure can be represented in the PR domain and the histopathology findings in the Microscopic Findings (MI) domain. Describing the relationship between PR and MI records (in RELREC) in this example is dependent on whether the relationship is collected, either explicitly or implicitly.", "score": 0.5552, "match_basis": "verbatim_token+domain_route:PR"}, {"md_atom_id": "md_dmPR_assn_a003", "md_file": "knowledge_base/domains/PR/assumptions.md", "md_atom_type": "LIST_ITEM", "md_parent_section": "§PR [PR — Assumptions]", "md_verbatim": "2. In the Findings Observation Class, the test method is represented in the --METHOD variable (e.g., electrophoresis, gram stain, polymerase chain reaction). At times, the test method overlaps with diagnostic/therapeutic procedures (e.g., ultrasound, MRI, x-ray) in-scope for the PR domain. The following is recommended: If timing (start, end or duration) or an indicator populating PROCCUR, PRSTAT, or PRREASND is collected, then a PR record should be created. If only the findings from a procedure are collected, then --METHOD in the Findings domain(s) may be sufficient to reflect the procedure and a related PR record is optional. It is at the sponsor's discretion whether to represent the procedure as both a test method (--METHOD) and related PR record.", "score": 0.4703, "match_basis": "verbatim_token+domain_route:PR"}, {"md_atom_id": "md_dmPR_assn_a004", "md_file": "knowledge_base/domains/PR/assumptions.md", "md_atom_type": "LIST_ITEM", "md_parent_section": "§PR [PR — Assumptions]", "md_verbatim": "3. PRINDC is used to represent a medical indication, a medical condition which makes a treatment advisable. The reason for a procedure may be something other than a medical indication. For example, an x-ray might be taken to determine whether a fracture was present. Reasons other than medical indications should be represented using the supplemental qualifier PRREAS (see Appendix C1, Supplemental Qualifiers Name Codes).", "score": 0.4419, "match_basis": "verbatim_token+domain_route:PR"}, {"md_atom_id": "md_dmPR_assn_a005", "md_file": "knowledge_base/domains/PR/assumptions.md", "md_atom_type": "LIST_ITEM", "md_parent_section": "§PR [PR — Assumptions]", "md_verbatim": "4. Any identifier variables, timing variables, or interventions general observation-class qualifiers may be added to the PR domain, but the following qualifiers would generally not be used: --MOOD, --LOT.", "score": 0.4268, "match_basis": "verbatim_token+domain_route:PR"}, {"md_atom_id": "md_dmPR_ex_a017", "md_file": "knowledge_base/domains/PR/examples.md", "md_atom_type": "SENTENCE", "md_parent_section": "§PR.2 [Example 2]", "md_verbatim": "The heart rate findings from the procedure are represented in the ECG Test Results (EG) domain.", "score": 0.3472, "match_basis": "verbatim_token+domain_route:PR"}], "candidate_count": 5, "zero_candidate": false}
{"pdf_atom_id": "ig34_p0127_a006", "pdf_atom_type": "LIST_ITEM", "pdf_source": "SDTMIG v3.4 (no header footer).pdf", "pdf_page": 127, "pdf_parent_section": "§6.1.5 [Procedures (PR)]", "pdf_verbatim": "d. Therapeutic procedures (e.g., ablation therapy, catheterization, cryotherapy, mechanical ventilation, phototherapy, radiation therapy/radiotherapy, thermotherapy)", "figure_ref": null, "candidates": [{"md_atom_id": "md_dmPR_assn_a002", "md_file": "knowledge_base/domains/PR/assumptions.md", "md_atom_type": "LIST_ITEM", "md_parent_section": "§PR [PR — Assumptions]", "md_verbatim": "1. Some examples of procedures, by type, include the following:\n   a. Disease screening (e.g., mammogram, pap smear)\n   b. Endoscopic examinations (e.g., arthroscopy, diagnostic colonoscopy, therapeutic colonoscopy, diagnostic laparoscopy, therapeutic laparoscopy)\n   c. Diagnostic tests (e.g., amniocentesis, biopsy, catheterization, cutaneous oximetry, finger stick, fluorophotometry, imaging techniques (e.g., DXA scan, CT scan, MRI), phlebotomy, pulmonary function test, skin test, stress test, tympanometry)\n   d. Therapeutic procedures (e.g., ablation therapy, catheterization, cryotherapy, mechanical ventilation, phototherapy, radiation therapy/radiotherapy, thermotherapy)\n   e. Surgical procedures (e.g., curative surgery, diagnostic surgery, palliative surgery, therapeutic surgery, prophylactic surgery, resection, stenting, hysterectomy, tubal ligation, implantation)\n\n   The Procedures domain is based on the Interventions observation class. The extent of physiological effect may range from observable to microscopic. Regardless of the extent of effect or whether it is collected in the study, all collected procedures are represented in this domain. The protocol design should specify whether procedure information will be collected. Measurements obtained from procedures are to be represented in their respective Findings domain(s). For example, a biopsy may be performed to obtain a tissue sample that is then evaluated histopathologically. In this case, details of the biopsy procedure can be represented in the PR domain and the histopathology findings in the Microscopic Findings (MI) domain. Describing the relationship between PR and MI records (in RELREC) in this example is dependent on whether the relationship is collected, either explicitly or implicitly.", "score": 0.4873, "match_basis": "verbatim_token+domain_route:PR"}, {"md_atom_id": "md_dmPR_assn_a004", "md_file": "knowledge_base/domains/PR/assumptions.md", "md_atom_type": "LIST_ITEM", "md_parent_section": "§PR [PR — Assumptions]", "md_verbatim": "3. PRINDC is used to represent a medical indication, a medical condition which makes a treatment advisable. The reason for a procedure may be something other than a medical indication. For example, an x-ray might be taken to determine whether a fracture was present. Reasons other than medical indications should be represented using the supplemental qualifier PRREAS (see Appendix C1, Supplemental Qualifiers Name Codes).", "score": 0.4837, "match_basis": "verbatim_token+domain_route:PR"}, {"md_atom_id": "md_dmPR_assn_a003", "md_file": "knowledge_base/domains/PR/assumptions.md", "md_atom_type": "LIST_ITEM", "md_parent_section": "§PR [PR — Assumptions]", "md_verbatim": "2. In the Findings Observation Class, the test method is represented in the --METHOD variable (e.g., electrophoresis, gram stain, polymerase chain reaction). At times, the test method overlaps with diagnostic/therapeutic procedures (e.g., ultrasound, MRI, x-ray) in-scope for the PR domain. The following is recommended: If timing (start, end or duration) or an indicator populating PROCCUR, PRSTAT, or PRREASND is collected, then a PR record should be created. If only the findings from a procedure are collected, then --METHOD in the Findings domain(s) may be sufficient to reflect the procedure and a related PR record is optional. It is at the sponsor's discretion whether to represent the procedure as both a test method (--METHOD) and related PR record.", "score": 0.4735, "match_basis": "verbatim_token+domain_route:PR"}, {"md_atom_id": "md_dmPR_assn_a005", "md_file": "knowledge_base/domains/PR/assumptions.md", "md_atom_type": "LIST_ITEM", "md_parent_section": "§PR [PR — Assumptions]", "md_verbatim": "4. Any identifier variables, timing variables, or interventions general observation-class qualifiers may be added to the PR domain, but the following qualifiers would generally not be used: --MOOD, --LOT.", "score": 0.4469, "match_basis": "verbatim_token+domain_route:PR"}, {"md_atom_id": "md_dmPR_ex_a013", "md_file": "knowledge_base/domains/PR/examples.md", "md_atom_type": "SENTENCE", "md_parent_section": "§PR.2 [Example 2]", "md_verbatim": "The start and end of the Holter monitoring procedure are represented in the PR domain.", "score": 0.3825, "match_basis": "verbatim_token+domain_route:PR"}], "candidate_count": 5, "zero_candidate": false}
{"pdf_atom_id": "ig34_p0127_a007", "pdf_atom_type": "LIST_ITEM", "pdf_source": "SDTMIG v3.4 (no header footer).pdf", "pdf_page": 127, "pdf_parent_section": "§6.1.5 [Procedures (PR)]", "pdf_verbatim": "e. Surgical procedures (e.g., curative surgery, diagnostic surgery, palliative surgery, therapeutic surgery, prophylactic surgery, resection, stenting, hysterectomy, tubal ligation, implantation)", "figure_ref": null, "candidates": [{"md_atom_id": "md_dmPR_assn_a002", "md_file": "knowledge_base/domains/PR/assumptions.md", "md_atom_type": "LIST_ITEM", "md_parent_section": "§PR [PR — Assumptions]", "md_verbatim": "1. Some examples of procedures, by type, include the following:\n   a. Disease screening (e.g., mammogram, pap smear)\n   b. Endoscopic examinations (e.g., arthroscopy, diagnostic colonoscopy, therapeutic colonoscopy, diagnostic laparoscopy, therapeutic laparoscopy)\n   c. Diagnostic tests (e.g., amniocentesis, biopsy, catheterization, cutaneous oximetry, finger stick, fluorophotometry, imaging techniques (e.g., DXA scan, CT scan, MRI), phlebotomy, pulmonary function test, skin test, stress test, tympanometry)\n   d. Therapeutic procedures (e.g., ablation therapy, catheterization, cryotherapy, mechanical ventilation, phototherapy, radiation therapy/radiotherapy, thermotherapy)\n   e. Surgical procedures (e.g., curative surgery, diagnostic surgery, palliative surgery, therapeutic surgery, prophylactic surgery, resection, stenting, hysterectomy, tubal ligation, implantation)\n\n   The Procedures domain is based on the Interventions observation class. The extent of physiological effect may range from observable to microscopic. Regardless of the extent of effect or whether it is collected in the study, all collected procedures are represented in this domain. The protocol design should specify whether procedure information will be collected. Measurements obtained from procedures are to be represented in their respective Findings domain(s). For example, a biopsy may be performed to obtain a tissue sample that is then evaluated histopathologically. In this case, details of the biopsy procedure can be represented in the PR domain and the histopathology findings in the Microscopic Findings (MI) domain. Describing the relationship between PR and MI records (in RELREC) in this example is dependent on whether the relationship is collected, either explicitly or implicitly.", "score": 0.5164, "match_basis": "verbatim_token+domain_route:PR"}, {"md_atom_id": "md_dmPR_assn_a003", "md_file": "knowledge_base/domains/PR/assumptions.md", "md_atom_type": "LIST_ITEM", "md_parent_section": "§PR [PR — Assumptions]", "md_verbatim": "2. In the Findings Observation Class, the test method is represented in the --METHOD variable (e.g., electrophoresis, gram stain, polymerase chain reaction). At times, the test method overlaps with diagnostic/therapeutic procedures (e.g., ultrasound, MRI, x-ray) in-scope for the PR domain. The following is recommended: If timing (start, end or duration) or an indicator populating PROCCUR, PRSTAT, or PRREASND is collected, then a PR record should be created. If only the findings from a procedure are collected, then --METHOD in the Findings domain(s) may be sufficient to reflect the procedure and a related PR record is optional. It is at the sponsor's discretion whether to represent the procedure as both a test method (--METHOD) and related PR record.", "score": 0.4992, "match_basis": "verbatim_token+domain_route:PR"}, {"md_atom_id": "md_dmPR_assn_a004", "md_file": "knowledge_base/domains/PR/assumptions.md", "md_atom_type": "LIST_ITEM", "md_parent_section": "§PR [PR — Assumptions]", "md_verbatim": "3. PRINDC is used to represent a medical indication, a medical condition which makes a treatment advisable. The reason for a procedure may be something other than a medical indication. For example, an x-ray might be taken to determine whether a fracture was present. Reasons other than medical indications should be represented using the supplemental qualifier PRREAS (see Appendix C1, Supplemental Qualifiers Name Codes).", "score": 0.4677, "match_basis": "verbatim_token+domain_route:PR"}, {"md_atom_id": "md_dmPR_assn_a005", "md_file": "knowledge_base/domains/PR/assumptions.md", "md_atom_type": "LIST_ITEM", "md_parent_section": "§PR [PR — Assumptions]", "md_verbatim": "4. Any identifier variables, timing variables, or interventions general observation-class qualifiers may be added to the PR domain, but the following qualifiers would generally not be used: --MOOD, --LOT.", "score": 0.4403, "match_basis": "verbatim_token+domain_route:PR"}, {"md_atom_id": "md_dmPR_ex_a013", "md_file": "knowledge_base/domains/PR/examples.md", "md_atom_type": "SENTENCE", "md_parent_section": "§PR.2 [Example 2]", "md_verbatim": "The start and end of the Holter monitoring procedure are represented in the PR domain.", "score": 0.3809, "match_basis": "verbatim_token+domain_route:PR"}], "candidate_count": 5, "zero_candidate": false}
{"pdf_atom_id": "ig34_p0127_a008", "pdf_atom_type": "SENTENCE", "pdf_source": "SDTMIG v3.4 (no header footer).pdf", "pdf_page": 127, "pdf_parent_section": "§6.1.5 [Procedures (PR)]", "pdf_verbatim": "The Procedures domain is based on the Interventions observation class.", "figure_ref": null, "candidates": [{"md_atom_id": "md_dmPR_ex_a013", "md_file": "knowledge_base/domains/PR/examples.md", "md_atom_type": "SENTENCE", "md_parent_section": "§PR.2 [Example 2]", "md_verbatim": "The start and end of the Holter monitoring procedure are represented in the PR domain.", "score": 0.5627, "match_basis": "verbatim_token+domain_route:PR"}, {"md_atom_id": "md_dmPR_ex_a017", "md_file": "knowledge_base/domains/PR/examples.md", "md_atom_type": "SENTENCE", "md_parent_section": "§PR.2 [Example 2]", "md_verbatim": "The heart rate findings from the procedure are represented in the ECG Test Results (EG) domain.", "score": 0.5429, "match_basis": "verbatim_token+domain_route:PR"}, {"md_atom_id": "md_dmPR_ex_a003", "md_file": "knowledge_base/domains/PR/examples.md", "md_atom_type": "SENTENCE", "md_parent_section": "§PR.1 [Example 1]", "md_verbatim": "A procedures log CRF may collect verbatim values (procedure names) and dates performed. This example shows a subject who had 5 procedures collected and represented in the PR domain. In this study, the sponsor chose to consider verbatim text in PRTRT as long text represented in mixed case. See Section 4.2.4, Text Case in Submitted Data.", "score": 0.496, "match_basis": "verbatim_token+domain_route:PR"}, {"md_atom_id": "md_dmPR_assn_a005", "md_file": "knowledge_base/domains/PR/assumptions.md", "md_atom_type": "LIST_ITEM", "md_parent_section": "§PR [PR — Assumptions]", "md_verbatim": "4. Any identifier variables, timing variables, or interventions general observation-class qualifiers may be added to the PR domain, but the following qualifiers would generally not be used: --MOOD, --LOT.", "score": 0.4935, "match_basis": "verbatim_token+domain_route:PR"}, {"md_atom_id": "md_dmPR_ex_a023", "md_file": "knowledge_base/domains/PR/examples.md", "md_atom_type": "SENTENCE", "md_parent_section": "§PR.2 [Example 2]", "md_verbatim": "The relrec.xpt reflects a one-to-many dataset-level relationship between PR and EG using --LNKID.", "score": 0.4486, "match_basis": "verbatim_token+domain_route:PR"}], "candidate_count": 5, "zero_candidate": false}
{"pdf_atom_id": "ig34_p0127_a009", "pdf_atom_type": "SENTENCE", "pdf_source": "SDTMIG v3.4 (no header footer).pdf", "pdf_page": 127, "pdf_parent_section": "§6.1.5 [Procedures (PR)]", "pdf_verbatim": "The extent of physiological effect may range from observable to microscopic.", "figure_ref": null, "candidates": [{"md_atom_id": "md_dmPR_ex_a017", "md_file": "knowledge_base/domains/PR/examples.md", "md_atom_type": "SENTENCE", "md_parent_section": "§PR.2 [Example 2]", "md_verbatim": "The heart rate findings from the procedure are represented in the ECG Test Results (EG) domain.", "score": 0.4296, "match_basis": "verbatim_token+domain_route:PR"}, {"md_atom_id": "md_dmPR_ex_a003", "md_file": "knowledge_base/domains/PR/examples.md", "md_atom_type": "SENTENCE", "md_parent_section": "§PR.1 [Example 1]", "md_verbatim": "A procedures log CRF may collect verbatim values (procedure names) and dates performed. This example shows a subject who had 5 procedures collected and represented in the PR domain. In this study, the sponsor chose to consider verbatim text in PRTRT as long text represented in mixed case. See Section 4.2.4, Text Case in Submitted Data.", "score": 0.4247, "match_basis": "verbatim_token+domain_route:PR"}, {"md_atom_id": "md_dmPR_ex_a012", "md_file": "knowledge_base/domains/PR/examples.md", "md_atom_type": "SENTENCE", "md_parent_section": "§PR.2 [Example 2]", "md_verbatim": "This example shows data from a 24-hour Holter monitor, an ambulatory electrocardiography device that records a continuous electrocardiographic rhythm pattern.", "score": 0.4205, "match_basis": "verbatim_token+domain_route:PR"}, {"md_atom_id": "md_dmPR_ex_a029", "md_file": "knowledge_base/domains/PR/examples.md", "md_atom_type": "SENTENCE", "md_parent_section": "§PR.3 [Example 3]", "md_verbatim": "This example shows data for 3 subjects who had on-study radiotherapy. Dose, dose unit, location, and timing are represented. In this study, the sponsor chose to consider verbatim text in PRTRT as long text represented in mixed case. See Section 4.2.4, Text Case in Submitted Data.", "score": 0.4179, "match_basis": "verbatim_token+domain_route:PR"}, {"md_atom_id": "md_dmPR_ex_a013", "md_file": "knowledge_base/domains/PR/examples.md", "md_atom_type": "SENTENCE", "md_parent_section": "§PR.2 [Example 2]", "md_verbatim": "The start and end of the Holter monitoring procedure are represented in the PR domain.", "score": 0.415, "match_basis": "verbatim_token+domain_route:PR"}], "candidate_count": 5, "zero_candidate": false}
{"pdf_atom_id": "ig34_p0127_a010", "pdf_atom_type": "SENTENCE", "pdf_source": "SDTMIG v3.4 (no header footer).pdf", "pdf_page": 127, "pdf_parent_section": "§6.1.5 [Procedures (PR)]", "pdf_verbatim": "Regardless of the extent of effect or whether it is collected in the study, all collected procedures are represented in this domain.", "figure_ref": null, "candidates": [{"md_atom_id": "md_dmPR_ex_a013", "md_file": "knowledge_base/domains/PR/examples.md", "md_atom_type": "SENTENCE", "md_parent_section": "§PR.2 [Example 2]", "md_verbatim": "The start and end of the Holter monitoring procedure are represented in the PR domain.", "score": 0.5913, "match_basis": "verbatim_token+domain_route:PR"}, {"md_atom_id": "md_dmPR_ex_a017", "md_file": "knowledge_base/domains/PR/examples.md", "md_atom_type": "SENTENCE", "md_parent_section": "§PR.2 [Example 2]", "md_verbatim": "The heart rate findings from the procedure are represented in the ECG Test Results (EG) domain.", "score": 0.5833, "match_basis": "verbatim_token+domain_route:PR"}, {"md_atom_id": "md_dmPR_ex_a003", "md_file": "knowledge_base/domains/PR/examples.md", "md_atom_type": "SENTENCE", "md_parent_section": "§PR.1 [Example 1]", "md_verbatim": "A procedures log CRF may collect verbatim values (procedure names) and dates performed. This example shows a subject who had 5 procedures collected and represented in the PR domain. In this study, the sponsor chose to consider verbatim text in PRTRT as long text represented in mixed case. See Section 4.2.4, Text Case in Submitted Data.", "score": 0.5547, "match_basis": "verbatim_token+domain_route:PR"}, {"md_atom_id": "md_dmPR_ex_a029", "md_file": "knowledge_base/domains/PR/examples.md", "md_atom_type": "SENTENCE", "md_parent_section": "§PR.3 [Example 3]", "md_verbatim": "This example shows data for 3 subjects who had on-study radiotherapy. Dose, dose unit, location, and timing are represented. In this study, the sponsor chose to consider verbatim text in PRTRT as long text represented in mixed case. See Section 4.2.4, Text Case in Submitted Data.", "score": 0.4891, "match_basis": "verbatim_token+domain_route:PR"}, {"md_atom_id": "md_dmPR_ex_a012", "md_file": "knowledge_base/domains/PR/examples.md", "md_atom_type": "SENTENCE", "md_parent_section": "§PR.2 [Example 2]", "md_verbatim": "This example shows data from a 24-hour Holter monitor, an ambulatory electrocardiography device that records a continuous electrocardiographic rhythm pattern.", "score": 0.429, "match_basis": "verbatim_token+domain_route:PR"}], "candidate_count": 5, "zero_candidate": false}
{"pdf_atom_id": "ig34_p0127_a011", "pdf_atom_type": "SENTENCE", "pdf_source": "SDTMIG v3.4 (no header footer).pdf", "pdf_page": 127, "pdf_parent_section": "§6.1.5 [Procedures (PR)]", "pdf_verbatim": "The protocol design should specify whether procedure information will be collected.", "figure_ref": null, "candidates": [{"md_atom_id": "md_dmPR_ex_a003", "md_file": "knowledge_base/domains/PR/examples.md", "md_atom_type": "SENTENCE", "md_parent_section": "§PR.1 [Example 1]", "md_verbatim": "A procedures log CRF may collect verbatim values (procedure names) and dates performed. This example shows a subject who had 5 procedures collected and represented in the PR domain. In this study, the sponsor chose to consider verbatim text in PRTRT as long text represented in mixed case. See Section 4.2.4, Text Case in Submitted Data.", "score": 0.4933, "match_basis": "verbatim_token+domain_route:PR"}, {"md_atom_id": "md_dmPR_ex_a013", "md_file": "knowledge_base/domains/PR/examples.md", "md_atom_type": "SENTENCE", "md_parent_section": "§PR.2 [Example 2]", "md_verbatim": "The start and end of the Holter monitoring procedure are represented in the PR domain.", "score": 0.4701, "match_basis": "verbatim_token+domain_route:PR"}, {"md_atom_id": "md_dmPR_ex_a017", "md_file": "knowledge_base/domains/PR/examples.md", "md_atom_type": "SENTENCE", "md_parent_section": "§PR.2 [Example 2]", "md_verbatim": "The heart rate findings from the procedure are represented in the ECG Test Results (EG) domain.", "score": 0.4675, "match_basis": "verbatim_token+domain_route:PR"}, {"md_atom_id": "md_dmPR_ex_a023", "md_file": "knowledge_base/domains/PR/examples.md", "md_atom_type": "SENTENCE", "md_parent_section": "§PR.2 [Example 2]", "md_verbatim": "The relrec.xpt reflects a one-to-many dataset-level relationship between PR and EG using --LNKID.", "score": 0.4424, "match_basis": "verbatim_token+domain_route:PR"}, {"md_atom_id": "md_dmPR_ex_a029", "md_file": "knowledge_base/domains/PR/examples.md", "md_atom_type": "SENTENCE", "md_parent_section": "§PR.3 [Example 3]", "md_verbatim": "This example shows data for 3 subjects who had on-study radiotherapy. Dose, dose unit, location, and timing are represented. In this study, the sponsor chose to consider verbatim text in PRTRT as long text represented in mixed case. See Section 4.2.4, Text Case in Submitted Data.", "score": 0.4406, "match_basis": "verbatim_token+domain_route:PR"}], "candidate_count": 5, "zero_candidate": false}
{"pdf_atom_id": "ig34_p0127_a012", "pdf_atom_type": "SENTENCE", "pdf_source": "SDTMIG v3.4 (no header footer).pdf", "pdf_page": 127, "pdf_parent_section": "§6.1.5 [Procedures (PR)]", "pdf_verbatim": "Measurements obtained from procedures are to be represented in their respective Findings domain(s).", "figure_ref": null, "candidates": [{"md_atom_id": "md_dmPR_ex_a017", "md_file": "knowledge_base/domains/PR/examples.md", "md_atom_type": "SENTENCE", "md_parent_section": "§PR.2 [Example 2]", "md_verbatim": "The heart rate findings from the procedure are represented in the ECG Test Results (EG) domain.", "score": 0.6813, "match_basis": "verbatim_token+domain_route:PR"}, {"md_atom_id": "md_dmPR_ex_a013", "md_file": "knowledge_base/domains/PR/examples.md", "md_atom_type": "SENTENCE", "md_parent_section": "§PR.2 [Example 2]", "md_verbatim": "The start and end of the Holter monitoring procedure are represented in the PR domain.", "score": 0.6029, "match_basis": "verbatim_token+domain_route:PR"}, {"md_atom_id": "md_dmPR_ex_a003", "md_file": "knowledge_base/domains/PR/examples.md", "md_atom_type": "SENTENCE", "md_parent_section": "§PR.1 [Example 1]", "md_verbatim": "A procedures log CRF may collect verbatim values (procedure names) and dates performed. This example shows a subject who had 5 procedures collected and represented in the PR domain. In this study, the sponsor chose to consider verbatim text in PRTRT as long text represented in mixed case. See Section 4.2.4, Text Case in Submitted Data.", "score": 0.5, "match_basis": "verbatim_token+domain_route:PR"}, {"md_atom_id": "md_dmPR_ex_a029", "md_file": "knowledge_base/domains/PR/examples.md", "md_atom_type": "SENTENCE", "md_parent_section": "§PR.3 [Example 3]", "md_verbatim": "This example shows data for 3 subjects who had on-study radiotherapy. Dose, dose unit, location, and timing are represented. In this study, the sponsor chose to consider verbatim text in PRTRT as long text represented in mixed case. See Section 4.2.4, Text Case in Submitted Data.", "score": 0.4632, "match_basis": "verbatim_token+domain_route:PR"}, {"md_atom_id": "md_dmPR_ex_a023", "md_file": "knowledge_base/domains/PR/examples.md", "md_atom_type": "SENTENCE", "md_parent_section": "§PR.2 [Example 2]", "md_verbatim": "The relrec.xpt reflects a one-to-many dataset-level relationship between PR and EG using --LNKID.", "score": 0.4194, "match_basis": "verbatim_token+domain_route:PR"}], "candidate_count": 5, "zero_candidate": false}
{"pdf_atom_id": "ig34_p0127_a013", "pdf_atom_type": "SENTENCE", "pdf_source": "SDTMIG v3.4 (no header footer).pdf", "pdf_page": 127, "pdf_parent_section": "§6.1.5 [Procedures (PR)]", "pdf_verbatim": "For example, a biopsy may be performed to obtain a tissue sample that is then evaluated histopathologically.", "figure_ref": null, "candidates": [{"md_atom_id": "md_dmPR_ex_a003", "md_file": "knowledge_base/domains/PR/examples.md", "md_atom_type": "SENTENCE", "md_parent_section": "§PR.1 [Example 1]", "md_verbatim": "A procedures log CRF may collect verbatim values (procedure names) and dates performed. This example shows a subject who had 5 procedures collected and represented in the PR domain. In this study, the sponsor chose to consider verbatim text in PRTRT as long text represented in mixed case. See Section 4.2.4, Text Case in Submitted Data.", "score": 0.4887, "match_basis": "verbatim_token+domain_route:PR"}, {"md_atom_id": "md_dmPR_ex_a012", "md_file": "knowledge_base/domains/PR/examples.md", "md_atom_type": "SENTENCE", "md_parent_section": "§PR.2 [Example 2]", "md_verbatim": "This example shows data from a 24-hour Holter monitor, an ambulatory electrocardiography device that records a continuous electrocardiographic rhythm pattern.", "score": 0.4492, "match_basis": "verbatim_token+domain_route:PR"}, {"md_atom_id": "md_dmPR_ex_a029", "md_file": "knowledge_base/domains/PR/examples.md", "md_atom_type": "SENTENCE", "md_parent_section": "§PR.3 [Example 3]", "md_verbatim": "This example shows data for 3 subjects who had on-study radiotherapy. Dose, dose unit, location, and timing are represented. In this study, the sponsor chose to consider verbatim text in PRTRT as long text represented in mixed case. See Section 4.2.4, Text Case in Submitted Data.", "score": 0.4386, "match_basis": "verbatim_token+domain_route:PR"}, {"md_atom_id": "md_dmPR_ex_a013", "md_file": "knowledge_base/domains/PR/examples.md", "md_atom_type": "SENTENCE", "md_parent_section": "§PR.2 [Example 2]", "md_verbatim": "The start and end of the Holter monitoring procedure are represented in the PR domain.", "score": 0.427, "match_basis": "verbatim_token+domain_route:PR"}, {"md_atom_id": "md_dmPR_ex_a017", "md_file": "knowledge_base/domains/PR/examples.md", "md_atom_type": "SENTENCE", "md_parent_section": "§PR.2 [Example 2]", "md_verbatim": "The heart rate findings from the procedure are represented in the ECG Test Results (EG) domain.", "score": 0.4261, "match_basis": "verbatim_token+domain_route:PR"}], "candidate_count": 5, "zero_candidate": false}
{"pdf_atom_id": "ig34_p0127_a014", "pdf_atom_type": "SENTENCE", "pdf_source": "SDTMIG v3.4 (no header footer).pdf", "pdf_page": 127, "pdf_parent_section": "§6.1.5 [Procedures (PR)]", "pdf_verbatim": "In this case, details of the biopsy procedure can be represented in the PR domain and the histopathology findings in the Microscopic Findings (MI) domain.", "figure_ref": null, "candidates": [{"md_atom_id": "md_dmPR_ex_a017", "md_file": "knowledge_base/domains/PR/examples.md", "md_atom_type": "SENTENCE", "md_parent_section": "§PR.2 [Example 2]", "md_verbatim": "The heart rate findings from the procedure are represented in the ECG Test Results (EG) domain.", "score": 0.6104, "match_basis": "verbatim_token+domain_route:PR"}, {"md_atom_id": "md_dmPR_ex_a013", "md_file": "knowledge_base/domains/PR/examples.md", "md_atom_type": "SENTENCE", "md_parent_section": "§PR.2 [Example 2]", "md_verbatim": "The start and end of the Holter monitoring procedure are represented in the PR domain.", "score": 0.587, "match_basis": "verbatim_token+domain_route:PR"}, {"md_atom_id": "md_dmPR_ex_a003", "md_file": "knowledge_base/domains/PR/examples.md", "md_atom_type": "SENTENCE", "md_parent_section": "§PR.1 [Example 1]", "md_verbatim": "A procedures log CRF may collect verbatim values (procedure names) and dates performed. This example shows a subject who had 5 procedures collected and represented in the PR domain. In this study, the sponsor chose to consider verbatim text in PRTRT as long text represented in mixed case. See Section 4.2.4, Text Case in Submitted Data.", "score": 0.5125, "match_basis": "verbatim_token+domain_route:PR"}, {"md_atom_id": "md_dmPR_ex_a029", "md_file": "knowledge_base/domains/PR/examples.md", "md_atom_type": "SENTENCE", "md_parent_section": "§PR.3 [Example 3]", "md_verbatim": "This example shows data for 3 subjects who had on-study radiotherapy. Dose, dose unit, location, and timing are represented. In this study, the sponsor chose to consider verbatim text in PRTRT as long text represented in mixed case. See Section 4.2.4, Text Case in Submitted Data.", "score": 0.4681, "match_basis": "verbatim_token+domain_route:PR"}, {"md_atom_id": "md_dmPR_ex_a023", "md_file": "knowledge_base/domains/PR/examples.md", "md_atom_type": "SENTENCE", "md_parent_section": "§PR.2 [Example 2]", "md_verbatim": "The relrec.xpt reflects a one-to-many dataset-level relationship between PR and EG using --LNKID.", "score": 0.4235, "match_basis": "verbatim_token+domain_route:PR"}], "candidate_count": 5, "zero_candidate": false}
{"pdf_atom_id": "ig34_p0127_a015", "pdf_atom_type": "SENTENCE", "pdf_source": "SDTMIG v3.4 (no header footer).pdf", "pdf_page": 127, "pdf_parent_section": "§6.1.5 [Procedures (PR)]", "pdf_verbatim": "Describing the relationship between PR and MI records (in RELREC) in this example is dependent on whether the relationship is collected, either explicitly or implicitly.", "figure_ref": null, "candidates": [{"md_atom_id": "md_dmPR_ex_a023", "md_file": "knowledge_base/domains/PR/examples.md", "md_atom_type": "SENTENCE", "md_parent_section": "§PR.2 [Example 2]", "md_verbatim": "The relrec.xpt reflects a one-to-many dataset-level relationship between PR and EG using --LNKID.", "score": 0.5551, "match_basis": "verbatim_token+domain_route:PR"}, {"md_atom_id": "md_dmPR_ex_a003", "md_file": "knowledge_base/domains/PR/examples.md", "md_atom_type": "SENTENCE", "md_parent_section": "§PR.1 [Example 1]", "md_verbatim": "A procedures log CRF may collect verbatim values (procedure names) and dates performed. This example shows a subject who had 5 procedures collected and represented in the PR domain. In this study, the sponsor chose to consider verbatim text in PRTRT as long text represented in mixed case. See Section 4.2.4, Text Case in Submitted Data.", "score": 0.4808, "match_basis": "verbatim_token+domain_route:PR"}, {"md_atom_id": "md_dmPR_ex_a029", "md_file": "knowledge_base/domains/PR/examples.md", "md_atom_type": "SENTENCE", "md_parent_section": "§PR.3 [Example 3]", "md_verbatim": "This example shows data for 3 subjects who had on-study radiotherapy. Dose, dose unit, location, and timing are represented. In this study, the sponsor chose to consider verbatim text in PRTRT as long text represented in mixed case. See Section 4.2.4, Text Case in Submitted Data.", "score": 0.4745, "match_basis": "verbatim_token+domain_route:PR"}, {"md_atom_id": "md_dmPR_ex_a012", "md_file": "knowledge_base/domains/PR/examples.md", "md_atom_type": "SENTENCE", "md_parent_section": "§PR.2 [Example 2]", "md_verbatim": "This example shows data from a 24-hour Holter monitor, an ambulatory electrocardiography device that records a continuous electrocardiographic rhythm pattern.", "score": 0.4687, "match_basis": "verbatim_token+domain_route:PR"}, {"md_atom_id": "md_dmPR_ex_a013", "md_file": "knowledge_base/domains/PR/examples.md", "md_atom_type": "SENTENCE", "md_parent_section": "§PR.2 [Example 2]", "md_verbatim": "The start and end of the Holter monitoring procedure are represented in the PR domain.", "score": 0.4356, "match_basis": "verbatim_token+domain_route:PR"}], "candidate_count": 5, "zero_candidate": false}
{"pdf_atom_id": "ig34_p0127_a016", "pdf_atom_type": "LIST_ITEM", "pdf_source": "SDTMIG v3.4 (no header footer).pdf", "pdf_page": 127, "pdf_parent_section": "§6.1.5 [Procedures (PR)]", "pdf_verbatim": "2. In the Findings Observation Class, the test method is represented in the --METHOD variable (e.g., electrophoresis, gram stain, polymerase chain reaction). At times, the test method overlaps with diagnostic/therapeutic procedures (e.g., ultrasound, MRI, x-ray) in-scope for the PR domain. The following is recommended: If timing (start, end or duration) or an indicator populating PROCCUR, PRSTAT, or PRREASND is collected, then a PR record should be created. If only the findings from a procedure are collected, then --METHOD in the Findings domain(s) may be sufficient to reflect the procedure and a related PR record is optional. It is at the sponsor’s discretion whether to represent the procedure as both a test method (--METHOD) and related PR record.", "figure_ref": null, "candidates": [{"md_atom_id": "md_dmPR_assn_a003", "md_file": "knowledge_base/domains/PR/assumptions.md", "md_atom_type": "LIST_ITEM", "md_parent_section": "§PR [PR — Assumptions]", "md_verbatim": "2. In the Findings Observation Class, the test method is represented in the --METHOD variable (e.g., electrophoresis, gram stain, polymerase chain reaction). At times, the test method overlaps with diagnostic/therapeutic procedures (e.g., ultrasound, MRI, x-ray) in-scope for the PR domain. The following is recommended: If timing (start, end or duration) or an indicator populating PROCCUR, PRSTAT, or PRREASND is collected, then a PR record should be created. If only the findings from a procedure are collected, then --METHOD in the Findings domain(s) may be sufficient to reflect the procedure and a related PR record is optional. It is at the sponsor's discretion whether to represent the procedure as both a test method (--METHOD) and related PR record.", "score": 1.0, "match_basis": "verbatim_token+domain_route:PR"}, {"md_atom_id": "md_dmPR_assn_a002", "md_file": "knowledge_base/domains/PR/assumptions.md", "md_atom_type": "LIST_ITEM", "md_parent_section": "§PR [PR — Assumptions]", "md_verbatim": "1. Some examples of procedures, by type, include the following:\n   a. Disease screening (e.g., mammogram, pap smear)\n   b. Endoscopic examinations (e.g., arthroscopy, diagnostic colonoscopy, therapeutic colonoscopy, diagnostic laparoscopy, therapeutic laparoscopy)\n   c. Diagnostic tests (e.g., amniocentesis, biopsy, catheterization, cutaneous oximetry, finger stick, fluorophotometry, imaging techniques (e.g., DXA scan, CT scan, MRI), phlebotomy, pulmonary function test, skin test, stress test, tympanometry)\n   d. Therapeutic procedures (e.g., ablation therapy, catheterization, cryotherapy, mechanical ventilation, phototherapy, radiation therapy/radiotherapy, thermotherapy)\n   e. Surgical procedures (e.g., curative surgery, diagnostic surgery, palliative surgery, therapeutic surgery, prophylactic surgery, resection, stenting, hysterectomy, tubal ligation, implantation)\n\n   The Procedures domain is based on the Interventions observation class. The extent of physiological effect may range from observable to microscopic. Regardless of the extent of effect or whether it is collected in the study, all collected procedures are represented in this domain. The protocol design should specify whether procedure information will be collected. Measurements obtained from procedures are to be represented in their respective Findings domain(s). For example, a biopsy may be performed to obtain a tissue sample that is then evaluated histopathologically. In this case, details of the biopsy procedure can be represented in the PR domain and the histopathology findings in the Microscopic Findings (MI) domain. Describing the relationship between PR and MI records (in RELREC) in this example is dependent on whether the relationship is collected, either explicitly or implicitly.", "score": 0.5559, "match_basis": "verbatim_token+domain_route:PR"}, {"md_atom_id": "md_dmPR_assn_a004", "md_file": "knowledge_base/domains/PR/assumptions.md", "md_atom_type": "LIST_ITEM", "md_parent_section": "§PR [PR — Assumptions]", "md_verbatim": "3. PRINDC is used to represent a medical indication, a medical condition which makes a treatment advisable. The reason for a procedure may be something other than a medical indication. For example, an x-ray might be taken to determine whether a fracture was present. Reasons other than medical indications should be represented using the supplemental qualifier PRREAS (see Appendix C1, Supplemental Qualifiers Name Codes).", "score": 0.5065, "match_basis": "verbatim_token+domain_route:PR"}, {"md_atom_id": "md_dmPR_assn_a005", "md_file": "knowledge_base/domains/PR/assumptions.md", "md_atom_type": "LIST_ITEM", "md_parent_section": "§PR [PR — Assumptions]", "md_verbatim": "4. Any identifier variables, timing variables, or interventions general observation-class qualifiers may be added to the PR domain, but the following qualifiers would generally not be used: --MOOD, --LOT.", "score": 0.5, "match_basis": "verbatim_token+domain_route:PR"}, {"md_atom_id": "md_dmPR_ex_a003", "md_file": "knowledge_base/domains/PR/examples.md", "md_atom_type": "SENTENCE", "md_parent_section": "§PR.1 [Example 1]", "md_verbatim": "A procedures log CRF may collect verbatim values (procedure names) and dates performed. This example shows a subject who had 5 procedures collected and represented in the PR domain. In this study, the sponsor chose to consider verbatim text in PRTRT as long text represented in mixed case. See Section 4.2.4, Text Case in Submitted Data.", "score": 0.4104, "match_basis": "verbatim_token+domain_route:PR"}], "candidate_count": 5, "zero_candidate": false}
{"pdf_atom_id": "ig34_p0127_a017", "pdf_atom_type": "LIST_ITEM", "pdf_source": "SDTMIG v3.4 (no header footer).pdf", "pdf_page": 127, "pdf_parent_section": "§6.1.5 [Procedures (PR)]", "pdf_verbatim": "3. PRINDC is used to represent a medical indication, a medical condition which makes a treatment advisable. The reason for a procedure may be something other than a medical indication. For example, an x-ray might be taken to determine whether a fracture was present. Reasons other than medical indications should be represented using the supplemental qualifier PRREAS (see Appendix C1, Supplemental Qualifiers Name Codes).", "figure_ref": null, "candidates": [{"md_atom_id": "md_dmPR_assn_a004", "md_file": "knowledge_base/domains/PR/assumptions.md", "md_atom_type": "LIST_ITEM", "md_parent_section": "§PR [PR — Assumptions]", "md_verbatim": "3. PRINDC is used to represent a medical indication, a medical condition which makes a treatment advisable. The reason for a procedure may be something other than a medical indication. For example, an x-ray might be taken to determine whether a fracture was present. Reasons other than medical indications should be represented using the supplemental qualifier PRREAS (see Appendix C1, Supplemental Qualifiers Name Codes).", "score": 1.0, "match_basis": "verbatim_token+domain_route:PR"}, {"md_atom_id": "md_dmPR_assn_a003", "md_file": "knowledge_base/domains/PR/assumptions.md", "md_atom_type": "LIST_ITEM", "md_parent_section": "§PR [PR — Assumptions]", "md_verbatim": "2. In the Findings Observation Class, the test method is represented in the --METHOD variable (e.g., electrophoresis, gram stain, polymerase chain reaction). At times, the test method overlaps with diagnostic/therapeutic procedures (e.g., ultrasound, MRI, x-ray) in-scope for the PR domain. The following is recommended: If timing (start, end or duration) or an indicator populating PROCCUR, PRSTAT, or PRREASND is collected, then a PR record should be created. If only the findings from a procedure are collected, then --METHOD in the Findings domain(s) may be sufficient to reflect the procedure and a related PR record is optional. It is at the sponsor's discretion whether to represent the procedure as both a test method (--METHOD) and related PR record.", "score": 0.5065, "match_basis": "verbatim_token+domain_route:PR"}, {"md_atom_id": "md_dmPR_assn_a005", "md_file": "knowledge_base/domains/PR/assumptions.md", "md_atom_type": "LIST_ITEM", "md_parent_section": "§PR [PR — Assumptions]", "md_verbatim": "4. Any identifier variables, timing variables, or interventions general observation-class qualifiers may be added to the PR domain, but the following qualifiers would generally not be used: --MOOD, --LOT.", "score": 0.482, "match_basis": "verbatim_token+domain_route:PR"}, {"md_atom_id": "md_dmPR_assn_a002", "md_file": "knowledge_base/domains/PR/assumptions.md", "md_atom_type": "LIST_ITEM", "md_parent_section": "§PR [PR — Assumptions]", "md_verbatim": "1. Some examples of procedures, by type, include the following:\n   a. Disease screening (e.g., mammogram, pap smear)\n   b. Endoscopic examinations (e.g., arthroscopy, diagnostic colonoscopy, therapeutic colonoscopy, diagnostic laparoscopy, therapeutic laparoscopy)\n   c. Diagnostic tests (e.g., amniocentesis, biopsy, catheterization, cutaneous oximetry, finger stick, fluorophotometry, imaging techniques (e.g., DXA scan, CT scan, MRI), phlebotomy, pulmonary function test, skin test, stress test, tympanometry)\n   d. Therapeutic procedures (e.g., ablation therapy, catheterization, cryotherapy, mechanical ventilation, phototherapy, radiation therapy/radiotherapy, thermotherapy)\n   e. Surgical procedures (e.g., curative surgery, diagnostic surgery, palliative surgery, therapeutic surgery, prophylactic surgery, resection, stenting, hysterectomy, tubal ligation, implantation)\n\n   The Procedures domain is based on the Interventions observation class. The extent of physiological effect may range from observable to microscopic. Regardless of the extent of effect or whether it is collected in the study, all collected procedures are represented in this domain. The protocol design should specify whether procedure information will be collected. Measurements obtained from procedures are to be represented in their respective Findings domain(s). For example, a biopsy may be performed to obtain a tissue sample that is then evaluated histopathologically. In this case, details of the biopsy procedure can be represented in the PR domain and the histopathology findings in the Microscopic Findings (MI) domain. Describing the relationship between PR and MI records (in RELREC) in this example is dependent on whether the relationship is collected, either explicitly or implicitly.", "score": 0.4819, "match_basis": "verbatim_token+domain_route:PR"}, {"md_atom_id": "md_dmPR_ex_a003", "md_file": "knowledge_base/domains/PR/examples.md", "md_atom_type": "SENTENCE", "md_parent_section": "§PR.1 [Example 1]", "md_verbatim": "A procedures log CRF may collect verbatim values (procedure names) and dates performed. This example shows a subject who had 5 procedures collected and represented in the PR domain. In this study, the sponsor chose to consider verbatim text in PRTRT as long text represented in mixed case. See Section 4.2.4, Text Case in Submitted Data.", "score": 0.4114, "match_basis": "verbatim_token+domain_route:PR"}], "candidate_count": 5, "zero_candidate": false}
{"pdf_atom_id": "ig34_p0127_a018", "pdf_atom_type": "LIST_ITEM", "pdf_source": "SDTMIG v3.4 (no header footer).pdf", "pdf_page": 127, "pdf_parent_section": "§6.1.5 [Procedures (PR)]", "pdf_verbatim": "4. Any identifier variables, timing variables, or interventions general observation-class qualifiers may be added to the PR domain, but the following qualifiers would generally not be used: --MOOD, --LOT.", "figure_ref": null, "candidates": [{"md_atom_id": "md_dmPR_assn_a005", "md_file": "knowledge_base/domains/PR/assumptions.md", "md_atom_type": "LIST_ITEM", "md_parent_section": "§PR [PR — Assumptions]", "md_verbatim": "4. Any identifier variables, timing variables, or interventions general observation-class qualifiers may be added to the PR domain, but the following qualifiers would generally not be used: --MOOD, --LOT.", "score": 1.0, "match_basis": "verbatim_token+domain_route:PR"}, {"md_atom_id": "md_dmPR_assn_a003", "md_file": "knowledge_base/domains/PR/assumptions.md", "md_atom_type": "LIST_ITEM", "md_parent_section": "§PR [PR — Assumptions]", "md_verbatim": "2. In the Findings Observation Class, the test method is represented in the --METHOD variable (e.g., electrophoresis, gram stain, polymerase chain reaction). At times, the test method overlaps with diagnostic/therapeutic procedures (e.g., ultrasound, MRI, x-ray) in-scope for the PR domain. The following is recommended: If timing (start, end or duration) or an indicator populating PROCCUR, PRSTAT, or PRREASND is collected, then a PR record should be created. If only the findings from a procedure are collected, then --METHOD in the Findings domain(s) may be sufficient to reflect the procedure and a related PR record is optional. It is at the sponsor's discretion whether to represent the procedure as both a test method (--METHOD) and related PR record.", "score": 0.5, "match_basis": "verbatim_token+domain_route:PR"}, {"md_atom_id": "md_dmPR_assn_a004", "md_file": "knowledge_base/domains/PR/assumptions.md", "md_atom_type": "LIST_ITEM", "md_parent_section": "§PR [PR — Assumptions]", "md_verbatim": "3. PRINDC is used to represent a medical indication, a medical condition which makes a treatment advisable. The reason for a procedure may be something other than a medical indication. For example, an x-ray might be taken to determine whether a fracture was present. Reasons other than medical indications should be represented using the supplemental qualifier PRREAS (see Appendix C1, Supplemental Qualifiers Name Codes).", "score": 0.482, "match_basis": "verbatim_token+domain_route:PR"}, {"md_atom_id": "md_dmPR_assn_a002", "md_file": "knowledge_base/domains/PR/assumptions.md", "md_atom_type": "LIST_ITEM", "md_parent_section": "§PR [PR — Assumptions]", "md_verbatim": "1. Some examples of procedures, by type, include the following:\n   a. Disease screening (e.g., mammogram, pap smear)\n   b. Endoscopic examinations (e.g., arthroscopy, diagnostic colonoscopy, therapeutic colonoscopy, diagnostic laparoscopy, therapeutic laparoscopy)\n   c. Diagnostic tests (e.g., amniocentesis, biopsy, catheterization, cutaneous oximetry, finger stick, fluorophotometry, imaging techniques (e.g., DXA scan, CT scan, MRI), phlebotomy, pulmonary function test, skin test, stress test, tympanometry)\n   d. Therapeutic procedures (e.g., ablation therapy, catheterization, cryotherapy, mechanical ventilation, phototherapy, radiation therapy/radiotherapy, thermotherapy)\n   e. Surgical procedures (e.g., curative surgery, diagnostic surgery, palliative surgery, therapeutic surgery, prophylactic surgery, resection, stenting, hysterectomy, tubal ligation, implantation)\n\n   The Procedures domain is based on the Interventions observation class. The extent of physiological effect may range from observable to microscopic. Regardless of the extent of effect or whether it is collected in the study, all collected procedures are represented in this domain. The protocol design should specify whether procedure information will be collected. Measurements obtained from procedures are to be represented in their respective Findings domain(s). For example, a biopsy may be performed to obtain a tissue sample that is then evaluated histopathologically. In this case, details of the biopsy procedure can be represented in the PR domain and the histopathology findings in the Microscopic Findings (MI) domain. Describing the relationship between PR and MI records (in RELREC) in this example is dependent on whether the relationship is collected, either explicitly or implicitly.", "score": 0.4569, "match_basis": "verbatim_token+domain_route:PR"}, {"md_atom_id": "md_dmPR_ex_a003", "md_file": "knowledge_base/domains/PR/examples.md", "md_atom_type": "SENTENCE", "md_parent_section": "§PR.1 [Example 1]", "md_verbatim": "A procedures log CRF may collect verbatim values (procedure names) and dates performed. This example shows a subject who had 5 procedures collected and represented in the PR domain. In this study, the sponsor chose to consider verbatim text in PRTRT as long text represented in mixed case. See Section 4.2.4, Text Case in Submitted Data.", "score": 0.3633, "match_basis": "verbatim_token+domain_route:PR"}], "candidate_count": 5, "zero_candidate": false}
{"pdf_atom_id": "ig34_p0127_a019", "pdf_atom_type": "HEADING", "pdf_source": "SDTMIG v3.4 (no header footer).pdf", "pdf_page": 127, "pdf_parent_section": "§6.1.5 [Procedures (PR)]", "pdf_verbatim": "PR – Examples", "figure_ref": null, "candidates": [{"md_atom_id": "md_dmPR_ex_a001", "md_file": "knowledge_base/domains/PR/examples.md", "md_atom_type": "HEADING", "md_parent_section": "§PR [PR — Examples]", "md_verbatim": "# PR — Examples", "score": 1.0, "match_basis": "verbatim_token+domain_route:PR"}, {"md_atom_id": "md_dmPR_ex_a002", "md_file": "knowledge_base/domains/PR/examples.md", "md_atom_type": "HEADING", "md_parent_section": "§PR [PR — Examples]", "md_verbatim": "## Example 1", "score": 0.9, "match_basis": "verbatim_token+domain_route:PR"}, {"md_atom_id": "md_dmPR_ex_a011", "md_file": "knowledge_base/domains/PR/examples.md", "md_atom_type": "HEADING", "md_parent_section": "§PR [PR — Examples]", "md_verbatim": "## Example 2", "score": 0.9, "match_basis": "verbatim_token+domain_route:PR"}, {"md_atom_id": "md_dmPR_ex_a028", "md_file": "knowledge_base/domains/PR/examples.md", "md_atom_type": "HEADING", "md_parent_section": "§PR [PR — Examples]", "md_verbatim": "## Example 3", "score": 0.9, "match_basis": "verbatim_token+domain_route:PR"}, {"md_atom_id": "md_dmPR_assn_a001", "md_file": "knowledge_base/domains/PR/assumptions.md", "md_atom_type": "HEADING", "md_parent_section": "§PR [PR — Assumptions]", "md_verbatim": "# PR — Assumptions", "score": 0.4, "match_basis": "verbatim_token+domain_route:PR"}], "candidate_count": 5, "zero_candidate": false}
