{"pdf_atom_id": "ig34_p0382_a017", "pdf_atom_type": "SENTENCE", "pdf_source": "SDTMIG_v3.4", "pdf_page": 382, "pdf_parent_section": "§7.1.2 Definitions of Trial Design Concepts", "pdf_verbatim": "See the CDISC Glossary (https://www.cdisc.org/standards/glossary) for more complete definitions of clinical trial and objective.", "figure_ref": null, "candidates": [{"md_atom_id": "md_ch10_a011", "md_file": "knowledge_base/chapters/ch10_appendices.md", "md_atom_type": "SENTENCE", "md_parent_section": "§10.B [Glossary and Abbreviations]", "md_verbatim": "Additional definitions can be found in the individual sections of this document (see esp. Section 7.1.2, Definitions of Trial Design Concepts) and in the CDISC Glossary (available at https://www.cdisc.org/standards/glossary).", "score": 0.522, "match_basis": "verbatim_token+global_search"}, {"md_atom_id": "md_ch03_a108", "md_file": "knowledge_base/chapters/ch03_submitting_data.md", "md_atom_type": "SENTENCE", "md_parent_section": "§3.2.1.2 [CDISC Submission Value-level Metadata]", "md_verbatim": "For details on the CDISC Define-XML standard, see https://www.cdisc.org/standards/data-exchange/define-xml.", "score": 0.4775, "match_basis": "verbatim_token+global_search"}, {"md_atom_id": "md_dmRS_ex_a045", "md_file": "knowledge_base/domains/RS/examples.md", "md_atom_type": "SENTENCE", "md_parent_section": "§RS.2 [RS — Examples - Clinical Classifications]", "md_verbatim": "The following example is for a clinical classification. For additional RS examples, see the CDISC-published supplements for individual clinical classifications, at https://www.cdisc.org/standards/foundational/qrs.", "score": 0.4651, "match_basis": "verbatim_token+global_search"}, {"md_atom_id": "md_dmDM_ex_a068", "md_file": "knowledge_base/domains/DM/examples.md", "md_atom_type": "SENTENCE", "md_parent_section": "§DM.4 [Example 4]", "md_verbatim": "See the CDASH Model and Implementation Guide for additional information: https://www.cdisc.org/standards/foundational/cdash.", "score": 0.4586, "match_basis": "verbatim_token+global_search"}, {"md_atom_id": "md_dmDM_ex_a137", "md_file": "knowledge_base/domains/DM/examples.md", "md_atom_type": "SENTENCE", "md_parent_section": "§DM.6 [Example 6]", "md_verbatim": "See the CDASH Model and Implementation Guide for additional information: https://www.cdisc.org/standards/foundational/cdash.", "score": 0.4586, "match_basis": "verbatim_token+global_search"}], "candidate_count": 5, "zero_candidate": false}
{"pdf_atom_id": "ig34_p0382_a018", "pdf_atom_type": "TABLE_HEADER", "pdf_source": "SDTMIG_v3.4", "pdf_page": 382, "pdf_parent_section": "§7.1.2 Definitions of Trial Design Concepts", "pdf_verbatim": "| Concept | Definition |", "figure_ref": null, "candidates": [{"md_atom_id": "md_dmTU_assn_a071", "md_file": "knowledge_base/domains/TU/assumptions.md", "md_atom_type": "TABLE_HEADER", "md_parent_section": "§TU [TU — Assumptions]", "md_verbatim": "| QNAM | QLABEL | Definition |", "score": 0.5526, "match_basis": "verbatim_token+global_search"}, {"md_atom_id": "md_dmTS_assn_a038", "md_file": "knowledge_base/domains/TS/assumptions.md", "md_atom_type": "TABLE_HEADER", "md_parent_section": "§TS [TS — Use of Null Flavor]", "md_verbatim": "| Rank | Code | Display Name | Definition |\n|------|------|---|---|", "score": 0.5, "match_basis": "verbatim_token+global_search"}, {"md_atom_id": "md_ch03_a099", "md_file": "knowledge_base/chapters/ch03_submitting_data.md", "md_atom_type": "SENTENCE", "md_parent_section": "§3.2.1.1 [Primary Keys]", "md_verbatim": "**Definitions:**", "score": 0.4329, "match_basis": "verbatim_token+global_search"}, {"md_atom_id": "md_model06_a105", "md_file": "knowledge_base/model/06_relationship_datasets.md", "md_atom_type": "TABLE_ROW", "md_parent_section": "§ Summary of Relationship Datasets", "md_verbatim": "| Pool Definition | POOLDEF | Pool membership | Yes (nonclinical) |", "score": 0.4036, "match_basis": "verbatim_token+global_search"}, {"md_atom_id": "md_model06_a056", "md_file": "knowledge_base/model/06_relationship_datasets.md", "md_atom_type": "HEADING", "md_parent_section": "§6.3 Pool Definition (POOLDEF)", "md_verbatim": "## 6.3 Pool Definition (POOLDEF)", "score": 0.4024, "match_basis": "verbatim_token+global_search"}], "candidate_count": 5, "zero_candidate": false}
{"pdf_atom_id": "ig34_p0382_a019", "pdf_atom_type": "TABLE_ROW", "pdf_source": "SDTMIG_v3.4", "pdf_page": 382, "pdf_parent_section": "§7.1.2 Definitions of Trial Design Concepts", "pdf_verbatim": "| Trial design | The design of a clinical trial is a plan for what will be done to subjects and what data will be collected about them, in the course of the trial, to address the trial's objectives. |", "figure_ref": null, "candidates": [{"md_atom_id": "md_ch02_a058", "md_file": "knowledge_base/chapters/ch02_fundamentals.md", "md_atom_type": "TABLE_ROW", "md_parent_section": "§2.4 [Datasets Other than General Observation Class Domains]", "md_verbatim": "| **Trial Design Model (TDM)** | Study design information, not subject data | TA, TE | Section 7 |", "score": 0.4315, "match_basis": "verbatim_token+global_search"}, {"md_atom_id": "md_varindex_a302", "md_file": "knowledge_base/VARIABLE_INDEX.md", "md_atom_type": "TABLE_ROW", "md_parent_section": "§ 二、领域专属变量（仅 1 个域，共 1499 个），按域分组", "md_verbatim": "| CPCLSIG | Clinically Significant, Collected | Char | Record Qualifier | Perm | C66742 |", "score": 0.4047, "match_basis": "verbatim_token+global_search"}, {"md_atom_id": "md_varindex_a504", "md_file": "knowledge_base/VARIABLE_INDEX.md", "md_atom_type": "TABLE_ROW", "md_parent_section": "§ 二、领域专属变量（仅 1 个域，共 1499 个），按域分组", "md_verbatim": "| EGCLSIG | Clinically Significant, Collected | Char | Record Qualifier | Perm | C66742 |", "score": 0.4047, "match_basis": "verbatim_token+global_search"}, {"md_atom_id": "md_varindex_a778", "md_file": "knowledge_base/VARIABLE_INDEX.md", "md_atom_type": "TABLE_ROW", "md_parent_section": "§ 二、领域专属变量（仅 1 个域，共 1499 个），按域分组", "md_verbatim": "| LBCLSIG | Clinically Significant, Collected | Char | Record Qualifier | Perm | C66742 |", "score": 0.4047, "match_basis": "verbatim_token+global_search"}, {"md_atom_id": "md_varindex_a1654", "md_file": "knowledge_base/VARIABLE_INDEX.md", "md_atom_type": "TABLE_ROW", "md_parent_section": "§ 二、领域专属变量（仅 1 个域，共 1499 个），按域分组", "md_verbatim": "| VSCLSIG | Clinically Significant, Collected | Char | Record Qualifier | Perm | C66742 |", "score": 0.4047, "match_basis": "verbatim_token+global_search"}], "candidate_count": 5, "zero_candidate": false}
{"pdf_atom_id": "ig34_p0382_a020", "pdf_atom_type": "TABLE_ROW", "pdf_source": "SDTMIG_v3.4", "pdf_page": 382, "pdf_parent_section": "§7.1.2 Definitions of Trial Design Concepts", "pdf_verbatim": "| Epoch | As part of the design of a trial, the planned period of subjects' participation in the trial is divided into epochs. Each epoch is a period of time that serves a purpose in the trial as a whole. That purpose will be at the level of the primary objectives of the trial. Typically, the purpose of an epoch will be to expose subjects to a treatment or to prepare for such a treatment period (e.g., determine subject eligibility, washout previous treatments), or to gather data on subjects after a treatment has ended. Note that at this high level, a \"treatment\" is a treatment strategy, which may be simple (e.g., exposure to a single drug at a single dose) or complex. Complex treatment strategies could involve tapering through several doses, titrating dose according to clinical criteria, complex regimens involving multiple drugs, or strategies for adding or dropping drugs according to clinical criteria. |", "figure_ref": null, "candidates": [{"md_atom_id": "md_ch08_a261", "md_file": "knowledge_base/chapters/ch08_relationships.md", "md_atom_type": "TABLE_ROW", "md_parent_section": "§8.6.3 [Guidelines for Differentiating Between Interventions, Events, Findings, and Findings About Events or Interventions]", "md_verbatim": "| Are the data collected in a CRF for each visit, or an overall CRF log form? | Log forms (forms that are completed over the course of the study rather than at a single visit) suggest Events or Interventions general observation class data. Dates collected are usually start and end dates of an event or intervention. Dates when the information was collected are generally not of interest and are usually not recorded by the investigator. Observations made at individual visits are usually planned findings. Data collected at an initial visit may include information about past events and interventions, as well as findings. |", "score": 0.4196, "match_basis": "verbatim_token+global_search"}, {"md_atom_id": "md_ch01_a074", "md_file": "knowledge_base/chapters/ch01_introduction.md", "md_atom_type": "TABLE_ROW", "md_parent_section": "§1.4.1 [How to Read a Domain Specification]", "md_verbatim": "| **Controlled Terms, Codelist, or Format** | Controlled terminology references: an asterisk (*) indicates the variable may be subject to controlled terminology. Specifically, the asterisk means one of the following: (1) the controlled terminology might be of a type that would inherently be sponsor-defined; (2) the controlled terminology might be of a type that could be standardized, but for which a codelist has not yet been developed; or (3) the controlled terminology might be terminology specified in value-level metadata. Codelist references follow these conventions: (a) a hyperlinked codelist name in parentheses indicates that the variable is subject to the CDISC Controlled Terminology in that named codelist; (b) multiple hyperlinked codelist names indicate that the variable is subject to 1 or more of those named codelists from CDISC Controlled Terminology (if multiple codelists are in use for a single domain, value-level metadata indicates where each codelist is applicable); (c) a hyperlinked codelist name AND an asterisk (*) together indicate that the variable is subject to either the named CDISC Controlled Terminology codelist or to an external dictionary (the specific dictionary is identified in the metadata). The name of an external code system (e.g., MedDRA) is listed as plain text. \"ISO 8601 datetime or interval\" or \"ISO 8601 duration\" in plain text indicates that the variable values should be formatted in conformance with that standard. |", "score": 0.4083, "match_basis": "verbatim_token+global_search"}, {"md_atom_id": "md_ch10_a219", "md_file": "knowledge_base/chapters/ch10_appendices.md", "md_atom_type": "TABLE_ROW", "md_parent_section": "§10.E [Revision History]", "md_verbatim": "| 6.4.1 | When to Use Findings About Events or Interventions | Additional explanation and examples added for each criterion; new criterion added in version that underwent first public review was removed; new \"Points to Consider\" section added; third and fourth bullets dropped as criterion for representing data in FA |", "score": 0.396, "match_basis": "verbatim_token+global_search"}, {"md_atom_id": "md_ch08_a167", "md_file": "knowledge_base/chapters/ch08_relationships.md", "md_atom_type": "TABLE_ROW", "md_parent_section": "§8.4.1 [Supplemental Qualifiers (SUPP--)]", "md_verbatim": "| QEVAL | Evaluator | Char | (EVAL) | Record Qualifier | Used only for results that are subjective (e.g., assigned by a person or a group). Should be null for records that contain objectively collected or derived data. Examples: \"ADJUDICATION COMMITTEE\", \"STATISTICIAN\", \"DATABASE ADMINISTRATOR\", \"CLINICAL COORDINATOR\". | Exp |", "score": 0.3952, "match_basis": "verbatim_token+global_search"}, {"md_atom_id": "md_ch08_a264", "md_file": "knowledge_base/chapters/ch08_relationships.md", "md_atom_type": "TABLE_ROW", "md_parent_section": "§8.6.3 [Guidelines for Differentiating Between Interventions, Events, Findings, and Findings About Events or Interventions]", "md_verbatim": "| If this is data about an event, does it apply to the event as a whole? | A \"Yes\" answer suggests this is traditional Events general observation class data, and it should have a record in an Events domain. A \"No\" answer suggests that there are multiple time-based findings about an event, and that these data should be treated as Findings About data. |", "score": 0.3933, "match_basis": "verbatim_token+global_search"}], "candidate_count": 5, "zero_candidate": false}
{"pdf_atom_id": "ig34_p0382_a021", "pdf_atom_type": "TABLE_ROW", "pdf_source": "SDTMIG_v3.4", "pdf_page": 382, "pdf_parent_section": "§7.1.2 Definitions of Trial Design Concepts", "pdf_verbatim": "| Arm | An arm is a planned path through the trial. This path covers the entire time of the trial. The group of subjects assigned to a planned path is also often colloquially called an \"arm.\" The group of subjects assigned to an arm is also often called a \"treatment group\"; in this sense, an arm is equivalent to a treatment group. |", "figure_ref": null, "candidates": [{"md_atom_id": "md_model02_a188", "md_file": "knowledge_base/model/02_observation_classes.md", "md_atom_type": "TABLE_ROW", "md_parent_section": "§3.1.5 > Visit and Epoch Variables", "md_verbatim": "| 4 | TAETORD | Planned Order of Element Within Arm | Num | Value for the element within the subject's assigned arm |", "score": 0.4385, "match_basis": "verbatim_token+global_search"}, {"md_atom_id": "md_dmTA_ex_a106", "md_file": "knowledge_base/domains/TA/examples.md", "md_atom_type": "TABLE_ROW", "md_parent_section": "§TA.3 [Example 3]", "md_verbatim": "| 5 | EX3 | TA | AR | A-Rescue | 2 | DBA | Treatment A | Assigned to Rescue on basis of response evaluation | | BLINDED TREATMENT |", "score": 0.3909, "match_basis": "verbatim_token+global_search"}, {"md_atom_id": "md_dmTA_ex_a112", "md_file": "knowledge_base/domains/TA/examples.md", "md_atom_type": "TABLE_ROW", "md_parent_section": "§TA.3 [Example 3]", "md_verbatim": "| 11 | EX3 | TA | BR | B-Rescue | 2 | DBB | Treatment B | Assigned to Rescue on basis of response evaluation | | BLINDED TREATMENT |", "score": 0.3909, "match_basis": "verbatim_token+global_search"}, {"md_atom_id": "md_dmTA_ex_a103", "md_file": "knowledge_base/domains/TA/examples.md", "md_atom_type": "TABLE_ROW", "md_parent_section": "§TA.3 [Example 3]", "md_verbatim": "| 2 | EX3 | TA | AA | A-Open A | 2 | DBA | Treatment A | Assigned to Open Drug A on basis of response evaluation | | BLINDED TREATMENT |", "score": 0.39, "match_basis": "verbatim_token+global_search"}, {"md_atom_id": "md_dmTA_ex_a109", "md_file": "knowledge_base/domains/TA/examples.md", "md_atom_type": "TABLE_ROW", "md_parent_section": "§TA.3 [Example 3]", "md_verbatim": "| 8 | EX3 | TA | BA | B-Open A | 2 | DBB | Treatment B | Assigned to Open Drug A on basis of response evaluation | | BLINDED TREATMENT |", "score": 0.39, "match_basis": "verbatim_token+global_search"}], "candidate_count": 5, "zero_candidate": false}
{"pdf_atom_id": "ig34_p0382_a022", "pdf_atom_type": "TABLE_ROW", "pdf_source": "SDTMIG_v3.4", "pdf_page": 382, "pdf_parent_section": "§7.1.2 Definitions of Trial Design Concepts", "pdf_verbatim": "| Study cell | Each planned path through the trial (i.e., each arm) is divided into pieces, 1 for each epoch. Each of these pieces is called a study cell. Thus, there is a study cell for each combination of arm and epoch. Each study cell represents an implementation of the purpose of its associated epoch. For an epoch whose purpose is to expose subjects to treatment, each study cell associated with the epoch has an associated treatment strategy. For example, a 3-arm parallel trial might have a treatment epoch whose purpose is to expose subjects to 1 of 3 study treatments: placebo, investigational product, or active control. There would be 3 study cell associated with the treatment epoch, 1 for each arm. Each of these study cells exposes the subject to 1 of the 3 study treatments. Another example involving more complex treatment strategies would be a trial comparing the effects of cycles of chemotherapy drug A given alone or in combination with drug B, where drug B is given as a pretreatment to each cycle of drug A. |", "figure_ref": null, "candidates": [{"md_atom_id": "md_ch08_a261", "md_file": "knowledge_base/chapters/ch08_relationships.md", "md_atom_type": "TABLE_ROW", "md_parent_section": "§8.6.3 [Guidelines for Differentiating Between Interventions, Events, Findings, and Findings About Events or Interventions]", "md_verbatim": "| Are the data collected in a CRF for each visit, or an overall CRF log form? | Log forms (forms that are completed over the course of the study rather than at a single visit) suggest Events or Interventions general observation class data. Dates collected are usually start and end dates of an event or intervention. Dates when the information was collected are generally not of interest and are usually not recorded by the investigator. Observations made at individual visits are usually planned findings. Data collected at an initial visit may include information about past events and interventions, as well as findings. |", "score": 0.4119, "match_basis": "verbatim_token+global_search"}, {"md_atom_id": "md_ch02_a047", "md_file": "knowledge_base/chapters/ch02_fundamentals.md", "md_atom_type": "TABLE_ROW", "md_parent_section": "§2.3 [The General Observation Classes]", "md_verbatim": "| **Interventions** | Investigational, therapeutic, and other treatments administered to or used by a subject (with some actual or expected physiological effect), including treatments that are self-administered by the subject (i.e., use of alcohol, tobacco, or caffeine) | Exposure (EX), Concomitant Medications (CM), Procedures (PR) |", "score": 0.4081, "match_basis": "verbatim_token+global_search"}, {"md_atom_id": "md_ch08_a265", "md_file": "knowledge_base/chapters/ch08_relationships.md", "md_atom_type": "TABLE_ROW", "md_parent_section": "§8.6.3 [Guidelines for Differentiating Between Interventions, Events, Findings, and Findings About Events or Interventions]", "md_verbatim": "| Does this data meet the criteria for representation in a Questionnaires, Ratings, and Scales (QRS) domain? | The criteria for QRS are available at: https://www.cdisc.org/foundational/qrs. There are many standard questionnaires and rating scales that collect information about symptoms. The fact that these data are findings about symptoms does not mean that the data should be represented in FA rather than a QRS domain (QS, FT, or RS). Data about symptoms may be collected in a format that is usually associated with questionnaires and rating scales (e.g., visual analog scale). This format alone does not mean that the data should be represented in a QRS domain. |", "score": 0.398, "match_basis": "verbatim_token+global_search"}, {"md_atom_id": "md_dmTS_ex_a112", "md_file": "knowledge_base/domains/TS/examples.md", "md_atom_type": "TABLE_ROW", "md_parent_section": "§TS.4 [Example 4]", "md_verbatim": "| 27 | ABC123 | TS | 1 | PHASE 3 | OBJPRIM | Trial Primary Objective | To evaluate the efficacy of combination therapy (Drug X + Drug Z) versus monotherapy (Drug X + Placebo), as assessed by progression-free survival using RECIST 1.1 | | | | |", "score": 0.396, "match_basis": "verbatim_token+global_search"}, {"md_atom_id": "md_ch01_a074", "md_file": "knowledge_base/chapters/ch01_introduction.md", "md_atom_type": "TABLE_ROW", "md_parent_section": "§1.4.1 [How to Read a Domain Specification]", "md_verbatim": "| **Controlled Terms, Codelist, or Format** | Controlled terminology references: an asterisk (*) indicates the variable may be subject to controlled terminology. Specifically, the asterisk means one of the following: (1) the controlled terminology might be of a type that would inherently be sponsor-defined; (2) the controlled terminology might be of a type that could be standardized, but for which a codelist has not yet been developed; or (3) the controlled terminology might be terminology specified in value-level metadata. Codelist references follow these conventions: (a) a hyperlinked codelist name in parentheses indicates that the variable is subject to the CDISC Controlled Terminology in that named codelist; (b) multiple hyperlinked codelist names indicate that the variable is subject to 1 or more of those named codelists from CDISC Controlled Terminology (if multiple codelists are in use for a single domain, value-level metadata indicates where each codelist is applicable); (c) a hyperlinked codelist name AND an asterisk (*) together indicate that the variable is subject to either the named CDISC Controlled Terminology codelist or to an external dictionary (the specific dictionary is identified in the metadata). The name of an external code system (e.g., MedDRA) is listed as plain text. \"ISO 8601 datetime or interval\" or \"ISO 8601 duration\" in plain text indicates that the variable values should be formatted in conformance with that standard. |", "score": 0.3947, "match_basis": "verbatim_token+global_search"}], "candidate_count": 5, "zero_candidate": false}
{"pdf_atom_id": "ig34_p0383_a001", "pdf_atom_type": "TABLE_ROW", "pdf_source": "SDTMIG_v3.4", "pdf_page": 383, "pdf_parent_section": "§7.1.2 Definitions of Trial Design Concepts", "pdf_verbatim": "| Element | An element is a basic building block in the trial design. It involves administering a planned intervention, which may be treatment or no treatment, during a period of time. Elements for which the planned intervention is \"no treatment\" would include elements for screening, washout, and follow-up. |", "figure_ref": null, "candidates": [{"md_atom_id": "md_dmDV_ex_a010", "md_file": "knowledge_base/domains/DV/examples.md", "md_atom_type": "TABLE_ROW", "md_parent_section": "§DV.1 [Example 1]", "md_verbatim": "| 2 | ABC123 | DV | 123103 | 1 | DRUG XXX ADMINISTERED DURING STUDY TREATMENT PERIOD | EXCLUDED CONCOMITANT MEDICATION | TREATMENT | 2003-10-30 |", "score": 0.4282, "match_basis": "verbatim_token+global_search"}, {"md_atom_id": "md_ch03_a078", "md_file": "knowledge_base/chapters/ch03_submitting_data.md", "md_atom_type": "TABLE_ROW", "md_parent_section": "§3.2.1 [Dataset-level Metadata]", "md_verbatim": "| TE | Trial Elements | Trial Design | One record per planned Element | Tabulation | STUDYID, ETCD | te.xpt |", "score": 0.4096, "match_basis": "verbatim_token+global_search"}, {"md_atom_id": "md_ch02_a047", "md_file": "knowledge_base/chapters/ch02_fundamentals.md", "md_atom_type": "TABLE_ROW", "md_parent_section": "§2.3 [The General Observation Classes]", "md_verbatim": "| **Interventions** | Investigational, therapeutic, and other treatments administered to or used by a subject (with some actual or expected physiological effect), including treatments that are self-administered by the subject (i.e., use of alcohol, tobacco, or caffeine) | Exposure (EX), Concomitant Medications (CM), Procedures (PR) |", "score": 0.4071, "match_basis": "verbatim_token+global_search"}, {"md_atom_id": "md_varindex_a1172", "md_file": "knowledge_base/VARIABLE_INDEX.md", "md_atom_type": "TABLE_ROW", "md_parent_section": "§ 二、领域专属变量（仅 1 个域，共 1499 个），按域分组", "md_verbatim": "| PPENINT | Planned End of Assessment Interval | Char | Timing | Perm | ISO 8601 duration |", "score": 0.4026, "match_basis": "verbatim_token+global_search"}, {"md_atom_id": "md_ch03_a076", "md_file": "knowledge_base/chapters/ch03_submitting_data.md", "md_atom_type": "TABLE_ROW", "md_parent_section": "§3.2.1 [Dataset-level Metadata]", "md_verbatim": "| TA | Trial Arms | Trial Design | One record per planned Element per Arm | Tabulation | STUDYID, ARMCD, TAETORD | ta.xpt |", "score": 0.3992, "match_basis": "verbatim_token+global_search"}], "candidate_count": 5, "zero_candidate": false}
{"pdf_atom_id": "ig34_p0383_a002", "pdf_atom_type": "TABLE_ROW", "pdf_source": "SDTMIG_v3.4", "pdf_page": 383, "pdf_parent_section": "§7.1.2 Definitions of Trial Design Concepts", "pdf_verbatim": "| Study cells and elements | Many (perhaps most) clinical trials involve a single, simple administration of a planned intervention within a study cell. For some trials, however, the treatment strategy associated with a study cell involves a complex series of administrations of treatment. In such cases it may be important to track the component steps in a treatment strategy operationally; secondary objectives and safety analyses also might require that data be grouped by the treatment step during which it was collected. The steps within a treatment strategy may involve different doses of drug, different drugs, or different kinds of care (e.g., preoperative, operative, and post-operative periods surrounding surgery). When the treatment strategy for a study cell is simple, the study cell will contain a single element, and for many purposes there is little value in distinguishing between the study cell and the element. However, when the treatment strategy for a study cell consists of a complex series of treatments, a study cell can contain multiple elements. There may be a fixed sequence of elements, or a repeating cycle of elements, or some other complex pattern. In these cases, the distinction between a study cell and an element is very useful. |", "figure_ref": null, "candidates": [{"md_atom_id": "md_ch01_a074", "md_file": "knowledge_base/chapters/ch01_introduction.md", "md_atom_type": "TABLE_ROW", "md_parent_section": "§1.4.1 [How to Read a Domain Specification]", "md_verbatim": "| **Controlled Terms, Codelist, or Format** | Controlled terminology references: an asterisk (*) indicates the variable may be subject to controlled terminology. Specifically, the asterisk means one of the following: (1) the controlled terminology might be of a type that would inherently be sponsor-defined; (2) the controlled terminology might be of a type that could be standardized, but for which a codelist has not yet been developed; or (3) the controlled terminology might be terminology specified in value-level metadata. Codelist references follow these conventions: (a) a hyperlinked codelist name in parentheses indicates that the variable is subject to the CDISC Controlled Terminology in that named codelist; (b) multiple hyperlinked codelist names indicate that the variable is subject to 1 or more of those named codelists from CDISC Controlled Terminology (if multiple codelists are in use for a single domain, value-level metadata indicates where each codelist is applicable); (c) a hyperlinked codelist name AND an asterisk (*) together indicate that the variable is subject to either the named CDISC Controlled Terminology codelist or to an external dictionary (the specific dictionary is identified in the metadata). The name of an external code system (e.g., MedDRA) is listed as plain text. \"ISO 8601 datetime or interval\" or \"ISO 8601 duration\" in plain text indicates that the variable values should be formatted in conformance with that standard. |", "score": 0.4344, "match_basis": "verbatim_token+global_search"}, {"md_atom_id": "md_ch08_a261", "md_file": "knowledge_base/chapters/ch08_relationships.md", "md_atom_type": "TABLE_ROW", "md_parent_section": "§8.6.3 [Guidelines for Differentiating Between Interventions, Events, Findings, and Findings About Events or Interventions]", "md_verbatim": "| Are the data collected in a CRF for each visit, or an overall CRF log form? | Log forms (forms that are completed over the course of the study rather than at a single visit) suggest Events or Interventions general observation class data. Dates collected are usually start and end dates of an event or intervention. Dates when the information was collected are generally not of interest and are usually not recorded by the investigator. Observations made at individual visits are usually planned findings. Data collected at an initial visit may include information about past events and interventions, as well as findings. |", "score": 0.4148, "match_basis": "verbatim_token+global_search"}, {"md_atom_id": "md_ch08_a265", "md_file": "knowledge_base/chapters/ch08_relationships.md", "md_atom_type": "TABLE_ROW", "md_parent_section": "§8.6.3 [Guidelines for Differentiating Between Interventions, Events, Findings, and Findings About Events or Interventions]", "md_verbatim": "| Does this data meet the criteria for representation in a Questionnaires, Ratings, and Scales (QRS) domain? | The criteria for QRS are available at: https://www.cdisc.org/foundational/qrs. There are many standard questionnaires and rating scales that collect information about symptoms. The fact that these data are findings about symptoms does not mean that the data should be represented in FA rather than a QRS domain (QS, FT, or RS). Data about symptoms may be collected in a format that is usually associated with questionnaires and rating scales (e.g., visual analog scale). This format alone does not mean that the data should be represented in a QRS domain. |", "score": 0.4094, "match_basis": "verbatim_token+global_search"}, {"md_atom_id": "md_ch02_a047", "md_file": "knowledge_base/chapters/ch02_fundamentals.md", "md_atom_type": "TABLE_ROW", "md_parent_section": "§2.3 [The General Observation Classes]", "md_verbatim": "| **Interventions** | Investigational, therapeutic, and other treatments administered to or used by a subject (with some actual or expected physiological effect), including treatments that are self-administered by the subject (i.e., use of alcohol, tobacco, or caffeine) | Exposure (EX), Concomitant Medications (CM), Procedures (PR) |", "score": 0.4059, "match_basis": "verbatim_token+global_search"}, {"md_atom_id": "md_ch10_a236", "md_file": "knowledge_base/chapters/ch10_appendices.md", "md_atom_type": "TABLE_ROW", "md_parent_section": "§10.E [Revision History]", "md_verbatim": "| 8.6.3 | Guidelines for Differentiating Between Interventions, Events, Findings, and Findings About Events or Interventions | \"Interventions\" added to section title; some changes to text to correct typos and clarify wording; second column of second row of table revised to explain what a log form is and to clarify how the data collection format may help understand the general observation class of data collected; added a row to the table to help in deciding between QS and FA for data about symptoms; reordered sentences in paragraph after the table and reiterated reference to AE structure assumption |", "score": 0.4053, "match_basis": "verbatim_token+global_search"}], "candidate_count": 5, "zero_candidate": false}
{"pdf_atom_id": "ig34_p0383_a003", "pdf_atom_type": "TABLE_ROW", "pdf_source": "SDTMIG_v3.4", "pdf_page": 383, "pdf_parent_section": "§7.1.2 Definitions of Trial Design Concepts", "pdf_verbatim": "| Branch | In a trial with multiple arms, the protocol plans for each subject to be assigned to 1 arm. The time within the trial at which this assignment takes place is the point at which the arm paths of the trial diverge, and so is called a branch point. For many trials, the assignment to an arm happens all at one time, so the trial has 1 branch point. For other trials, there may be 2 or more branches that collectively assign a subject to an arm. The process that makes this assignment may be a randomization, but it need not be. |", "figure_ref": null, "candidates": [{"md_atom_id": "md_dmTE_ex_a053", "md_file": "knowledge_base/domains/TE/examples.md", "md_atom_type": "TABLE_ROW", "md_parent_section": "§TE.4.3 [Transitions Between Elements]", "md_verbatim": "| 2 | Which element should the subject enter next? | If there is a branch at this point in the trial, evaluate criteria described in TABRANCH (e.g., randomization results) in the TA dataset. Otherwise, if TATRANS in the TA dataset is populated in this arm at this point, follow those instructions. Otherwise, move to the next element in this arm as specified by TAETORD in the TA dataset. |", "score": 0.4255, "match_basis": "verbatim_token+global_search"}, {"md_atom_id": "md_ch01_a074", "md_file": "knowledge_base/chapters/ch01_introduction.md", "md_atom_type": "TABLE_ROW", "md_parent_section": "§1.4.1 [How to Read a Domain Specification]", "md_verbatim": "| **Controlled Terms, Codelist, or Format** | Controlled terminology references: an asterisk (*) indicates the variable may be subject to controlled terminology. Specifically, the asterisk means one of the following: (1) the controlled terminology might be of a type that would inherently be sponsor-defined; (2) the controlled terminology might be of a type that could be standardized, but for which a codelist has not yet been developed; or (3) the controlled terminology might be terminology specified in value-level metadata. Codelist references follow these conventions: (a) a hyperlinked codelist name in parentheses indicates that the variable is subject to the CDISC Controlled Terminology in that named codelist; (b) multiple hyperlinked codelist names indicate that the variable is subject to 1 or more of those named codelists from CDISC Controlled Terminology (if multiple codelists are in use for a single domain, value-level metadata indicates where each codelist is applicable); (c) a hyperlinked codelist name AND an asterisk (*) together indicate that the variable is subject to either the named CDISC Controlled Terminology codelist or to an external dictionary (the specific dictionary is identified in the metadata). The name of an external code system (e.g., MedDRA) is listed as plain text. \"ISO 8601 datetime or interval\" or \"ISO 8601 duration\" in plain text indicates that the variable values should be formatted in conformance with that standard. |", "score": 0.4079, "match_basis": "verbatim_token+global_search"}, {"md_atom_id": "md_model02_a188", "md_file": "knowledge_base/model/02_observation_classes.md", "md_atom_type": "TABLE_ROW", "md_parent_section": "§3.1.5 > Visit and Epoch Variables", "md_verbatim": "| 4 | TAETORD | Planned Order of Element Within Arm | Num | Value for the element within the subject's assigned arm |", "score": 0.3985, "match_basis": "verbatim_token+global_search"}, {"md_atom_id": "md_ch08_a262", "md_file": "knowledge_base/chapters/ch08_relationships.md", "md_atom_type": "TABLE_ROW", "md_parent_section": "§8.6.3 [Guidelines for Differentiating Between Interventions, Events, Findings, and Findings About Events or Interventions]", "md_verbatim": "| What date/times are collected? | If the dates collected are start and/or end dates, then data are probably about an event or intervention. If the dates collected are dates of assessments, then data probably represent a finding. If dates of collection are different from other dates collected, it suggests that data are historical or are about an event or intervention that happened independently of the study schedule for data collection. |", "score": 0.3975, "match_basis": "verbatim_token+global_search"}, {"md_atom_id": "md_ch10_a198", "md_file": "knowledge_base/chapters/ch10_appendices.md", "md_atom_type": "TABLE_ROW", "md_parent_section": "§10.E [Revision History]", "md_verbatim": "| 6.1.5 | Procedures (PR) | PRSEQ's CDISC Notes updated to reflect that Sequence Number is given to ensure uniqueness of subject records within a domain; added CT reference for PRDECOD variable; more explanations provided in examples for why values in PRTRT are in mixed case |", "score": 0.3894, "match_basis": "verbatim_token+global_search"}], "candidate_count": 5, "zero_candidate": false}
{"pdf_atom_id": "ig34_p0383_a004", "pdf_atom_type": "TABLE_ROW", "pdf_source": "SDTMIG_v3.4", "pdf_page": 383, "pdf_parent_section": "§7.1.2 Definitions of Trial Design Concepts", "pdf_verbatim": "| Treatments | The word \"treatment\" may be used in connection with epochs, study cells, or elements, but has somewhat different meanings in each context: Because epochs cut across arms, an epoch treatment is at a high level that does not specify anything that differs between arms. For example, in a 3-period crossover study of 3 doses of drug X, each treatment epoch is associated with drug X, but not with a specific dose. A study cell treatment is specific to a particular arm. For example, a parallel trial might have study cell treatments placebo and drug X, without any additional detail (e.g., dose, frequency, route of administration) being specified. A study cell treatment is at a relatively high level, the level at which treatments might be planned in an early conceptual draft of the trial, or in the title or objectives of the trial. An element treatment may be fairly detailed. For example, for an element representing a cycle of chemotherapy, element treatment might specify 5 daily 100 mg doses of drug X. The distinctions between these levels are not rigid, and depend on the objectives of the trial. For example, route is generally a detail of dosing, but in a bioequivalence trial comparing IV and oral administration of drug X, route is clearly part of study cell treatment. |", "figure_ref": null, "candidates": [{"md_atom_id": "md_ch10_a230", "md_file": "knowledge_base/chapters/ch10_appendices.md", "md_atom_type": "TABLE_ROW", "md_parent_section": "§10.E [Revision History]", "md_verbatim": "| 7.4.2 | Trial Summary (TS) | Changed the CDISC Notes for TSSEQ to reflect that the sequence number is to ensure uniqueness within a parameter; revisions to most TS assumptions to remove references to Appendix C1 Trial Summary Codes (as this appendix was removed); TS assumptions replaced with ones that note recipients may specify requirements and terminology; reference added for the TS Codetable on the CDISC website; revised TS Assumption 17 to clarify value expectations for TSPARMCD = \"INDIC\"; additional assumptions revised for clarity; information added about exploratory outcome measures; Examples 1-3 revised; new Example 4 added to show use of TSGRPID for study parts and treatments |", "score": 0.424, "match_basis": "verbatim_token+global_search"}, {"md_atom_id": "md_ch01_a074", "md_file": "knowledge_base/chapters/ch01_introduction.md", "md_atom_type": "TABLE_ROW", "md_parent_section": "§1.4.1 [How to Read a Domain Specification]", "md_verbatim": "| **Controlled Terms, Codelist, or Format** | Controlled terminology references: an asterisk (*) indicates the variable may be subject to controlled terminology. Specifically, the asterisk means one of the following: (1) the controlled terminology might be of a type that would inherently be sponsor-defined; (2) the controlled terminology might be of a type that could be standardized, but for which a codelist has not yet been developed; or (3) the controlled terminology might be terminology specified in value-level metadata. Codelist references follow these conventions: (a) a hyperlinked codelist name in parentheses indicates that the variable is subject to the CDISC Controlled Terminology in that named codelist; (b) multiple hyperlinked codelist names indicate that the variable is subject to 1 or more of those named codelists from CDISC Controlled Terminology (if multiple codelists are in use for a single domain, value-level metadata indicates where each codelist is applicable); (c) a hyperlinked codelist name AND an asterisk (*) together indicate that the variable is subject to either the named CDISC Controlled Terminology codelist or to an external dictionary (the specific dictionary is identified in the metadata). The name of an external code system (e.g., MedDRA) is listed as plain text. \"ISO 8601 datetime or interval\" or \"ISO 8601 duration\" in plain text indicates that the variable values should be formatted in conformance with that standard. |", "score": 0.4163, "match_basis": "verbatim_token+global_search"}, {"md_atom_id": "md_ch08_a261", "md_file": "knowledge_base/chapters/ch08_relationships.md", "md_atom_type": "TABLE_ROW", "md_parent_section": "§8.6.3 [Guidelines for Differentiating Between Interventions, Events, Findings, and Findings About Events or Interventions]", "md_verbatim": "| Are the data collected in a CRF for each visit, or an overall CRF log form? | Log forms (forms that are completed over the course of the study rather than at a single visit) suggest Events or Interventions general observation class data. Dates collected are usually start and end dates of an event or intervention. Dates when the information was collected are generally not of interest and are usually not recorded by the investigator. Observations made at individual visits are usually planned findings. Data collected at an initial visit may include information about past events and interventions, as well as findings. |", "score": 0.4048, "match_basis": "verbatim_token+global_search"}, {"md_atom_id": "md_ch10_a236", "md_file": "knowledge_base/chapters/ch10_appendices.md", "md_atom_type": "TABLE_ROW", "md_parent_section": "§10.E [Revision History]", "md_verbatim": "| 8.6.3 | Guidelines for Differentiating Between Interventions, Events, Findings, and Findings About Events or Interventions | \"Interventions\" added to section title; some changes to text to correct typos and clarify wording; second column of second row of table revised to explain what a log form is and to clarify how the data collection format may help understand the general observation class of data collected; added a row to the table to help in deciding between QS and FA for data about symptoms; reordered sentences in paragraph after the table and reiterated reference to AE structure assumption |", "score": 0.4032, "match_basis": "verbatim_token+global_search"}, {"md_atom_id": "md_ch08_a265", "md_file": "knowledge_base/chapters/ch08_relationships.md", "md_atom_type": "TABLE_ROW", "md_parent_section": "§8.6.3 [Guidelines for Differentiating Between Interventions, Events, Findings, and Findings About Events or Interventions]", "md_verbatim": "| Does this data meet the criteria for representation in a Questionnaires, Ratings, and Scales (QRS) domain? | The criteria for QRS are available at: https://www.cdisc.org/foundational/qrs. There are many standard questionnaires and rating scales that collect information about symptoms. The fact that these data are findings about symptoms does not mean that the data should be represented in FA rather than a QRS domain (QS, FT, or RS). Data about symptoms may be collected in a format that is usually associated with questionnaires and rating scales (e.g., visual analog scale). This format alone does not mean that the data should be represented in a QRS domain. |", "score": 0.3976, "match_basis": "verbatim_token+global_search"}], "candidate_count": 5, "zero_candidate": false}
{"pdf_atom_id": "ig34_p0383_a005", "pdf_atom_type": "TABLE_ROW", "pdf_source": "SDTMIG_v3.4", "pdf_page": 383, "pdf_parent_section": "§7.1.2 Definitions of Trial Design Concepts", "pdf_verbatim": "| Visit | The notion of a visit—a clinical encounter—derives from trials with outpatients, where subjects interact with the investigator during visits to the investigator's clinical site. However, the term is used in other trials, where a trial visit may not correspond to a physical visit. For example, in a trial with inpatients, time may be subdivided into visits, even though subjects are in hospital throughout the trial. For example, data for a screening visit may be collected over the course of more than 1 physical visit. One of the main purposes of visits is the performance of assessments, but not all assessments need take place at clinic visits; some assessments may be performed by means of telephone contacts, electronic devices, or call-in systems. The protocol should specify what contacts are considered visits and how they are defined. |", "figure_ref": null, "candidates": [{"md_atom_id": "md_ch01_a074", "md_file": "knowledge_base/chapters/ch01_introduction.md", "md_atom_type": "TABLE_ROW", "md_parent_section": "§1.4.1 [How to Read a Domain Specification]", "md_verbatim": "| **Controlled Terms, Codelist, or Format** | Controlled terminology references: an asterisk (*) indicates the variable may be subject to controlled terminology. Specifically, the asterisk means one of the following: (1) the controlled terminology might be of a type that would inherently be sponsor-defined; (2) the controlled terminology might be of a type that could be standardized, but for which a codelist has not yet been developed; or (3) the controlled terminology might be terminology specified in value-level metadata. Codelist references follow these conventions: (a) a hyperlinked codelist name in parentheses indicates that the variable is subject to the CDISC Controlled Terminology in that named codelist; (b) multiple hyperlinked codelist names indicate that the variable is subject to 1 or more of those named codelists from CDISC Controlled Terminology (if multiple codelists are in use for a single domain, value-level metadata indicates where each codelist is applicable); (c) a hyperlinked codelist name AND an asterisk (*) together indicate that the variable is subject to either the named CDISC Controlled Terminology codelist or to an external dictionary (the specific dictionary is identified in the metadata). The name of an external code system (e.g., MedDRA) is listed as plain text. \"ISO 8601 datetime or interval\" or \"ISO 8601 duration\" in plain text indicates that the variable values should be formatted in conformance with that standard. |", "score": 0.4485, "match_basis": "verbatim_token+global_search"}, {"md_atom_id": "md_ch08_a261", "md_file": "knowledge_base/chapters/ch08_relationships.md", "md_atom_type": "TABLE_ROW", "md_parent_section": "§8.6.3 [Guidelines for Differentiating Between Interventions, Events, Findings, and Findings About Events or Interventions]", "md_verbatim": "| Are the data collected in a CRF for each visit, or an overall CRF log form? | Log forms (forms that are completed over the course of the study rather than at a single visit) suggest Events or Interventions general observation class data. Dates collected are usually start and end dates of an event or intervention. Dates when the information was collected are generally not of interest and are usually not recorded by the investigator. Observations made at individual visits are usually planned findings. Data collected at an initial visit may include information about past events and interventions, as well as findings. |", "score": 0.4363, "match_basis": "verbatim_token+global_search"}, {"md_atom_id": "md_ch02_a047", "md_file": "knowledge_base/chapters/ch02_fundamentals.md", "md_atom_type": "TABLE_ROW", "md_parent_section": "§2.3 [The General Observation Classes]", "md_verbatim": "| **Interventions** | Investigational, therapeutic, and other treatments administered to or used by a subject (with some actual or expected physiological effect), including treatments that are self-administered by the subject (i.e., use of alcohol, tobacco, or caffeine) | Exposure (EX), Concomitant Medications (CM), Procedures (PR) |", "score": 0.4173, "match_basis": "verbatim_token+global_search"}, {"md_atom_id": "md_ch08_a263", "md_file": "knowledge_base/chapters/ch08_relationships.md", "md_atom_type": "TABLE_ROW", "md_parent_section": "§8.6.3 [Guidelines for Differentiating Between Interventions, Events, Findings, and Findings About Events or Interventions]", "md_verbatim": "| Is verbatim text collected and then coded? | A \"Yes\" answer suggests that this is Events or Interventions general observation class data. However, Findings general observation class data from an examination (e.g., physical examination) that identifies abnormalities may also be coded. Note that for Events and Interventions general observation class data, the topic variable is coded, whereas for Findings general observation class data, the result is coded. |", "score": 0.4157, "match_basis": "verbatim_token+global_search"}, {"md_atom_id": "md_ch08_a265", "md_file": "knowledge_base/chapters/ch08_relationships.md", "md_atom_type": "TABLE_ROW", "md_parent_section": "§8.6.3 [Guidelines for Differentiating Between Interventions, Events, Findings, and Findings About Events or Interventions]", "md_verbatim": "| Does this data meet the criteria for representation in a Questionnaires, Ratings, and Scales (QRS) domain? | The criteria for QRS are available at: https://www.cdisc.org/foundational/qrs. There are many standard questionnaires and rating scales that collect information about symptoms. The fact that these data are findings about symptoms does not mean that the data should be represented in FA rather than a QRS domain (QS, FT, or RS). Data about symptoms may be collected in a format that is usually associated with questionnaires and rating scales (e.g., visual analog scale). This format alone does not mean that the data should be represented in a QRS domain. |", "score": 0.4034, "match_basis": "verbatim_token+global_search"}], "candidate_count": 5, "zero_candidate": false}
{"pdf_atom_id": "ig34_p0383_a006", "pdf_atom_type": "HEADING", "pdf_source": "SDTMIG_v3.4", "pdf_page": 383, "pdf_parent_section": "§7.1 Introduction to Trial Design Model Datasets", "pdf_verbatim": "7.1.3 Current and Future Contents of the Trial Design Model", "figure_ref": null, "candidates": [{"md_atom_id": "md_model05_a005", "md_file": "knowledge_base/model/05_study_level_data.md", "md_atom_type": "HEADING", "md_parent_section": "§ 5.1 Trial Design Model", "md_verbatim": "## 5.1 Trial Design Model", "score": 0.5308, "match_basis": "verbatim_token+global_search"}, {"md_atom_id": "md_varindex_a1514", "md_file": "knowledge_base/VARIABLE_INDEX.md", "md_atom_type": "HEADING", "md_parent_section": "§ 二、领域专属变量（仅 1 个域，共 1499 个），按域分组", "md_verbatim": "### TE — Trial Elements (Trial Design)", "score": 0.48, "match_basis": "verbatim_token+global_search"}, {"md_atom_id": "md_varindex_a1501", "md_file": "knowledge_base/VARIABLE_INDEX.md", "md_atom_type": "HEADING", "md_parent_section": "§ 二、领域专属变量（仅 1 个域，共 1499 个），按域分组", "md_verbatim": "### TA — Trial Arms (Trial Design)", "score": 0.45, "match_basis": "verbatim_token+global_search"}, {"md_atom_id": "md_varindex_a1505", "md_file": "knowledge_base/VARIABLE_INDEX.md", "md_atom_type": "HEADING", "md_parent_section": "§ 二、领域专属变量（仅 1 个域，共 1499 个），按域分组", "md_verbatim": "### TD — Trial Disease Assessments (Trial Design)", "score": 0.4421, "match_basis": "verbatim_token+global_search"}, {"md_atom_id": "md_varindex_a1589", "md_file": "knowledge_base/VARIABLE_INDEX.md", "md_atom_type": "HEADING", "md_parent_section": "§ 二、领域专属变量（仅 1 个域，共 1499 个），按域分组", "md_verbatim": "### TV — Trial Visits (Trial Design)", "score": 0.44, "match_basis": "verbatim_token+global_search"}], "candidate_count": 5, "zero_candidate": false}
{"pdf_atom_id": "ig34_p0383_a007", "pdf_atom_type": "SENTENCE", "pdf_source": "SDTMIG_v3.4", "pdf_page": 383, "pdf_parent_section": "§7.1.3 Current and Future Contents of the Trial Design Model", "pdf_verbatim": "Datasets currently in the Trial Design Model include:", "figure_ref": null, "candidates": [{"md_atom_id": "md_dmTA_ex_a002", "md_file": "knowledge_base/domains/TA/examples.md", "md_atom_type": "SENTENCE", "md_parent_section": "§TA [TA — Examples]", "md_verbatim": "The core of the Trial Design Model is the TA dataset.", "score": 0.6097, "match_basis": "verbatim_token+global_search"}, {"md_atom_id": "md_model05_a004", "md_file": "knowledge_base/model/05_study_level_data.md", "md_atom_type": "SENTENCE", "md_parent_section": "§ Overview", "md_verbatim": "The SDTM includes 2 types of study-level data: trial design data and study reference data.", "score": 0.5043, "match_basis": "verbatim_token+global_search"}, {"md_atom_id": "md_ch02_a039", "md_file": "knowledge_base/chapters/ch02_fundamentals.md", "md_atom_type": "SENTENCE", "md_parent_section": "§2.2 [Datasets and Domains]", "md_verbatim": "Data represented in SDTM datasets include:", "score": 0.4846, "match_basis": "verbatim_token+global_search"}, {"md_atom_id": "md_ch01_a058", "md_file": "knowledge_base/chapters/ch01_introduction.md", "md_atom_type": "LIST_ITEM", "md_parent_section": "§1.4 [How to Read this Implementation Guide]", "md_verbatim": "5. Read Section 7, Trial Design Model Datasets", "score": 0.4767, "match_basis": "verbatim_token+global_search"}, {"md_atom_id": "md_model06_a005", "md_file": "knowledge_base/model/06_relationship_datasets.md", "md_atom_type": "SENTENCE", "md_parent_section": "§ Overview", "md_verbatim": "The SDTM includes the following relationship datasets:", "score": 0.4625, "match_basis": "verbatim_token+global_search"}], "candidate_count": 5, "zero_candidate": false}
{"pdf_atom_id": "ig34_p0383_a008", "pdf_atom_type": "LIST_ITEM", "pdf_source": "SDTMIG_v3.4", "pdf_page": 383, "pdf_parent_section": "§7.1.3 Current and Future Contents of the Trial Design Model", "pdf_verbatim": "Trial Arms: Describes the sequences of elements in each epoch for each arm, and thus describes the complete sequence of elements in each arm", "figure_ref": null, "candidates": [{"md_atom_id": "md_dmTA_assn_a008", "md_file": "knowledge_base/domains/TA/assumptions.md", "md_atom_type": "LIST_ITEM", "md_parent_section": "§TA [TA — Assumptions]", "md_verbatim": "6. Some trials include multiple paths that are closely enough related so that they are all considered to belong to 1 arm. In general, this set of paths will include a \"complete\" path along with shorter paths that skip some elements. The sequence of elements represented in the trial arms should be the complete, longest path. TATRANS describes the decision points that may lead to a shortened path within the arm.", "score": 0.4319, "match_basis": "verbatim_token+global_search"}, {"md_atom_id": "md_model05_a008", "md_file": "knowledge_base/model/05_study_level_data.md", "md_atom_type": "LIST_ITEM", "md_parent_section": "§ 5.1 Trial Design Model", "md_verbatim": "- Planned treatment arms (Section 5.1.1, Trial Arms and Trial Elements)", "score": 0.4286, "match_basis": "verbatim_token+global_search"}, {"md_atom_id": "md_ch04_a1026", "md_file": "knowledge_base/chapters/ch04_general_assumptions.md", "md_atom_type": "LIST_ITEM", "md_parent_section": "§4.5.8 [Accounting for Long-term Follow-up]", "md_verbatim": "5. The long-term follow-up phase would be represented in Trial Arms (TA), Trial Elements (TE), and Trial Visits (TV).", "score": 0.4164, "match_basis": "verbatim_token+global_search"}, {"md_atom_id": "md_dmTA_assn_a010", "md_file": "knowledge_base/domains/TA/assumptions.md", "md_atom_type": "LIST_ITEM", "md_parent_section": "§TA [TA — Assumptions]", "md_verbatim": "8. EPOCH is not strictly necessary for describing the sequence of elements in an arm path, but it is the conceptual basis for comparisons between arms and also provides a useful way to talk about what is happening in a blinded trial while it is blinded. During periods of blinded treatment, blinded participants will not know which arm and element a subject is in, but EPOCH should provide a description of the time period that does not depend on knowing arm.", "score": 0.4127, "match_basis": "verbatim_token+global_search"}, {"md_atom_id": "md_dmTA_ex_a007", "md_file": "knowledge_base/domains/TA/examples.md", "md_atom_type": "LIST_ITEM", "md_parent_section": "§TA [TA — Examples]", "md_verbatim": "- A diagram that shows the \"prospective\" view of the trial (i.e., the view of those participating in the trial), with epochs and elements", "score": 0.4063, "match_basis": "verbatim_token+global_search"}], "candidate_count": 5, "zero_candidate": false}
{"pdf_atom_id": "ig34_p0383_a009", "pdf_atom_type": "LIST_ITEM", "pdf_source": "SDTMIG_v3.4", "pdf_page": 383, "pdf_parent_section": "§7.1.3 Current and Future Contents of the Trial Design Model", "pdf_verbatim": "Trial Elements: Describes the elements used in the trial", "figure_ref": null, "candidates": [{"md_atom_id": "md_model03_a088", "md_file": "knowledge_base/model/03_special_purpose_domains.md", "md_atom_type": "SENTENCE", "md_parent_section": "§ Subject Elements (SE)", "md_verbatim": "Planned elements are described in the Trial Design Model.", "score": 0.51, "match_basis": "verbatim_token+global_search"}, {"md_atom_id": "md_ch02_a096", "md_file": "knowledge_base/chapters/ch02_fundamentals.md", "md_atom_type": "LIST_ITEM", "md_parent_section": "§2.6 [Creating a New Domain]", "md_verbatim": "   - j. Describe the dataset in the Define-XML document", "score": 0.4636, "match_basis": "verbatim_token+global_search"}, {"md_atom_id": "md_dmOE_ex_a085", "md_file": "knowledge_base/domains/OE/examples.md", "md_atom_type": "LIST_ITEM", "md_parent_section": "§OE.4 [Example 4]", "md_verbatim": "- The use of the NSV OERESCRT, to describe the numeric scale", "score": 0.45, "match_basis": "verbatim_token+global_search"}, {"md_atom_id": "md_model05_a008", "md_file": "knowledge_base/model/05_study_level_data.md", "md_atom_type": "LIST_ITEM", "md_parent_section": "§ 5.1 Trial Design Model", "md_verbatim": "- Planned treatment arms (Section 5.1.1, Trial Arms and Trial Elements)", "score": 0.4459, "match_basis": "verbatim_token+global_search"}, {"md_atom_id": "md_dmTE_assn_a014", "md_file": "knowledge_base/domains/TE/assumptions.md", "md_atom_type": "LIST_ITEM", "md_parent_section": "§TE [TE — Assumptions]", "md_verbatim": "6. Note that the date/time of the event described in TESTRL will be used to populate the date/times in the Subject Elements (SE) dataset, so the date/time of the event should be captured in the CRF.", "score": 0.4452, "match_basis": "verbatim_token+global_search"}], "candidate_count": 5, "zero_candidate": false}
{"pdf_atom_id": "ig34_p0383_a010", "pdf_atom_type": "LIST_ITEM", "pdf_source": "SDTMIG_v3.4", "pdf_page": 383, "pdf_parent_section": "§7.1.3 Current and Future Contents of the Trial Design Model", "pdf_verbatim": "Trial Visits: Describes the planned schedule of visits", "figure_ref": null, "candidates": [{"md_atom_id": "md_model03_a126", "md_file": "knowledge_base/model/03_special_purpose_domains.md", "md_atom_type": "SENTENCE", "md_parent_section": "§ Subject Visits (SV)", "md_verbatim": "Planned trial visits are described in the Trial Design Model.", "score": 0.5453, "match_basis": "verbatim_token+global_search"}, {"md_atom_id": "md_model05_a030", "md_file": "knowledge_base/model/05_study_level_data.md", "md_atom_type": "SENTENCE", "md_parent_section": "§ Trial Arms (TA)", "md_verbatim": "Describes each planned arm in a trial.", "score": 0.5203, "match_basis": "verbatim_token+global_search"}, {"md_atom_id": "md_model05_a011", "md_file": "knowledge_base/model/05_study_level_data.md", "md_atom_type": "LIST_ITEM", "md_parent_section": "§ 5.1 Trial Design Model", "md_verbatim": "- Planned schedules for activities and data collection (Section 5.1.4, Trial Planned Data Collection)", "score": 0.4787, "match_basis": "verbatim_token+global_search"}, {"md_atom_id": "md_dmSV_ex_a004", "md_file": "knowledge_base/domains/SV/examples.md", "md_atom_type": "SENTENCE", "md_parent_section": "§SV.1 [Example 1]", "md_verbatim": "This is the planned schedule of visits for the study in this example.", "score": 0.4695, "match_basis": "verbatim_token+global_search"}, {"md_atom_id": "md_model03_a088", "md_file": "knowledge_base/model/03_special_purpose_domains.md", "md_atom_type": "SENTENCE", "md_parent_section": "§ Subject Elements (SE)", "md_verbatim": "Planned elements are described in the Trial Design Model.", "score": 0.435, "match_basis": "verbatim_token+global_search"}], "candidate_count": 5, "zero_candidate": false}
{"pdf_atom_id": "ig34_p0383_a011", "pdf_atom_type": "LIST_ITEM", "pdf_source": "SDTMIG_v3.4", "pdf_page": 383, "pdf_parent_section": "§7.1.3 Current and Future Contents of the Trial Design Model", "pdf_verbatim": "Trial Disease Assessment: Provides information on the protocol-specified disease assessment schedule, and is used for comparison with the actual occurrence of the efficacy assessments in order to determine whether there was good compliance with the schedule", "figure_ref": null, "candidates": [{"md_atom_id": "md_dmRS_assn_a024", "md_file": "knowledge_base/domains/RS/assumptions.md", "md_atom_type": "LIST_ITEM", "md_parent_section": "§RS [RS — Assumptions]", "md_verbatim": "9. Disease recurrence can be represented in the RS domain using RSTEST = \"Disease Recurrence Indicator\" to indicate that there was an assessment of whether there was disease recurrence. The RSCAT = \"PROTOCOL DEFINED RESPONSE CRITERIA\" can be used to indicate that the response assessment of disease recurrence was based on protocol-specified criteria rather than published response criteria.", "score": 0.4714, "match_basis": "verbatim_token+global_search"}, {"md_atom_id": "md_dmTD_assn_a003", "md_file": "knowledge_base/domains/TD/assumptions.md", "md_atom_type": "LIST_ITEM", "md_parent_section": "§TD [TD — Assumptions]", "md_verbatim": "1. The purpose of the Trial Disease Assessments (TD) domain is to provide information on planned scheduling of disease assessments when the scheduling of disease assessments is not necessarily tied to the scheduling of visits. In oncology studies, good compliance with the disease-assessment schedule is essential to reduce the risk of \"assessment time bias.\" The TD domain makes possible an evaluation of assessment time bias from the SDTM, in particular for studies with progression-free survival (PFS) endpoints.", "score": 0.468, "match_basis": "verbatim_token+global_search"}, {"md_atom_id": "md_model05_a098", "md_file": "knowledge_base/model/05_study_level_data.md", "md_atom_type": "SENTENCE", "md_parent_section": "§ Trial Disease Assessments (TD)", "md_verbatim": "Provides information on the planned protocol-specified disease assessment schedule when those disease assessments cannot be expressed using Trial Visits.", "score": 0.4584, "match_basis": "verbatim_token+global_search"}, {"md_atom_id": "md_dmTD_ex_a030", "md_file": "knowledge_base/domains/TD/examples.md", "md_atom_type": "LIST_ITEM", "md_parent_section": "§TD.3 [Example 3]", "md_verbatim": "- The first disease-assessment schedule pattern starts at the reference start date (identified in the ADSL ANCH1DT variable) and repeats every 8 weeks for a total of 6 repeats (i.e., week 8, week 16, week 24, week 32, week 40, week 48), with respective upper and lower limits of -3 days and +1 week.", "score": 0.4373, "match_basis": "verbatim_token+global_search"}, {"md_atom_id": "md_dmTU_assn_a058", "md_file": "knowledge_base/domains/TU/assumptions.md", "md_atom_type": "LIST_ITEM", "md_parent_section": "§TU [TU — Assumptions]", "md_verbatim": "10. Disease recurrence can be represented in the TU domain as an identification for the appearance of new tumors. The TUTEST Disease Recurrence Relative Location is used identify the region or relative location for the disease recurrence. The image identifier is in TUREFID and may match a PRREFID in the Procedures (PR) domain. The PR domain would contain the scans performed per protocol at each assessment; only when new tumors appear would records be included in TU.", "score": 0.4354, "match_basis": "verbatim_token+global_search"}], "candidate_count": 5, "zero_candidate": false}
{"pdf_atom_id": "ig34_p0383_a012", "pdf_atom_type": "LIST_ITEM", "pdf_source": "SDTMIG_v3.4", "pdf_page": 383, "pdf_parent_section": "§7.1.3 Current and Future Contents of the Trial Design Model", "pdf_verbatim": "Trial Disease Milestones: Describes observations or activities identified for the trial which are anticipated to occur in the course of the disease under study and which trigger the collection of data", "figure_ref": null, "candidates": [{"md_atom_id": "md_dmTM_assn_a002", "md_file": "knowledge_base/domains/TM/assumptions.md", "md_atom_type": "SENTENCE", "md_parent_section": "§TM [TM — Assumptions]", "md_verbatim": "A trial design domain that is used to describe disease milestones, which are observations or activities anticipated to occur in the course of the disease under study, and which trigger the collection of data.", "score": 0.6888, "match_basis": "verbatim_token+global_search"}, {"md_atom_id": "md_dmSM_assn_a002", "md_file": "knowledge_base/domains/SM/assumptions.md", "md_atom_type": "LIST_ITEM", "md_parent_section": "§SM [SM — Assumptions]", "md_verbatim": "1. Disease milestones are observations or activities whose timings are of interest in the study. The types of disease milestones are defined at the study level in the TM dataset. The purpose of the SM dataset is to provide a summary timeline of the milestones for a particular subject.", "score": 0.4775, "match_basis": "verbatim_token+global_search"}, {"md_atom_id": "md_ch04_a797", "md_file": "knowledge_base/chapters/ch04_general_assumptions.md", "md_atom_type": "LIST_ITEM", "md_parent_section": "§4.4.11 [Disease Milestones and Disease Milestone Timing Variables]", "md_verbatim": "- When the subject of the question is a question about the occurrence of some activity or event related to the disease milestone, RELMIDS acts like an evaluation interval, describing the period of time on which the question is focused:", "score": 0.4606, "match_basis": "verbatim_token+global_search"}, {"md_atom_id": "md_dmSM_assn_a009", "md_file": "knowledge_base/domains/SM/assumptions.md", "md_atom_type": "LIST_ITEM", "md_parent_section": "§SM [SM — Assumptions]", "md_verbatim": "   c. The end date/time for the disease milestone is less important than the start date/time. It will not be populated if the disease milestone is a finding without an end date/time or if it is an event or intervention for which an end date/time has not yet occurred or was not collected.", "score": 0.4522, "match_basis": "verbatim_token+global_search"}, {"md_atom_id": "md_dmTM_assn_a003", "md_file": "knowledge_base/domains/TM/assumptions.md", "md_atom_type": "LIST_ITEM", "md_parent_section": "§TM [TM — Assumptions]", "md_verbatim": "1. Disease milestones may be things that would be expected to happen before the study, or things that are anticipated to happen during the study. The occurrence of disease milestones for particular subjects are represented in the Subject Disease Milestones (SM) dataset.", "score": 0.4522, "match_basis": "verbatim_token+global_search"}], "candidate_count": 5, "zero_candidate": false}
{"pdf_atom_id": "ig34_p0384_a001", "pdf_atom_type": "LIST_ITEM", "pdf_source": "SDTMIG_v3.4", "pdf_page": 384, "pdf_parent_section": "§7.1.3 Current and Future Contents of the Trial Design Model", "pdf_verbatim": "Trial Inclusion/Exclusion Criteria: Describes the criteria used to screen subjects", "figure_ref": null, "candidates": [{"md_atom_id": "md_model05_a120", "md_file": "knowledge_base/model/05_study_level_data.md", "md_atom_type": "SENTENCE", "md_parent_section": "§ Trial Inclusion/Exclusion Criteria (TI)", "md_verbatim": "Describes the inclusion and exclusion criteria for the trial.", "score": 0.5992, "match_basis": "verbatim_token+global_search"}, {"md_atom_id": "md_model05_a012", "md_file": "knowledge_base/model/05_study_level_data.md", "md_atom_type": "LIST_ITEM", "md_parent_section": "§ 5.1 Trial Design Model", "md_verbatim": "- Study eligibility criteria (Section 5.1.5, Trial Inclusion/Exclusion Criteria)", "score": 0.516, "match_basis": "verbatim_token+global_search"}, {"md_atom_id": "md_dmIE_assn_a002", "md_file": "knowledge_base/domains/IE/assumptions.md", "md_atom_type": "LIST_ITEM", "md_parent_section": "§IE [IE — Assumptions]", "md_verbatim": "1. The intent of the IE domain model is to collect responses to only those criteria that the subject did not meet, and not the responses to all criteria. For the complete list of inclusion/exclusion criteria, see Section 7.4.1, Trial Inclusion/Exclusion Criteria.", "score": 0.4663, "match_basis": "verbatim_token+global_search"}, {"md_atom_id": "md_dmTI_assn_a004", "md_file": "knowledge_base/domains/TI/assumptions.md", "md_atom_type": "LIST_ITEM", "md_parent_section": "§TI [TI — Assumptions]", "md_verbatim": "1. If inclusion/exclusion criteria were amended during the trial, then each complete set of criteria must be included in the TI domain. TIVERS is used to distinguish between the versions.", "score": 0.4537, "match_basis": "verbatim_token+global_search"}, {"md_atom_id": "md_dmIE_assn_a004", "md_file": "knowledge_base/domains/IE/assumptions.md", "md_atom_type": "LIST_ITEM", "md_parent_section": "§IE [IE — Assumptions]", "md_verbatim": "3. IETEST is to be used only for the verbatim description of the inclusion or exclusion criteria. If the text is no more than 200 characters, it goes in IETEST; if the text is more than 200 characters, put meaningful text in IETEST and describe the full text in the study metadata. See Section 4.5.3.1, Test Name (--TEST) Greater than 40 Characters, for further information.", "score": 0.4358, "match_basis": "verbatim_token+global_search"}], "candidate_count": 5, "zero_candidate": false}
{"pdf_atom_id": "ig34_p0384_a002", "pdf_atom_type": "LIST_ITEM", "pdf_source": "SDTMIG_v3.4", "pdf_page": 384, "pdf_parent_section": "§7.1.3 Current and Future Contents of the Trial Design Model", "pdf_verbatim": "Trial Summary: Lists key facts (parameters) about the trial that are likely to appear in a registry of clinical trials", "figure_ref": null, "candidates": [{"md_atom_id": "md_model05_a013", "md_file": "knowledge_base/model/05_study_level_data.md", "md_atom_type": "LIST_ITEM", "md_parent_section": "§ 5.1 Trial Design Model", "md_verbatim": "- Other aspects of a study, expressed as parameters (Section 5.1.6, Trial Summary Information)", "score": 0.4403, "match_basis": "verbatim_token+global_search"}, {"md_atom_id": "md_dmTS_assn_a031", "md_file": "knowledge_base/domains/TS/assumptions.md", "md_atom_type": "LIST_ITEM", "md_parent_section": "§TS [TS — Assumptions]", "md_verbatim": "18. Values for TSVAL when TSPARMCD = \"REGID\" (Registry Identifier) will be identifiers assigned by the registry (e.g., ClinicalTrials.gov, EudraCT).", "score": 0.4364, "match_basis": "verbatim_token+global_search"}, {"md_atom_id": "md_model04_a015", "md_file": "knowledge_base/model/04_associated_persons.md", "md_atom_type": "LIST_ITEM", "md_parent_section": "§4 [SDTM v2.0 — Chapter 4: Associated Persons Data]", "md_verbatim": "- AP domains are not part of the core SDTMIG for human clinical trials", "score": 0.4164, "match_basis": "verbatim_token+global_search"}, {"md_atom_id": "md_ch01_a045", "md_file": "knowledge_base/chapters/ch01_introduction.md", "md_atom_type": "LIST_ITEM", "md_parent_section": "§1.3 [Relationship to Prior CDISC Documents]", "md_verbatim": "- Removed Appendix C1, Trial Summary Codes", "score": 0.3968, "match_basis": "verbatim_token+global_search"}, {"md_atom_id": "md_dmTS_assn_a007", "md_file": "knowledge_base/domains/TS/assumptions.md", "md_atom_type": "LIST_ITEM", "md_parent_section": "§TS [TS — Assumptions]", "md_verbatim": "2. Recipients may specify their requirements for which trial summary parameters should be included under which conditions. For example, the US FDA includes such information in their Study Data Technical Conformance Guide.", "score": 0.393, "match_basis": "verbatim_token+global_search"}], "candidate_count": 5, "zero_candidate": false}
{"pdf_atom_id": "ig34_p0384_a003", "pdf_atom_type": "SENTENCE", "pdf_source": "SDTMIG_v3.4", "pdf_page": 384, "pdf_parent_section": "§7.1.3 Current and Future Contents of the Trial Design Model", "pdf_verbatim": "The Trial Inclusion/Exclusion Criteria (TI) dataset is discussed in Section 7.4.1, Trial Inclusion/Exclusion Criteria.", "figure_ref": null, "candidates": [{"md_atom_id": "md_model05_a120", "md_file": "knowledge_base/model/05_study_level_data.md", "md_atom_type": "SENTENCE", "md_parent_section": "§ Trial Inclusion/Exclusion Criteria (TI)", "md_verbatim": "Describes the inclusion and exclusion criteria for the trial.", "score": 0.5571, "match_basis": "verbatim_token+global_search"}, {"md_atom_id": "md_dmTI_ex_a004", "md_file": "knowledge_base/domains/TI/examples.md", "md_atom_type": "SENTENCE", "md_parent_section": "§TI.1 [Example 1]", "md_verbatim": "**Rows 1-3:** Show the 2 inclusion criteria and 1 exclusion criterion for version 1 of the protocol.", "score": 0.492, "match_basis": "verbatim_token+global_search"}, {"md_atom_id": "md_model05_a012", "md_file": "knowledge_base/model/05_study_level_data.md", "md_atom_type": "LIST_ITEM", "md_parent_section": "§ 5.1 Trial Design Model", "md_verbatim": "- Study eligibility criteria (Section 5.1.5, Trial Inclusion/Exclusion Criteria)", "score": 0.4839, "match_basis": "verbatim_token+global_search"}, {"md_atom_id": "md_dmTI_ex_a003", "md_file": "knowledge_base/domains/TI/examples.md", "md_atom_type": "SENTENCE", "md_parent_section": "§TI.1 [Example 1]", "md_verbatim": "This example shows records for a trial with 2 versions of inclusion/exclusion criteria.", "score": 0.4821, "match_basis": "verbatim_token+global_search"}, {"md_atom_id": "md_dmIE_ex_a005", "md_file": "knowledge_base/domains/IE/examples.md", "md_atom_type": "SENTENCE", "md_parent_section": "§IE.1 [Example 1]", "md_verbatim": "**Rows 3-4:** Show data for 2 other subjects, both of whom failed the same inclusion criterion.", "score": 0.4714, "match_basis": "verbatim_token+global_search"}], "candidate_count": 5, "zero_candidate": false}
{"pdf_atom_id": "ig34_p0384_a004", "pdf_atom_type": "SENTENCE", "pdf_source": "SDTMIG_v3.4", "pdf_page": 384, "pdf_parent_section": "§7.1.3 Current and Future Contents of the Trial Design Model", "pdf_verbatim": "The Inclusion/Exclusion Criteria Not Met (IE) domain described in Section 6.3.4, Inclusion/Exclusion Criteria Not Met, contains the actual exceptions to those criteria for enrolled subjects.", "figure_ref": null, "candidates": [{"md_atom_id": "md_dmTI_assn_a003", "md_file": "knowledge_base/domains/TI/assumptions.md", "md_atom_type": "SENTENCE", "md_parent_section": "§TI [TI — Assumptions]", "md_verbatim": "TI contains all the inclusion and exclusion criteria for the trial, and thus provides information that may not be present in the subject-level data on inclusion and exclusion criteria. The IE domain (described in Section 6.3.4, Inclusion/Exclusion Criteria Not Met) contains records only for inclusion and exclusion criteria that subjects did not meet.", "score": 0.5554, "match_basis": "verbatim_token+global_search"}, {"md_atom_id": "md_model05_a120", "md_file": "knowledge_base/model/05_study_level_data.md", "md_atom_type": "SENTENCE", "md_parent_section": "§ Trial Inclusion/Exclusion Criteria (TI)", "md_verbatim": "Describes the inclusion and exclusion criteria for the trial.", "score": 0.5031, "match_basis": "verbatim_token+global_search"}, {"md_atom_id": "md_dmIE_ex_a004", "md_file": "knowledge_base/domains/IE/examples.md", "md_atom_type": "SENTENCE", "md_parent_section": "§IE.1 [Example 1]", "md_verbatim": "**Rows 1-2:** Show data for a subject with 2 inclusion/exclusion exceptions.", "score": 0.4826, "match_basis": "verbatim_token+global_search"}, {"md_atom_id": "md_dmIE_ex_a005", "md_file": "knowledge_base/domains/IE/examples.md", "md_atom_type": "SENTENCE", "md_parent_section": "§IE.1 [Example 1]", "md_verbatim": "**Rows 3-4:** Show data for 2 other subjects, both of whom failed the same inclusion criterion.", "score": 0.4615, "match_basis": "verbatim_token+global_search"}, {"md_atom_id": "md_dmIE_ex_a003", "md_file": "knowledge_base/domains/IE/examples.md", "md_atom_type": "SENTENCE", "md_parent_section": "§IE.1 [Example 1]", "md_verbatim": "This example shows records for 3 subjects who failed to meet all inclusion/exclusion criteria but who were included in the study.", "score": 0.4565, "match_basis": "verbatim_token+global_search"}], "candidate_count": 5, "zero_candidate": false}
{"pdf_atom_id": "ig34_p0384_a005", "pdf_atom_type": "SENTENCE", "pdf_source": "SDTMIG_v3.4", "pdf_page": 384, "pdf_parent_section": "§7.1.3 Current and Future Contents of the Trial Design Model", "pdf_verbatim": "The current Trial Design Model has limitations in representing protocols, which include:", "figure_ref": null, "candidates": [{"md_atom_id": "md_model01_a010", "md_file": "knowledge_base/model/01_concepts_and_terms.md", "md_atom_type": "SENTENCE", "md_parent_section": "§2.1 [Model Concepts and Terms — Variables]", "md_verbatim": "The SDTM includes a general model for representing data in 3 \"general observation\" classes.", "score": 0.4944, "match_basis": "verbatim_token+global_search"}, {"md_atom_id": "md_model05_a007", "md_file": "knowledge_base/model/05_study_level_data.md", "md_atom_type": "SENTENCE", "md_parent_section": "§ 5.1 Trial Design Model", "md_verbatim": "These include ways to represent:", "score": 0.4472, "match_basis": "verbatim_token+global_search"}, {"md_atom_id": "md_ch04_a574", "md_file": "knowledge_base/chapters/ch04_general_assumptions.md", "md_atom_type": "SENTENCE", "md_parent_section": "§4.4.3.1 [Intervals of Time and Use of Duration]", "md_verbatim": "If no time component is represented, the [T] time designator must be omitted in ISO 8601 representation.", "score": 0.4397, "match_basis": "verbatim_token+global_search"}, {"md_atom_id": "md_dmPC_ex_a059", "md_file": "knowledge_base/domains/PC/examples.md", "md_atom_type": "SENTENCE", "md_parent_section": "§PC.2.2 [PC-PP Relating Records]", "md_verbatim": "The different methods for representing relationships are based on which linking variables are used in RELREC:", "score": 0.4395, "match_basis": "verbatim_token+global_search"}, {"md_atom_id": "md_model05_a006", "md_file": "knowledge_base/model/05_study_level_data.md", "md_atom_type": "SENTENCE", "md_parent_section": "§ 5.1 Trial Design Model", "md_verbatim": "The Trial Design Model (TDM) defines a standard structure for representing the planned sequence of activities and the treatment plan for the trial.", "score": 0.4326, "match_basis": "verbatim_token+global_search"}], "candidate_count": 5, "zero_candidate": false}
{"pdf_atom_id": "ig34_p0384_a006", "pdf_atom_type": "LIST_ITEM", "pdf_source": "SDTMIG_v3.4", "pdf_page": 384, "pdf_parent_section": "§7.1.3 Current and Future Contents of the Trial Design Model", "pdf_verbatim": "Plans for indefinite numbers of repeating elements (e.g., indefinite numbers of chemotherapy cycles)", "figure_ref": null, "candidates": [{"md_atom_id": "md_dmSE_assn_a011", "md_file": "knowledge_base/domains/SE/assumptions.md", "md_atom_type": "LIST_ITEM", "md_parent_section": "§SE [SE — Assumptions]", "md_verbatim": "8. Because there are, by definition, no gaps between elements, the value of SEENDTC for one element will always be the same as the value of SESTDTC for the next element.", "score": 0.4012, "match_basis": "verbatim_token+global_search"}, {"md_atom_id": "md_ch04_a568", "md_file": "knowledge_base/chapters/ch04_general_assumptions.md", "md_atom_type": "LIST_ITEM", "md_parent_section": "§4.4.3.1 [Intervals of Time and Use of Duration]", "md_verbatim": "- [W] is used as week designator, preceding a data element that represents the number of calendar weeks (e.g., P6W represents 6 weeks of calendar time).", "score": 0.3975, "match_basis": "verbatim_token+global_search"}, {"md_atom_id": "md_dmTA_ex_a115", "md_file": "knowledge_base/domains/TA/examples.md", "md_atom_type": "SENTENCE", "md_parent_section": "§TA.4 [Example 4]", "md_verbatim": "A cyclical chemotherapy oncology trial with repeating treatment/rest elements until disease progression.", "score": 0.3952, "match_basis": "verbatim_token+global_search"}, {"md_atom_id": "md_model05_a008", "md_file": "knowledge_base/model/05_study_level_data.md", "md_atom_type": "LIST_ITEM", "md_parent_section": "§ 5.1 Trial Design Model", "md_verbatim": "- Planned treatment arms (Section 5.1.1, Trial Arms and Trial Elements)", "score": 0.3871, "match_basis": "verbatim_token+global_search"}, {"md_atom_id": "md_dmTD_ex_a031", "md_file": "knowledge_base/domains/TD/examples.md", "md_atom_type": "LIST_ITEM", "md_parent_section": "§TD.3 [Example 3]", "md_verbatim": "- The second disease assessment schedule starts from week 48 and repeats every 12 weeks (week 60, week 72, etc.), with respective upper and lower limits of -1 week and +1 week, for an indefinite length of time. The preceding schematic shows that, for the second pattern, assessments will occur until disease progression; this therefore leaves the pattern open-ended.", "score": 0.3863, "match_basis": "verbatim_token+global_search"}], "candidate_count": 5, "zero_candidate": false}
{"pdf_atom_id": "ig34_p0384_a007", "pdf_atom_type": "LIST_ITEM", "pdf_source": "SDTMIG_v3.4", "pdf_page": 384, "pdf_parent_section": "§7.1.3 Current and Future Contents of the Trial Design Model", "pdf_verbatim": "Indefinite numbers of visits (e.g., periodic follow-up visits for survival)", "figure_ref": null, "candidates": [{"md_atom_id": "md_ch04_a618", "md_file": "knowledge_base/chapters/ch04_general_assumptions.md", "md_atom_type": "LIST_ITEM", "md_parent_section": "§4.4.5 [Clinical Encounters and Visits]", "md_verbatim": "- VISITDY must **not** be populated for unplanned visits; VISITDY is, by definition, the planned study day of visit. The actual study day of an unplanned visit belongs in a --DY variable.", "score": 0.3789, "match_basis": "verbatim_token+global_search"}, {"md_atom_id": "md_ch04_a1026", "md_file": "knowledge_base/chapters/ch04_general_assumptions.md", "md_atom_type": "LIST_ITEM", "md_parent_section": "§4.5.8 [Accounting for Long-term Follow-up]", "md_verbatim": "5. The long-term follow-up phase would be represented in Trial Arms (TA), Trial Elements (TE), and Trial Visits (TV).", "score": 0.3738, "match_basis": "verbatim_token+global_search"}, {"md_atom_id": "md_dmSV_assn_a007", "md_file": "knowledge_base/domains/SV/assumptions.md", "md_atom_type": "LIST_ITEM", "md_parent_section": "§SV [SV — Assumptions]", "md_verbatim": "   b. For planned visits, SVOCCUR indicates whether the visit occurred.", "score": 0.3737, "match_basis": "verbatim_token+global_search"}, {"md_atom_id": "md_ch04_a489", "md_file": "knowledge_base/chapters/ch04_general_assumptions.md", "md_atom_type": "LIST_ITEM", "md_parent_section": "§4.4.1 [Formats for Date/Time Variables]", "md_verbatim": "- [T] = (time designator) indicates time information follows", "score": 0.3724, "match_basis": "verbatim_token+global_search"}, {"md_atom_id": "md_dmOI_assn_a005", "md_file": "knowledge_base/domains/OI/assumptions.md", "md_atom_type": "LIST_ITEM", "md_parent_section": "§OI [OI — Assumptions]", "md_verbatim": "2. NHOID is sponsor-defined, with the following constraints:", "score": 0.3724, "match_basis": "verbatim_token+global_search"}], "candidate_count": 5, "zero_candidate": false}
{"pdf_atom_id": "ig34_p0384_a008", "pdf_atom_type": "LIST_ITEM", "pdf_source": "SDTMIG_v3.4", "pdf_page": 384, "pdf_parent_section": "§7.1.3 Current and Future Contents of the Trial Design Model", "pdf_verbatim": "Indefinite numbers of epochs", "figure_ref": null, "candidates": [{"md_atom_id": "md_ch04_a561", "md_file": "knowledge_base/chapters/ch04_general_assumptions.md", "md_atom_type": "LIST_ITEM", "md_parent_section": "§4.4.3.1 [Intervals of Time and Use of Duration]", "md_verbatim": "- [n] represents a positive number or zero.", "score": 0.3727, "match_basis": "verbatim_token+global_search"}, {"md_atom_id": "md_dmSU_ex_a006", "md_file": "knowledge_base/domains/SU/examples.md", "md_atom_type": "LIST_ITEM", "md_parent_section": "§SU.1 [Example 1]", "md_verbatim": "   - If a current or past smoker, number of packs per day", "score": 0.3727, "match_basis": "verbatim_token+global_search"}, {"md_atom_id": "md_dmTA_assn_a012", "md_file": "knowledge_base/domains/TA/assumptions.md", "md_atom_type": "LIST_ITEM", "md_parent_section": "§TA [TA — Assumptions]", "md_verbatim": "10. EPOCH values for multiple similar epochs:", "score": 0.3727, "match_basis": "verbatim_token+global_search"}, {"md_atom_id": "md_ch08_a217", "md_file": "knowledge_base/chapters/ch08_relationships.md", "md_atom_type": "LIST_ITEM", "md_parent_section": "§8.5 [Relating Comments to a Parent Domain]", "md_verbatim": "1. Values (e.g., CRF page number or name) may be placed in COREF.", "score": 0.3706, "match_basis": "verbatim_token+global_search"}, {"md_atom_id": "md_ch02_a130", "md_file": "knowledge_base/chapters/ch02_fundamentals.md", "md_atom_type": "LIST_ITEM", "md_parent_section": "§2.7 [SDTM Variables Not Allowed in the SDTMIG]", "md_verbatim": "- POOLID — additionally requires the Pool Definition dataset", "score": 0.3698, "match_basis": "verbatim_token+global_search"}], "candidate_count": 5, "zero_candidate": false}
{"pdf_atom_id": "ig34_p0384_a009", "pdf_atom_type": "LIST_ITEM", "pdf_source": "SDTMIG_v3.4", "pdf_page": 384, "pdf_parent_section": "§7.1.3 Current and Future Contents of the Trial Design Model", "pdf_verbatim": "Indefinite numbers of arms", "figure_ref": null, "candidates": [{"md_atom_id": "md_ch04_a561", "md_file": "knowledge_base/chapters/ch04_general_assumptions.md", "md_atom_type": "LIST_ITEM", "md_parent_section": "§4.4.3.1 [Intervals of Time and Use of Duration]", "md_verbatim": "- [n] represents a positive number or zero.", "score": 0.3774, "match_basis": "verbatim_token+global_search"}, {"md_atom_id": "md_dmSU_ex_a006", "md_file": "knowledge_base/domains/SU/examples.md", "md_atom_type": "LIST_ITEM", "md_parent_section": "§SU.1 [Example 1]", "md_verbatim": "   - If a current or past smoker, number of packs per day", "score": 0.3774, "match_basis": "verbatim_token+global_search"}, {"md_atom_id": "md_ch08_a217", "md_file": "knowledge_base/chapters/ch08_relationships.md", "md_atom_type": "LIST_ITEM", "md_parent_section": "§8.5 [Relating Comments to a Parent Domain]", "md_verbatim": "1. Values (e.g., CRF page number or name) may be placed in COREF.", "score": 0.375, "match_basis": "verbatim_token+global_search"}, {"md_atom_id": "md_ch02_a130", "md_file": "knowledge_base/chapters/ch02_fundamentals.md", "md_atom_type": "LIST_ITEM", "md_parent_section": "§2.7 [SDTM Variables Not Allowed in the SDTMIG]", "md_verbatim": "- POOLID — additionally requires the Pool Definition dataset", "score": 0.3732, "match_basis": "verbatim_token+global_search"}, {"md_atom_id": "md_ch03_a099", "md_file": "knowledge_base/chapters/ch03_submitting_data.md", "md_atom_type": "SENTENCE", "md_parent_section": "§3.2.1.1 [Primary Keys]", "md_verbatim": "**Definitions:**", "score": 0.3679, "match_basis": "verbatim_token+global_search"}], "candidate_count": 5, "zero_candidate": false}
{"pdf_atom_id": "ig34_p0384_a010", "pdf_atom_type": "SENTENCE", "pdf_source": "SDTMIG_v3.4", "pdf_page": 384, "pdf_parent_section": "§7.1.3 Current and Future Contents of the Trial Design Model", "pdf_verbatim": "The last 2 situations arise in dose-escalation studies where increasing doses are given until stopping criteria are met.", "figure_ref": null, "candidates": [{"md_atom_id": "md_dmSR_ex_a003", "md_file": "knowledge_base/domains/SR/examples.md", "md_atom_type": "SENTENCE", "md_parent_section": "§SR.1 [Example 1]", "md_verbatim": "In this example, the subject is dosed with increasing concentrations of Johnson grass IgE.", "score": 0.4011, "match_basis": "verbatim_token+global_search"}, {"md_atom_id": "md_dmTV_ex_a013", "md_file": "knowledge_base/domains/TV/examples.md", "md_atom_type": "SENTENCE", "md_parent_section": "§TV.1 [Example 1]", "md_verbatim": "The second shows a more common situation, where the timings have been described only loosely.", "score": 0.4011, "match_basis": "verbatim_token+global_search"}, {"md_atom_id": "md_dmTU_assn_a004", "md_file": "knowledge_base/domains/TU/assumptions.md", "md_atom_type": "SENTENCE", "md_parent_section": "§TU [TU — Assumptions]", "md_verbatim": "Commonly, tumors/lesions/locations of interest are identified by an investigator and/or independent assessor and classified according to the disease assessment criteria.", "score": 0.395, "match_basis": "verbatim_token+global_search"}, {"md_atom_id": "md_ch04_a1010", "md_file": "knowledge_base/chapters/ch04_general_assumptions.md", "md_atom_type": "SENTENCE", "md_parent_section": "§4.5.8 [Accounting for Long-term Follow-up]", "md_verbatim": "Use cases include studies in terminally ill populations that periodically assess survival and studies involving chronic disease that include follow-up to assess relapse.", "score": 0.3931, "match_basis": "verbatim_token+global_search"}, {"md_atom_id": "md_dmFA_ex_a138", "md_file": "knowledge_base/domains/FA/examples.md", "md_atom_type": "SENTENCE", "md_parent_section": "§FA.6 [Example 6]", "md_verbatim": "The collected data met criterion 1 in Section 6.4.1, When to Use Findings About Events or Interventions, for data that do not describe an event or intervention as a whole.", "score": 0.3928, "match_basis": "verbatim_token+global_search"}], "candidate_count": 5, "zero_candidate": false}
{"pdf_atom_id": "ig34_p0384_a011", "pdf_atom_type": "SENTENCE", "pdf_source": "SDTMIG_v3.4", "pdf_page": 384, "pdf_parent_section": "§7.1.3 Current and Future Contents of the Trial Design Model", "pdf_verbatim": "Some dose-escalation studies enroll a new cohort of subjects for each new dose, and so, at the planning stage, have an indefinite number of arms.", "figure_ref": null, "candidates": [{"md_atom_id": "md_model06_a058", "md_file": "knowledge_base/model/06_relationship_datasets.md", "md_atom_type": "SENTENCE", "md_parent_section": "§6.3 Pool Definition (POOLDEF)", "md_verbatim": "Defines which subjects belong to each pool (for nonclinical studies where subjects are pooled).", "score": 0.4326, "match_basis": "verbatim_token+global_search"}, {"md_atom_id": "md_dmRELSUB_assn_a003", "md_file": "knowledge_base/domains/RELSUB/assumptions.md", "md_atom_type": "SENTENCE", "md_parent_section": "§RELSUB [RELSUB — Assumptions]", "md_verbatim": "Some studies include subjects who are related to each other, and in some cases it is important to record those relationships. A study in which pregnant women are treated and both the mother and her child(ren) are study subjects is the most common case in which relationships between subjects are collected. There are also studies of genetically based diseases where subjects who are related to each other are enrolled, and the relationships between subjects are recorded.", "score": 0.4113, "match_basis": "verbatim_token+global_search"}, {"md_atom_id": "md_model06_a066", "md_file": "knowledge_base/model/06_relationship_datasets.md", "md_atom_type": "SENTENCE", "md_parent_section": "§6.4 Related Subjects (RELSUB)", "md_verbatim": "Describes relationships between subjects in a study (e.g., family relationships in genetic studies).", "score": 0.4067, "match_basis": "verbatim_token+global_search"}, {"md_atom_id": "md_model03_a110", "md_file": "knowledge_base/model/03_special_purpose_domains.md", "md_atom_type": "SENTENCE", "md_parent_section": "§ Subject Repro Stages", "md_verbatim": "Because actual data does not always follow the plan, the SDTM allows for descriptions of an unplanned repro stage for subjects (SJUPDES).", "score": 0.4029, "match_basis": "verbatim_token+global_search"}, {"md_atom_id": "md_dmSE_ex_a032", "md_file": "knowledge_base/domains/SE/examples.md", "md_atom_type": "SENTENCE", "md_parent_section": "§SE.2 [Example 2]", "md_verbatim": "The following data represent 2 subjects enrolled in a trial in which assignment to an arm occurs in 2 stages.", "score": 0.4, "match_basis": "verbatim_token+global_search"}], "candidate_count": 5, "zero_candidate": false}
{"pdf_atom_id": "ig34_p0384_a012", "pdf_atom_type": "SENTENCE", "pdf_source": "SDTMIG_v3.4", "pdf_page": 384, "pdf_parent_section": "§7.1.3 Current and Future Contents of the Trial Design Model", "pdf_verbatim": "Other dose-escalation studies give new doses to a continuing group of subjects, and so are planned with an indefinite number of epochs.", "figure_ref": null, "candidates": [{"md_atom_id": "md_dmDS_ex_a037", "md_file": "knowledge_base/domains/DS/examples.md", "md_atom_type": "SENTENCE", "md_parent_section": "§DS.2 [Example 2]", "md_verbatim": "**Rows 2-3:** Subjects 456102 and 456103 discontinued. Both discontinued participation during the treatment epoch.", "score": 0.4326, "match_basis": "verbatim_token+global_search"}, {"md_atom_id": "md_model06_a058", "md_file": "knowledge_base/model/06_relationship_datasets.md", "md_atom_type": "SENTENCE", "md_parent_section": "§6.3 Pool Definition (POOLDEF)", "md_verbatim": "Defines which subjects belong to each pool (for nonclinical studies where subjects are pooled).", "score": 0.4213, "match_basis": "verbatim_token+global_search"}, {"md_atom_id": "md_ch04_a1017", "md_file": "knowledge_base/chapters/ch04_general_assumptions.md", "md_atom_type": "SENTENCE", "md_parent_section": "§4.5.8 [Accounting for Long-term Follow-up]", "md_verbatim": "The contacts continue until the subject dies.", "score": 0.42, "match_basis": "verbatim_token+global_search"}, {"md_atom_id": "md_dmTV_ex_a048", "md_file": "knowledge_base/domains/TV/examples.md", "md_atom_type": "SENTENCE", "md_parent_section": "§TV.2.4 [Contingent Visits]", "md_verbatim": "If contingent visits are not included in the TV dataset, then they would be treated as unplanned visits in the Subject Visits (SV) domain (see Section 6.2.8, Subject Visits).", "score": 0.4118, "match_basis": "verbatim_token+global_search"}, {"md_atom_id": "md_model05_a085", "md_file": "knowledge_base/model/05_study_level_data.md", "md_atom_type": "SENTENCE", "md_parent_section": "§ Trial Visits (TV)", "md_verbatim": "Describes the visits planned in the protocol, including the planned order and number of visits in the study.", "score": 0.4079, "match_basis": "verbatim_token+global_search"}], "candidate_count": 5, "zero_candidate": false}
{"pdf_atom_id": "ig34_p0384_a013", "pdf_atom_type": "SENTENCE", "pdf_source": "SDTMIG_v3.4", "pdf_page": 384, "pdf_parent_section": "§7.1.3 Current and Future Contents of the Trial Design Model", "pdf_verbatim": "There may also be limitations in representing other patterns of Elements within a Study Cell that are more complex than a simple sequence.", "figure_ref": null, "candidates": [{"md_atom_id": "md_dmDS_ex_a088", "md_file": "knowledge_base/domains/DS/examples.md", "md_atom_type": "SENTENCE", "md_parent_section": "§DS.6 [Example 6]", "md_verbatim": "**Row 3:** Represents the final study completion within the trial, which is indicated by DSSCAT = \"STUDY PARTICIPATION\".", "score": 0.4532, "match_basis": "verbatim_token+global_search"}, {"md_atom_id": "md_ch10_a247", "md_file": "knowledge_base/chapters/ch10_appendices.md", "md_atom_type": "SENTENCE", "md_parent_section": "§10.F [Representations and Warranties, Limitations of Liability, and Disclaimers]", "md_verbatim": "It is possible that implementation of and compliance with this standard may require use of subject matter covered by patent rights.", "score": 0.45, "match_basis": "verbatim_token+global_search"}, {"md_atom_id": "md_model05_a031", "md_file": "knowledge_base/model/05_study_level_data.md", "md_atom_type": "SENTENCE", "md_parent_section": "§ Trial Arms (TA)", "md_verbatim": "An arm is an ordered sequence of elements; the same element may occur more than once in a given arm.", "score": 0.4443, "match_basis": "verbatim_token+global_search"}, {"md_atom_id": "md_dmTU_assn_a002", "md_file": "knowledge_base/domains/TU/assumptions.md", "md_atom_type": "SENTENCE", "md_parent_section": "§TU [TU — Assumptions]", "md_verbatim": "A findings domain that represents data that uniquely identifies tumors, lesions, or locations of interest under study.", "score": 0.4353, "match_basis": "verbatim_token+global_search"}, {"md_atom_id": "md_model05_a071", "md_file": "knowledge_base/model/05_study_level_data.md", "md_atom_type": "SENTENCE", "md_parent_section": "§ Trial Reproductive Paths (TP)", "md_verbatim": "Describes each planned repro path in a repro study, with the ordered sequence of repro stages that comprise each repro path, as well as specification of repro phase and reference start day of the repro phase applicable to the repro stage within the repro path.", "score": 0.43, "match_basis": "verbatim_token+global_search"}], "candidate_count": 5, "zero_candidate": false}
{"pdf_atom_id": "ig34_p0384_a014", "pdf_atom_type": "SENTENCE", "pdf_source": "SDTMIG_v3.4", "pdf_page": 384, "pdf_parent_section": "§7.1.3 Current and Future Contents of the Trial Design Model", "pdf_verbatim": "For the purpose of submissions about trials that have already completed, these limitations are not critical, so it is expected that development of the Trial Design Model to address these limitations will have a minimal impact on the SDTM.", "figure_ref": null, "candidates": [{"md_atom_id": "md_ch01_a004", "md_file": "knowledge_base/chapters/ch01_introduction.md", "md_atom_type": "SENTENCE", "md_parent_section": "§1.1 [Purpose]", "md_verbatim": "The Study Data Tabulation Model Implementation Guide for Human Clinical Trials (SDTMIG) Version 3.4 has been prepared by the Submissions Data Standards (SDS) team of the Clinical Data Interchange Standards Consortium (CDISC).", "score": 0.4208, "match_basis": "verbatim_token+global_search"}, {"md_atom_id": "md_dmPC_ex_a003", "md_file": "knowledge_base/domains/PC/examples.md", "md_atom_type": "SENTENCE", "md_parent_section": "§PC [PC — Examples]", "md_verbatim": "Due to space limitations, not all expected or permissible findings variables are included in the example for this domain.", "score": 0.4191, "match_basis": "verbatim_token+global_search"}, {"md_atom_id": "md_dmPP_ex_a003", "md_file": "knowledge_base/domains/PP/examples.md", "md_atom_type": "SENTENCE", "md_parent_section": "§PP [PP — Examples]", "md_verbatim": "Due to space limitations, not all expected or permissible findings variables are included in the example for this domain.", "score": 0.4191, "match_basis": "verbatim_token+global_search"}, {"md_atom_id": "md_ch04_a517", "md_file": "knowledge_base/chapters/ch04_general_assumptions.md", "md_atom_type": "SENTENCE", "md_parent_section": "§4.4.2 [Date/Time Precision]", "md_verbatim": "Note that if no time component is represented, the [T] time designator (in addition to the missing time) must be omitted in ISO 8601 representation.", "score": 0.4161, "match_basis": "verbatim_token+global_search"}, {"md_atom_id": "md_dmDS_ex_a003", "md_file": "knowledge_base/domains/DS/examples.md", "md_atom_type": "SENTENCE", "md_parent_section": "§DS.1 [Example 1]", "md_verbatim": "In this example, disposition of study participation was collected for each epoch of a trial. Disposition of study participation is indicated by DSCAT = \"DISPOSITION EVENT\". EPOCH was taken from the CRF, which asked about completion of each epoch of the study. Data about disposition of study treatment was not collected, but the sponsor populated DSSCAT with \"STUDY PARTICIPATION\" to emphasize that these represent disposition of study participation.", "score": 0.4159, "match_basis": "verbatim_token+global_search"}], "candidate_count": 5, "zero_candidate": false}
{"pdf_atom_id": "ig34_p0384_a015", "pdf_atom_type": "HEADING", "pdf_source": "SDTMIG_v3.4", "pdf_page": 384, "pdf_parent_section": "§7 [TRIAL DESIGN MODEL DATASETS]", "pdf_verbatim": "7.2 Experimental Design (TA and TE)", "figure_ref": null, "candidates": [{"md_atom_id": "md_varindex_a1514", "md_file": "knowledge_base/VARIABLE_INDEX.md", "md_atom_type": "HEADING", "md_parent_section": "§ 二、领域专属变量（仅 1 个域，共 1499 个），按域分组", "md_verbatim": "### TE — Trial Elements (Trial Design)", "score": 0.4636, "match_basis": "verbatim_token+global_search"}, {"md_atom_id": "md_varindex_a1501", "md_file": "knowledge_base/VARIABLE_INDEX.md", "md_atom_type": "HEADING", "md_parent_section": "§ 二、领域专属变量（仅 1 个域，共 1499 个），按域分组", "md_verbatim": "### TA — Trial Arms (Trial Design)", "score": 0.42, "match_basis": "verbatim_token+global_search"}, {"md_atom_id": "md_varindex_a1505", "md_file": "knowledge_base/VARIABLE_INDEX.md", "md_atom_type": "HEADING", "md_parent_section": "§ 二、领域专属变量（仅 1 个域，共 1499 个），按域分组", "md_verbatim": "### TD — Trial Disease Assessments (Trial Design)", "score": 0.42, "match_basis": "verbatim_token+global_search"}, {"md_atom_id": "md_model05_a005", "md_file": "knowledge_base/model/05_study_level_data.md", "md_atom_type": "HEADING", "md_parent_section": "§ 5.1 Trial Design Model", "md_verbatim": "## 5.1 Trial Design Model", "score": 0.4143, "match_basis": "verbatim_token+global_search"}, {"md_atom_id": "md_varindex_a1589", "md_file": "knowledge_base/VARIABLE_INDEX.md", "md_atom_type": "HEADING", "md_parent_section": "§ 二、领域专属变量（仅 1 个域，共 1499 个），按域分组", "md_verbatim": "### TV — Trial Visits (Trial Design)", "score": 0.4091, "match_basis": "verbatim_token+global_search"}], "candidate_count": 5, "zero_candidate": false}
{"pdf_atom_id": "ig34_p0384_a016", "pdf_atom_type": "SENTENCE", "pdf_source": "SDTMIG_v3.4", "pdf_page": 384, "pdf_parent_section": "§7.2 Experimental Design (TA and TE)", "pdf_verbatim": "This subsection contains the Trial Design datasets that describe the planned design of the study, and provide the representation of study treatment in its most granular components (Section 7.2.2, Trial Elements (TE)), as well as the representation of all sequences of these components (Section 7.2.1, Trial Arms (TA)) as specified by the study protocol.", "figure_ref": null, "candidates": [{"md_atom_id": "md_dmTA_ex_a004", "md_file": "knowledge_base/domains/TA/examples.md", "md_atom_type": "SENTENCE", "md_parent_section": "§TA [TA — Examples]", "md_verbatim": "Although the TA dataset has 1 record for each trial element traversed by subjects assigned to an arm, it is generally more useful to work out the overall design of the trial at the study cell level first, then to work out the elements within each study cell, and finally to develop the definitions of the elements that are contained in the Trial Elements (TE) table.", "score": 0.5286, "match_basis": "verbatim_token+domain_route:TA"}, {"md_atom_id": "md_dmTA_assn_a002", "md_file": "knowledge_base/domains/TA/assumptions.md", "md_atom_type": "SENTENCE", "md_parent_section": "§TA [TA — Assumptions]", "md_verbatim": "The TA and TE datasets are interrelated, and they provide the building blocks for the development of subject-level treatment information (see Sections 5.2, Demographics (DM), and 5.3, Subject Elements (SE), for the subject's actual study treatment information).", "score": 0.528, "match_basis": "verbatim_token+domain_route:TA"}, {"md_atom_id": "md_dmTA_ex_a003", "md_file": "knowledge_base/domains/TA/examples.md", "md_atom_type": "SENTENCE", "md_parent_section": "§TA [TA — Examples]", "md_verbatim": "For each arm of the trial, the TA dataset contains 1 record for each occurrence of an element in the path of the arm.", "score": 0.5104, "match_basis": "verbatim_token+domain_route:TA"}, {"md_atom_id": "md_dmTA_ex_a262", "md_file": "knowledge_base/domains/TA/examples.md", "md_atom_type": "SENTENCE", "md_parent_section": "§TA.8.2 [Subjects Not Assigned to an Arm]", "md_verbatim": "In the Demographics (DM) domain, the values of ARM and ARMCD must be supplied for such subjects, but the special values used for these subjects should not be included in the Trial Arms (TA) dataset; only complete arm paths should be described in the TA dataset.", "score": 0.5078, "match_basis": "verbatim_token+domain_route:TA"}, {"md_atom_id": "md_dmTA_ex_a274", "md_file": "knowledge_base/domains/TA/examples.md", "md_atom_type": "SENTENCE", "md_parent_section": "§TA.8.4 [Rule Variables]", "md_verbatim": "Other Rule variables are present in the Trial Elements (TE) and Trial Visits (TV) datasets.", "score": 0.5065, "match_basis": "verbatim_token+domain_route:TA"}], "candidate_count": 5, "zero_candidate": false}
{"pdf_atom_id": "ig34_p0384_a017", "pdf_atom_type": "SENTENCE", "pdf_source": "SDTMIG_v3.4", "pdf_page": 384, "pdf_parent_section": "§7.2 Experimental Design (TA and TE)", "pdf_verbatim": "The TA and TE datasets are interrelated, and they provide the building blocks for the development of subject-level treatment information (see Sections 5.2, Demographics (DM), and 5.3, Subject Elements (SE), for the subject's actual study treatment information).", "figure_ref": null, "candidates": [{"md_atom_id": "md_dmTA_assn_a002", "md_file": "knowledge_base/domains/TA/assumptions.md", "md_atom_type": "SENTENCE", "md_parent_section": "§TA [TA — Assumptions]", "md_verbatim": "The TA and TE datasets are interrelated, and they provide the building blocks for the development of subject-level treatment information (see Sections 5.2, Demographics (DM), and 5.3, Subject Elements (SE), for the subject's actual study treatment information).", "score": 1.0, "match_basis": "verbatim_token+domain_route:TA"}, {"md_atom_id": "md_dmTA_ex_a004", "md_file": "knowledge_base/domains/TA/examples.md", "md_atom_type": "SENTENCE", "md_parent_section": "§TA [TA — Examples]", "md_verbatim": "Although the TA dataset has 1 record for each trial element traversed by subjects assigned to an arm, it is generally more useful to work out the overall design of the trial at the study cell level first, then to work out the elements within each study cell, and finally to develop the definitions of the elements that are contained in the Trial Elements (TE) table.", "score": 0.5143, "match_basis": "verbatim_token+domain_route:TA"}, {"md_atom_id": "md_dmTA_ex_a230", "md_file": "knowledge_base/domains/TA/examples.md", "md_atom_type": "SENTENCE", "md_parent_section": "§TA.7 [Example 7]", "md_verbatim": "The elements in the Continuation Treatment Epoch for the CR arm do not fill the space compared to the CRS arm, reflecting different treatment durations between the 2 arms.", "score": 0.4962, "match_basis": "verbatim_token+domain_route:TA"}, {"md_atom_id": "md_dmTA_ex_a115", "md_file": "knowledge_base/domains/TA/examples.md", "md_atom_type": "SENTENCE", "md_parent_section": "§TA.4 [Example 4]", "md_verbatim": "A cyclical chemotherapy oncology trial with repeating treatment/rest elements until disease progression.", "score": 0.4916, "match_basis": "verbatim_token+domain_route:TA"}, {"md_atom_id": "md_dmTA_ex_a049", "md_file": "knowledge_base/domains/TA/examples.md", "md_atom_type": "SENTENCE", "md_parent_section": "§TA.2 [Example 2]", "md_verbatim": "Same structure as the Prospective View (one-to-one relationship between epochs and elements in each arm for this crossover design).", "score": 0.4902, "match_basis": "verbatim_token+domain_route:TA"}], "candidate_count": 5, "zero_candidate": false}
{"pdf_atom_id": "ig34_p0384_a018", "pdf_atom_type": "HEADING", "pdf_source": "SDTMIG_v3.4", "pdf_page": 384, "pdf_parent_section": "§7.2 Experimental Design (TA and TE)", "pdf_verbatim": "7.2.1 Trial Arms (TA)", "figure_ref": null, "candidates": [{"md_atom_id": "md_dmTA_ex_a252", "md_file": "knowledge_base/domains/TA/examples.md", "md_atom_type": "HEADING", "md_parent_section": "§TA [TA — Examples]", "md_verbatim": "## Trial Arms Issues", "score": 0.7333, "match_basis": "verbatim_token+domain_route:TA"}, {"md_atom_id": "md_dmTA_ex_a269", "md_file": "knowledge_base/domains/TA/examples.md", "md_atom_type": "HEADING", "md_parent_section": "§TA.8 [Trial Arms Issues]", "md_verbatim": "### Rule Variables", "score": 0.4462, "match_basis": "verbatim_token+domain_route:TA"}, {"md_atom_id": "md_dmTA_ex_a260", "md_file": "knowledge_base/domains/TA/examples.md", "md_atom_type": "HEADING", "md_parent_section": "§TA.8 [Trial Arms Issues]", "md_verbatim": "### Subjects Not Assigned to an Arm", "score": 0.4333, "match_basis": "verbatim_token+domain_route:TA"}, {"md_atom_id": "md_dmTA_assn_a001", "md_file": "knowledge_base/domains/TA/assumptions.md", "md_atom_type": "HEADING", "md_parent_section": "§TA [TA — Assumptions]", "md_verbatim": "# TA — Assumptions", "score": 0.4, "match_basis": "verbatim_token+domain_route:TA"}, {"md_atom_id": "md_dmTA_ex_a001", "md_file": "knowledge_base/domains/TA/examples.md", "md_atom_type": "HEADING", "md_parent_section": "§TA [TA — Examples]", "md_verbatim": "# TA — Examples", "score": 0.4, "match_basis": "verbatim_token+domain_route:TA"}, {"md_atom_id": "md_dmTA_ex_a013", "md_file": "knowledge_base/domains/TA/examples.md", "md_atom_type": "HEADING", "md_parent_section": "§TA [TA — Examples]", "md_verbatim": "## Example 1", "score": 0.4, "match_basis": "verbatim_token+domain_route:TA"}, {"md_atom_id": "md_dmTA_ex_a041", "md_file": "knowledge_base/domains/TA/examples.md", "md_atom_type": "HEADING", "md_parent_section": "§TA [TA — Examples]", "md_verbatim": "## Example 2", "score": 0.4, "match_basis": "verbatim_token+domain_route:TA"}, {"md_atom_id": "md_dmTA_ex_a081", "md_file": "knowledge_base/domains/TA/examples.md", "md_atom_type": "HEADING", "md_parent_section": "§TA [TA — Examples]", "md_verbatim": "## Example 3", "score": 0.4, "match_basis": "verbatim_token+domain_route:TA"}, {"md_atom_id": "md_dmTA_ex_a114", "md_file": "knowledge_base/domains/TA/examples.md", "md_atom_type": "HEADING", "md_parent_section": "§TA [TA — Examples]", "md_verbatim": "## Example 4", "score": 0.4, "match_basis": "verbatim_token+domain_route:TA"}, {"md_atom_id": "md_dmTA_ex_a155", "md_file": "knowledge_base/domains/TA/examples.md", "md_atom_type": "HEADING", "md_parent_section": "§TA [TA — Examples]", "md_verbatim": "## Example 5", "score": 0.4, "match_basis": "verbatim_token+domain_route:TA"}], "candidate_count": 10, "zero_candidate": false}
{"pdf_atom_id": "ig34_p0384_a019", "pdf_atom_type": "HEADING", "pdf_source": "SDTMIG_v3.4", "pdf_page": 384, "pdf_parent_section": "§7.2.1 Trial Arms (TA)", "pdf_verbatim": "TA – Description/Overview", "figure_ref": null, "candidates": [{"md_atom_id": "md_dmTA_assn_a001", "md_file": "knowledge_base/domains/TA/assumptions.md", "md_atom_type": "HEADING", "md_parent_section": "§TA [TA — Assumptions]", "md_verbatim": "# TA — Assumptions", "score": 0.4857, "match_basis": "verbatim_token+domain_route:TA"}, {"md_atom_id": "md_dmTA_ex_a253", "md_file": "knowledge_base/domains/TA/examples.md", "md_atom_type": "HEADING", "md_parent_section": "§TA.8 [Trial Arms Issues]", "md_verbatim": "### Distinguishing Between Branches and Transitions", "score": 0.4273, "match_basis": "verbatim_token+domain_route:TA"}, {"md_atom_id": "md_dmTA_ex_a001", "md_file": "knowledge_base/domains/TA/examples.md", "md_atom_type": "HEADING", "md_parent_section": "§TA [TA — Examples]", "md_verbatim": "# TA — Examples", "score": 0.4, "match_basis": "verbatim_token+domain_route:TA"}, {"md_atom_id": "md_dmTA_ex_a013", "md_file": "knowledge_base/domains/TA/examples.md", "md_atom_type": "HEADING", "md_parent_section": "§TA [TA — Examples]", "md_verbatim": "## Example 1", "score": 0.4, "match_basis": "verbatim_token+domain_route:TA"}, {"md_atom_id": "md_dmTA_ex_a041", "md_file": "knowledge_base/domains/TA/examples.md", "md_atom_type": "HEADING", "md_parent_section": "§TA [TA — Examples]", "md_verbatim": "## Example 2", "score": 0.4, "match_basis": "verbatim_token+domain_route:TA"}], "candidate_count": 5, "zero_candidate": false}
{"pdf_atom_id": "ig34_p0384_a020", "pdf_atom_type": "SENTENCE", "pdf_source": "SDTMIG_v3.4", "pdf_page": 384, "pdf_parent_section": "§7.2.1 Trial Arms (TA) – Description/Overview", "pdf_verbatim": "A trial design domain that contains each planned arm in the trial.", "figure_ref": null, "candidates": [{"md_atom_id": "md_dmTA_ex_a003", "md_file": "knowledge_base/domains/TA/examples.md", "md_atom_type": "SENTENCE", "md_parent_section": "§TA [TA — Examples]", "md_verbatim": "For each arm of the trial, the TA dataset contains 1 record for each occurrence of an element in the path of the arm.", "score": 0.55, "match_basis": "verbatim_token+domain_route:TA"}, {"md_atom_id": "md_dmTA_ex_a025", "md_file": "knowledge_base/domains/TA/examples.md", "md_atom_type": "SENTENCE", "md_parent_section": "§TA.1 [Example 1]", "md_verbatim": "**Trial Design Matrix**", "score": 0.54, "match_basis": "verbatim_token+domain_route:TA"}, {"md_atom_id": "md_dmTA_ex_a053", "md_file": "knowledge_base/domains/TA/examples.md", "md_atom_type": "SENTENCE", "md_parent_section": "§TA.2 [Example 2]", "md_verbatim": "**Trial Design Matrix**", "score": 0.54, "match_basis": "verbatim_token+domain_route:TA"}, {"md_atom_id": "md_dmTA_ex_a094", "md_file": "knowledge_base/domains/TA/examples.md", "md_atom_type": "SENTENCE", "md_parent_section": "§TA.3 [Example 3]", "md_verbatim": "**Trial Design Matrix**", "score": 0.54, "match_basis": "verbatim_token+domain_route:TA"}, {"md_atom_id": "md_dmTA_ex_a129", "md_file": "knowledge_base/domains/TA/examples.md", "md_atom_type": "SENTENCE", "md_parent_section": "§TA.4 [Example 4]", "md_verbatim": "**Trial Design Matrix**", "score": 0.54, "match_basis": "verbatim_token+domain_route:TA"}], "candidate_count": 5, "zero_candidate": false}
{"pdf_atom_id": "ig34_p0384_a021", "pdf_atom_type": "SENTENCE", "pdf_source": "SDTMIG_v3.4", "pdf_page": 384, "pdf_parent_section": "§7.2.1 Trial Arms (TA) – Description/Overview", "pdf_verbatim": "This section contains:", "figure_ref": null, "candidates": [{"md_atom_id": "md_dmTA_ex_a015", "md_file": "knowledge_base/domains/TA/examples.md", "md_atom_type": "SENTENCE", "md_parent_section": "§TA.1 [Example 1]", "md_verbatim": "Each study cell contains exactly 1 element.", "score": 0.52, "match_basis": "verbatim_token+domain_route:TA"}, {"md_atom_id": "md_dmTA_ex_a258", "md_file": "knowledge_base/domains/TA/examples.md", "md_atom_type": "SENTENCE", "md_parent_section": "§TA.8.1 [Distinguishing Between Branches and Transitions]", "md_verbatim": "The value for TATRANS does contain a choice (an \"if\" clause).", "score": 0.4909, "match_basis": "verbatim_token+domain_route:TA"}, {"md_atom_id": "md_dmTA_ex_a254", "md_file": "knowledge_base/domains/TA/examples.md", "md_atom_type": "SENTENCE", "md_parent_section": "§TA.8.1 [Distinguishing Between Branches and Transitions]", "md_verbatim": "Both the Branch and Transition columns contain rules, but the 2 columns represent 2 different types of rules.", "score": 0.4824, "match_basis": "verbatim_token+domain_route:TA"}, {"md_atom_id": "md_dmTA_ex_a003", "md_file": "knowledge_base/domains/TA/examples.md", "md_atom_type": "SENTENCE", "md_parent_section": "§TA [TA — Examples]", "md_verbatim": "For each arm of the trial, the TA dataset contains 1 record for each occurrence of an element in the path of the arm.", "score": 0.48, "match_basis": "verbatim_token+domain_route:TA"}, {"md_atom_id": "md_dmTA_ex_a019", "md_file": "knowledge_base/domains/TA/examples.md", "md_atom_type": "SENTENCE", "md_parent_section": "§TA.1 [Example 1]", "md_verbatim": "**Prospective View**", "score": 0.4545, "match_basis": "verbatim_token+domain_route:TA"}], "candidate_count": 5, "zero_candidate": false}
{"pdf_atom_id": "ig34_p0384_a022", "pdf_atom_type": "LIST_ITEM", "pdf_source": "SDTMIG_v3.4", "pdf_page": 384, "pdf_parent_section": "§7.2.1 Trial Arms (TA) – Description/Overview", "pdf_verbatim": "The Trial Arms dataset and assumptions", "figure_ref": null, "candidates": [{"md_atom_id": "md_dmTA_ex_a011", "md_file": "knowledge_base/domains/TA/examples.md", "md_atom_type": "LIST_ITEM", "md_parent_section": "§TA [TA — Examples]", "md_verbatim": "- The TA dataset", "score": 0.5714, "match_basis": "verbatim_token+domain_route:TA"}, {"md_atom_id": "md_dmTA_ex_a002", "md_file": "knowledge_base/domains/TA/examples.md", "md_atom_type": "SENTENCE", "md_parent_section": "§TA [TA — Examples]", "md_verbatim": "The core of the Trial Design Model is the TA dataset.", "score": 0.49, "match_basis": "verbatim_token+domain_route:TA"}, {"md_atom_id": "md_dmTA_assn_a015", "md_file": "knowledge_base/domains/TA/assumptions.md", "md_atom_type": "LIST_ITEM", "md_parent_section": "§TA [TA — Assumptions]", "md_verbatim": "11. Note that study cells are not explicitly defined in the TA dataset. A set of records with a common value of both ARMCD and EPOCH constitute the description of a study cell. Transition rules within this set of records are also part of the description of the study cell.", "score": 0.4758, "match_basis": "verbatim_token+domain_route:TA"}, {"md_atom_id": "md_dmTA_assn_a016", "md_file": "knowledge_base/domains/TA/assumptions.md", "md_atom_type": "LIST_ITEM", "md_parent_section": "§TA [TA — Assumptions]", "md_verbatim": "12. EPOCH may be used as a timing variable in other datasets, such as Exposure (EX) and Disposition (DS), and values of EPOCH must be different for different epochs. For instance, in a crossover trial with 3 treatment epochs, each must be given a distinct name; all 3 cannot be called \"TREATMENT\".", "score": 0.4661, "match_basis": "verbatim_token+domain_route:TA"}, {"md_atom_id": "md_dmTA_ex_a010", "md_file": "knowledge_base/domains/TA/examples.md", "md_atom_type": "LIST_ITEM", "md_parent_section": "§TA [TA — Examples]", "md_verbatim": "- A trial design matrix, an alternative format showing arms and epochs with study cells", "score": 0.4632, "match_basis": "verbatim_token+domain_route:TA"}], "candidate_count": 5, "zero_candidate": false}
{"pdf_atom_id": "ig34_p0384_a023", "pdf_atom_type": "LIST_ITEM", "pdf_source": "SDTMIG_v3.4", "pdf_page": 384, "pdf_parent_section": "§7.2.1 Trial Arms (TA) – Description/Overview", "pdf_verbatim": "A series of example trials, which illustrate the development of the TA dataset", "figure_ref": null, "candidates": [{"md_atom_id": "md_dmTA_assn_a004", "md_file": "knowledge_base/domains/TA/assumptions.md", "md_atom_type": "LIST_ITEM", "md_parent_section": "§TA [TA — Assumptions]", "md_verbatim": "2. Elements in different arms with the same value of TAETORD may or may not be at the same time, depending on the design of the trial. The example trials illustrate a variety of possible situations. The same element may occur more than once within an arm.", "score": 0.5178, "match_basis": "verbatim_token+domain_route:TA"}, {"md_atom_id": "md_dmTA_assn_a011", "md_file": "knowledge_base/domains/TA/assumptions.md", "md_atom_type": "LIST_ITEM", "md_parent_section": "§TA [TA — Assumptions]", "md_verbatim": "9. EPOCH should be assigned in such a way that elements from different arms with the same value of EPOCH are \"comparable\" in some sense. The degree of similarity of epochs across arms varies considerably in different trials, as illustrated in the examples.", "score": 0.51, "match_basis": "verbatim_token+domain_route:TA"}, {"md_atom_id": "md_dmTA_ex_a011", "md_file": "knowledge_base/domains/TA/examples.md", "md_atom_type": "LIST_ITEM", "md_parent_section": "§TA [TA — Examples]", "md_verbatim": "- The TA dataset", "score": 0.4923, "match_basis": "verbatim_token+domain_route:TA"}, {"md_atom_id": "md_dmTA_assn_a003", "md_file": "knowledge_base/domains/TA/assumptions.md", "md_atom_type": "LIST_ITEM", "md_parent_section": "§TA [TA — Assumptions]", "md_verbatim": "1. TAETORD is an integer. In general, the value of TAETORD is 1 for the first element in each arm, 2 for the second element in each arm, and so on. Occasionally, it may be convenient to skip some values (see Example Trial 6). Although the values of TAETORD need not always be sequential, their order must always be the correct order for the elements in the arm path.", "score": 0.4567, "match_basis": "verbatim_token+domain_route:TA"}, {"md_atom_id": "md_dmTA_assn_a016", "md_file": "knowledge_base/domains/TA/assumptions.md", "md_atom_type": "LIST_ITEM", "md_parent_section": "§TA [TA — Assumptions]", "md_verbatim": "12. EPOCH may be used as a timing variable in other datasets, such as Exposure (EX) and Disposition (DS), and values of EPOCH must be different for different epochs. For instance, in a crossover trial with 3 treatment epochs, each must be given a distinct name; all 3 cannot be called \"TREATMENT\".", "score": 0.4567, "match_basis": "verbatim_token+domain_route:TA"}], "candidate_count": 5, "zero_candidate": false}
{"pdf_atom_id": "ig34_p0384_a024", "pdf_atom_type": "LIST_ITEM", "pdf_source": "SDTMIG_v3.4", "pdf_page": 384, "pdf_parent_section": "§7.2.1 Trial Arms (TA) – Description/Overview", "pdf_verbatim": "Advice on various issues in the development of the TA dataset", "figure_ref": null, "candidates": [{"md_atom_id": "md_dmTA_ex_a011", "md_file": "knowledge_base/domains/TA/examples.md", "md_atom_type": "LIST_ITEM", "md_parent_section": "§TA [TA — Examples]", "md_verbatim": "- The TA dataset", "score": 0.5286, "match_basis": "verbatim_token+domain_route:TA"}, {"md_atom_id": "md_dmTA_assn_a016", "md_file": "knowledge_base/domains/TA/assumptions.md", "md_atom_type": "LIST_ITEM", "md_parent_section": "§TA [TA — Assumptions]", "md_verbatim": "12. EPOCH may be used as a timing variable in other datasets, such as Exposure (EX) and Disposition (DS), and values of EPOCH must be different for different epochs. For instance, in a crossover trial with 3 treatment epochs, each must be given a distinct name; all 3 cannot be called \"TREATMENT\".", "score": 0.4564, "match_basis": "verbatim_token+domain_route:TA"}, {"md_atom_id": "md_dmTA_assn_a015", "md_file": "knowledge_base/domains/TA/assumptions.md", "md_atom_type": "LIST_ITEM", "md_parent_section": "§TA [TA — Assumptions]", "md_verbatim": "11. Note that study cells are not explicitly defined in the TA dataset. A set of records with a common value of both ARMCD and EPOCH constitute the description of a study cell. Transition rules within this set of records are also part of the description of the study cell.", "score": 0.4333, "match_basis": "verbatim_token+domain_route:TA"}, {"md_atom_id": "md_dmTA_assn_a004", "md_file": "knowledge_base/domains/TA/assumptions.md", "md_atom_type": "LIST_ITEM", "md_parent_section": "§TA [TA — Assumptions]", "md_verbatim": "2. Elements in different arms with the same value of TAETORD may or may not be at the same time, depending on the design of the trial. The example trials illustrate a variety of possible situations. The same element may occur more than once within an arm.", "score": 0.4268, "match_basis": "verbatim_token+domain_route:TA"}, {"md_atom_id": "md_dmTA_assn_a011", "md_file": "knowledge_base/domains/TA/assumptions.md", "md_atom_type": "LIST_ITEM", "md_parent_section": "§TA [TA — Assumptions]", "md_verbatim": "9. EPOCH should be assigned in such a way that elements from different arms with the same value of EPOCH are \"comparable\" in some sense. The degree of similarity of epochs across arms varies considerably in different trials, as illustrated in the examples.", "score": 0.4238, "match_basis": "verbatim_token+domain_route:TA"}], "candidate_count": 5, "zero_candidate": false}
{"pdf_atom_id": "ig34_p0384_a025", "pdf_atom_type": "LIST_ITEM", "pdf_source": "SDTMIG_v3.4", "pdf_page": 384, "pdf_parent_section": "§7.2.1 Trial Arms (TA) – Description/Overview", "pdf_verbatim": "A recap of the TA dataset and the function of its variables", "figure_ref": null, "candidates": [{"md_atom_id": "md_dmTA_ex_a011", "md_file": "knowledge_base/domains/TA/examples.md", "md_atom_type": "LIST_ITEM", "md_parent_section": "§TA [TA — Examples]", "md_verbatim": "- The TA dataset", "score": 0.55, "match_basis": "verbatim_token+domain_route:TA"}, {"md_atom_id": "md_dmTA_ex_a274", "md_file": "knowledge_base/domains/TA/examples.md", "md_atom_type": "SENTENCE", "md_parent_section": "§TA.8.4 [Rule Variables]", "md_verbatim": "Other Rule variables are present in the Trial Elements (TE) and Trial Visits (TV) datasets.", "score": 0.51, "match_basis": "verbatim_token+domain_route:TA"}, {"md_atom_id": "md_dmTA_assn_a016", "md_file": "knowledge_base/domains/TA/assumptions.md", "md_atom_type": "LIST_ITEM", "md_parent_section": "§TA [TA — Assumptions]", "md_verbatim": "12. EPOCH may be used as a timing variable in other datasets, such as Exposure (EX) and Disposition (DS), and values of EPOCH must be different for different epochs. For instance, in a crossover trial with 3 treatment epochs, each must be given a distinct name; all 3 cannot be called \"TREATMENT\".", "score": 0.4889, "match_basis": "verbatim_token+domain_route:TA"}, {"md_atom_id": "md_dmTA_assn_a015", "md_file": "knowledge_base/domains/TA/assumptions.md", "md_atom_type": "LIST_ITEM", "md_parent_section": "§TA [TA — Assumptions]", "md_verbatim": "11. Note that study cells are not explicitly defined in the TA dataset. A set of records with a common value of both ARMCD and EPOCH constitute the description of a study cell. Transition rules within this set of records are also part of the description of the study cell.", "score": 0.4667, "match_basis": "verbatim_token+domain_route:TA"}, {"md_atom_id": "md_dmTA_ex_a272", "md_file": "knowledge_base/domains/TA/examples.md", "md_atom_type": "SENTENCE", "md_parent_section": "§TA.8.4 [Rule Variables]", "md_verbatim": "At the moment, values of Rule variables are text.", "score": 0.4397, "match_basis": "verbatim_token+domain_route:TA"}], "candidate_count": 5, "zero_candidate": false}
{"pdf_atom_id": "ig34_p0384_a026", "pdf_atom_type": "HEADING", "pdf_source": "SDTMIG_v3.4", "pdf_page": 384, "pdf_parent_section": "§7.2.1 Trial Arms (TA)", "pdf_verbatim": "TA – Specification", "figure_ref": null, "candidates": [{"md_atom_id": "md_dmTA_assn_a001", "md_file": "knowledge_base/domains/TA/assumptions.md", "md_atom_type": "HEADING", "md_parent_section": "§TA [TA — Assumptions]", "md_verbatim": "# TA — Assumptions", "score": 0.4667, "match_basis": "verbatim_token+domain_route:TA"}, {"md_atom_id": "md_dmTA_ex_a253", "md_file": "knowledge_base/domains/TA/examples.md", "md_atom_type": "HEADING", "md_parent_section": "§TA.8 [Trial Arms Issues]", "md_verbatim": "### Distinguishing Between Branches and Transitions", "score": 0.43, "match_basis": "verbatim_token+domain_route:TA"}, {"md_atom_id": "md_dmTA_ex_a001", "md_file": "knowledge_base/domains/TA/examples.md", "md_atom_type": "HEADING", "md_parent_section": "§TA [TA — Examples]", "md_verbatim": "# TA — Examples", "score": 0.4, "match_basis": "verbatim_token+domain_route:TA"}, {"md_atom_id": "md_dmTA_ex_a013", "md_file": "knowledge_base/domains/TA/examples.md", "md_atom_type": "HEADING", "md_parent_section": "§TA [TA — Examples]", "md_verbatim": "## Example 1", "score": 0.4, "match_basis": "verbatim_token+domain_route:TA"}, {"md_atom_id": "md_dmTA_ex_a041", "md_file": "knowledge_base/domains/TA/examples.md", "md_atom_type": "HEADING", "md_parent_section": "§TA [TA — Examples]", "md_verbatim": "## Example 2", "score": 0.4, "match_basis": "verbatim_token+domain_route:TA"}], "candidate_count": 5, "zero_candidate": false}
{"pdf_atom_id": "ig34_p0384_a027", "pdf_atom_type": "CODE_LITERAL", "pdf_source": "SDTMIG_v3.4", "pdf_page": 384, "pdf_parent_section": "§7.2.1 Trial Arms (TA) – Specification", "pdf_verbatim": "ta.xpt, Trial Arms — Trial Design. One record per planned Element per Arm, Tabulation.", "figure_ref": null, "candidates": [{"md_atom_id": "md_dmTA_ex_a003", "md_file": "knowledge_base/domains/TA/examples.md", "md_atom_type": "SENTENCE", "md_parent_section": "§TA [TA — Examples]", "md_verbatim": "For each arm of the trial, the TA dataset contains 1 record for each occurrence of an element in the path of the arm.", "score": 0.3222, "match_basis": "verbatim_token+domain_route:TA"}, {"md_atom_id": "md_dmTA_ex_a025", "md_file": "knowledge_base/domains/TA/examples.md", "md_atom_type": "SENTENCE", "md_parent_section": "§TA.1 [Example 1]", "md_verbatim": "**Trial Design Matrix**", "score": 0.3035, "match_basis": "verbatim_token+domain_route:TA"}, {"md_atom_id": "md_dmTA_ex_a053", "md_file": "knowledge_base/domains/TA/examples.md", "md_atom_type": "SENTENCE", "md_parent_section": "§TA.2 [Example 2]", "md_verbatim": "**Trial Design Matrix**", "score": 0.3035, "match_basis": "verbatim_token+domain_route:TA"}, {"md_atom_id": "md_dmTA_ex_a094", "md_file": "knowledge_base/domains/TA/examples.md", "md_atom_type": "SENTENCE", "md_parent_section": "§TA.3 [Example 3]", "md_verbatim": "**Trial Design Matrix**", "score": 0.3035, "match_basis": "verbatim_token+domain_route:TA"}, {"md_atom_id": "md_dmTA_ex_a129", "md_file": "knowledge_base/domains/TA/examples.md", "md_atom_type": "SENTENCE", "md_parent_section": "§TA.4 [Example 4]", "md_verbatim": "**Trial Design Matrix**", "score": 0.3035, "match_basis": "verbatim_token+domain_route:TA"}], "candidate_count": 5, "zero_candidate": false}
{"pdf_atom_id": "ig34_p0384_a028", "pdf_atom_type": "TABLE_HEADER", "pdf_source": "SDTMIG_v3.4", "pdf_page": 384, "pdf_parent_section": "§7.2.1 Trial Arms (TA) – Specification", "pdf_verbatim": "| Variable Name | Variable Label | Type | Controlled Terms, Codelist or Format¹ | Role | CDISC Notes | Core |", "figure_ref": null, "candidates": [{"md_atom_id": "md_dmTA_ex_a095", "md_file": "knowledge_base/domains/TA/examples.md", "md_atom_type": "TABLE_HEADER", "md_parent_section": "§TA.3 [Example 3]", "md_verbatim": "|  | Screen | Double Blind | Open Label |\n|---|---|---|---|", "score": 0.4436, "match_basis": "verbatim_token+domain_route:TA"}, {"md_atom_id": "md_dmTA_ex_a232", "md_file": "knowledge_base/domains/TA/examples.md", "md_atom_type": "TABLE_HEADER", "md_parent_section": "§TA.7 [Example 7]", "md_verbatim": "|  | Screen | Induction | Continuation | | | | Follow-up |\n|---|---|---|---|---|---|---|---|", "score": 0.4286, "match_basis": "verbatim_token+domain_route:TA"}, {"md_atom_id": "md_dmTA_ex_a054", "md_file": "knowledge_base/domains/TA/examples.md", "md_atom_type": "TABLE_HEADER", "md_parent_section": "§TA.2 [Example 2]", "md_verbatim": "|  | Screen | First Treatment | First Rest | Second Treatment | Second Rest | Third Treatment | Follow-up |\n|---|---|---|---|---|---|---|---|", "score": 0.4176, "match_basis": "verbatim_token+domain_route:TA"}, {"md_atom_id": "md_dmTA_ex_a130", "md_file": "knowledge_base/domains/TA/examples.md", "md_atom_type": "TABLE_HEADER", "md_parent_section": "§TA.4 [Example 4]", "md_verbatim": "|  | Screen | Treatment | | | | | | | | Follow-up |\n|---|---|---|---|---|---|---|---|---|---|---|", "score": 0.4105, "match_basis": "verbatim_token+domain_route:TA"}, {"md_atom_id": "md_dmTA_ex_a164", "md_file": "knowledge_base/domains/TA/examples.md", "md_atom_type": "TABLE_HEADER", "md_parent_section": "§TA.5 [Example 5]", "md_verbatim": "|  | Screen | Treatment | | | | | | Follow-up |\n|---|---|---|---|---|---|---|---|---|", "score": 0.4105, "match_basis": "verbatim_token+domain_route:TA"}], "candidate_count": 5, "zero_candidate": false}
{"pdf_atom_id": "ig34_p0384_a029", "pdf_atom_type": "TABLE_ROW", "pdf_source": "SDTMIG_v3.4", "pdf_page": 384, "pdf_parent_section": "§7.2.1 Trial Arms (TA) – Specification", "pdf_verbatim": "| STUDYID | Study Identifier | Char | | Identifier | Unique identifier for a study. | Req |", "figure_ref": null, "candidates": [{"md_atom_id": "md_dmTA_ex_a240", "md_file": "knowledge_base/domains/TA/examples.md", "md_atom_type": "TABLE_ROW", "md_parent_section": "§TA.7 [Example 7]", "md_verbatim": "| 4 | EX7 | TA | 1 | CR | 4 | C | Chemo | | | CONTINUATION TREATMENT |", "score": 0.43, "match_basis": "verbatim_token+domain_route:TA"}, {"md_atom_id": "md_dmTA_ex_a241", "md_file": "knowledge_base/domains/TA/examples.md", "md_atom_type": "TABLE_ROW", "md_parent_section": "§TA.7 [Example 7]", "md_verbatim": "| 5 | EX7 | TA | 1 | CR | 5 | C | Chemo | | | CONTINUATION TREATMENT |", "score": 0.43, "match_basis": "verbatim_token+domain_route:TA"}, {"md_atom_id": "md_dmTA_ex_a249", "md_file": "knowledge_base/domains/TA/examples.md", "md_atom_type": "TABLE_ROW", "md_parent_section": "§TA.7 [Example 7]", "md_verbatim": "| 13 | EX7 | TA | 2 | CRS | 7 | C | Chemo | | | CONTINUATION TREATMENT |", "score": 0.4293, "match_basis": "verbatim_token+domain_route:TA"}, {"md_atom_id": "md_dmTA_ex_a250", "md_file": "knowledge_base/domains/TA/examples.md", "md_atom_type": "TABLE_ROW", "md_parent_section": "§TA.7 [Example 7]", "md_verbatim": "| 14 | EX7 | TA | 2 | CRS | 8 | C | Chemo | | | CONTINUATION TREATMENT |", "score": 0.4293, "match_basis": "verbatim_token+domain_route:TA"}, {"md_atom_id": "md_dmTA_ex_a246", "md_file": "knowledge_base/domains/TA/examples.md", "md_atom_type": "TABLE_ROW", "md_parent_section": "§TA.7 [Example 7]", "md_verbatim": "| 10 | EX7 | TA | 2 | CRS | 4 | R3 | 3-5 week rest | | | CONTINUATION TREATMENT |", "score": 0.4286, "match_basis": "verbatim_token+domain_route:TA"}], "candidate_count": 5, "zero_candidate": false}
{"pdf_atom_id": "ig34_p0384_a030", "pdf_atom_type": "TABLE_ROW", "pdf_source": "SDTMIG_v3.4", "pdf_page": 384, "pdf_parent_section": "§7.2.1 Trial Arms (TA) – Specification", "pdf_verbatim": "| DOMAIN | Domain Abbreviation | Char | TA | Identifier | Two-character abbreviation for the domain. | Req |", "figure_ref": null, "candidates": [{"md_atom_id": "md_dmTA_ex_a240", "md_file": "knowledge_base/domains/TA/examples.md", "md_atom_type": "TABLE_ROW", "md_parent_section": "§TA.7 [Example 7]", "md_verbatim": "| 4 | EX7 | TA | 1 | CR | 4 | C | Chemo | | | CONTINUATION TREATMENT |", "score": 0.4612, "match_basis": "verbatim_token+domain_route:TA"}, {"md_atom_id": "md_dmTA_ex_a241", "md_file": "knowledge_base/domains/TA/examples.md", "md_atom_type": "TABLE_ROW", "md_parent_section": "§TA.7 [Example 7]", "md_verbatim": "| 5 | EX7 | TA | 1 | CR | 5 | C | Chemo | | | CONTINUATION TREATMENT |", "score": 0.4612, "match_basis": "verbatim_token+domain_route:TA"}, {"md_atom_id": "md_dmTA_ex_a249", "md_file": "knowledge_base/domains/TA/examples.md", "md_atom_type": "TABLE_ROW", "md_parent_section": "§TA.7 [Example 7]", "md_verbatim": "| 13 | EX7 | TA | 2 | CRS | 7 | C | Chemo | | | CONTINUATION TREATMENT |", "score": 0.46, "match_basis": "verbatim_token+domain_route:TA"}, {"md_atom_id": "md_dmTA_ex_a250", "md_file": "knowledge_base/domains/TA/examples.md", "md_atom_type": "TABLE_ROW", "md_parent_section": "§TA.7 [Example 7]", "md_verbatim": "| 14 | EX7 | TA | 2 | CRS | 8 | C | Chemo | | | CONTINUATION TREATMENT |", "score": 0.46, "match_basis": "verbatim_token+domain_route:TA"}, {"md_atom_id": "md_dmTA_ex_a246", "md_file": "knowledge_base/domains/TA/examples.md", "md_atom_type": "TABLE_ROW", "md_parent_section": "§TA.7 [Example 7]", "md_verbatim": "| 10 | EX7 | TA | 2 | CRS | 4 | R3 | 3-5 week rest | | | CONTINUATION TREATMENT |", "score": 0.4588, "match_basis": "verbatim_token+domain_route:TA"}], "candidate_count": 5, "zero_candidate": false}
{"pdf_atom_id": "ig34_p0385_a001", "pdf_atom_type": "TABLE_ROW", "pdf_source": "SDTMIG_v3.4", "pdf_page": 385, "pdf_parent_section": "§7.2.1 Trial Arms (TA) – Specification", "pdf_verbatim": "| ARMCD | Planned Arm Code | Char | * | Topic | ARMCD is limited to 20 characters and does not have special character restrictions. The maximum length of ARMCD is longer than that for other \"short\" variables to accommodate the kind of values that are likely to be needed for crossover trials. For example, if ARMCD values for a 7-period crossover trial were constructed using 2-character abbreviations for each treatment and separating hyphens, the length of ARMCD values would be 20. | Req |", "figure_ref": null, "candidates": [{"md_atom_id": "md_dmTA_ex_a245", "md_file": "knowledge_base/domains/TA/examples.md", "md_atom_type": "TABLE_ROW", "md_parent_section": "§TA.7 [Example 7]", "md_verbatim": "| 9 | EX7 | TA | 2 | CRS | 3 | CRS | Chemo+RT (Surgery) | | If progression, skip to Follow-up. If no progression, but subject is ineligible for or does not consent to surgery, skip to Chemo. | INDUCTION TREATMENT |", "score": 0.4636, "match_basis": "verbatim_token+domain_route:TA"}, {"md_atom_id": "md_dmTA_ex_a106", "md_file": "knowledge_base/domains/TA/examples.md", "md_atom_type": "TABLE_ROW", "md_parent_section": "§TA.3 [Example 3]", "md_verbatim": "| 5 | EX3 | TA | AR | A-Rescue | 2 | DBA | Treatment A | Assigned to Rescue on basis of response evaluation | | BLINDED TREATMENT |", "score": 0.456, "match_basis": "verbatim_token+domain_route:TA"}, {"md_atom_id": "md_dmTA_ex_a112", "md_file": "knowledge_base/domains/TA/examples.md", "md_atom_type": "TABLE_ROW", "md_parent_section": "§TA.3 [Example 3]", "md_verbatim": "| 11 | EX3 | TA | BR | B-Rescue | 2 | DBB | Treatment B | Assigned to Rescue on basis of response evaluation | | BLINDED TREATMENT |", "score": 0.456, "match_basis": "verbatim_token+domain_route:TA"}, {"md_atom_id": "md_dmTA_ex_a103", "md_file": "knowledge_base/domains/TA/examples.md", "md_atom_type": "TABLE_ROW", "md_parent_section": "§TA.3 [Example 3]", "md_verbatim": "| 2 | EX3 | TA | AA | A-Open A | 2 | DBA | Treatment A | Assigned to Open Drug A on basis of response evaluation | | BLINDED TREATMENT |", "score": 0.4557, "match_basis": "verbatim_token+domain_route:TA"}, {"md_atom_id": "md_dmTA_ex_a109", "md_file": "knowledge_base/domains/TA/examples.md", "md_atom_type": "TABLE_ROW", "md_parent_section": "§TA.3 [Example 3]", "md_verbatim": "| 8 | EX3 | TA | BA | B-Open A | 2 | DBB | Treatment B | Assigned to Open Drug A on basis of response evaluation | | BLINDED TREATMENT |", "score": 0.4557, "match_basis": "verbatim_token+domain_route:TA"}], "candidate_count": 5, "zero_candidate": false}
{"pdf_atom_id": "ig34_p0385_a002", "pdf_atom_type": "TABLE_ROW", "pdf_source": "SDTMIG_v3.4", "pdf_page": 385, "pdf_parent_section": "§7.2.1 Trial Arms (TA) – Specification", "pdf_verbatim": "| ARM | Description of Planned Arm | Char | * | Synonym Qualifier | Name given to an arm or treatment group. | Req |", "figure_ref": null, "candidates": [{"md_atom_id": "md_dmTA_ex_a097", "md_file": "knowledge_base/domains/TA/examples.md", "md_atom_type": "TABLE_ROW", "md_parent_section": "§TA.3 [Example 3]", "md_verbatim": "| **A-Rescue** | Screen | Treatment A | Rescue |", "score": 0.5059, "match_basis": "verbatim_token+domain_route:TA"}, {"md_atom_id": "md_dmTA_ex_a099", "md_file": "knowledge_base/domains/TA/examples.md", "md_atom_type": "TABLE_ROW", "md_parent_section": "§TA.3 [Example 3]", "md_verbatim": "| **B-Rescue** | Screen | Treatment B | Rescue |", "score": 0.5059, "match_basis": "verbatim_token+domain_route:TA"}, {"md_atom_id": "md_dmTA_ex_a034", "md_file": "knowledge_base/domains/TA/examples.md", "md_atom_type": "TABLE_ROW", "md_parent_section": "§TA.1 [Example 1]", "md_verbatim": "| 3 | EX1 | TA | P | Placebo | 3 | P | Placebo | | | TREATMENT |", "score": 0.496, "match_basis": "verbatim_token+domain_route:TA"}, {"md_atom_id": "md_dmTA_ex_a240", "md_file": "knowledge_base/domains/TA/examples.md", "md_atom_type": "TABLE_ROW", "md_parent_section": "§TA.7 [Example 7]", "md_verbatim": "| 4 | EX7 | TA | 1 | CR | 4 | C | Chemo | | | CONTINUATION TREATMENT |", "score": 0.4947, "match_basis": "verbatim_token+domain_route:TA"}, {"md_atom_id": "md_dmTA_ex_a241", "md_file": "knowledge_base/domains/TA/examples.md", "md_atom_type": "TABLE_ROW", "md_parent_section": "§TA.7 [Example 7]", "md_verbatim": "| 5 | EX7 | TA | 1 | CR | 5 | C | Chemo | | | CONTINUATION TREATMENT |", "score": 0.4947, "match_basis": "verbatim_token+domain_route:TA"}], "candidate_count": 5, "zero_candidate": false}
{"pdf_atom_id": "ig34_p0385_a003", "pdf_atom_type": "TABLE_ROW", "pdf_source": "SDTMIG_v3.4", "pdf_page": 385, "pdf_parent_section": "§7.2.1 Trial Arms (TA) – Specification", "pdf_verbatim": "| TAETORD | Planned Order of Element within Arm | Num | | Timing | Number that gives the order of the element within the arm. | Req |", "figure_ref": null, "candidates": [{"md_atom_id": "md_dmTA_ex_a031", "md_file": "knowledge_base/domains/TA/examples.md", "md_atom_type": "TABLE_HEADER", "md_parent_section": "§TA.1 [Example 1]", "md_verbatim": "| Row | STUDYID | DOMAIN | ARMCD | ARM | TAETORD | ETCD | ELEMENT | TABRANCH | TATRANS | EPOCH |\n|-----|---------|--------|-------|-----|---------|------|---------|----------|---------|-------|", "score": 0.4431, "match_basis": "verbatim_token+domain_route:TA"}, {"md_atom_id": "md_dmTA_ex_a059", "md_file": "knowledge_base/domains/TA/examples.md", "md_atom_type": "TABLE_HEADER", "md_parent_section": "§TA.2 [Example 2]", "md_verbatim": "| Row | STUDYID | DOMAIN | ARMCD | ARM | TAETORD | ETCD | ELEMENT | TABRANCH | TATRANS | EPOCH |\n|-----|---------|--------|-------|-----|---------|------|---------|----------|---------|-------|", "score": 0.4431, "match_basis": "verbatim_token+domain_route:TA"}, {"md_atom_id": "md_dmTA_ex_a101", "md_file": "knowledge_base/domains/TA/examples.md", "md_atom_type": "TABLE_HEADER", "md_parent_section": "§TA.3 [Example 3]", "md_verbatim": "| Row | STUDYID | DOMAIN | ARMCD | ARM | TAETORD | ETCD | ELEMENT | TABRANCH | TATRANS | EPOCH |\n|-----|---------|--------|-------|-----|---------|------|---------|----------|---------|-------|", "score": 0.4431, "match_basis": "verbatim_token+domain_route:TA"}, {"md_atom_id": "md_dmTA_ex_a134", "md_file": "knowledge_base/domains/TA/examples.md", "md_atom_type": "TABLE_HEADER", "md_parent_section": "§TA.4 [Example 4]", "md_verbatim": "| Row | STUDYID | DOMAIN | ARMCD | ARM | TAETORD | ETCD | ELEMENT | TABRANCH | TATRANS | EPOCH |\n|-----|---------|--------|-------|-----|---------|------|---------|----------|---------|-------|", "score": 0.4431, "match_basis": "verbatim_token+domain_route:TA"}, {"md_atom_id": "md_dmTA_ex_a168", "md_file": "knowledge_base/domains/TA/examples.md", "md_atom_type": "TABLE_HEADER", "md_parent_section": "§TA.5 [Example 5]", "md_verbatim": "| Row | STUDYID | DOMAIN | ARMCD | ARM | TAETORD | ETCD | ELEMENT | TABRANCH | TATRANS | EPOCH |\n|-----|---------|--------|-------|-----|---------|------|---------|----------|---------|-------|", "score": 0.4431, "match_basis": "verbatim_token+domain_route:TA"}], "candidate_count": 5, "zero_candidate": false}
{"pdf_atom_id": "ig34_p0385_a004", "pdf_atom_type": "TABLE_ROW", "pdf_source": "SDTMIG_v3.4", "pdf_page": 385, "pdf_parent_section": "§7.2.1 Trial Arms (TA) – Specification", "pdf_verbatim": "| ETCD | Element Code | Char | * | Record Qualifier | ETCD (the companion to ELEMENT) is limited to 8 characters and does not have special character restrictions. These values should be short for ease of use in programming, but it is not expected that ETCD will need to serve as a variable name. | Req |", "figure_ref": null, "candidates": [{"md_atom_id": "md_dmTA_ex_a245", "md_file": "knowledge_base/domains/TA/examples.md", "md_atom_type": "TABLE_ROW", "md_parent_section": "§TA.7 [Example 7]", "md_verbatim": "| 9 | EX7 | TA | 2 | CRS | 3 | CRS | Chemo+RT (Surgery) | | If progression, skip to Follow-up. If no progression, but subject is ineligible for or does not consent to surgery, skip to Chemo. | INDUCTION TREATMENT |", "score": 0.4675, "match_basis": "verbatim_token+domain_route:TA"}, {"md_atom_id": "md_dmTA_ex_a137", "md_file": "knowledge_base/domains/TA/examples.md", "md_atom_type": "TABLE_ROW", "md_parent_section": "§TA.4 [Example 4]", "md_verbatim": "| 3 | EX4 | TA | A | A | 3 | REST | Rest | | If disease progression, go to Follow-up Epoch | TREATMENT |", "score": 0.4469, "match_basis": "verbatim_token+domain_route:TA"}, {"md_atom_id": "md_dmTA_ex_a139", "md_file": "knowledge_base/domains/TA/examples.md", "md_atom_type": "TABLE_ROW", "md_parent_section": "§TA.4 [Example 4]", "md_verbatim": "| 5 | EX4 | TA | A | A | 5 | REST | Rest | | If disease progression, go to Follow-up Epoch | TREATMENT |", "score": 0.4469, "match_basis": "verbatim_token+domain_route:TA"}, {"md_atom_id": "md_dmTA_ex_a141", "md_file": "knowledge_base/domains/TA/examples.md", "md_atom_type": "TABLE_ROW", "md_parent_section": "§TA.4 [Example 4]", "md_verbatim": "| 7 | EX4 | TA | A | A | 7 | REST | Rest | | If disease progression, go to Follow-up Epoch | TREATMENT |", "score": 0.4469, "match_basis": "verbatim_token+domain_route:TA"}, {"md_atom_id": "md_dmTA_ex_a147", "md_file": "knowledge_base/domains/TA/examples.md", "md_atom_type": "TABLE_ROW", "md_parent_section": "§TA.4 [Example 4]", "md_verbatim": "| 13 | EX4 | TA | B | B | 3 | REST | Rest | | If disease progression, go to Follow-up Epoch | TREATMENT |", "score": 0.4469, "match_basis": "verbatim_token+domain_route:TA"}], "candidate_count": 5, "zero_candidate": false}
{"pdf_atom_id": "ig34_p0385_a005", "pdf_atom_type": "TABLE_ROW", "pdf_source": "SDTMIG_v3.4", "pdf_page": 385, "pdf_parent_section": "§7.2.1 Trial Arms (TA) – Specification", "pdf_verbatim": "| ELEMENT | Description of Element | Char | * | Synonym Qualifier | The name of the element. The same element may occur more than once within an arm. | Perm |", "figure_ref": null, "candidates": [{"md_atom_id": "md_dmTA_ex_a097", "md_file": "knowledge_base/domains/TA/examples.md", "md_atom_type": "TABLE_ROW", "md_parent_section": "§TA.3 [Example 3]", "md_verbatim": "| **A-Rescue** | Screen | Treatment A | Rescue |", "score": 0.44, "match_basis": "verbatim_token+domain_route:TA"}, {"md_atom_id": "md_dmTA_ex_a099", "md_file": "knowledge_base/domains/TA/examples.md", "md_atom_type": "TABLE_ROW", "md_parent_section": "§TA.3 [Example 3]", "md_verbatim": "| **B-Rescue** | Screen | Treatment B | Rescue |", "score": 0.44, "match_basis": "verbatim_token+domain_route:TA"}, {"md_atom_id": "md_dmTA_ex_a240", "md_file": "knowledge_base/domains/TA/examples.md", "md_atom_type": "TABLE_ROW", "md_parent_section": "§TA.7 [Example 7]", "md_verbatim": "| 4 | EX7 | TA | 1 | CR | 4 | C | Chemo | | | CONTINUATION TREATMENT |", "score": 0.4364, "match_basis": "verbatim_token+domain_route:TA"}, {"md_atom_id": "md_dmTA_ex_a241", "md_file": "knowledge_base/domains/TA/examples.md", "md_atom_type": "TABLE_ROW", "md_parent_section": "§TA.7 [Example 7]", "md_verbatim": "| 5 | EX7 | TA | 1 | CR | 5 | C | Chemo | | | CONTINUATION TREATMENT |", "score": 0.4364, "match_basis": "verbatim_token+domain_route:TA"}, {"md_atom_id": "md_dmTA_ex_a249", "md_file": "knowledge_base/domains/TA/examples.md", "md_atom_type": "TABLE_ROW", "md_parent_section": "§TA.7 [Example 7]", "md_verbatim": "| 13 | EX7 | TA | 2 | CRS | 7 | C | Chemo | | | CONTINUATION TREATMENT |", "score": 0.4358, "match_basis": "verbatim_token+domain_route:TA"}], "candidate_count": 5, "zero_candidate": false}
{"pdf_atom_id": "ig34_p0385_a006", "pdf_atom_type": "TABLE_ROW", "pdf_source": "SDTMIG_v3.4", "pdf_page": 385, "pdf_parent_section": "§7.2.1 Trial Arms (TA) – Specification", "pdf_verbatim": "| TABRANCH | Branch | Char | | Rule | Condition subject met, at a \"branch\" in the trial design at the end of this element, to be included in this arm (e.g., \"Randomization to DRUG X\"). | Exp |", "figure_ref": null, "candidates": [{"md_atom_id": "md_dmTA_ex_a036", "md_file": "knowledge_base/domains/TA/examples.md", "md_atom_type": "TABLE_ROW", "md_parent_section": "§TA.1 [Example 1]", "md_verbatim": "| 5 | EX1 | TA | A | A | 2 | RI | Run-In | Randomized to Drug A | | RUN-IN |", "score": 0.4787, "match_basis": "verbatim_token+domain_route:TA"}, {"md_atom_id": "md_dmTA_ex_a039", "md_file": "knowledge_base/domains/TA/examples.md", "md_atom_type": "TABLE_ROW", "md_parent_section": "§TA.1 [Example 1]", "md_verbatim": "| 8 | EX1 | TA | B | B | 2 | RI | Run-In | Randomized to Drug B | | RUN-IN |", "score": 0.4787, "match_basis": "verbatim_token+domain_route:TA"}, {"md_atom_id": "md_dmTA_ex_a103", "md_file": "knowledge_base/domains/TA/examples.md", "md_atom_type": "TABLE_ROW", "md_parent_section": "§TA.3 [Example 3]", "md_verbatim": "| 2 | EX3 | TA | AA | A-Open A | 2 | DBA | Treatment A | Assigned to Open Drug A on basis of response evaluation | | BLINDED TREATMENT |", "score": 0.4682, "match_basis": "verbatim_token+domain_route:TA"}, {"md_atom_id": "md_dmTA_ex_a109", "md_file": "knowledge_base/domains/TA/examples.md", "md_atom_type": "TABLE_ROW", "md_parent_section": "§TA.3 [Example 3]", "md_verbatim": "| 8 | EX3 | TA | BA | B-Open A | 2 | DBB | Treatment B | Assigned to Open Drug A on basis of response evaluation | | BLINDED TREATMENT |", "score": 0.4682, "match_basis": "verbatim_token+domain_route:TA"}, {"md_atom_id": "md_dmTA_ex_a102", "md_file": "knowledge_base/domains/TA/examples.md", "md_atom_type": "TABLE_ROW", "md_parent_section": "§TA.3 [Example 3]", "md_verbatim": "| 1 | EX3 | TA | AA | A-Open A | 1 | SCRN | Screen | Randomized to Treatment A | | SCREENING |", "score": 0.464, "match_basis": "verbatim_token+domain_route:TA"}], "candidate_count": 5, "zero_candidate": false}
{"pdf_atom_id": "ig34_p0385_a007", "pdf_atom_type": "TABLE_ROW", "pdf_source": "SDTMIG_v3.4", "pdf_page": 385, "pdf_parent_section": "§7.2.1 Trial Arms (TA) – Specification", "pdf_verbatim": "| TATRANS | Transition Rule | Char | | Rule | If the trial design allows a subject to transition to an element other than the next element in sequence, then the conditions for transitioning to those other elements, and the alternative element sequences, are specified in this rule (e.g., \"Responders go to washout\"). | Exp |", "figure_ref": null, "candidates": [{"md_atom_id": "md_dmTA_ex_a245", "md_file": "knowledge_base/domains/TA/examples.md", "md_atom_type": "TABLE_ROW", "md_parent_section": "§TA.7 [Example 7]", "md_verbatim": "| 9 | EX7 | TA | 2 | CRS | 3 | CRS | Chemo+RT (Surgery) | | If progression, skip to Follow-up. If no progression, but subject is ineligible for or does not consent to surgery, skip to Chemo. | INDUCTION TREATMENT |", "score": 0.4638, "match_basis": "verbatim_token+domain_route:TA"}, {"md_atom_id": "md_dmTA_ex_a106", "md_file": "knowledge_base/domains/TA/examples.md", "md_atom_type": "TABLE_ROW", "md_parent_section": "§TA.3 [Example 3]", "md_verbatim": "| 5 | EX3 | TA | AR | A-Rescue | 2 | DBA | Treatment A | Assigned to Rescue on basis of response evaluation | | BLINDED TREATMENT |", "score": 0.4634, "match_basis": "verbatim_token+domain_route:TA"}, {"md_atom_id": "md_dmTA_ex_a112", "md_file": "knowledge_base/domains/TA/examples.md", "md_atom_type": "TABLE_ROW", "md_parent_section": "§TA.3 [Example 3]", "md_verbatim": "| 11 | EX3 | TA | BR | B-Rescue | 2 | DBB | Treatment B | Assigned to Rescue on basis of response evaluation | | BLINDED TREATMENT |", "score": 0.4634, "match_basis": "verbatim_token+domain_route:TA"}, {"md_atom_id": "md_dmTA_ex_a103", "md_file": "knowledge_base/domains/TA/examples.md", "md_atom_type": "TABLE_ROW", "md_parent_section": "§TA.3 [Example 3]", "md_verbatim": "| 2 | EX3 | TA | AA | A-Open A | 2 | DBA | Treatment A | Assigned to Open Drug A on basis of response evaluation | | BLINDED TREATMENT |", "score": 0.4629, "match_basis": "verbatim_token+domain_route:TA"}, {"md_atom_id": "md_dmTA_ex_a109", "md_file": "knowledge_base/domains/TA/examples.md", "md_atom_type": "TABLE_ROW", "md_parent_section": "§TA.3 [Example 3]", "md_verbatim": "| 8 | EX3 | TA | BA | B-Open A | 2 | DBB | Treatment B | Assigned to Open Drug A on basis of response evaluation | | BLINDED TREATMENT |", "score": 0.4629, "match_basis": "verbatim_token+domain_route:TA"}], "candidate_count": 5, "zero_candidate": false}
{"pdf_atom_id": "ig34_p0385_a008", "pdf_atom_type": "TABLE_ROW", "pdf_source": "SDTMIG_v3.4", "pdf_page": 385, "pdf_parent_section": "§7.2.1 Trial Arms (TA) – Specification", "pdf_verbatim": "| EPOCH | Epoch | Char | (EPOCH) | Timing | Name of the trial epoch with which this element of the arm is associated. | Req |", "figure_ref": null, "candidates": [{"md_atom_id": "md_dmTA_ex_a137", "md_file": "knowledge_base/domains/TA/examples.md", "md_atom_type": "TABLE_ROW", "md_parent_section": "§TA.4 [Example 4]", "md_verbatim": "| 3 | EX4 | TA | A | A | 3 | REST | Rest | | If disease progression, go to Follow-up Epoch | TREATMENT |", "score": 0.4484, "match_basis": "verbatim_token+domain_route:TA"}, {"md_atom_id": "md_dmTA_ex_a139", "md_file": "knowledge_base/domains/TA/examples.md", "md_atom_type": "TABLE_ROW", "md_parent_section": "§TA.4 [Example 4]", "md_verbatim": "| 5 | EX4 | TA | A | A | 5 | REST | Rest | | If disease progression, go to Follow-up Epoch | TREATMENT |", "score": 0.4484, "match_basis": "verbatim_token+domain_route:TA"}, {"md_atom_id": "md_dmTA_ex_a141", "md_file": "knowledge_base/domains/TA/examples.md", "md_atom_type": "TABLE_ROW", "md_parent_section": "§TA.4 [Example 4]", "md_verbatim": "| 7 | EX4 | TA | A | A | 7 | REST | Rest | | If disease progression, go to Follow-up Epoch | TREATMENT |", "score": 0.4484, "match_basis": "verbatim_token+domain_route:TA"}, {"md_atom_id": "md_dmTA_ex_a147", "md_file": "knowledge_base/domains/TA/examples.md", "md_atom_type": "TABLE_ROW", "md_parent_section": "§TA.4 [Example 4]", "md_verbatim": "| 13 | EX4 | TA | B | B | 3 | REST | Rest | | If disease progression, go to Follow-up Epoch | TREATMENT |", "score": 0.4484, "match_basis": "verbatim_token+domain_route:TA"}, {"md_atom_id": "md_dmTA_ex_a149", "md_file": "knowledge_base/domains/TA/examples.md", "md_atom_type": "TABLE_ROW", "md_parent_section": "§TA.4 [Example 4]", "md_verbatim": "| 15 | EX4 | TA | B | B | 5 | REST | Rest | | If disease progression, go to Follow-up Epoch | TREATMENT |", "score": 0.4484, "match_basis": "verbatim_token+domain_route:TA"}], "candidate_count": 5, "zero_candidate": false}
{"pdf_atom_id": "ig34_p0385_a009", "pdf_atom_type": "NOTE", "pdf_source": "SDTMIG_v3.4", "pdf_page": 385, "pdf_parent_section": "§7.2.1 Trial Arms (TA) – Specification", "pdf_verbatim": "1In this column, an asterisk (*) indicates that the variable may be subject to controlled terminology. CDISC/NCI codelist values are enclosed in parentheses.", "figure_ref": null, "candidates": [{"md_atom_id": "md_dmTA_ex_a227", "md_file": "knowledge_base/domains/TA/examples.md", "md_atom_type": "NOTE", "md_parent_section": "§TA.7 [Example 7]", "md_verbatim": "> *Disease evaluation earlier, **Disease evaluation later", "score": 0.4316, "match_basis": "verbatim_token+domain_route:TA"}, {"md_atom_id": "md_dmTA_ex_a272", "md_file": "knowledge_base/domains/TA/examples.md", "md_atom_type": "SENTENCE", "md_parent_section": "§TA.8.4 [Rule Variables]", "md_verbatim": "At the moment, values of Rule variables are text.", "score": 0.3997, "match_basis": "verbatim_token+domain_route:TA"}, {"md_atom_id": "md_dmTA_ex_a271", "md_file": "knowledge_base/domains/TA/examples.md", "md_atom_type": "SENTENCE", "md_parent_section": "§TA.8.4 [Rule Variables]", "md_verbatim": "The values of a Rule variable describe conditions under which something is planned to happen.", "score": 0.3837, "match_basis": "verbatim_token+domain_route:TA"}, {"md_atom_id": "md_dmTA_ex_a270", "md_file": "knowledge_base/domains/TA/examples.md", "md_atom_type": "SENTENCE", "md_parent_section": "§TA.8.4 [Rule Variables]", "md_verbatim": "The Branch and Transition columns shown in the example tables are variables with a Role of \"Rule.\"", "score": 0.3829, "match_basis": "verbatim_token+domain_route:TA"}, {"md_atom_id": "md_dmTA_assn_a013", "md_file": "knowledge_base/domains/TA/assumptions.md", "md_atom_type": "LIST_ITEM", "md_parent_section": "§TA [TA — Assumptions]", "md_verbatim": "    a. When a study design includes multiple epochs with the same purpose (e.g., multiple similar treatment epochs), it is recommended that the EPOCH values be terms from controlled terminology, but with numbers appended. For example, multiple treatment epochs could be represented using \"TREATMENT 1\", \"TREATMENT 2\", and so on. Because the codelist is extensible, this convention allows multiple similar epochs to be represented without adding numbered terms to the CDISC Controlled Terminology for epoch. The inclusion of multiple numbered terms in the EPOCH codelist is not considered to add value.", "score": 0.3718, "match_basis": "verbatim_token+domain_route:TA"}], "candidate_count": 5, "zero_candidate": false}
{"pdf_atom_id": "ig34_p0385_a010", "pdf_atom_type": "HEADING", "pdf_source": "SDTMIG_v3.4", "pdf_page": 385, "pdf_parent_section": "§7.2.1 Trial Arms (TA)", "pdf_verbatim": "TA – Assumptions", "figure_ref": null, "candidates": [{"md_atom_id": "md_dmTA_assn_a001", "md_file": "knowledge_base/domains/TA/assumptions.md", "md_atom_type": "HEADING", "md_parent_section": "§TA [TA — Assumptions]", "md_verbatim": "# TA — Assumptions", "score": 1.0, "match_basis": "verbatim_token+domain_route:TA"}, {"md_atom_id": "md_dmTA_ex_a253", "md_file": "knowledge_base/domains/TA/examples.md", "md_atom_type": "HEADING", "md_parent_section": "§TA.8 [Trial Arms Issues]", "md_verbatim": "### Distinguishing Between Branches and Transitions", "score": 0.4486, "match_basis": "verbatim_token+domain_route:TA"}, {"md_atom_id": "md_dmTA_ex_a252", "md_file": "knowledge_base/domains/TA/examples.md", "md_atom_type": "HEADING", "md_parent_section": "§TA [TA — Examples]", "md_verbatim": "## Trial Arms Issues", "score": 0.4353, "match_basis": "verbatim_token+domain_route:TA"}, {"md_atom_id": "md_dmTA_ex_a260", "md_file": "knowledge_base/domains/TA/examples.md", "md_atom_type": "HEADING", "md_parent_section": "§TA.8 [Trial Arms Issues]", "md_verbatim": "### Subjects Not Assigned to an Arm", "score": 0.4273, "match_basis": "verbatim_token+domain_route:TA"}, {"md_atom_id": "md_dmTA_ex_a001", "md_file": "knowledge_base/domains/TA/examples.md", "md_atom_type": "HEADING", "md_parent_section": "§TA [TA — Examples]", "md_verbatim": "# TA — Examples", "score": 0.4, "match_basis": "verbatim_token+domain_route:TA"}], "candidate_count": 5, "zero_candidate": false}
{"pdf_atom_id": "ig34_p0385_a011", "pdf_atom_type": "LIST_ITEM", "pdf_source": "SDTMIG_v3.4", "pdf_page": 385, "pdf_parent_section": "§7.2.1 Trial Arms (TA) – Assumptions", "pdf_verbatim": "TAETORD is an integer. In general, the value of TAETORD is 1 for the first element in each arm, 2 for the second element in each arm, and so on. Occasionally, it may be convenient to skip some values (see Example Trial 6). Although the values of TAETORD need not always be sequential, their order must always be the correct order for the elements in the arm path.", "figure_ref": null, "candidates": [{"md_atom_id": "md_dmTA_assn_a003", "md_file": "knowledge_base/domains/TA/assumptions.md", "md_atom_type": "LIST_ITEM", "md_parent_section": "§TA [TA — Assumptions]", "md_verbatim": "1. TAETORD is an integer. In general, the value of TAETORD is 1 for the first element in each arm, 2 for the second element in each arm, and so on. Occasionally, it may be convenient to skip some values (see Example Trial 6). Although the values of TAETORD need not always be sequential, their order must always be the correct order for the elements in the arm path.", "score": 1.0, "match_basis": "verbatim_token+domain_route:TA"}, {"md_atom_id": "md_dmTA_assn_a008", "md_file": "knowledge_base/domains/TA/assumptions.md", "md_atom_type": "LIST_ITEM", "md_parent_section": "§TA [TA — Assumptions]", "md_verbatim": "6. Some trials include multiple paths that are closely enough related so that they are all considered to belong to 1 arm. In general, this set of paths will include a \"complete\" path along with shorter paths that skip some elements. The sequence of elements represented in the trial arms should be the complete, longest path. TATRANS describes the decision points that may lead to a shortened path within the arm.", "score": 0.5219, "match_basis": "verbatim_token+domain_route:TA"}, {"md_atom_id": "md_dmTA_assn_a004", "md_file": "knowledge_base/domains/TA/assumptions.md", "md_atom_type": "LIST_ITEM", "md_parent_section": "§TA [TA — Assumptions]", "md_verbatim": "2. Elements in different arms with the same value of TAETORD may or may not be at the same time, depending on the design of the trial. The example trials illustrate a variety of possible situations. The same element may occur more than once within an arm.", "score": 0.5088, "match_basis": "verbatim_token+domain_route:TA"}, {"md_atom_id": "md_dmTA_assn_a011", "md_file": "knowledge_base/domains/TA/assumptions.md", "md_atom_type": "LIST_ITEM", "md_parent_section": "§TA [TA — Assumptions]", "md_verbatim": "9. EPOCH should be assigned in such a way that elements from different arms with the same value of EPOCH are \"comparable\" in some sense. The degree of similarity of epochs across arms varies considerably in different trials, as illustrated in the examples.", "score": 0.492, "match_basis": "verbatim_token+domain_route:TA"}, {"md_atom_id": "md_dmTA_assn_a009", "md_file": "knowledge_base/domains/TA/assumptions.md", "md_atom_type": "LIST_ITEM", "md_parent_section": "§TA [TA — Assumptions]", "md_verbatim": "7. If an element does not end with a decision that could lead to a shortened path within the arm, then TATRANS will be blank. If there is such a decision, TATRANS will be in a form like, \"If condition X is true, then go to epoch Y\" or \"If condition X is true, then go to element with TAETORD = 'Z'\".", "score": 0.4834, "match_basis": "verbatim_token+domain_route:TA"}], "candidate_count": 5, "zero_candidate": false}
{"pdf_atom_id": "ig34_p0385_a012", "pdf_atom_type": "LIST_ITEM", "pdf_source": "SDTMIG_v3.4", "pdf_page": 385, "pdf_parent_section": "§7.2.1 Trial Arms (TA) – Assumptions", "pdf_verbatim": "Elements in different arms with the same value of TAETORD may or may not be at the same time, depending on the design of the trial. The example trials illustrate a variety of possible situations. The same element may occur more than once within an arm.", "figure_ref": null, "candidates": [{"md_atom_id": "md_dmTA_assn_a004", "md_file": "knowledge_base/domains/TA/assumptions.md", "md_atom_type": "LIST_ITEM", "md_parent_section": "§TA [TA — Assumptions]", "md_verbatim": "2. Elements in different arms with the same value of TAETORD may or may not be at the same time, depending on the design of the trial. The example trials illustrate a variety of possible situations. The same element may occur more than once within an arm.", "score": 1.0, "match_basis": "verbatim_token+domain_route:TA"}, {"md_atom_id": "md_dmTA_assn_a011", "md_file": "knowledge_base/domains/TA/assumptions.md", "md_atom_type": "LIST_ITEM", "md_parent_section": "§TA [TA — Assumptions]", "md_verbatim": "9. EPOCH should be assigned in such a way that elements from different arms with the same value of EPOCH are \"comparable\" in some sense. The degree of similarity of epochs across arms varies considerably in different trials, as illustrated in the examples.", "score": 0.6056, "match_basis": "verbatim_token+domain_route:TA"}, {"md_atom_id": "md_dmTA_assn_a016", "md_file": "knowledge_base/domains/TA/assumptions.md", "md_atom_type": "LIST_ITEM", "md_parent_section": "§TA [TA — Assumptions]", "md_verbatim": "12. EPOCH may be used as a timing variable in other datasets, such as Exposure (EX) and Disposition (DS), and values of EPOCH must be different for different epochs. For instance, in a crossover trial with 3 treatment epochs, each must be given a distinct name; all 3 cannot be called \"TREATMENT\".", "score": 0.5223, "match_basis": "verbatim_token+domain_route:TA"}, {"md_atom_id": "md_dmTA_assn_a009", "md_file": "knowledge_base/domains/TA/assumptions.md", "md_atom_type": "LIST_ITEM", "md_parent_section": "§TA [TA — Assumptions]", "md_verbatim": "7. If an element does not end with a decision that could lead to a shortened path within the arm, then TATRANS will be blank. If there is such a decision, TATRANS will be in a form like, \"If condition X is true, then go to epoch Y\" or \"If condition X is true, then go to element with TAETORD = 'Z'\".", "score": 0.5103, "match_basis": "verbatim_token+domain_route:TA"}, {"md_atom_id": "md_dmTA_assn_a003", "md_file": "knowledge_base/domains/TA/assumptions.md", "md_atom_type": "LIST_ITEM", "md_parent_section": "§TA [TA — Assumptions]", "md_verbatim": "1. TAETORD is an integer. In general, the value of TAETORD is 1 for the first element in each arm, 2 for the second element in each arm, and so on. Occasionally, it may be convenient to skip some values (see Example Trial 6). Although the values of TAETORD need not always be sequential, their order must always be the correct order for the elements in the arm path.", "score": 0.5088, "match_basis": "verbatim_token+domain_route:TA"}], "candidate_count": 5, "zero_candidate": false}
{"pdf_atom_id": "ig34_p0385_a013", "pdf_atom_type": "LIST_ITEM", "pdf_source": "SDTMIG_v3.4", "pdf_page": 385, "pdf_parent_section": "§7.2.1 Trial Arms (TA) – Assumptions", "pdf_verbatim": "TABRANCH describes the outcome of a branch decision point in the trial design for subjects in the arm. A branch decision point takes place between epochs, and is associated with the element that ends at the decision point. For instance, if subjects are assigned to an arm where they receive treatment A through a randomization at the end of element X, the value of TABRANCH for element X would be \"Randomized to A.\"", "figure_ref": null, "candidates": [{"md_atom_id": "md_dmTA_assn_a005", "md_file": "knowledge_base/domains/TA/assumptions.md", "md_atom_type": "LIST_ITEM", "md_parent_section": "§TA [TA — Assumptions]", "md_verbatim": "3. TABRANCH describes the outcome of a branch decision point in the trial design for subjects in the arm. A branch decision point takes place between epochs, and is associated with the element that ends at the decision point. For instance, if subjects are assigned to an arm where they receive treatment A through a randomization at the end of element X, the value of TABRANCH for element X would be \"Randomized to A.\"", "score": 1.0, "match_basis": "verbatim_token+domain_route:TA"}, {"md_atom_id": "md_dmTA_assn_a007", "md_file": "knowledge_base/domains/TA/assumptions.md", "md_atom_type": "LIST_ITEM", "md_parent_section": "§TA [TA — Assumptions]", "md_verbatim": "5. There is usually some gap in time between the performance of a randomization and the start of randomized treatment. However, in many trials this gap in time is small and it is highly unlikely that subjects will leave the trial between randomization and treatment. In these circumstances, the trial does not need to be modeled with this time period between randomization and start of treatment as a separate element.", "score": 0.5611, "match_basis": "verbatim_token+domain_route:TA"}, {"md_atom_id": "md_dmTA_assn_a008", "md_file": "knowledge_base/domains/TA/assumptions.md", "md_atom_type": "LIST_ITEM", "md_parent_section": "§TA [TA — Assumptions]", "md_verbatim": "6. Some trials include multiple paths that are closely enough related so that they are all considered to belong to 1 arm. In general, this set of paths will include a \"complete\" path along with shorter paths that skip some elements. The sequence of elements represented in the trial arms should be the complete, longest path. TATRANS describes the decision points that may lead to a shortened path within the arm.", "score": 0.5269, "match_basis": "verbatim_token+domain_route:TA"}, {"md_atom_id": "md_dmTA_assn_a006", "md_file": "knowledge_base/domains/TA/assumptions.md", "md_atom_type": "LIST_ITEM", "md_parent_section": "§TA [TA — Assumptions]", "md_verbatim": "4. Branch decision points may be based on decision processes other than randomizations (e.g., clinical evaluations of disease response, subject choice).", "score": 0.5215, "match_basis": "verbatim_token+domain_route:TA"}, {"md_atom_id": "md_dmTA_assn_a010", "md_file": "knowledge_base/domains/TA/assumptions.md", "md_atom_type": "LIST_ITEM", "md_parent_section": "§TA [TA — Assumptions]", "md_verbatim": "8. EPOCH is not strictly necessary for describing the sequence of elements in an arm path, but it is the conceptual basis for comparisons between arms and also provides a useful way to talk about what is happening in a blinded trial while it is blinded. During periods of blinded treatment, blinded participants will not know which arm and element a subject is in, but EPOCH should provide a description of the time period that does not depend on knowing arm.", "score": 0.52, "match_basis": "verbatim_token+domain_route:TA"}], "candidate_count": 5, "zero_candidate": false}
{"pdf_atom_id": "ig34_p0385_a014", "pdf_atom_type": "LIST_ITEM", "pdf_source": "SDTMIG_v3.4", "pdf_page": 385, "pdf_parent_section": "§7.2.1 Trial Arms (TA) – Assumptions", "pdf_verbatim": "Branch decision points may be based on decision processes other than randomizations (e.g., clinical evaluations of disease response, subject choice).", "figure_ref": null, "candidates": [{"md_atom_id": "md_dmTA_assn_a006", "md_file": "knowledge_base/domains/TA/assumptions.md", "md_atom_type": "LIST_ITEM", "md_parent_section": "§TA [TA — Assumptions]", "md_verbatim": "4. Branch decision points may be based on decision processes other than randomizations (e.g., clinical evaluations of disease response, subject choice).", "score": 1.0, "match_basis": "verbatim_token+domain_route:TA"}, {"md_atom_id": "md_dmTA_assn_a005", "md_file": "knowledge_base/domains/TA/assumptions.md", "md_atom_type": "LIST_ITEM", "md_parent_section": "§TA [TA — Assumptions]", "md_verbatim": "3. TABRANCH describes the outcome of a branch decision point in the trial design for subjects in the arm. A branch decision point takes place between epochs, and is associated with the element that ends at the decision point. For instance, if subjects are assigned to an arm where they receive treatment A through a randomization at the end of element X, the value of TABRANCH for element X would be \"Randomized to A.\"", "score": 0.5215, "match_basis": "verbatim_token+domain_route:TA"}, {"md_atom_id": "md_dmTA_assn_a007", "md_file": "knowledge_base/domains/TA/assumptions.md", "md_atom_type": "LIST_ITEM", "md_parent_section": "§TA [TA — Assumptions]", "md_verbatim": "5. There is usually some gap in time between the performance of a randomization and the start of randomized treatment. However, in many trials this gap in time is small and it is highly unlikely that subjects will leave the trial between randomization and treatment. In these circumstances, the trial does not need to be modeled with this time period between randomization and start of treatment as a separate element.", "score": 0.475, "match_basis": "verbatim_token+domain_route:TA"}, {"md_atom_id": "md_dmTA_ex_a082", "md_file": "knowledge_base/domains/TA/examples.md", "md_atom_type": "SENTENCE", "md_parent_section": "§TA.3 [Example 3]", "md_verbatim": "A trial with multiple branches: randomization at screening plus response evaluation after blinded treatment.", "score": 0.4586, "match_basis": "verbatim_token+domain_route:TA"}, {"md_atom_id": "md_dmTA_assn_a016", "md_file": "knowledge_base/domains/TA/assumptions.md", "md_atom_type": "LIST_ITEM", "md_parent_section": "§TA [TA — Assumptions]", "md_verbatim": "12. EPOCH may be used as a timing variable in other datasets, such as Exposure (EX) and Disposition (DS), and values of EPOCH must be different for different epochs. For instance, in a crossover trial with 3 treatment epochs, each must be given a distinct name; all 3 cannot be called \"TREATMENT\".", "score": 0.4584, "match_basis": "verbatim_token+domain_route:TA"}], "candidate_count": 5, "zero_candidate": false}
{"pdf_atom_id": "ig34_p0385_a015", "pdf_atom_type": "LIST_ITEM", "pdf_source": "SDTMIG_v3.4", "pdf_page": 385, "pdf_parent_section": "§7.2.1 Trial Arms (TA) – Assumptions", "pdf_verbatim": "There is usually some gap in time between the performance of a randomization and the start of randomized treatment. However, in many trials this gap in time is small and it is highly unlikely that subjects will leave the trial between randomization and treatment. In these circumstances, the trial does not need to be modeled with this time period between randomization and start of treatment as a separate element.", "figure_ref": null, "candidates": [{"md_atom_id": "md_dmTA_assn_a007", "md_file": "knowledge_base/domains/TA/assumptions.md", "md_atom_type": "LIST_ITEM", "md_parent_section": "§TA [TA — Assumptions]", "md_verbatim": "5. There is usually some gap in time between the performance of a randomization and the start of randomized treatment. However, in many trials this gap in time is small and it is highly unlikely that subjects will leave the trial between randomization and treatment. In these circumstances, the trial does not need to be modeled with this time period between randomization and start of treatment as a separate element.", "score": 1.0, "match_basis": "verbatim_token+domain_route:TA"}, {"md_atom_id": "md_dmTA_assn_a005", "md_file": "knowledge_base/domains/TA/assumptions.md", "md_atom_type": "LIST_ITEM", "md_parent_section": "§TA [TA — Assumptions]", "md_verbatim": "3. TABRANCH describes the outcome of a branch decision point in the trial design for subjects in the arm. A branch decision point takes place between epochs, and is associated with the element that ends at the decision point. For instance, if subjects are assigned to an arm where they receive treatment A through a randomization at the end of element X, the value of TABRANCH for element X would be \"Randomized to A.\"", "score": 0.5611, "match_basis": "verbatim_token+domain_route:TA"}, {"md_atom_id": "md_dmTA_assn_a010", "md_file": "knowledge_base/domains/TA/assumptions.md", "md_atom_type": "LIST_ITEM", "md_parent_section": "§TA [TA — Assumptions]", "md_verbatim": "8. EPOCH is not strictly necessary for describing the sequence of elements in an arm path, but it is the conceptual basis for comparisons between arms and also provides a useful way to talk about what is happening in a blinded trial while it is blinded. During periods of blinded treatment, blinded participants will not know which arm and element a subject is in, but EPOCH should provide a description of the time period that does not depend on knowing arm.", "score": 0.5237, "match_basis": "verbatim_token+domain_route:TA"}, {"md_atom_id": "md_dmTA_assn_a009", "md_file": "knowledge_base/domains/TA/assumptions.md", "md_atom_type": "LIST_ITEM", "md_parent_section": "§TA [TA — Assumptions]", "md_verbatim": "7. If an element does not end with a decision that could lead to a shortened path within the arm, then TATRANS will be blank. If there is such a decision, TATRANS will be in a form like, \"If condition X is true, then go to epoch Y\" or \"If condition X is true, then go to element with TAETORD = 'Z'\".", "score": 0.494, "match_basis": "verbatim_token+domain_route:TA"}, {"md_atom_id": "md_dmTA_assn_a016", "md_file": "knowledge_base/domains/TA/assumptions.md", "md_atom_type": "LIST_ITEM", "md_parent_section": "§TA [TA — Assumptions]", "md_verbatim": "12. EPOCH may be used as a timing variable in other datasets, such as Exposure (EX) and Disposition (DS), and values of EPOCH must be different for different epochs. For instance, in a crossover trial with 3 treatment epochs, each must be given a distinct name; all 3 cannot be called \"TREATMENT\".", "score": 0.4875, "match_basis": "verbatim_token+domain_route:TA"}], "candidate_count": 5, "zero_candidate": false}
{"pdf_atom_id": "ig34_p0385_a016", "pdf_atom_type": "LIST_ITEM", "pdf_source": "SDTMIG_v3.4", "pdf_page": 385, "pdf_parent_section": "§7.2.1 Trial Arms (TA) – Assumptions", "pdf_verbatim": "Some trials include multiple paths that are closely enough related so that they are all considered to belong to 1 arm. In general, this set of paths will include a \"complete\" path along with shorter paths that skip some elements. The sequence of elements represented in the trial arms should be the complete, longest path. TATRANS describes the decision points that may lead to a shortened path within the arm.", "figure_ref": null, "candidates": [{"md_atom_id": "md_dmTA_assn_a008", "md_file": "knowledge_base/domains/TA/assumptions.md", "md_atom_type": "LIST_ITEM", "md_parent_section": "§TA [TA — Assumptions]", "md_verbatim": "6. Some trials include multiple paths that are closely enough related so that they are all considered to belong to 1 arm. In general, this set of paths will include a \"complete\" path along with shorter paths that skip some elements. The sequence of elements represented in the trial arms should be the complete, longest path. TATRANS describes the decision points that may lead to a shortened path within the arm.", "score": 1.0, "match_basis": "verbatim_token+domain_route:TA"}, {"md_atom_id": "md_dmTA_assn_a009", "md_file": "knowledge_base/domains/TA/assumptions.md", "md_atom_type": "LIST_ITEM", "md_parent_section": "§TA [TA — Assumptions]", "md_verbatim": "7. If an element does not end with a decision that could lead to a shortened path within the arm, then TATRANS will be blank. If there is such a decision, TATRANS will be in a form like, \"If condition X is true, then go to epoch Y\" or \"If condition X is true, then go to element with TAETORD = 'Z'\".", "score": 0.5519, "match_basis": "verbatim_token+domain_route:TA"}, {"md_atom_id": "md_dmTA_assn_a011", "md_file": "knowledge_base/domains/TA/assumptions.md", "md_atom_type": "LIST_ITEM", "md_parent_section": "§TA [TA — Assumptions]", "md_verbatim": "9. EPOCH should be assigned in such a way that elements from different arms with the same value of EPOCH are \"comparable\" in some sense. The degree of similarity of epochs across arms varies considerably in different trials, as illustrated in the examples.", "score": 0.5312, "match_basis": "verbatim_token+domain_route:TA"}, {"md_atom_id": "md_dmTA_assn_a005", "md_file": "knowledge_base/domains/TA/assumptions.md", "md_atom_type": "LIST_ITEM", "md_parent_section": "§TA [TA — Assumptions]", "md_verbatim": "3. TABRANCH describes the outcome of a branch decision point in the trial design for subjects in the arm. A branch decision point takes place between epochs, and is associated with the element that ends at the decision point. For instance, if subjects are assigned to an arm where they receive treatment A through a randomization at the end of element X, the value of TABRANCH for element X would be \"Randomized to A.\"", "score": 0.5269, "match_basis": "verbatim_token+domain_route:TA"}, {"md_atom_id": "md_dmTA_assn_a013", "md_file": "knowledge_base/domains/TA/assumptions.md", "md_atom_type": "LIST_ITEM", "md_parent_section": "§TA [TA — Assumptions]", "md_verbatim": "    a. When a study design includes multiple epochs with the same purpose (e.g., multiple similar treatment epochs), it is recommended that the EPOCH values be terms from controlled terminology, but with numbers appended. For example, multiple treatment epochs could be represented using \"TREATMENT 1\", \"TREATMENT 2\", and so on. Because the codelist is extensible, this convention allows multiple similar epochs to be represented without adding numbered terms to the CDISC Controlled Terminology for epoch. The inclusion of multiple numbered terms in the EPOCH codelist is not considered to add value.", "score": 0.5225, "match_basis": "verbatim_token+domain_route:TA"}], "candidate_count": 5, "zero_candidate": false}
{"pdf_atom_id": "ig34_p0385_a017", "pdf_atom_type": "LIST_ITEM", "pdf_source": "SDTMIG_v3.4", "pdf_page": 385, "pdf_parent_section": "§7.2.1 Trial Arms (TA) – Assumptions", "pdf_verbatim": "If an element does not end with a decision that could lead to a shortened path within the arm, then TATRANS will be blank. If there is such a decision, TATRANS will be in a form like, \"If condition X is true, then go to epoch Y\" or \"If condition X is true, then go to element with TAETORD = 'Z'\".", "figure_ref": null, "candidates": [{"md_atom_id": "md_dmTA_assn_a009", "md_file": "knowledge_base/domains/TA/assumptions.md", "md_atom_type": "LIST_ITEM", "md_parent_section": "§TA [TA — Assumptions]", "md_verbatim": "7. If an element does not end with a decision that could lead to a shortened path within the arm, then TATRANS will be blank. If there is such a decision, TATRANS will be in a form like, \"If condition X is true, then go to epoch Y\" or \"If condition X is true, then go to element with TAETORD = 'Z'\".", "score": 1.0, "match_basis": "verbatim_token+domain_route:TA"}, {"md_atom_id": "md_dmTA_assn_a008", "md_file": "knowledge_base/domains/TA/assumptions.md", "md_atom_type": "LIST_ITEM", "md_parent_section": "§TA [TA — Assumptions]", "md_verbatim": "6. Some trials include multiple paths that are closely enough related so that they are all considered to belong to 1 arm. In general, this set of paths will include a \"complete\" path along with shorter paths that skip some elements. The sequence of elements represented in the trial arms should be the complete, longest path. TATRANS describes the decision points that may lead to a shortened path within the arm.", "score": 0.5519, "match_basis": "verbatim_token+domain_route:TA"}, {"md_atom_id": "md_dmTA_assn_a004", "md_file": "knowledge_base/domains/TA/assumptions.md", "md_atom_type": "LIST_ITEM", "md_parent_section": "§TA [TA — Assumptions]", "md_verbatim": "2. Elements in different arms with the same value of TAETORD may or may not be at the same time, depending on the design of the trial. The example trials illustrate a variety of possible situations. The same element may occur more than once within an arm.", "score": 0.5103, "match_basis": "verbatim_token+domain_route:TA"}, {"md_atom_id": "md_dmTA_assn_a005", "md_file": "knowledge_base/domains/TA/assumptions.md", "md_atom_type": "LIST_ITEM", "md_parent_section": "§TA [TA — Assumptions]", "md_verbatim": "3. TABRANCH describes the outcome of a branch decision point in the trial design for subjects in the arm. A branch decision point takes place between epochs, and is associated with the element that ends at the decision point. For instance, if subjects are assigned to an arm where they receive treatment A through a randomization at the end of element X, the value of TABRANCH for element X would be \"Randomized to A.\"", "score": 0.5061, "match_basis": "verbatim_token+domain_route:TA"}, {"md_atom_id": "md_dmTA_assn_a011", "md_file": "knowledge_base/domains/TA/assumptions.md", "md_atom_type": "LIST_ITEM", "md_parent_section": "§TA [TA — Assumptions]", "md_verbatim": "9. EPOCH should be assigned in such a way that elements from different arms with the same value of EPOCH are \"comparable\" in some sense. The degree of similarity of epochs across arms varies considerably in different trials, as illustrated in the examples.", "score": 0.4954, "match_basis": "verbatim_token+domain_route:TA"}], "candidate_count": 5, "zero_candidate": false}
{"pdf_atom_id": "ig34_p0386_a001", "pdf_atom_type": "LIST_ITEM", "pdf_source": "SDTMIG_v3.4", "pdf_page": 386, "pdf_parent_section": "§7.2.1 Trial Arms (TA) – Assumptions", "pdf_verbatim": "EPOCH is not strictly necessary for describing the sequence of elements in an arm path, but it is the conceptual basis for comparisons between arms and also provides a useful way to talk about what is happening in a blinded trial while it is blinded. During periods of blinded treatment, blinded participants will not know which arm and element a subject is in, but EPOCH should provide a description of the time period that does not depend on knowing arm.", "figure_ref": null, "candidates": [{"md_atom_id": "md_dmTA_assn_a010", "md_file": "knowledge_base/domains/TA/assumptions.md", "md_atom_type": "LIST_ITEM", "md_parent_section": "§TA [TA — Assumptions]", "md_verbatim": "8. EPOCH is not strictly necessary for describing the sequence of elements in an arm path, but it is the conceptual basis for comparisons between arms and also provides a useful way to talk about what is happening in a blinded trial while it is blinded. During periods of blinded treatment, blinded participants will not know which arm and element a subject is in, but EPOCH should provide a description of the time period that does not depend on knowing arm.", "score": 1.0, "match_basis": "verbatim_token+domain_route:TA"}, {"md_atom_id": "md_dmTA_assn_a007", "md_file": "knowledge_base/domains/TA/assumptions.md", "md_atom_type": "LIST_ITEM", "md_parent_section": "§TA [TA — Assumptions]", "md_verbatim": "5. There is usually some gap in time between the performance of a randomization and the start of randomized treatment. However, in many trials this gap in time is small and it is highly unlikely that subjects will leave the trial between randomization and treatment. In these circumstances, the trial does not need to be modeled with this time period between randomization and start of treatment as a separate element.", "score": 0.5237, "match_basis": "verbatim_token+domain_route:TA"}, {"md_atom_id": "md_dmTA_assn_a005", "md_file": "knowledge_base/domains/TA/assumptions.md", "md_atom_type": "LIST_ITEM", "md_parent_section": "§TA [TA — Assumptions]", "md_verbatim": "3. TABRANCH describes the outcome of a branch decision point in the trial design for subjects in the arm. A branch decision point takes place between epochs, and is associated with the element that ends at the decision point. For instance, if subjects are assigned to an arm where they receive treatment A through a randomization at the end of element X, the value of TABRANCH for element X would be \"Randomized to A.\"", "score": 0.52, "match_basis": "verbatim_token+domain_route:TA"}, {"md_atom_id": "md_dmTA_assn_a008", "md_file": "knowledge_base/domains/TA/assumptions.md", "md_atom_type": "LIST_ITEM", "md_parent_section": "§TA [TA — Assumptions]", "md_verbatim": "6. Some trials include multiple paths that are closely enough related so that they are all considered to belong to 1 arm. In general, this set of paths will include a \"complete\" path along with shorter paths that skip some elements. The sequence of elements represented in the trial arms should be the complete, longest path. TATRANS describes the decision points that may lead to a shortened path within the arm.", "score": 0.4976, "match_basis": "verbatim_token+domain_route:TA"}, {"md_atom_id": "md_dmTA_ex_a007", "md_file": "knowledge_base/domains/TA/examples.md", "md_atom_type": "LIST_ITEM", "md_parent_section": "§TA [TA — Examples]", "md_verbatim": "- A diagram that shows the \"prospective\" view of the trial (i.e., the view of those participating in the trial), with epochs and elements", "score": 0.4939, "match_basis": "verbatim_token+domain_route:TA"}], "candidate_count": 5, "zero_candidate": false}
{"pdf_atom_id": "ig34_p0386_a002", "pdf_atom_type": "LIST_ITEM", "pdf_source": "SDTMIG_v3.4", "pdf_page": 386, "pdf_parent_section": "§7.2.1 Trial Arms (TA) – Assumptions", "pdf_verbatim": "EPOCH should be assigned in such a way that elements from different arms with the same value of EPOCH are \"comparable\" in some sense. The degree of similarity across arms varies considerably in different trials, as illustrated in the examples.", "figure_ref": null, "candidates": [{"md_atom_id": "md_dmTA_assn_a011", "md_file": "knowledge_base/domains/TA/assumptions.md", "md_atom_type": "LIST_ITEM", "md_parent_section": "§TA [TA — Assumptions]", "md_verbatim": "9. EPOCH should be assigned in such a way that elements from different arms with the same value of EPOCH are \"comparable\" in some sense. The degree of similarity of epochs across arms varies considerably in different trials, as illustrated in the examples.", "score": 0.9942, "match_basis": "verbatim_token+domain_route:TA"}, {"md_atom_id": "md_dmTA_assn_a004", "md_file": "knowledge_base/domains/TA/assumptions.md", "md_atom_type": "LIST_ITEM", "md_parent_section": "§TA [TA — Assumptions]", "md_verbatim": "2. Elements in different arms with the same value of TAETORD may or may not be at the same time, depending on the design of the trial. The example trials illustrate a variety of possible situations. The same element may occur more than once within an arm.", "score": 0.607, "match_basis": "verbatim_token+domain_route:TA"}, {"md_atom_id": "md_dmTA_assn_a008", "md_file": "knowledge_base/domains/TA/assumptions.md", "md_atom_type": "LIST_ITEM", "md_parent_section": "§TA [TA — Assumptions]", "md_verbatim": "6. Some trials include multiple paths that are closely enough related so that they are all considered to belong to 1 arm. In general, this set of paths will include a \"complete\" path along with shorter paths that skip some elements. The sequence of elements represented in the trial arms should be the complete, longest path. TATRANS describes the decision points that may lead to a shortened path within the arm.", "score": 0.5319, "match_basis": "verbatim_token+domain_route:TA"}, {"md_atom_id": "md_dmTA_assn_a013", "md_file": "knowledge_base/domains/TA/assumptions.md", "md_atom_type": "LIST_ITEM", "md_parent_section": "§TA [TA — Assumptions]", "md_verbatim": "    a. When a study design includes multiple epochs with the same purpose (e.g., multiple similar treatment epochs), it is recommended that the EPOCH values be terms from controlled terminology, but with numbers appended. For example, multiple treatment epochs could be represented using \"TREATMENT 1\", \"TREATMENT 2\", and so on. Because the codelist is extensible, this convention allows multiple similar epochs to be represented without adding numbered terms to the CDISC Controlled Terminology for epoch. The inclusion of multiple numbered terms in the EPOCH codelist is not considered to add value.", "score": 0.529, "match_basis": "verbatim_token+domain_route:TA"}, {"md_atom_id": "md_dmTA_assn_a016", "md_file": "knowledge_base/domains/TA/assumptions.md", "md_atom_type": "LIST_ITEM", "md_parent_section": "§TA [TA — Assumptions]", "md_verbatim": "12. EPOCH may be used as a timing variable in other datasets, such as Exposure (EX) and Disposition (DS), and values of EPOCH must be different for different epochs. For instance, in a crossover trial with 3 treatment epochs, each must be given a distinct name; all 3 cannot be called \"TREATMENT\".", "score": 0.5129, "match_basis": "verbatim_token+domain_route:TA"}], "candidate_count": 5, "zero_candidate": false}
{"pdf_atom_id": "ig34_p0386_a003", "pdf_atom_type": "LIST_ITEM", "pdf_source": "SDTMIG_v3.4", "pdf_page": 386, "pdf_parent_section": "§7.2.1 Trial Arms (TA) – Assumptions", "pdf_verbatim": "EPOCH values for multiple similar epochs:", "figure_ref": null, "candidates": [{"md_atom_id": "md_dmTA_assn_a012", "md_file": "knowledge_base/domains/TA/assumptions.md", "md_atom_type": "LIST_ITEM", "md_parent_section": "§TA [TA — Assumptions]", "md_verbatim": "10. EPOCH values for multiple similar epochs:", "score": 1.0, "match_basis": "verbatim_token+domain_route:TA"}, {"md_atom_id": "md_dmTA_assn_a013", "md_file": "knowledge_base/domains/TA/assumptions.md", "md_atom_type": "LIST_ITEM", "md_parent_section": "§TA [TA — Assumptions]", "md_verbatim": "    a. When a study design includes multiple epochs with the same purpose (e.g., multiple similar treatment epochs), it is recommended that the EPOCH values be terms from controlled terminology, but with numbers appended. For example, multiple treatment epochs could be represented using \"TREATMENT 1\", \"TREATMENT 2\", and so on. Because the codelist is extensible, this convention allows multiple similar epochs to be represented without adding numbered terms to the CDISC Controlled Terminology for epoch. The inclusion of multiple numbered terms in the EPOCH codelist is not considered to add value.", "score": 0.4759, "match_basis": "verbatim_token+domain_route:TA"}, {"md_atom_id": "md_dmTA_assn_a011", "md_file": "knowledge_base/domains/TA/assumptions.md", "md_atom_type": "LIST_ITEM", "md_parent_section": "§TA [TA — Assumptions]", "md_verbatim": "9. EPOCH should be assigned in such a way that elements from different arms with the same value of EPOCH are \"comparable\" in some sense. The degree of similarity of epochs across arms varies considerably in different trials, as illustrated in the examples.", "score": 0.4709, "match_basis": "verbatim_token+domain_route:TA"}, {"md_atom_id": "md_dmTA_assn_a016", "md_file": "knowledge_base/domains/TA/assumptions.md", "md_atom_type": "LIST_ITEM", "md_parent_section": "§TA [TA — Assumptions]", "md_verbatim": "12. EPOCH may be used as a timing variable in other datasets, such as Exposure (EX) and Disposition (DS), and values of EPOCH must be different for different epochs. For instance, in a crossover trial with 3 treatment epochs, each must be given a distinct name; all 3 cannot be called \"TREATMENT\".", "score": 0.4545, "match_basis": "verbatim_token+domain_route:TA"}, {"md_atom_id": "md_dmTA_ex_a010", "md_file": "knowledge_base/domains/TA/examples.md", "md_atom_type": "LIST_ITEM", "md_parent_section": "§TA [TA — Examples]", "md_verbatim": "- A trial design matrix, an alternative format showing arms and epochs with study cells", "score": 0.4526, "match_basis": "verbatim_token+domain_route:TA"}], "candidate_count": 5, "zero_candidate": false}
{"pdf_atom_id": "ig34_p0386_a004", "pdf_atom_type": "LIST_ITEM", "pdf_source": "SDTMIG_v3.4", "pdf_page": 386, "pdf_parent_section": "§7.2.1 Trial Arms (TA) – Assumptions", "pdf_verbatim": "When a study design includes multiple epochs with the same purpose (e.g., multiple similar treatment epochs), it is recommended that the EPOCH values be terms from controlled terminology, but with numbers appended. For example, multiple treatment epochs could be represented using \"TREATMENT 1\", \"TREATMENT 2\", and so on.  Because the codelist is extensible, this convention allows multiple similar epochs to be represented without adding numbered terms to the CDISC Controlled Terminology for epoch. The inclusion of multiple numbered terms in the EPOCH codelist is not considered to add value.", "figure_ref": null, "candidates": [{"md_atom_id": "md_dmTA_assn_a013", "md_file": "knowledge_base/domains/TA/assumptions.md", "md_atom_type": "LIST_ITEM", "md_parent_section": "§TA [TA — Assumptions]", "md_verbatim": "    a. When a study design includes multiple epochs with the same purpose (e.g., multiple similar treatment epochs), it is recommended that the EPOCH values be terms from controlled terminology, but with numbers appended. For example, multiple treatment epochs could be represented using \"TREATMENT 1\", \"TREATMENT 2\", and so on. Because the codelist is extensible, this convention allows multiple similar epochs to be represented without adding numbered terms to the CDISC Controlled Terminology for epoch. The inclusion of multiple numbered terms in the EPOCH codelist is not considered to add value.", "score": 1.0, "match_basis": "verbatim_token+domain_route:TA"}, {"md_atom_id": "md_dmTA_assn_a014", "md_file": "knowledge_base/domains/TA/assumptions.md", "md_atom_type": "LIST_ITEM", "md_parent_section": "§TA [TA — Assumptions]", "md_verbatim": "    b. Note that the controlled terminology does include some more granular terms for distinguishing between epochs that differ in ways other than mere order, and these terms should be used where applicable, as they are more informative. For example, when \"BLINDED TREATMENT\" and \"OPEN LABEL TREATMENT\" are applicable, those terms would be preferred over \"TREATMENT 1\" and \"TREATMENT 2\".", "score": 0.5755, "match_basis": "verbatim_token+domain_route:TA"}, {"md_atom_id": "md_dmTA_assn_a011", "md_file": "knowledge_base/domains/TA/assumptions.md", "md_atom_type": "LIST_ITEM", "md_parent_section": "§TA [TA — Assumptions]", "md_verbatim": "9. EPOCH should be assigned in such a way that elements from different arms with the same value of EPOCH are \"comparable\" in some sense. The degree of similarity of epochs across arms varies considerably in different trials, as illustrated in the examples.", "score": 0.5318, "match_basis": "verbatim_token+domain_route:TA"}, {"md_atom_id": "md_dmTA_assn_a008", "md_file": "knowledge_base/domains/TA/assumptions.md", "md_atom_type": "LIST_ITEM", "md_parent_section": "§TA [TA — Assumptions]", "md_verbatim": "6. Some trials include multiple paths that are closely enough related so that they are all considered to belong to 1 arm. In general, this set of paths will include a \"complete\" path along with shorter paths that skip some elements. The sequence of elements represented in the trial arms should be the complete, longest path. TATRANS describes the decision points that may lead to a shortened path within the arm.", "score": 0.5225, "match_basis": "verbatim_token+domain_route:TA"}, {"md_atom_id": "md_dmTA_assn_a016", "md_file": "knowledge_base/domains/TA/assumptions.md", "md_atom_type": "LIST_ITEM", "md_parent_section": "§TA [TA — Assumptions]", "md_verbatim": "12. EPOCH may be used as a timing variable in other datasets, such as Exposure (EX) and Disposition (DS), and values of EPOCH must be different for different epochs. For instance, in a crossover trial with 3 treatment epochs, each must be given a distinct name; all 3 cannot be called \"TREATMENT\".", "score": 0.5036, "match_basis": "verbatim_token+domain_route:TA"}], "candidate_count": 5, "zero_candidate": false}
