{"pdf_atom_id": "ig34_p0133_a011", "pdf_atom_type": "SENTENCE", "pdf_source": "SDTMIG_v3.4", "pdf_page": 133, "pdf_parent_section": "§6.2 Models for Events Domains", "pdf_verbatim": "Most subject-level observations collected during the study should be represented according to one of the 3 SDTM general observation classes. The following domains correspond to the Events class:", "figure_ref": null, "candidates": [{"md_atom_id": "md_ch02_a045", "md_file": "knowledge_base/chapters/ch02_fundamentals.md", "md_atom_type": "SENTENCE", "md_parent_section": "§2.3 [The General Observation Classes]", "md_verbatim": "Most subject-level observations should be represented according to 1 of the 3 SDTM general observation classes:", "score": 0.6831, "match_basis": "verbatim_token+global_search"}, {"md_atom_id": "md_model02_a004", "md_file": "knowledge_base/model/02_observation_classes.md", "md_atom_type": "SENTENCE", "md_parent_section": "§ Overview", "md_verbatim": "The majority of observations collected during a study can be divided among 3 general observation classes: Interventions, Events, and Findings.", "score": 0.5299, "match_basis": "verbatim_token+global_search"}, {"md_atom_id": "md_ch08_a266", "md_file": "knowledge_base/chapters/ch08_relationships.md", "md_atom_type": "SENTENCE", "md_parent_section": "§8.6.3 [Guidelines for Differentiating Between Interventions, Events, Findings, and Findings About Events or Interventions]", "md_verbatim": "A record in the Events general observation class is intended to represent the event as a whole.", "score": 0.5, "match_basis": "verbatim_token+global_search"}, {"md_atom_id": "md_model04_a005", "md_file": "knowledge_base/model/04_associated_persons.md", "md_atom_type": "SENTENCE", "md_parent_section": "§4 [SDTM v2.0 — Chapter 4: Associated Persons Data]", "md_verbatim": "The structures of SDTM datasets that represent data about associated persons are based on the structures for data about study subjects, either general observation class structures or special-purpose domain structures.", "score": 0.4922, "match_basis": "verbatim_token+global_search"}, {"md_atom_id": "md_ch04_a976", "md_file": "knowledge_base/chapters/ch04_general_assumptions.md", "md_atom_type": "SENTENCE", "md_parent_section": "§4.5.6 [Supplemental Reason Variables]", "md_verbatim": "The SDTM general observation classes include the --REASND variable to submit the reason a response is not present (a result in a findings class or an --OCCUR value in an events or interventions variable).", "score": 0.4869, "match_basis": "verbatim_token+global_search"}], "candidate_count": 5, "zero_candidate": false}
{"pdf_atom_id": "ig34_p0133_a012", "pdf_atom_type": "LIST_ITEM", "pdf_source": "SDTMIG_v3.4", "pdf_page": 133, "pdf_parent_section": "§6.2 Models for Events Domains", "pdf_verbatim": "Adverse Events (AE)", "figure_ref": null, "candidates": [{"md_atom_id": "md_ch04_a269", "md_file": "knowledge_base/chapters/ch04_general_assumptions.md", "md_atom_type": "TABLE_ROW", "md_parent_section": "§4.2.7.1 [\"Specify\" Values for Non-Result Qualifier Variables]", "md_verbatim": "| [ ] Adverse Event                  |          |", "score": 0.6833, "match_basis": "verbatim_token+global_search"}, {"md_atom_id": "md_varindex_a037", "md_file": "knowledge_base/VARIABLE_INDEX.md", "md_atom_type": "HEADING", "md_parent_section": "§ 二、领域专属变量（仅 1 个域，共 1499 个），按域分组", "md_verbatim": "### AE — Adverse Events (Events)", "score": 0.66, "match_basis": "verbatim_token+global_search"}, {"md_atom_id": "md_ch04_a672", "md_file": "knowledge_base/chapters/ch04_general_assumptions.md", "md_atom_type": "SENTENCE", "md_parent_section": "§4.4.7 [Use of Relative Timing Variables]", "md_verbatim": "**Example 3: Adverse Events**", "score": 0.5957, "match_basis": "verbatim_token+global_search"}, {"md_atom_id": "md_ch04_a653", "md_file": "knowledge_base/chapters/ch04_general_assumptions.md", "md_atom_type": "LIST_ITEM", "md_parent_section": "§4.4.7 [Use of Relative Timing Variables]", "md_verbatim": "- **Adverse Events (--ENRTPT):** --ENRTPT = \"ONGOING\", --ENTPT = \"DATE OF LAST DOSE\"", "score": 0.516, "match_basis": "verbatim_token+global_search"}, {"md_atom_id": "md_dmFA_ex_a134", "md_file": "knowledge_base/domains/FA/examples.md", "md_atom_type": "LIST_ITEM", "md_parent_section": "§FA.6 [Example 6]", "md_verbatim": "- A module for the adverse event, where a record would be entered for each event", "score": 0.46, "match_basis": "verbatim_token+global_search"}], "candidate_count": 5, "zero_candidate": false}
{"pdf_atom_id": "ig34_p0133_a013", "pdf_atom_type": "LIST_ITEM", "pdf_source": "SDTMIG_v3.4", "pdf_page": 133, "pdf_parent_section": "§6.2 Models for Events Domains", "pdf_verbatim": "Biospecimen Events (BE)", "figure_ref": null, "candidates": [{"md_atom_id": "md_ch10_a154", "md_file": "knowledge_base/chapters/ch10_appendices.md", "md_atom_type": "TABLE_ROW", "md_parent_section": "§10.E [Revision History]", "md_verbatim": "| BE | Biospecimen Events |", "score": 0.75, "match_basis": "verbatim_token+global_search"}, {"md_atom_id": "md_varindex_a128", "md_file": "knowledge_base/VARIABLE_INDEX.md", "md_atom_type": "HEADING", "md_parent_section": "§ 二、领域专属变量（仅 1 个域，共 1499 个），按域分组", "md_verbatim": "### BE — Biospecimen Events (Events)", "score": 0.66, "match_basis": "verbatim_token+global_search"}, {"md_atom_id": "md_ch01_a038", "md_file": "knowledge_base/chapters/ch01_introduction.md", "md_atom_type": "LIST_ITEM", "md_parent_section": "§1.3 [Relationship to Prior CDISC Documents]", "md_verbatim": "- Copied in Biospecimen Events (BE), Biospecimen Findings (BS), and Related Specimens (RELSPEC) from the provisional SDTMIG-PGx v1.0", "score": 0.4592, "match_basis": "verbatim_token+global_search"}, {"md_atom_id": "md_dmBE_ex_a029", "md_file": "knowledge_base/domains/BE/examples.md", "md_atom_type": "SENTENCE", "md_parent_section": "§BE.1 [Example 1]", "md_verbatim": "**Row 1:** Shows the volume of the biospecimen.", "score": 0.4555, "match_basis": "verbatim_token+global_search"}, {"md_atom_id": "md_dmMB_assn_a012", "md_file": "knowledge_base/domains/MB/assumptions.md", "md_atom_type": "LIST_ITEM", "md_parent_section": "§MB [MB — Assumptions]", "md_verbatim": "2. MBDTC represents the date the specimen was collected.", "score": 0.4455, "match_basis": "verbatim_token+global_search"}], "candidate_count": 5, "zero_candidate": false}
{"pdf_atom_id": "ig34_p0133_a014", "pdf_atom_type": "LIST_ITEM", "pdf_source": "SDTMIG_v3.4", "pdf_page": 133, "pdf_parent_section": "§6.2 Models for Events Domains", "pdf_verbatim": "Clinical Events (CE)", "figure_ref": null, "candidates": [{"md_atom_id": "md_varindex_a178", "md_file": "knowledge_base/VARIABLE_INDEX.md", "md_atom_type": "HEADING", "md_parent_section": "§ 二、领域专属变量（仅 1 个域，共 1499 个），按域分组", "md_verbatim": "### CE — Clinical Events (Events)", "score": 0.66, "match_basis": "verbatim_token+global_search"}, {"md_atom_id": "md_dmCE_ex_a027", "md_file": "knowledge_base/domains/CE/examples.md", "md_atom_type": "SENTENCE", "md_parent_section": "§CE.2 [Example 2]", "md_verbatim": "**CRF: CE Example 2 — Clinical Events with Severity**", "score": 0.4709, "match_basis": "verbatim_token+global_search"}, {"md_atom_id": "md_dmCE_ex_a005", "md_file": "knowledge_base/domains/CE/examples.md", "md_atom_type": "SENTENCE", "md_parent_section": "§CE.1 [Example 1]", "md_verbatim": "**CRF: CE Example 1 — Prespecified Clinical Events**", "score": 0.4408, "match_basis": "verbatim_token+global_search"}, {"md_atom_id": "md_dmFT_assn_a010", "md_file": "knowledge_base/domains/FT/assumptions.md", "md_atom_type": "LIST_ITEM", "md_parent_section": "§FT [FT — Assumptions]", "md_verbatim": "      i. Category of Clinical Classification", "score": 0.4385, "match_basis": "verbatim_token+global_search"}, {"md_atom_id": "md_dmMH_assn_a028", "md_file": "knowledge_base/domains/MH/assumptions.md", "md_atom_type": "LIST_ITEM", "md_parent_section": "§MH [MH — Assumptions]", "md_verbatim": "6. **MH event date type**", "score": 0.4286, "match_basis": "verbatim_token+global_search"}], "candidate_count": 5, "zero_candidate": false}
{"pdf_atom_id": "ig34_p0133_a015", "pdf_atom_type": "LIST_ITEM", "pdf_source": "SDTMIG_v3.4", "pdf_page": 133, "pdf_parent_section": "§6.2 Models for Events Domains", "pdf_verbatim": "Disposition (DS)", "figure_ref": null, "candidates": [{"md_atom_id": "md_varindex_a407", "md_file": "knowledge_base/VARIABLE_INDEX.md", "md_atom_type": "HEADING", "md_parent_section": "§ 二、领域专属变量（仅 1 个域，共 1499 个），按域分组", "md_verbatim": "### DS — Disposition (Events)", "score": 0.4754, "match_basis": "verbatim_token+global_search"}, {"md_atom_id": "md_dmDS_assn_a006", "md_file": "knowledge_base/domains/DS/assumptions.md", "md_atom_type": "LIST_ITEM", "md_parent_section": "§DS [DS — Assumptions]", "md_verbatim": "      i. DSSCAT = \"STUDY PARTICIPATION\" is used to represent disposition of study participation.", "score": 0.4588, "match_basis": "verbatim_token+global_search"}, {"md_atom_id": "md_ch04_a160", "md_file": "knowledge_base/chapters/ch04_general_assumptions.md", "md_atom_type": "LIST_ITEM", "md_parent_section": "§4.1.9 [Assigning Natural Keys in the Metadata]", "md_verbatim": "- Phalangeal joint position (which finger, which joint)", "score": 0.4385, "match_basis": "verbatim_token+global_search"}, {"md_atom_id": "md_ch10_a139", "md_file": "knowledge_base/chapters/ch10_appendices.md", "md_atom_type": "LIST_ITEM", "md_parent_section": "§10.E [Revision History]", "md_verbatim": "- Public review comments and their dispositions will be available upon publication of the SDTMIG.", "score": 0.4174, "match_basis": "verbatim_token+global_search"}, {"md_atom_id": "md_ch10_a098", "md_file": "knowledge_base/chapters/ch10_appendices.md", "md_atom_type": "TABLE_ROW", "md_parent_section": "§10.D [CDISC Variable-naming Fragments]", "md_verbatim": "| DISABILITY | DISAB | | POSITION | POS |", "score": 0.4125, "match_basis": "verbatim_token+global_search"}], "candidate_count": 5, "zero_candidate": false}
{"pdf_atom_id": "ig34_p0133_a016", "pdf_atom_type": "LIST_ITEM", "pdf_source": "SDTMIG_v3.4", "pdf_page": 133, "pdf_parent_section": "§6.2 Models for Events Domains", "pdf_verbatim": "Healthcare Encounters (HO)", "figure_ref": null, "candidates": [{"md_atom_id": "md_varindex_a654", "md_file": "knowledge_base/VARIABLE_INDEX.md", "md_atom_type": "HEADING", "md_parent_section": "§ 二、领域专属变量（仅 1 个域，共 1499 个），按域分组", "md_verbatim": "### HO — Healthcare Encounters (Events)", "score": 0.54, "match_basis": "verbatim_token+global_search"}, {"md_atom_id": "md_varindex_a660", "md_file": "knowledge_base/VARIABLE_INDEX.md", "md_atom_type": "TABLE_ROW", "md_parent_section": "§ 二、领域专属变量（仅 1 个域，共 1499 个），按域分组", "md_verbatim": "| HOTERM | Healthcare Encounter Term | Char | Topic | Req | — |", "score": 0.51, "match_basis": "verbatim_token+global_search"}, {"md_atom_id": "md_varindex_a673", "md_file": "knowledge_base/VARIABLE_INDEX.md", "md_atom_type": "TABLE_ROW", "md_parent_section": "§ 二、领域专属变量（仅 1 个域，共 1499 个），按域分组", "md_verbatim": "| HOENDY | Study Day of End of Healthcare Encounter | Num | Timing | Perm | — |", "score": 0.4403, "match_basis": "verbatim_token+global_search"}, {"md_atom_id": "md_dmHO_assn_a004", "md_file": "knowledge_base/domains/HO/assumptions.md", "md_atom_type": "LIST_ITEM", "md_parent_section": "§HO [HO — Assumptions]", "md_verbatim": "3. Data collected about healthcare encounters may include the reason for the encounter. The following supplemental qualifiers may be appropriate for representing such data:", "score": 0.4171, "match_basis": "verbatim_token+global_search"}, {"md_atom_id": "md_varindex_a674", "md_file": "knowledge_base/VARIABLE_INDEX.md", "md_atom_type": "TABLE_ROW", "md_parent_section": "§ 二、领域专属变量（仅 1 个域，共 1499 个），按域分组", "md_verbatim": "| HODUR | Duration of Healthcare Encounter | Char | Timing | Perm | ISO 8601 duration |", "score": 0.4071, "match_basis": "verbatim_token+global_search"}], "candidate_count": 5, "zero_candidate": false}
{"pdf_atom_id": "ig34_p0133_a017", "pdf_atom_type": "LIST_ITEM", "pdf_source": "SDTMIG_v3.4", "pdf_page": 133, "pdf_parent_section": "§6.2 Models for Events Domains", "pdf_verbatim": "Medical History (MH)", "figure_ref": null, "candidates": [{"md_atom_id": "md_ch04_a654", "md_file": "knowledge_base/chapters/ch04_general_assumptions.md", "md_atom_type": "SENTENCE", "md_parent_section": "§4.4.7 [Use of Relative Timing Variables]", "md_verbatim": "**Example 1: Medical History**", "score": 0.61, "match_basis": "verbatim_token+global_search"}, {"md_atom_id": "md_ch04_a651", "md_file": "knowledge_base/chapters/ch04_general_assumptions.md", "md_atom_type": "LIST_ITEM", "md_parent_section": "§4.4.7 [Use of Relative Timing Variables]", "md_verbatim": "- **Medical History (--STRTPT/--ENRTPT):** --STRTPT = \"BEFORE\", --STTPT = \"INFORMED CONSENT\"", "score": 0.4935, "match_basis": "verbatim_token+global_search"}, {"md_atom_id": "md_varindex_a830", "md_file": "knowledge_base/VARIABLE_INDEX.md", "md_atom_type": "HEADING", "md_parent_section": "§ 二、领域专属变量（仅 1 个域，共 1499 个），按域分组", "md_verbatim": "### MH — Medical History (Events)", "score": 0.4886, "match_basis": "verbatim_token+global_search"}, {"md_atom_id": "md_ch04_a273", "md_file": "knowledge_base/chapters/ch04_general_assumptions.md", "md_atom_type": "LIST_ITEM", "md_parent_section": "§4.2.7.1 [\"Specify\" Values for Non-Result Qualifier Variables]", "md_verbatim": "- EXADJ = \"NONMEDICAL REASON\"", "score": 0.45, "match_basis": "verbatim_token+global_search"}, {"md_atom_id": "md_dmMH_ex_a031", "md_file": "knowledge_base/domains/MH/examples.md", "md_atom_type": "SENTENCE", "md_parent_section": "§MH.2 [Example 2]", "md_verbatim": "**Rows 1-3:** Show records from the General Medical History CRF.", "score": 0.4243, "match_basis": "verbatim_token+global_search"}], "candidate_count": 5, "zero_candidate": false}
{"pdf_atom_id": "ig34_p0133_a018", "pdf_atom_type": "LIST_ITEM", "pdf_source": "SDTMIG_v3.4", "pdf_page": 133, "pdf_parent_section": "§6.2 Models for Events Domains", "pdf_verbatim": "Protocol Deviations (DV)", "figure_ref": null, "candidates": [{"md_atom_id": "md_varindex_a421", "md_file": "knowledge_base/VARIABLE_INDEX.md", "md_atom_type": "HEADING", "md_parent_section": "§ 二、领域专属变量（仅 1 个域，共 1499 个），按域分组", "md_verbatim": "### DV — Protocol Deviations (Events)", "score": 0.5267, "match_basis": "verbatim_token+global_search"}, {"md_atom_id": "md_ch02_a041", "md_file": "knowledge_base/chapters/ch02_fundamentals.md", "md_atom_type": "LIST_ITEM", "md_parent_section": "§2.2 [Datasets and Domains]", "md_verbatim": "- Data from the protocol", "score": 0.4895, "match_basis": "verbatim_token+global_search"}, {"md_atom_id": "md_varindex_a426", "md_file": "knowledge_base/VARIABLE_INDEX.md", "md_atom_type": "TABLE_ROW", "md_parent_section": "§ 二、领域专属变量（仅 1 个域，共 1499 个），按域分组", "md_verbatim": "| DVTERM | Protocol Deviation Term | Char | Topic | Req | — |", "score": 0.475, "match_basis": "verbatim_token+global_search"}, {"md_atom_id": "md_dmDV_ex_a004", "md_file": "knowledge_base/domains/DV/examples.md", "md_atom_type": "SENTENCE", "md_parent_section": "§DV.1 [Example 1]", "md_verbatim": "**Rows 1, 3:** Show examples of a TREATMENT DEVIATION type of protocol deviation.", "score": 0.4464, "match_basis": "verbatim_token+global_search"}, {"md_atom_id": "md_ch04_a161", "md_file": "knowledge_base/chapters/ch04_general_assumptions.md", "md_atom_type": "LIST_ITEM", "md_parent_section": "§4.1.9 [Assigning Natural Keys in the Metadata]", "md_verbatim": "- Rotation of the hand", "score": 0.4263, "match_basis": "verbatim_token+global_search"}], "candidate_count": 5, "zero_candidate": false}
{"pdf_atom_id": "ig34_p0133_a019", "pdf_atom_type": "HEADING", "pdf_source": "SDTMIG_v3.4", "pdf_page": 133, "pdf_parent_section": "§6.2 [MODELS FOR EVENTS DOMAINS]", "pdf_verbatim": "6.2.1 Adverse Events (AE)", "figure_ref": null, "candidates": [{"md_atom_id": "md_varindex_a037", "md_file": "knowledge_base/VARIABLE_INDEX.md", "md_atom_type": "HEADING", "md_parent_section": "§ 二、领域专属变量（仅 1 个域，共 1499 个），按域分组", "md_verbatim": "### AE — Adverse Events (Events)", "score": 0.9, "match_basis": "verbatim_token+global_search"}, {"md_atom_id": "md_index_a044", "md_file": "knowledge_base/INDEX.md", "md_atom_type": "HEADING", "md_parent_section": "§ Domains (63 domains)", "md_verbatim": "### Events Domains", "score": 0.4714, "match_basis": "verbatim_token+global_search"}, {"md_atom_id": "md_varindex_a178", "md_file": "knowledge_base/VARIABLE_INDEX.md", "md_atom_type": "HEADING", "md_parent_section": "§ 二、领域专属变量（仅 1 个域，共 1499 个），按域分组", "md_verbatim": "### CE — Clinical Events (Events)", "score": 0.46, "match_basis": "verbatim_token+global_search"}, {"md_atom_id": "md_ch04_a442", "md_file": "knowledge_base/chapters/ch04_general_assumptions.md", "md_atom_type": "HEADING", "md_parent_section": "§4.3.5 [Storing Controlled Terminology for Synonym Qualifier Variables (MedDRA and WHODrug)]", "md_verbatim": "#### MedDRA Coding (Events)", "score": 0.4412, "match_basis": "verbatim_token+global_search"}, {"md_atom_id": "md_ch04_a189", "md_file": "knowledge_base/chapters/ch04_general_assumptions.md", "md_atom_type": "HEADING", "md_parent_section": "§4.2.1 [Variable-Naming Conventions]", "md_verbatim": "#### 4.2.1.3 --TERM Conventions (Events)", "score": 0.4333, "match_basis": "verbatim_token+global_search"}], "candidate_count": 5, "zero_candidate": false}
{"pdf_atom_id": "ig34_p0133_a020", "pdf_atom_type": "HEADING", "pdf_source": "SDTMIG_v3.4", "pdf_page": 133, "pdf_parent_section": "§6.2.1 [Adverse Events (AE)]", "pdf_verbatim": "AE – Description/Overview", "figure_ref": null, "candidates": [{"md_atom_id": "md_dmAE_assn_a001", "md_file": "knowledge_base/domains/AE/assumptions.md", "md_atom_type": "HEADING", "md_parent_section": "§AE [AE — Assumptions]", "md_verbatim": "# AE — Assumptions", "score": 0.4857, "match_basis": "verbatim_token+domain_route:AE"}, {"md_atom_id": "md_dmAE_ex_a001", "md_file": "knowledge_base/domains/AE/examples.md", "md_atom_type": "HEADING", "md_parent_section": "§AE [AE — Examples]", "md_verbatim": "# AE — Examples", "score": 0.4, "match_basis": "verbatim_token+domain_route:AE"}, {"md_atom_id": "md_dmAE_ex_a002", "md_file": "knowledge_base/domains/AE/examples.md", "md_atom_type": "HEADING", "md_parent_section": "§AE.1 [Example 1]", "md_verbatim": "## Example 1", "score": 0.4, "match_basis": "verbatim_token+domain_route:AE"}, {"md_atom_id": "md_dmAE_ex_a020", "md_file": "knowledge_base/domains/AE/examples.md", "md_atom_type": "HEADING", "md_parent_section": "§AE.2 [Example 2]", "md_verbatim": "## Example 2", "score": 0.4, "match_basis": "verbatim_token+domain_route:AE"}, {"md_atom_id": "md_dmAE_ex_a035", "md_file": "knowledge_base/domains/AE/examples.md", "md_atom_type": "HEADING", "md_parent_section": "§AE.3 [Example 3]", "md_verbatim": "## Example 3", "score": 0.4, "match_basis": "verbatim_token+domain_route:AE"}], "candidate_count": 5, "zero_candidate": false}
{"pdf_atom_id": "ig34_p0133_a021", "pdf_atom_type": "SENTENCE", "pdf_source": "SDTMIG_v3.4", "pdf_page": 133, "pdf_parent_section": "§6.2.1 [Adverse Events (AE)]", "pdf_verbatim": "An events domain that contains data describing untoward medical occurrences in a patient or subjects that are administered a pharmaceutical product and which may not necessarily have a causal relationship with the treatment.", "figure_ref": null, "candidates": [{"md_atom_id": "md_dmAE_assn_a002", "md_file": "knowledge_base/domains/AE/assumptions.md", "md_atom_type": "LIST_ITEM", "md_parent_section": "§AE [AE — Assumptions]", "md_verbatim": "1. The Adverse Events dataset includes clinical data describing \"any untoward medical occurrence in a patient or clinical investigation subject administered a pharmaceutical product and which does not necessarily have to have a causal relationship with this treatment\" (ICH E2A). In consultation with regulatory authorities, sponsors may extend or limit the scope of adverse event collection (e.g., collecting pre-treatment events related to trial conduct, not collecting events that are assessed as efficacy endpoints). The events included in the AE dataset should be consistent with the protocol requirements. Adverse events may be captured either as free text or via a prespecified list of terms.", "score": 0.5709, "match_basis": "verbatim_token+domain_route:AE"}, {"md_atom_id": "md_dmAE_ex_a091", "md_file": "knowledge_base/domains/AE/examples.md", "md_atom_type": "SENTENCE", "md_parent_section": "§AE.6 [Example 6]", "md_verbatim": "In the Microbiology Specimen (MB) domain (not shown), a record shows that the infection was caused by a microbe with partial resistance to common antibiotics, and so the subject was hospitalized to receive intravenous treatment.", "score": 0.5068, "match_basis": "verbatim_token+domain_route:AE"}, {"md_atom_id": "md_dmAE_ex_a072", "md_file": "knowledge_base/domains/AE/examples.md", "md_atom_type": "SENTENCE", "md_parent_section": "§AE.5 [Example 5]", "md_verbatim": "Device Identifiers (DI) and other related device domains have not been modeled here; for more information about device domains, see the SDTMIG-MD (https://www.cdisc.org/standards/foundational/medical-devices).", "score": 0.4926, "match_basis": "verbatim_token+domain_route:AE"}, {"md_atom_id": "md_dmAE_ex_a037", "md_file": "knowledge_base/domains/AE/examples.md", "md_atom_type": "SENTENCE", "md_parent_section": "§AE.3 [Example 3]", "md_verbatim": "In the context of this study, the conditions that occurred were reportable as adverse events.", "score": 0.4786, "match_basis": "verbatim_token+domain_route:AE"}, {"md_atom_id": "md_dmAE_ex_a014", "md_file": "knowledge_base/domains/AE/examples.md", "md_atom_type": "SENTENCE", "md_parent_section": "§AE.1 [Example 1]", "md_verbatim": "This row also shows AEENRF being populated because the AE was marked as \"Continuing\" as of the end of the study reference period for the subject (see Section 4.4.7, Use of Relative Timing Variables).", "score": 0.478, "match_basis": "verbatim_token+domain_route:AE"}], "candidate_count": 5, "zero_candidate": false}
{"pdf_atom_id": "ig34_p0134_a001", "pdf_atom_type": "HEADING", "pdf_source": "SDTMIG_v3.4", "pdf_page": 134, "pdf_parent_section": "§6.2.1 [Adverse Events (AE)]", "pdf_verbatim": "AE – Specification", "figure_ref": null, "candidates": [{"md_atom_id": "md_dmAE_assn_a001", "md_file": "knowledge_base/domains/AE/assumptions.md", "md_atom_type": "HEADING", "md_parent_section": "§AE [AE — Assumptions]", "md_verbatim": "# AE — Assumptions", "score": 0.4667, "match_basis": "verbatim_token+domain_route:AE"}, {"md_atom_id": "md_dmAE_ex_a001", "md_file": "knowledge_base/domains/AE/examples.md", "md_atom_type": "HEADING", "md_parent_section": "§AE [AE — Examples]", "md_verbatim": "# AE — Examples", "score": 0.4, "match_basis": "verbatim_token+domain_route:AE"}, {"md_atom_id": "md_dmAE_ex_a002", "md_file": "knowledge_base/domains/AE/examples.md", "md_atom_type": "HEADING", "md_parent_section": "§AE.1 [Example 1]", "md_verbatim": "## Example 1", "score": 0.4, "match_basis": "verbatim_token+domain_route:AE"}, {"md_atom_id": "md_dmAE_ex_a020", "md_file": "knowledge_base/domains/AE/examples.md", "md_atom_type": "HEADING", "md_parent_section": "§AE.2 [Example 2]", "md_verbatim": "## Example 2", "score": 0.4, "match_basis": "verbatim_token+domain_route:AE"}, {"md_atom_id": "md_dmAE_ex_a035", "md_file": "knowledge_base/domains/AE/examples.md", "md_atom_type": "HEADING", "md_parent_section": "§AE.3 [Example 3]", "md_verbatim": "## Example 3", "score": 0.4, "match_basis": "verbatim_token+domain_route:AE"}], "candidate_count": 5, "zero_candidate": false}
{"pdf_atom_id": "ig34_p0134_a002", "pdf_atom_type": "SENTENCE", "pdf_source": "SDTMIG_v3.4", "pdf_page": 134, "pdf_parent_section": "§6.2.1 [Adverse Events (AE)]", "pdf_verbatim": "ae.xpt, Adverse Events — Events. One record per adverse event per subject, Tabulation.", "figure_ref": null, "candidates": [{"md_atom_id": "md_dmAE_ex_a090", "md_file": "knowledge_base/domains/AE/examples.md", "md_atom_type": "SENTENCE", "md_parent_section": "§AE.6 [Example 6]", "md_verbatim": "**Row 2:** Shows an adverse event of infection at the sensor site.", "score": 0.55, "match_basis": "verbatim_token+domain_route:AE"}, {"md_atom_id": "md_dmAE_ex_a051", "md_file": "knowledge_base/domains/AE/examples.md", "md_atom_type": "SENTENCE", "md_parent_section": "§AE.4 [Example 4]", "md_verbatim": "The sponsor used AEGRPID to identify the group of records related to a single event for a subject.", "score": 0.53, "match_basis": "verbatim_token+domain_route:AE"}, {"md_atom_id": "md_dmAE_ex_a076", "md_file": "knowledge_base/domains/AE/examples.md", "md_atom_type": "SENTENCE", "md_parent_section": "§AE.5 [Example 5]", "md_verbatim": "The location and laterality is specified and it is considered a serious adverse event.", "score": 0.518, "match_basis": "verbatim_token+domain_route:AE"}, {"md_atom_id": "md_dmAE_ex_a037", "md_file": "knowledge_base/domains/AE/examples.md", "md_atom_type": "SENTENCE", "md_parent_section": "§AE.3 [Example 3]", "md_verbatim": "In the context of this study, the conditions that occurred were reportable as adverse events.", "score": 0.5161, "match_basis": "verbatim_token+domain_route:AE"}, {"md_atom_id": "md_dmAE_ex_a028", "md_file": "knowledge_base/domains/AE/examples.md", "md_atom_type": "SENTENCE", "md_parent_section": "§AE.2 [Example 2]", "md_verbatim": "The subject did not experience diarrhea, so no record for that term exists in the AE dataset.", "score": 0.5017, "match_basis": "verbatim_token+domain_route:AE"}], "candidate_count": 5, "zero_candidate": false}
{"pdf_atom_id": "ig34_p0134_a003", "pdf_atom_type": "TABLE_HEADER", "pdf_source": "SDTMIG_v3.4", "pdf_page": 134, "pdf_parent_section": "§6.2.1 [Adverse Events (AE)]", "pdf_verbatim": "| Variable Name | Variable Label | Type | Controlled Terms, Codelist or Format1 | Role | CDISC Notes | Core |", "figure_ref": null, "candidates": [{"md_atom_id": "md_dmAE_ex_a095", "md_file": "knowledge_base/domains/AE/examples.md", "md_atom_type": "TABLE_HEADER", "md_parent_section": "§AE.6 [Example 6]", "md_verbatim": "| Row | STUDYID | DOMAIN | USUBJID | SPDEVID | AESEQ | AESPID | AETERM | AEDECOD | AESER | AESEV | AEACNDEV | AERLDEV | AEOUT | AESCONG | AESDISAB | AESDTH | AESHOSP | AESLIFE | AESMIE | AESINTV | AESTDTC | AEENDTC | AESTDY | AEENDY |\n|-----|---------|--------|---------|---------|-------|--------|--------|---------|-------|-------|----------|---------|-------|---------|----------|--------|---------|---------|--------|---------|---------|---------|--------|--------|", "score": 0.4242, "match_basis": "verbatim_token+domain_route:AE"}, {"md_atom_id": "md_dmAE_ex_a016", "md_file": "knowledge_base/domains/AE/examples.md", "md_atom_type": "TABLE_HEADER", "md_parent_section": "§AE.1 [Example 1]", "md_verbatim": "| Row | STUDYID | DOMAIN | USUBJID | AESEQ | AETERM | AEMODIFY | AEDECOD | AEBODSYS | AESEV | AESER | AEACN | AEREL | AEOUT | AESCONG | AESDISAB | AESDTH | AESHOSP | AESLIFE | AESMIE | EPOCH | AESTDTC | AEENDTC | AESTDY | AEENDY | AEENRF |\n|-----|---------|--------|---------|-------|--------|----------|---------|----------|-------|-------|-------|-------|-------|---------|----------|--------|---------|---------|--------|-------|---------|---------|--------|--------|--------|", "score": 0.4238, "match_basis": "verbatim_token+domain_route:AE"}, {"md_atom_id": "md_dmAE_ex_a079", "md_file": "knowledge_base/domains/AE/examples.md", "md_atom_type": "TABLE_HEADER", "md_parent_section": "§AE.5 [Example 5]", "md_verbatim": "| Row | STUDYID | DOMAIN | USUBJID | SPDEVID | AESEQ | AESPID | AETERM | AEDECOD | AELOC | AELAT | AESER | AESEV | AEACNDEV | AERELDEV | AERLPRC | AEREL | AEOUT | AESCONG | AESDISAB | AESDTH | AESHOSP | AESLIFE | AESMIE | AEUNANT | AERLPRT | AESTDTC | AEENDTC | AESTDY | AEENDY |\n|-----|---------|--------|---------|---------|-------|--------|--------|---------|-------|-------|-------|-------|----------|----------|---------|-------|-------|---------|----------|--------|---------|---------|--------|---------|---------|---------|---------|--------|--------|", "score": 0.4221, "match_basis": "verbatim_token+domain_route:AE"}, {"md_atom_id": "md_dmAE_ex_a046", "md_file": "knowledge_base/domains/AE/examples.md", "md_atom_type": "TABLE_HEADER", "md_parent_section": "§AE.3 [Example 3]", "md_verbatim": "| Row | STUDYID | DOMAIN | USUBJID | AESEQ | AETERM | AEDECOD | AEPRESP | AEBODSYS | AESER | AEDTC | AESTDY |\n|-----|---------|--------|---------|-------|--------|---------|---------|----------|-------|-------|--------|", "score": 0.4212, "match_basis": "verbatim_token+domain_route:AE"}, {"md_atom_id": "md_dmAE_ex_a031", "md_file": "knowledge_base/domains/AE/examples.md", "md_atom_type": "TABLE_HEADER", "md_parent_section": "§AE.2 [Example 2]", "md_verbatim": "| Row | STUDYID | DOMAIN | USUBJID | AESEQ | AETERM | AEDECOD | AEPRESP | AEBODSYS | AESEV | AESER | AEACN | AEREL | AEOUT | EPOCH | AESTDTC | AEENDTC | AESTDY | AEENDY |\n|-----|---------|--------|---------|-------|--------|---------|---------|----------|-------|-------|-------|-------|-------|-------|---------|---------|--------|--------|", "score": 0.4175, "match_basis": "verbatim_token+domain_route:AE"}], "candidate_count": 5, "zero_candidate": false}
{"pdf_atom_id": "ig34_p0134_a004", "pdf_atom_type": "TABLE_ROW", "pdf_source": "SDTMIG_v3.4", "pdf_page": 134, "pdf_parent_section": "§6.2.1 [Adverse Events (AE)]", "pdf_verbatim": "| STUDYID | Study Identifier | Char | | Identifier | Unique identifier for a study. | Req |", "figure_ref": null, "candidates": [{"md_atom_id": "md_dmAE_ex_a034", "md_file": "knowledge_base/domains/AE/examples.md", "md_atom_type": "TABLE_ROW", "md_parent_section": "§AE.2 [Example 2]", "md_verbatim": "| 3 | ABC123 | AE | 123101 | 3 | HEADACHE | Headache | | Nervous system disorders | MILD | N | DOSE NOT CHANGED | POSSIBLY RELATED | RECOVERED/RESOLVED | TREATMENT | 2005-10-21 | | 11 | 11 |", "score": 0.4132, "match_basis": "verbatim_token+domain_route:AE"}, {"md_atom_id": "md_dmAE_ex_a018", "md_file": "knowledge_base/domains/AE/examples.md", "md_atom_type": "TABLE_ROW", "md_parent_section": "§AE.1 [Example 1]", "md_verbatim": "| 2 | ABC123 | AE | 123101 | 2 | BACK PAIN FOR 5 HOURS | Back pain | Back pain | Musculoskeletal and connective tissue disorders | MODERATE | N | DOSE REDUCED | RELATED | PROBABLY RELATED | RECOVERED/RESOLVED | | | | | | TREATMENT | 2005-10-13T13:05 | 2005-10-13T19:00 | 1 | 1 | |", "score": 0.4105, "match_basis": "verbatim_token+domain_route:AE"}, {"md_atom_id": "md_dmAE_assn_a029", "md_file": "knowledge_base/domains/AE/assumptions.md", "md_atom_type": "TABLE_ROW", "md_parent_section": "§AE [AE — Assumptions]", "md_verbatim": "      | If yes, check all that apply: | [ ] Fatal  [ ] Life-threatening  [ ] Inpatient hospitalization or prolongation of existing hospitalization  [ ] Persistent or significant disability/incapacity  [ ] Congenital anomaly/birth defect  [ ] Other medically important serious event |", "score": 0.4086, "match_basis": "verbatim_token+domain_route:AE"}, {"md_atom_id": "md_dmAE_ex_a057", "md_file": "knowledge_base/domains/AE/examples.md", "md_atom_type": "TABLE_ROW", "md_parent_section": "§AE.4 [Example 4]", "md_verbatim": "| 1 | ABC123 | AE | 123101 | 1 | | NAUSEA | Gastrointestinal disorders | MODERATE | N | DOSE NOT CHANGED | RELATED | 2005-10-13 | 2005-10-14 |", "score": 0.4085, "match_basis": "verbatim_token+domain_route:AE"}, {"md_atom_id": "md_dmAE_ex_a058", "md_file": "knowledge_base/domains/AE/examples.md", "md_atom_type": "TABLE_ROW", "md_parent_section": "§AE.4 [Example 4]", "md_verbatim": "| 2 | ABC123 | AE | 123101 | 2 | 1 | VOMITING | Gastrointestinal disorders | MILD | N | DOSE NOT CHANGED | POSSIBLY RELATED | 2005-10-14 | 2005-10-15 |", "score": 0.4079, "match_basis": "verbatim_token+domain_route:AE"}], "candidate_count": 5, "zero_candidate": false}
{"pdf_atom_id": "ig34_p0134_a005", "pdf_atom_type": "TABLE_ROW", "pdf_source": "SDTMIG_v3.4", "pdf_page": 134, "pdf_parent_section": "§6.2.1 [Adverse Events (AE)]", "pdf_verbatim": "| DOMAIN | Domain Abbreviation | Char | AE | Identifier | Two-character abbreviation for the domain. | Req |", "figure_ref": null, "candidates": [{"md_atom_id": "md_dmAE_assn_a029", "md_file": "knowledge_base/domains/AE/assumptions.md", "md_atom_type": "TABLE_ROW", "md_parent_section": "§AE [AE — Assumptions]", "md_verbatim": "      | If yes, check all that apply: | [ ] Fatal  [ ] Life-threatening  [ ] Inpatient hospitalization or prolongation of existing hospitalization  [ ] Persistent or significant disability/incapacity  [ ] Congenital anomaly/birth defect  [ ] Other medically important serious event |", "score": 0.4288, "match_basis": "verbatim_token+domain_route:AE"}, {"md_atom_id": "md_dmAE_ex_a096", "md_file": "knowledge_base/domains/AE/examples.md", "md_atom_type": "TABLE_ROW", "md_parent_section": "§AE.6 [Example 6]", "md_verbatim": "| 1 | 1001 | AE | 001 | Sensor123 | 1 | AE0049 | Skin redness | ERYTHEMA | N | MILD | SENSOR REPLACED AND REPOSITIONED | CAUSAL RELATIONSHIP | RECOVERED/RESOLVED | N | N | N | N | N | N | | 2013-09-07 | 2013-09-07 | 23 | 25 |", "score": 0.4242, "match_basis": "verbatim_token+domain_route:AE"}, {"md_atom_id": "md_dmAE_ex_a018", "md_file": "knowledge_base/domains/AE/examples.md", "md_atom_type": "TABLE_ROW", "md_parent_section": "§AE.1 [Example 1]", "md_verbatim": "| 2 | ABC123 | AE | 123101 | 2 | BACK PAIN FOR 5 HOURS | Back pain | Back pain | Musculoskeletal and connective tissue disorders | MODERATE | N | DOSE REDUCED | RELATED | PROBABLY RELATED | RECOVERED/RESOLVED | | | | | | TREATMENT | 2005-10-13T13:05 | 2005-10-13T19:00 | 1 | 1 | |", "score": 0.4144, "match_basis": "verbatim_token+domain_route:AE"}, {"md_atom_id": "md_dmAE_ex_a097", "md_file": "knowledge_base/domains/AE/examples.md", "md_atom_type": "TABLE_ROW", "md_parent_section": "§AE.6 [Example 6]", "md_verbatim": "| 2 | 1001 | AE | 001 | Sensor123 | 2 | AE0049 | Infection at sensor site | INFECTION | Y | MODERATE | SENSOR REPLACED AND REPOSITIONED | PROBABLE | RECOVERED/RESOLVED | N | N | N | Y | N | N | Y | 2014-10-24 | 2014-11-27 | 78 | 113 |", "score": 0.4128, "match_basis": "verbatim_token+domain_route:AE"}, {"md_atom_id": "md_dmAE_ex_a034", "md_file": "knowledge_base/domains/AE/examples.md", "md_atom_type": "TABLE_ROW", "md_parent_section": "§AE.2 [Example 2]", "md_verbatim": "| 3 | ABC123 | AE | 123101 | 3 | HEADACHE | Headache | | Nervous system disorders | MILD | N | DOSE NOT CHANGED | POSSIBLY RELATED | RECOVERED/RESOLVED | TREATMENT | 2005-10-21 | | 11 | 11 |", "score": 0.4117, "match_basis": "verbatim_token+domain_route:AE"}], "candidate_count": 5, "zero_candidate": false}
{"pdf_atom_id": "ig34_p0134_a006", "pdf_atom_type": "TABLE_ROW", "pdf_source": "SDTMIG_v3.4", "pdf_page": 134, "pdf_parent_section": "§6.2.1 [Adverse Events (AE)]", "pdf_verbatim": "| USUBJID | Unique Subject Identifier | Char | | Identifier | Identifier used to uniquely identify a subject across all studies for all applications or submissions involving the product. | Req |", "figure_ref": null, "candidates": [{"md_atom_id": "md_dmAE_assn_a029", "md_file": "knowledge_base/domains/AE/assumptions.md", "md_atom_type": "TABLE_ROW", "md_parent_section": "§AE [AE — Assumptions]", "md_verbatim": "      | If yes, check all that apply: | [ ] Fatal  [ ] Life-threatening  [ ] Inpatient hospitalization or prolongation of existing hospitalization  [ ] Persistent or significant disability/incapacity  [ ] Congenital anomaly/birth defect  [ ] Other medically important serious event |", "score": 0.4446, "match_basis": "verbatim_token+domain_route:AE"}, {"md_atom_id": "md_dmAE_ex_a017", "md_file": "knowledge_base/domains/AE/examples.md", "md_atom_type": "TABLE_ROW", "md_parent_section": "§AE.1 [Example 1]", "md_verbatim": "| 1 | ABC123 | AE | 123101 | 1 | POUNDING HEADACHE | Headache | Headache | Nervous system disorders | SEVERE | N | | NOT APPLICABLE | DEFINITELY NOT RELATED | RECOVERED/RESOLVED | | | | | | SCREENING | 2005-10-12 | 2005-10-12 | -1 | -1 | |", "score": 0.4343, "match_basis": "verbatim_token+domain_route:AE"}, {"md_atom_id": "md_dmAE_ex_a019", "md_file": "knowledge_base/domains/AE/examples.md", "md_atom_type": "TABLE_ROW", "md_parent_section": "§AE.1 [Example 1]", "md_verbatim": "| 3 | ABC123 | AE | 123101 | 3 | PULMONARY EMBOLISM | | Pulmonary embolism | Vascular disorders | MODERATE | Y | DOSE REDUCED | PROBABLY NOT RELATED | RECOVERING/RESOLVING | | | | Y | Y | | TREATMENT | 2005-10-21 | | 9 | | AFTER TREATMENT |", "score": 0.4294, "match_basis": "verbatim_token+domain_route:AE"}, {"md_atom_id": "md_dmAE_ex_a096", "md_file": "knowledge_base/domains/AE/examples.md", "md_atom_type": "TABLE_ROW", "md_parent_section": "§AE.6 [Example 6]", "md_verbatim": "| 1 | 1001 | AE | 001 | Sensor123 | 1 | AE0049 | Skin redness | ERYTHEMA | N | MILD | SENSOR REPLACED AND REPOSITIONED | CAUSAL RELATIONSHIP | RECOVERED/RESOLVED | N | N | N | N | N | N | | 2013-09-07 | 2013-09-07 | 23 | 25 |", "score": 0.4273, "match_basis": "verbatim_token+domain_route:AE"}, {"md_atom_id": "md_dmAE_ex_a018", "md_file": "knowledge_base/domains/AE/examples.md", "md_atom_type": "TABLE_ROW", "md_parent_section": "§AE.1 [Example 1]", "md_verbatim": "| 2 | ABC123 | AE | 123101 | 2 | BACK PAIN FOR 5 HOURS | Back pain | Back pain | Musculoskeletal and connective tissue disorders | MODERATE | N | DOSE REDUCED | RELATED | PROBABLY RELATED | RECOVERED/RESOLVED | | | | | | TREATMENT | 2005-10-13T13:05 | 2005-10-13T19:00 | 1 | 1 | |", "score": 0.4269, "match_basis": "verbatim_token+domain_route:AE"}], "candidate_count": 5, "zero_candidate": false}
{"pdf_atom_id": "ig34_p0134_a007", "pdf_atom_type": "TABLE_ROW", "pdf_source": "SDTMIG_v3.4", "pdf_page": 134, "pdf_parent_section": "§6.2.1 [Adverse Events (AE)]", "pdf_verbatim": "| SPDEVID | Sponsor Device Identifier | Char | | Identifier | A sequence of characters used by the sponsor to uniquely identify a specific device. Used to represent a device associated in some way with the adverse event. SPDEVID values are defined in the Device Identifiers (DI) domain. | Perm |", "figure_ref": null, "candidates": [{"md_atom_id": "md_dmAE_ex_a017", "md_file": "knowledge_base/domains/AE/examples.md", "md_atom_type": "TABLE_ROW", "md_parent_section": "§AE.1 [Example 1]", "md_verbatim": "| 1 | ABC123 | AE | 123101 | 1 | POUNDING HEADACHE | Headache | Headache | Nervous system disorders | SEVERE | N | | NOT APPLICABLE | DEFINITELY NOT RELATED | RECOVERED/RESOLVED | | | | | | SCREENING | 2005-10-12 | 2005-10-12 | -1 | -1 | |", "score": 0.4418, "match_basis": "verbatim_token+domain_route:AE"}, {"md_atom_id": "md_dmAE_ex_a032", "md_file": "knowledge_base/domains/AE/examples.md", "md_atom_type": "TABLE_ROW", "md_parent_section": "§AE.2 [Example 2]", "md_verbatim": "| 1 | ABC123 | AE | 123101 | 1 | NAUSEA | Nausea | Y | Gastrointestinal disorders | SEVERE | N | DOSE REDUCED | RELATED | RECOVERED/RESOLVED | TREATMENT | 2005-10-12 | 2005-10-13 | 2 | 3 |", "score": 0.4367, "match_basis": "verbatim_token+domain_route:AE"}, {"md_atom_id": "md_dmAE_ex_a096", "md_file": "knowledge_base/domains/AE/examples.md", "md_atom_type": "TABLE_ROW", "md_parent_section": "§AE.6 [Example 6]", "md_verbatim": "| 1 | 1001 | AE | 001 | Sensor123 | 1 | AE0049 | Skin redness | ERYTHEMA | N | MILD | SENSOR REPLACED AND REPOSITIONED | CAUSAL RELATIONSHIP | RECOVERED/RESOLVED | N | N | N | N | N | N | | 2013-09-07 | 2013-09-07 | 23 | 25 |", "score": 0.436, "match_basis": "verbatim_token+domain_route:AE"}, {"md_atom_id": "md_dmAE_assn_a029", "md_file": "knowledge_base/domains/AE/assumptions.md", "md_atom_type": "TABLE_ROW", "md_parent_section": "§AE [AE — Assumptions]", "md_verbatim": "      | If yes, check all that apply: | [ ] Fatal  [ ] Life-threatening  [ ] Inpatient hospitalization or prolongation of existing hospitalization  [ ] Persistent or significant disability/incapacity  [ ] Congenital anomaly/birth defect  [ ] Other medically important serious event |", "score": 0.4333, "match_basis": "verbatim_token+domain_route:AE"}, {"md_atom_id": "md_dmAE_ex_a097", "md_file": "knowledge_base/domains/AE/examples.md", "md_atom_type": "TABLE_ROW", "md_parent_section": "§AE.6 [Example 6]", "md_verbatim": "| 2 | 1001 | AE | 001 | Sensor123 | 2 | AE0049 | Infection at sensor site | INFECTION | Y | MODERATE | SENSOR REPLACED AND REPOSITIONED | PROBABLE | RECOVERED/RESOLVED | N | N | N | Y | N | N | Y | 2014-10-24 | 2014-11-27 | 78 | 113 |", "score": 0.4333, "match_basis": "verbatim_token+domain_route:AE"}], "candidate_count": 5, "zero_candidate": false}
{"pdf_atom_id": "ig34_p0134_a008", "pdf_atom_type": "TABLE_ROW", "pdf_source": "SDTMIG_v3.4", "pdf_page": 134, "pdf_parent_section": "§6.2.1 [Adverse Events (AE)]", "pdf_verbatim": "| AESEQ | Sequence Number | Num | | Identifier | Sequence number given to ensure uniqueness of subject records within a domain. May be any valid number. | Req |", "figure_ref": null, "candidates": [{"md_atom_id": "md_dmAE_ex_a018", "md_file": "knowledge_base/domains/AE/examples.md", "md_atom_type": "TABLE_ROW", "md_parent_section": "§AE.1 [Example 1]", "md_verbatim": "| 2 | ABC123 | AE | 123101 | 2 | BACK PAIN FOR 5 HOURS | Back pain | Back pain | Musculoskeletal and connective tissue disorders | MODERATE | N | DOSE REDUCED | RELATED | PROBABLY RELATED | RECOVERED/RESOLVED | | | | | | TREATMENT | 2005-10-13T13:05 | 2005-10-13T19:00 | 1 | 1 | |", "score": 0.429, "match_basis": "verbatim_token+domain_route:AE"}, {"md_atom_id": "md_dmAE_ex_a096", "md_file": "knowledge_base/domains/AE/examples.md", "md_atom_type": "TABLE_ROW", "md_parent_section": "§AE.6 [Example 6]", "md_verbatim": "| 1 | 1001 | AE | 001 | Sensor123 | 1 | AE0049 | Skin redness | ERYTHEMA | N | MILD | SENSOR REPLACED AND REPOSITIONED | CAUSAL RELATIONSHIP | RECOVERED/RESOLVED | N | N | N | N | N | N | | 2013-09-07 | 2013-09-07 | 23 | 25 |", "score": 0.4246, "match_basis": "verbatim_token+domain_route:AE"}, {"md_atom_id": "md_dmAE_assn_a029", "md_file": "knowledge_base/domains/AE/assumptions.md", "md_atom_type": "TABLE_ROW", "md_parent_section": "§AE [AE — Assumptions]", "md_verbatim": "      | If yes, check all that apply: | [ ] Fatal  [ ] Life-threatening  [ ] Inpatient hospitalization or prolongation of existing hospitalization  [ ] Persistent or significant disability/incapacity  [ ] Congenital anomaly/birth defect  [ ] Other medically important serious event |", "score": 0.4211, "match_basis": "verbatim_token+domain_route:AE"}, {"md_atom_id": "md_dmAE_ex_a097", "md_file": "knowledge_base/domains/AE/examples.md", "md_atom_type": "TABLE_ROW", "md_parent_section": "§AE.6 [Example 6]", "md_verbatim": "| 2 | 1001 | AE | 001 | Sensor123 | 2 | AE0049 | Infection at sensor site | INFECTION | Y | MODERATE | SENSOR REPLACED AND REPOSITIONED | PROBABLE | RECOVERED/RESOLVED | N | N | N | Y | N | N | Y | 2014-10-24 | 2014-11-27 | 78 | 113 |", "score": 0.4207, "match_basis": "verbatim_token+domain_route:AE"}, {"md_atom_id": "md_dmAE_ex_a032", "md_file": "knowledge_base/domains/AE/examples.md", "md_atom_type": "TABLE_ROW", "md_parent_section": "§AE.2 [Example 2]", "md_verbatim": "| 1 | ABC123 | AE | 123101 | 1 | NAUSEA | Nausea | Y | Gastrointestinal disorders | SEVERE | N | DOSE REDUCED | RELATED | RECOVERED/RESOLVED | TREATMENT | 2005-10-12 | 2005-10-13 | 2 | 3 |", "score": 0.42, "match_basis": "verbatim_token+domain_route:AE"}], "candidate_count": 5, "zero_candidate": false}
{"pdf_atom_id": "ig34_p0134_a009", "pdf_atom_type": "TABLE_ROW", "pdf_source": "SDTMIG_v3.4", "pdf_page": 134, "pdf_parent_section": "§6.2.1 [Adverse Events (AE)]", "pdf_verbatim": "| AEGRPID | Group ID | Char | | Identifier | Used to tie together a block of related records in a single domain for a subject. | Perm |", "figure_ref": null, "candidates": [{"md_atom_id": "md_dmAE_ex_a051", "md_file": "knowledge_base/domains/AE/examples.md", "md_atom_type": "SENTENCE", "md_parent_section": "§AE.4 [Example 4]", "md_verbatim": "The sponsor used AEGRPID to identify the group of records related to a single event for a subject.", "score": 0.5575, "match_basis": "verbatim_token+domain_route:AE"}, {"md_atom_id": "md_dmAE_assn_a010", "md_file": "knowledge_base/domains/AE/assumptions.md", "md_atom_type": "LIST_ITEM", "md_parent_section": "§AE [AE — Assumptions]", "md_verbatim": "   b. AEGRPID may be used to link (or associate) different records together to form a block of related records at the subject level within the AE domain, see Section 4.2.6, Grouping Variables and Categorization.", "score": 0.4588, "match_basis": "verbatim_token+domain_route:AE"}, {"md_atom_id": "md_dmAE_ex_a032", "md_file": "knowledge_base/domains/AE/examples.md", "md_atom_type": "TABLE_ROW", "md_parent_section": "§AE.2 [Example 2]", "md_verbatim": "| 1 | ABC123 | AE | 123101 | 1 | NAUSEA | Nausea | Y | Gastrointestinal disorders | SEVERE | N | DOSE REDUCED | RELATED | RECOVERED/RESOLVED | TREATMENT | 2005-10-12 | 2005-10-13 | 2 | 3 |", "score": 0.4531, "match_basis": "verbatim_token+domain_route:AE"}, {"md_atom_id": "md_dmAE_ex_a018", "md_file": "knowledge_base/domains/AE/examples.md", "md_atom_type": "TABLE_ROW", "md_parent_section": "§AE.1 [Example 1]", "md_verbatim": "| 2 | ABC123 | AE | 123101 | 2 | BACK PAIN FOR 5 HOURS | Back pain | Back pain | Musculoskeletal and connective tissue disorders | MODERATE | N | DOSE REDUCED | RELATED | PROBABLY RELATED | RECOVERED/RESOLVED | | | | | | TREATMENT | 2005-10-13T13:05 | 2005-10-13T19:00 | 1 | 1 | |", "score": 0.4518, "match_basis": "verbatim_token+domain_route:AE"}, {"md_atom_id": "md_dmAE_ex_a034", "md_file": "knowledge_base/domains/AE/examples.md", "md_atom_type": "TABLE_ROW", "md_parent_section": "§AE.2 [Example 2]", "md_verbatim": "| 3 | ABC123 | AE | 123101 | 3 | HEADACHE | Headache | | Nervous system disorders | MILD | N | DOSE NOT CHANGED | POSSIBLY RELATED | RECOVERED/RESOLVED | TREATMENT | 2005-10-21 | | 11 | 11 |", "score": 0.4508, "match_basis": "verbatim_token+domain_route:AE"}], "candidate_count": 5, "zero_candidate": false}
{"pdf_atom_id": "ig34_p0134_a010", "pdf_atom_type": "TABLE_ROW", "pdf_source": "SDTMIG_v3.4", "pdf_page": 134, "pdf_parent_section": "§6.2.1 [Adverse Events (AE)]", "pdf_verbatim": "| AEREFID | Reference ID | Char | | Identifier | Internal or external identifier such as a serial number on an SAE reporting form. | Perm |", "figure_ref": null, "candidates": [{"md_atom_id": "md_dmAE_ex_a059", "md_file": "knowledge_base/domains/AE/examples.md", "md_atom_type": "TABLE_ROW", "md_parent_section": "§AE.4 [Example 4]", "md_verbatim": "| 3 | ABC123 | AE | 123101 | 3 | 1 | VOMITING | Gastrointestinal disorders | SEVERE | N | DOSE NOT CHANGED | POSSIBLY RELATED | 2005-10-16 | 2005-10-17 |", "score": 0.4416, "match_basis": "verbatim_token+domain_route:AE"}, {"md_atom_id": "md_dmAE_assn_a029", "md_file": "knowledge_base/domains/AE/assumptions.md", "md_atom_type": "TABLE_ROW", "md_parent_section": "§AE [AE — Assumptions]", "md_verbatim": "      | If yes, check all that apply: | [ ] Fatal  [ ] Life-threatening  [ ] Inpatient hospitalization or prolongation of existing hospitalization  [ ] Persistent or significant disability/incapacity  [ ] Congenital anomaly/birth defect  [ ] Other medically important serious event |", "score": 0.4375, "match_basis": "verbatim_token+domain_route:AE"}, {"md_atom_id": "md_dmAE_ex_a048", "md_file": "knowledge_base/domains/AE/examples.md", "md_atom_type": "TABLE_ROW", "md_parent_section": "§AE.3 [Example 3]", "md_verbatim": "| 2 | ABC123 | AE | 123101 | 2 | VOMITING | Vomiting | Y | Gastrointestinal disorders | | 2005-10-29 | 19 |", "score": 0.4375, "match_basis": "verbatim_token+domain_route:AE"}, {"md_atom_id": "md_dmAE_ex_a058", "md_file": "knowledge_base/domains/AE/examples.md", "md_atom_type": "TABLE_ROW", "md_parent_section": "§AE.4 [Example 4]", "md_verbatim": "| 2 | ABC123 | AE | 123101 | 2 | 1 | VOMITING | Gastrointestinal disorders | MILD | N | DOSE NOT CHANGED | POSSIBLY RELATED | 2005-10-14 | 2005-10-15 |", "score": 0.436, "match_basis": "verbatim_token+domain_route:AE"}, {"md_atom_id": "md_dmAE_ex_a060", "md_file": "knowledge_base/domains/AE/examples.md", "md_atom_type": "TABLE_ROW", "md_parent_section": "§AE.4 [Example 4]", "md_verbatim": "| 4 | ABC123 | AE | 123101 | 4 | 1 | VOMITING | Gastrointestinal disorders | MILD | N | DOSE NOT CHANGED | POSSIBLY RELATED | 2005-10-17 | 2005-10-20 |", "score": 0.436, "match_basis": "verbatim_token+domain_route:AE"}], "candidate_count": 5, "zero_candidate": false}
{"pdf_atom_id": "ig34_p0134_a011", "pdf_atom_type": "TABLE_ROW", "pdf_source": "SDTMIG_v3.4", "pdf_page": 134, "pdf_parent_section": "§6.2.1 [Adverse Events (AE)]", "pdf_verbatim": "| AESPID | Sponsor-Defined Identifier | Char | | Identifier | Sponsor-defined identifier. It may be preprinted on the CRF as an explicit line identifier or defined in the sponsor's operational database. Example: Line number on an Adverse Events CRF page. | Perm |", "figure_ref": null, "candidates": [{"md_atom_id": "md_dmAE_assn_a029", "md_file": "knowledge_base/domains/AE/assumptions.md", "md_atom_type": "TABLE_ROW", "md_parent_section": "§AE [AE — Assumptions]", "md_verbatim": "      | If yes, check all that apply: | [ ] Fatal  [ ] Life-threatening  [ ] Inpatient hospitalization or prolongation of existing hospitalization  [ ] Persistent or significant disability/incapacity  [ ] Congenital anomaly/birth defect  [ ] Other medically important serious event |", "score": 0.4459, "match_basis": "verbatim_token+domain_route:AE"}, {"md_atom_id": "md_dmAE_ex_a057", "md_file": "knowledge_base/domains/AE/examples.md", "md_atom_type": "TABLE_ROW", "md_parent_section": "§AE.4 [Example 4]", "md_verbatim": "| 1 | ABC123 | AE | 123101 | 1 | | NAUSEA | Gastrointestinal disorders | MODERATE | N | DOSE NOT CHANGED | RELATED | 2005-10-13 | 2005-10-14 |", "score": 0.4454, "match_basis": "verbatim_token+domain_route:AE"}, {"md_atom_id": "md_dmAE_ex_a096", "md_file": "knowledge_base/domains/AE/examples.md", "md_atom_type": "TABLE_ROW", "md_parent_section": "§AE.6 [Example 6]", "md_verbatim": "| 1 | 1001 | AE | 001 | Sensor123 | 1 | AE0049 | Skin redness | ERYTHEMA | N | MILD | SENSOR REPLACED AND REPOSITIONED | CAUSAL RELATIONSHIP | RECOVERED/RESOLVED | N | N | N | N | N | N | | 2013-09-07 | 2013-09-07 | 23 | 25 |", "score": 0.4438, "match_basis": "verbatim_token+domain_route:AE"}, {"md_atom_id": "md_dmAE_ex_a059", "md_file": "knowledge_base/domains/AE/examples.md", "md_atom_type": "TABLE_ROW", "md_parent_section": "§AE.4 [Example 4]", "md_verbatim": "| 3 | ABC123 | AE | 123101 | 3 | 1 | VOMITING | Gastrointestinal disorders | SEVERE | N | DOSE NOT CHANGED | POSSIBLY RELATED | 2005-10-16 | 2005-10-17 |", "score": 0.4429, "match_basis": "verbatim_token+domain_route:AE"}, {"md_atom_id": "md_dmAE_ex_a033", "md_file": "knowledge_base/domains/AE/examples.md", "md_atom_type": "TABLE_ROW", "md_parent_section": "§AE.2 [Example 2]", "md_verbatim": "| 2 | ABC123 | AE | 123101 | 2 | VOMITING | Vomiting | Y | Gastrointestinal disorders | MODERATE | N | DOSE REDUCED | RELATED | RECOVERED/RESOLVED | TREATMENT | 2005-10-13T13:05 | 2005-10-13T19:00 | 3 | 3 |", "score": 0.4426, "match_basis": "verbatim_token+domain_route:AE"}], "candidate_count": 5, "zero_candidate": false}
{"pdf_atom_id": "ig34_p0134_a012", "pdf_atom_type": "TABLE_ROW", "pdf_source": "SDTMIG_v3.4", "pdf_page": 134, "pdf_parent_section": "§6.2.1 [Adverse Events (AE)]", "pdf_verbatim": "| AETERM | Reported Term for the Adverse Event | Char | | Topic | Verbatim name of the event. | Req |", "figure_ref": null, "candidates": [{"md_atom_id": "md_dmAE_ex_a059", "md_file": "knowledge_base/domains/AE/examples.md", "md_atom_type": "TABLE_ROW", "md_parent_section": "§AE.4 [Example 4]", "md_verbatim": "| 3 | ABC123 | AE | 123101 | 3 | 1 | VOMITING | Gastrointestinal disorders | SEVERE | N | DOSE NOT CHANGED | POSSIBLY RELATED | 2005-10-16 | 2005-10-17 |", "score": 0.4349, "match_basis": "verbatim_token+domain_route:AE"}, {"md_atom_id": "md_dmAE_ex_a061", "md_file": "knowledge_base/domains/AE/examples.md", "md_atom_type": "TABLE_ROW", "md_parent_section": "§AE.4 [Example 4]", "md_verbatim": "| 5 | ABC123 | AE | 123101 | 5 | 2 | DIARRHEA | Gastrointestinal disorders | SEVERE | N | DOSE NOT CHANGED | POSSIBLY RELATED | 2005-10-16 | 2005-10-17 |", "score": 0.4345, "match_basis": "verbatim_token+domain_route:AE"}, {"md_atom_id": "md_dmAE_assn_a029", "md_file": "knowledge_base/domains/AE/assumptions.md", "md_atom_type": "TABLE_ROW", "md_parent_section": "§AE [AE — Assumptions]", "md_verbatim": "      | If yes, check all that apply: | [ ] Fatal  [ ] Life-threatening  [ ] Inpatient hospitalization or prolongation of existing hospitalization  [ ] Persistent or significant disability/incapacity  [ ] Congenital anomaly/birth defect  [ ] Other medically important serious event |", "score": 0.4331, "match_basis": "verbatim_token+domain_route:AE"}, {"md_atom_id": "md_dmAE_ex_a032", "md_file": "knowledge_base/domains/AE/examples.md", "md_atom_type": "TABLE_ROW", "md_parent_section": "§AE.2 [Example 2]", "md_verbatim": "| 1 | ABC123 | AE | 123101 | 1 | NAUSEA | Nausea | Y | Gastrointestinal disorders | SEVERE | N | DOSE REDUCED | RELATED | RECOVERED/RESOLVED | TREATMENT | 2005-10-12 | 2005-10-13 | 2 | 3 |", "score": 0.4316, "match_basis": "verbatim_token+domain_route:AE"}, {"md_atom_id": "md_dmAE_ex_a096", "md_file": "knowledge_base/domains/AE/examples.md", "md_atom_type": "TABLE_ROW", "md_parent_section": "§AE.6 [Example 6]", "md_verbatim": "| 1 | 1001 | AE | 001 | Sensor123 | 1 | AE0049 | Skin redness | ERYTHEMA | N | MILD | SENSOR REPLACED AND REPOSITIONED | CAUSAL RELATIONSHIP | RECOVERED/RESOLVED | N | N | N | N | N | N | | 2013-09-07 | 2013-09-07 | 23 | 25 |", "score": 0.4306, "match_basis": "verbatim_token+domain_route:AE"}], "candidate_count": 5, "zero_candidate": false}
{"pdf_atom_id": "ig34_p0134_a013", "pdf_atom_type": "TABLE_ROW", "pdf_source": "SDTMIG_v3.4", "pdf_page": 134, "pdf_parent_section": "§6.2.1 [Adverse Events (AE)]", "pdf_verbatim": "| AEMODIFY | Modified Reported Term | Char | | Synonym Qualifier | If AETERM is modified to facilitate coding, then AEMODIFY will contain the modified text. | Perm |", "figure_ref": null, "candidates": [{"md_atom_id": "md_dmAE_assn_a029", "md_file": "knowledge_base/domains/AE/assumptions.md", "md_atom_type": "TABLE_ROW", "md_parent_section": "§AE [AE — Assumptions]", "md_verbatim": "      | If yes, check all that apply: | [ ] Fatal  [ ] Life-threatening  [ ] Inpatient hospitalization or prolongation of existing hospitalization  [ ] Persistent or significant disability/incapacity  [ ] Congenital anomaly/birth defect  [ ] Other medically important serious event |", "score": 0.4525, "match_basis": "verbatim_token+domain_route:AE"}, {"md_atom_id": "md_dmAE_ex_a081", "md_file": "knowledge_base/domains/AE/examples.md", "md_atom_type": "TABLE_ROW", "md_parent_section": "§AE.5 [Example 5]", "md_verbatim": "| 2 | T992 | AE | 002 | HipX22 | 2 | AE0033 | Osteomyelitis right hip | OSTEOMYELITIS | HIP | RIGHT | Y | MODERATE | REMOVED | PROBABLE | RECOVERING/RESOLVING | N | Y | N | Y | Y | N | N | | 2015-05-01 | | 15 | 25 |", "score": 0.4283, "match_basis": "verbatim_token+domain_route:AE"}, {"md_atom_id": "md_dmAE_ex_a057", "md_file": "knowledge_base/domains/AE/examples.md", "md_atom_type": "TABLE_ROW", "md_parent_section": "§AE.4 [Example 4]", "md_verbatim": "| 1 | ABC123 | AE | 123101 | 1 | | NAUSEA | Gastrointestinal disorders | MODERATE | N | DOSE NOT CHANGED | RELATED | 2005-10-13 | 2005-10-14 |", "score": 0.4238, "match_basis": "verbatim_token+domain_route:AE"}, {"md_atom_id": "md_dmAE_ex_a080", "md_file": "knowledge_base/domains/AE/examples.md", "md_atom_type": "TABLE_ROW", "md_parent_section": "§AE.5 [Example 5]", "md_verbatim": "| 1 | T992 | AE | 002 | HipX22 | 1 | AE0099 | Twisted left ankle | ANKLE JOINT SPRAIN | | LEFT | N | MILD | NONE | NOT RELATED | RECOVERED/RESOLVED | N | N | N | N | N | N | Y | | 2015-04-14 | 2015-04-16 | 10 | |", "score": 0.4235, "match_basis": "verbatim_token+domain_route:AE"}, {"md_atom_id": "md_dmAE_ex_a019", "md_file": "knowledge_base/domains/AE/examples.md", "md_atom_type": "TABLE_ROW", "md_parent_section": "§AE.1 [Example 1]", "md_verbatim": "| 3 | ABC123 | AE | 123101 | 3 | PULMONARY EMBOLISM | | Pulmonary embolism | Vascular disorders | MODERATE | Y | DOSE REDUCED | PROBABLY NOT RELATED | RECOVERING/RESOLVING | | | | Y | Y | | TREATMENT | 2005-10-21 | | 9 | | AFTER TREATMENT |", "score": 0.4229, "match_basis": "verbatim_token+domain_route:AE"}], "candidate_count": 5, "zero_candidate": false}
{"pdf_atom_id": "ig34_p0134_a014", "pdf_atom_type": "TABLE_ROW", "pdf_source": "SDTMIG_v3.4", "pdf_page": 134, "pdf_parent_section": "§6.2.1 [Adverse Events (AE)]", "pdf_verbatim": "| AELLT | Lowest Level Term | Char | MedDRA | Variable Qualifier | Dictionary-derived text description of the lowest level term. | Exp |", "figure_ref": null, "candidates": [{"md_atom_id": "md_dmAE_ex_a097", "md_file": "knowledge_base/domains/AE/examples.md", "md_atom_type": "TABLE_ROW", "md_parent_section": "§AE.6 [Example 6]", "md_verbatim": "| 2 | 1001 | AE | 001 | Sensor123 | 2 | AE0049 | Infection at sensor site | INFECTION | Y | MODERATE | SENSOR REPLACED AND REPOSITIONED | PROBABLE | RECOVERED/RESOLVED | N | N | N | Y | N | N | Y | 2014-10-24 | 2014-11-27 | 78 | 113 |", "score": 0.4378, "match_basis": "verbatim_token+domain_route:AE"}, {"md_atom_id": "md_dmAE_assn_a029", "md_file": "knowledge_base/domains/AE/assumptions.md", "md_atom_type": "TABLE_ROW", "md_parent_section": "§AE [AE — Assumptions]", "md_verbatim": "      | If yes, check all that apply: | [ ] Fatal  [ ] Life-threatening  [ ] Inpatient hospitalization or prolongation of existing hospitalization  [ ] Persistent or significant disability/incapacity  [ ] Congenital anomaly/birth defect  [ ] Other medically important serious event |", "score": 0.4364, "match_basis": "verbatim_token+domain_route:AE"}, {"md_atom_id": "md_dmAE_ex_a019", "md_file": "knowledge_base/domains/AE/examples.md", "md_atom_type": "TABLE_ROW", "md_parent_section": "§AE.1 [Example 1]", "md_verbatim": "| 3 | ABC123 | AE | 123101 | 3 | PULMONARY EMBOLISM | | Pulmonary embolism | Vascular disorders | MODERATE | Y | DOSE REDUCED | PROBABLY NOT RELATED | RECOVERING/RESOLVING | | | | Y | Y | | TREATMENT | 2005-10-21 | | 9 | | AFTER TREATMENT |", "score": 0.4323, "match_basis": "verbatim_token+domain_route:AE"}, {"md_atom_id": "md_dmAE_ex_a081", "md_file": "knowledge_base/domains/AE/examples.md", "md_atom_type": "TABLE_ROW", "md_parent_section": "§AE.5 [Example 5]", "md_verbatim": "| 2 | T992 | AE | 002 | HipX22 | 2 | AE0033 | Osteomyelitis right hip | OSTEOMYELITIS | HIP | RIGHT | Y | MODERATE | REMOVED | PROBABLE | RECOVERING/RESOLVING | N | Y | N | Y | Y | N | N | | 2015-05-01 | | 15 | 25 |", "score": 0.428, "match_basis": "verbatim_token+domain_route:AE"}, {"md_atom_id": "md_dmAE_ex_a017", "md_file": "knowledge_base/domains/AE/examples.md", "md_atom_type": "TABLE_ROW", "md_parent_section": "§AE.1 [Example 1]", "md_verbatim": "| 1 | ABC123 | AE | 123101 | 1 | POUNDING HEADACHE | Headache | Headache | Nervous system disorders | SEVERE | N | | NOT APPLICABLE | DEFINITELY NOT RELATED | RECOVERED/RESOLVED | | | | | | SCREENING | 2005-10-12 | 2005-10-12 | -1 | -1 | |", "score": 0.4279, "match_basis": "verbatim_token+domain_route:AE"}], "candidate_count": 5, "zero_candidate": false}
{"pdf_atom_id": "ig34_p0134_a015", "pdf_atom_type": "TABLE_ROW", "pdf_source": "SDTMIG_v3.4", "pdf_page": 134, "pdf_parent_section": "§6.2.1 [Adverse Events (AE)]", "pdf_verbatim": "| AELLTCD | Lowest Level Term Code | Num | MedDRA | Variable Qualifier | Dictionary-derived code for the lowest level term. | Exp |", "figure_ref": null, "candidates": [{"md_atom_id": "md_dmAE_ex_a097", "md_file": "knowledge_base/domains/AE/examples.md", "md_atom_type": "TABLE_ROW", "md_parent_section": "§AE.6 [Example 6]", "md_verbatim": "| 2 | 1001 | AE | 001 | Sensor123 | 2 | AE0049 | Infection at sensor site | INFECTION | Y | MODERATE | SENSOR REPLACED AND REPOSITIONED | PROBABLE | RECOVERED/RESOLVED | N | N | N | Y | N | N | Y | 2014-10-24 | 2014-11-27 | 78 | 113 |", "score": 0.4457, "match_basis": "verbatim_token+domain_route:AE"}, {"md_atom_id": "md_dmAE_ex_a019", "md_file": "knowledge_base/domains/AE/examples.md", "md_atom_type": "TABLE_ROW", "md_parent_section": "§AE.1 [Example 1]", "md_verbatim": "| 3 | ABC123 | AE | 123101 | 3 | PULMONARY EMBOLISM | | Pulmonary embolism | Vascular disorders | MODERATE | Y | DOSE REDUCED | PROBABLY NOT RELATED | RECOVERING/RESOLVING | | | | Y | Y | | TREATMENT | 2005-10-21 | | 9 | | AFTER TREATMENT |", "score": 0.4387, "match_basis": "verbatim_token+domain_route:AE"}, {"md_atom_id": "md_dmAE_assn_a029", "md_file": "knowledge_base/domains/AE/assumptions.md", "md_atom_type": "TABLE_ROW", "md_parent_section": "§AE [AE — Assumptions]", "md_verbatim": "      | If yes, check all that apply: | [ ] Fatal  [ ] Life-threatening  [ ] Inpatient hospitalization or prolongation of existing hospitalization  [ ] Persistent or significant disability/incapacity  [ ] Congenital anomaly/birth defect  [ ] Other medically important serious event |", "score": 0.4375, "match_basis": "verbatim_token+domain_route:AE"}, {"md_atom_id": "md_dmAE_ex_a081", "md_file": "knowledge_base/domains/AE/examples.md", "md_atom_type": "TABLE_ROW", "md_parent_section": "§AE.5 [Example 5]", "md_verbatim": "| 2 | T992 | AE | 002 | HipX22 | 2 | AE0033 | Osteomyelitis right hip | OSTEOMYELITIS | HIP | RIGHT | Y | MODERATE | REMOVED | PROBABLE | RECOVERING/RESOLVING | N | Y | N | Y | Y | N | N | | 2015-05-01 | | 15 | 25 |", "score": 0.4356, "match_basis": "verbatim_token+domain_route:AE"}, {"md_atom_id": "md_dmAE_ex_a018", "md_file": "knowledge_base/domains/AE/examples.md", "md_atom_type": "TABLE_ROW", "md_parent_section": "§AE.1 [Example 1]", "md_verbatim": "| 2 | ABC123 | AE | 123101 | 2 | BACK PAIN FOR 5 HOURS | Back pain | Back pain | Musculoskeletal and connective tissue disorders | MODERATE | N | DOSE REDUCED | RELATED | PROBABLY RELATED | RECOVERED/RESOLVED | | | | | | TREATMENT | 2005-10-13T13:05 | 2005-10-13T19:00 | 1 | 1 | |", "score": 0.4304, "match_basis": "verbatim_token+domain_route:AE"}], "candidate_count": 5, "zero_candidate": false}
{"pdf_atom_id": "ig34_p0134_a016", "pdf_atom_type": "TABLE_ROW", "pdf_source": "SDTMIG_v3.4", "pdf_page": 134, "pdf_parent_section": "§6.2.1 [Adverse Events (AE)]", "pdf_verbatim": "| AEDECOD | Dictionary-Derived Term | Char | MedDRA | Synonym Qualifier | Dictionary-derived text description of AETERM or AEMODIFY. Equivalent to the Preferred Term (PT in MedDRA). The sponsor is expected to provide the dictionary name and version used to map the terms utilizing the external codelist element in the Define-XML document. | Req |", "figure_ref": null, "candidates": [{"md_atom_id": "md_dmAE_assn_a006", "md_file": "knowledge_base/domains/AE/assumptions.md", "md_atom_type": "LIST_ITEM", "md_parent_section": "§AE [AE — Assumptions]", "md_verbatim": "   c. AEDECOD is the preferred term derived by the sponsor from the coding dictionary. It is a required variable and must have a value. It is expected that the reported term (AETERM) will be coded using a standard dictionary such as MedDRA. The sponsor is expected to provide the dictionary name and version used to map the terms utilizing the external codelist element in the Define-XML document.", "score": 0.5749, "match_basis": "verbatim_token+domain_route:AE"}, {"md_atom_id": "md_dmAE_ex_a019", "md_file": "knowledge_base/domains/AE/examples.md", "md_atom_type": "TABLE_ROW", "md_parent_section": "§AE.1 [Example 1]", "md_verbatim": "| 3 | ABC123 | AE | 123101 | 3 | PULMONARY EMBOLISM | | Pulmonary embolism | Vascular disorders | MODERATE | Y | DOSE REDUCED | PROBABLY NOT RELATED | RECOVERING/RESOLVING | | | | Y | Y | | TREATMENT | 2005-10-21 | | 9 | | AFTER TREATMENT |", "score": 0.4597, "match_basis": "verbatim_token+domain_route:AE"}, {"md_atom_id": "md_dmAE_ex_a018", "md_file": "knowledge_base/domains/AE/examples.md", "md_atom_type": "TABLE_ROW", "md_parent_section": "§AE.1 [Example 1]", "md_verbatim": "| 2 | ABC123 | AE | 123101 | 2 | BACK PAIN FOR 5 HOURS | Back pain | Back pain | Musculoskeletal and connective tissue disorders | MODERATE | N | DOSE REDUCED | RELATED | PROBABLY RELATED | RECOVERED/RESOLVED | | | | | | TREATMENT | 2005-10-13T13:05 | 2005-10-13T19:00 | 1 | 1 | |", "score": 0.4527, "match_basis": "verbatim_token+domain_route:AE"}, {"md_atom_id": "md_dmAE_assn_a029", "md_file": "knowledge_base/domains/AE/assumptions.md", "md_atom_type": "TABLE_ROW", "md_parent_section": "§AE [AE — Assumptions]", "md_verbatim": "      | If yes, check all that apply: | [ ] Fatal  [ ] Life-threatening  [ ] Inpatient hospitalization or prolongation of existing hospitalization  [ ] Persistent or significant disability/incapacity  [ ] Congenital anomaly/birth defect  [ ] Other medically important serious event |", "score": 0.4526, "match_basis": "verbatim_token+domain_route:AE"}, {"md_atom_id": "md_dmAE_ex_a097", "md_file": "knowledge_base/domains/AE/examples.md", "md_atom_type": "TABLE_ROW", "md_parent_section": "§AE.6 [Example 6]", "md_verbatim": "| 2 | 1001 | AE | 001 | Sensor123 | 2 | AE0049 | Infection at sensor site | INFECTION | Y | MODERATE | SENSOR REPLACED AND REPOSITIONED | PROBABLE | RECOVERED/RESOLVED | N | N | N | Y | N | N | Y | 2014-10-24 | 2014-11-27 | 78 | 113 |", "score": 0.4511, "match_basis": "verbatim_token+domain_route:AE"}], "candidate_count": 5, "zero_candidate": false}
{"pdf_atom_id": "ig34_p0134_a017", "pdf_atom_type": "TABLE_ROW", "pdf_source": "SDTMIG_v3.4", "pdf_page": 134, "pdf_parent_section": "§6.2.1 [Adverse Events (AE)]", "pdf_verbatim": "| AEPTCD | Preferred Term Code | Num | MedDRA | Variable Qualifier | Dictionary-derived code for the preferred term. | Exp |", "figure_ref": null, "candidates": [{"md_atom_id": "md_dmAE_ex_a097", "md_file": "knowledge_base/domains/AE/examples.md", "md_atom_type": "TABLE_ROW", "md_parent_section": "§AE.6 [Example 6]", "md_verbatim": "| 2 | 1001 | AE | 001 | Sensor123 | 2 | AE0049 | Infection at sensor site | INFECTION | Y | MODERATE | SENSOR REPLACED AND REPOSITIONED | PROBABLE | RECOVERED/RESOLVED | N | N | N | Y | N | N | Y | 2014-10-24 | 2014-11-27 | 78 | 113 |", "score": 0.4524, "match_basis": "verbatim_token+domain_route:AE"}, {"md_atom_id": "md_dmAE_ex_a019", "md_file": "knowledge_base/domains/AE/examples.md", "md_atom_type": "TABLE_ROW", "md_parent_section": "§AE.1 [Example 1]", "md_verbatim": "| 3 | ABC123 | AE | 123101 | 3 | PULMONARY EMBOLISM | | Pulmonary embolism | Vascular disorders | MODERATE | Y | DOSE REDUCED | PROBABLY NOT RELATED | RECOVERING/RESOLVING | | | | Y | Y | | TREATMENT | 2005-10-21 | | 9 | | AFTER TREATMENT |", "score": 0.4443, "match_basis": "verbatim_token+domain_route:AE"}, {"md_atom_id": "md_dmAE_assn_a029", "md_file": "knowledge_base/domains/AE/assumptions.md", "md_atom_type": "TABLE_ROW", "md_parent_section": "§AE [AE — Assumptions]", "md_verbatim": "      | If yes, check all that apply: | [ ] Fatal  [ ] Life-threatening  [ ] Inpatient hospitalization or prolongation of existing hospitalization  [ ] Persistent or significant disability/incapacity  [ ] Congenital anomaly/birth defect  [ ] Other medically important serious event |", "score": 0.4377, "match_basis": "verbatim_token+domain_route:AE"}, {"md_atom_id": "md_dmAE_ex_a081", "md_file": "knowledge_base/domains/AE/examples.md", "md_atom_type": "TABLE_ROW", "md_parent_section": "§AE.5 [Example 5]", "md_verbatim": "| 2 | T992 | AE | 002 | HipX22 | 2 | AE0033 | Osteomyelitis right hip | OSTEOMYELITIS | HIP | RIGHT | Y | MODERATE | REMOVED | PROBABLE | RECOVERING/RESOLVING | N | Y | N | Y | Y | N | N | | 2015-05-01 | | 15 | 25 |", "score": 0.436, "match_basis": "verbatim_token+domain_route:AE"}, {"md_atom_id": "md_dmAE_ex_a018", "md_file": "knowledge_base/domains/AE/examples.md", "md_atom_type": "TABLE_ROW", "md_parent_section": "§AE.1 [Example 1]", "md_verbatim": "| 2 | ABC123 | AE | 123101 | 2 | BACK PAIN FOR 5 HOURS | Back pain | Back pain | Musculoskeletal and connective tissue disorders | MODERATE | N | DOSE REDUCED | RELATED | PROBABLY RELATED | RECOVERED/RESOLVED | | | | | | TREATMENT | 2005-10-13T13:05 | 2005-10-13T19:00 | 1 | 1 | |", "score": 0.4353, "match_basis": "verbatim_token+domain_route:AE"}], "candidate_count": 5, "zero_candidate": false}
{"pdf_atom_id": "ig34_p0134_a018", "pdf_atom_type": "TABLE_ROW", "pdf_source": "SDTMIG_v3.4", "pdf_page": 134, "pdf_parent_section": "§6.2.1 [Adverse Events (AE)]", "pdf_verbatim": "| AEHLT | High Level Term | Char | MedDRA | Variable Qualifier | Dictionary-derived text description of the high level term for the primary system organ class (SOC). | Exp |", "figure_ref": null, "candidates": [{"md_atom_id": "md_dmAE_ex_a017", "md_file": "knowledge_base/domains/AE/examples.md", "md_atom_type": "TABLE_ROW", "md_parent_section": "§AE.1 [Example 1]", "md_verbatim": "| 1 | ABC123 | AE | 123101 | 1 | POUNDING HEADACHE | Headache | Headache | Nervous system disorders | SEVERE | N | | NOT APPLICABLE | DEFINITELY NOT RELATED | RECOVERED/RESOLVED | | | | | | SCREENING | 2005-10-12 | 2005-10-12 | -1 | -1 | |", "score": 0.4432, "match_basis": "verbatim_token+domain_route:AE"}, {"md_atom_id": "md_dmAE_assn_a029", "md_file": "knowledge_base/domains/AE/assumptions.md", "md_atom_type": "TABLE_ROW", "md_parent_section": "§AE [AE — Assumptions]", "md_verbatim": "      | If yes, check all that apply: | [ ] Fatal  [ ] Life-threatening  [ ] Inpatient hospitalization or prolongation of existing hospitalization  [ ] Persistent or significant disability/incapacity  [ ] Congenital anomaly/birth defect  [ ] Other medically important serious event |", "score": 0.4371, "match_basis": "verbatim_token+domain_route:AE"}, {"md_atom_id": "md_dmAE_ex_a081", "md_file": "knowledge_base/domains/AE/examples.md", "md_atom_type": "TABLE_ROW", "md_parent_section": "§AE.5 [Example 5]", "md_verbatim": "| 2 | T992 | AE | 002 | HipX22 | 2 | AE0033 | Osteomyelitis right hip | OSTEOMYELITIS | HIP | RIGHT | Y | MODERATE | REMOVED | PROBABLE | RECOVERING/RESOLVING | N | Y | N | Y | Y | N | N | | 2015-05-01 | | 15 | 25 |", "score": 0.4353, "match_basis": "verbatim_token+domain_route:AE"}, {"md_atom_id": "md_dmAE_ex_a097", "md_file": "knowledge_base/domains/AE/examples.md", "md_atom_type": "TABLE_ROW", "md_parent_section": "§AE.6 [Example 6]", "md_verbatim": "| 2 | 1001 | AE | 001 | Sensor123 | 2 | AE0049 | Infection at sensor site | INFECTION | Y | MODERATE | SENSOR REPLACED AND REPOSITIONED | PROBABLE | RECOVERED/RESOLVED | N | N | N | Y | N | N | Y | 2014-10-24 | 2014-11-27 | 78 | 113 |", "score": 0.4336, "match_basis": "verbatim_token+domain_route:AE"}, {"md_atom_id": "md_dmAE_ex_a034", "md_file": "knowledge_base/domains/AE/examples.md", "md_atom_type": "TABLE_ROW", "md_parent_section": "§AE.2 [Example 2]", "md_verbatim": "| 3 | ABC123 | AE | 123101 | 3 | HEADACHE | Headache | | Nervous system disorders | MILD | N | DOSE NOT CHANGED | POSSIBLY RELATED | RECOVERED/RESOLVED | TREATMENT | 2005-10-21 | | 11 | 11 |", "score": 0.4313, "match_basis": "verbatim_token+domain_route:AE"}], "candidate_count": 5, "zero_candidate": false}
{"pdf_atom_id": "ig34_p0134_a019", "pdf_atom_type": "TABLE_ROW", "pdf_source": "SDTMIG_v3.4", "pdf_page": 134, "pdf_parent_section": "§6.2.1 [Adverse Events (AE)]", "pdf_verbatim": "| AEHLTCD | High Level Term Code | Num | MedDRA | Variable Qualifier | Dictionary-derived code for the high level term for the primary SOC. | Exp |", "figure_ref": null, "candidates": [{"md_atom_id": "md_dmAE_ex_a097", "md_file": "knowledge_base/domains/AE/examples.md", "md_atom_type": "TABLE_ROW", "md_parent_section": "§AE.6 [Example 6]", "md_verbatim": "| 2 | 1001 | AE | 001 | Sensor123 | 2 | AE0049 | Infection at sensor site | INFECTION | Y | MODERATE | SENSOR REPLACED AND REPOSITIONED | PROBABLE | RECOVERED/RESOLVED | N | N | N | Y | N | N | Y | 2014-10-24 | 2014-11-27 | 78 | 113 |", "score": 0.4444, "match_basis": "verbatim_token+domain_route:AE"}, {"md_atom_id": "md_dmAE_ex_a081", "md_file": "knowledge_base/domains/AE/examples.md", "md_atom_type": "TABLE_ROW", "md_parent_section": "§AE.5 [Example 5]", "md_verbatim": "| 2 | T992 | AE | 002 | HipX22 | 2 | AE0033 | Osteomyelitis right hip | OSTEOMYELITIS | HIP | RIGHT | Y | MODERATE | REMOVED | PROBABLE | RECOVERING/RESOLVING | N | Y | N | Y | Y | N | N | | 2015-05-01 | | 15 | 25 |", "score": 0.4408, "match_basis": "verbatim_token+domain_route:AE"}, {"md_atom_id": "md_dmAE_ex_a019", "md_file": "knowledge_base/domains/AE/examples.md", "md_atom_type": "TABLE_ROW", "md_parent_section": "§AE.1 [Example 1]", "md_verbatim": "| 3 | ABC123 | AE | 123101 | 3 | PULMONARY EMBOLISM | | Pulmonary embolism | Vascular disorders | MODERATE | Y | DOSE REDUCED | PROBABLY NOT RELATED | RECOVERING/RESOLVING | | | | Y | Y | | TREATMENT | 2005-10-21 | | 9 | | AFTER TREATMENT |", "score": 0.4378, "match_basis": "verbatim_token+domain_route:AE"}, {"md_atom_id": "md_dmAE_assn_a029", "md_file": "knowledge_base/domains/AE/assumptions.md", "md_atom_type": "TABLE_ROW", "md_parent_section": "§AE [AE — Assumptions]", "md_verbatim": "      | If yes, check all that apply: | [ ] Fatal  [ ] Life-threatening  [ ] Inpatient hospitalization or prolongation of existing hospitalization  [ ] Persistent or significant disability/incapacity  [ ] Congenital anomaly/birth defect  [ ] Other medically important serious event |", "score": 0.4368, "match_basis": "verbatim_token+domain_route:AE"}, {"md_atom_id": "md_dmAE_ex_a018", "md_file": "knowledge_base/domains/AE/examples.md", "md_atom_type": "TABLE_ROW", "md_parent_section": "§AE.1 [Example 1]", "md_verbatim": "| 2 | ABC123 | AE | 123101 | 2 | BACK PAIN FOR 5 HOURS | Back pain | Back pain | Musculoskeletal and connective tissue disorders | MODERATE | N | DOSE REDUCED | RELATED | PROBABLY RELATED | RECOVERED/RESOLVED | | | | | | TREATMENT | 2005-10-13T13:05 | 2005-10-13T19:00 | 1 | 1 | |", "score": 0.4298, "match_basis": "verbatim_token+domain_route:AE"}], "candidate_count": 5, "zero_candidate": false}
{"pdf_atom_id": "ig34_p0134_a020", "pdf_atom_type": "TABLE_ROW", "pdf_source": "SDTMIG_v3.4", "pdf_page": 134, "pdf_parent_section": "§6.2.1 [Adverse Events (AE)]", "pdf_verbatim": "| AEHLGT | High Level Group Term | Char | MedDRA | Variable Qualifier | Dictionary-derived text description of the high level group term for the primary SOC. | Exp |", "figure_ref": null, "candidates": [{"md_atom_id": "md_dmAE_ex_a097", "md_file": "knowledge_base/domains/AE/examples.md", "md_atom_type": "TABLE_ROW", "md_parent_section": "§AE.6 [Example 6]", "md_verbatim": "| 2 | 1001 | AE | 001 | Sensor123 | 2 | AE0049 | Infection at sensor site | INFECTION | Y | MODERATE | SENSOR REPLACED AND REPOSITIONED | PROBABLE | RECOVERED/RESOLVED | N | N | N | Y | N | N | Y | 2014-10-24 | 2014-11-27 | 78 | 113 |", "score": 0.4353, "match_basis": "verbatim_token+domain_route:AE"}, {"md_atom_id": "md_dmAE_assn_a029", "md_file": "knowledge_base/domains/AE/assumptions.md", "md_atom_type": "TABLE_ROW", "md_parent_section": "§AE [AE — Assumptions]", "md_verbatim": "      | If yes, check all that apply: | [ ] Fatal  [ ] Life-threatening  [ ] Inpatient hospitalization or prolongation of existing hospitalization  [ ] Persistent or significant disability/incapacity  [ ] Congenital anomaly/birth defect  [ ] Other medically important serious event |", "score": 0.4347, "match_basis": "verbatim_token+domain_route:AE"}, {"md_atom_id": "md_dmAE_ex_a081", "md_file": "knowledge_base/domains/AE/examples.md", "md_atom_type": "TABLE_ROW", "md_parent_section": "§AE.5 [Example 5]", "md_verbatim": "| 2 | T992 | AE | 002 | HipX22 | 2 | AE0033 | Osteomyelitis right hip | OSTEOMYELITIS | HIP | RIGHT | Y | MODERATE | REMOVED | PROBABLE | RECOVERING/RESOLVING | N | Y | N | Y | Y | N | N | | 2015-05-01 | | 15 | 25 |", "score": 0.4316, "match_basis": "verbatim_token+domain_route:AE"}, {"md_atom_id": "md_dmAE_ex_a019", "md_file": "knowledge_base/domains/AE/examples.md", "md_atom_type": "TABLE_ROW", "md_parent_section": "§AE.1 [Example 1]", "md_verbatim": "| 3 | ABC123 | AE | 123101 | 3 | PULMONARY EMBOLISM | | Pulmonary embolism | Vascular disorders | MODERATE | Y | DOSE REDUCED | PROBABLY NOT RELATED | RECOVERING/RESOLVING | | | | Y | Y | | TREATMENT | 2005-10-21 | | 9 | | AFTER TREATMENT |", "score": 0.4304, "match_basis": "verbatim_token+domain_route:AE"}, {"md_atom_id": "md_dmAE_ex_a017", "md_file": "knowledge_base/domains/AE/examples.md", "md_atom_type": "TABLE_ROW", "md_parent_section": "§AE.1 [Example 1]", "md_verbatim": "| 1 | ABC123 | AE | 123101 | 1 | POUNDING HEADACHE | Headache | Headache | Nervous system disorders | SEVERE | N | | NOT APPLICABLE | DEFINITELY NOT RELATED | RECOVERED/RESOLVED | | | | | | SCREENING | 2005-10-12 | 2005-10-12 | -1 | -1 | |", "score": 0.4263, "match_basis": "verbatim_token+domain_route:AE"}], "candidate_count": 5, "zero_candidate": false}
{"pdf_atom_id": "ig34_p0134_a021", "pdf_atom_type": "TABLE_ROW", "pdf_source": "SDTMIG_v3.4", "pdf_page": 134, "pdf_parent_section": "§6.2.1 [Adverse Events (AE)]", "pdf_verbatim": "| AEHLGTCD | High Level Group Term Code | Num | MedDRA | Variable Qualifier | Dictionary-derived code for the high level group term for the primary SOC. | Exp |", "figure_ref": null, "candidates": [{"md_atom_id": "md_dmAE_ex_a097", "md_file": "knowledge_base/domains/AE/examples.md", "md_atom_type": "TABLE_ROW", "md_parent_section": "§AE.6 [Example 6]", "md_verbatim": "| 2 | 1001 | AE | 001 | Sensor123 | 2 | AE0049 | Infection at sensor site | INFECTION | Y | MODERATE | SENSOR REPLACED AND REPOSITIONED | PROBABLE | RECOVERED/RESOLVED | N | N | N | Y | N | N | Y | 2014-10-24 | 2014-11-27 | 78 | 113 |", "score": 0.4429, "match_basis": "verbatim_token+domain_route:AE"}, {"md_atom_id": "md_dmAE_ex_a081", "md_file": "knowledge_base/domains/AE/examples.md", "md_atom_type": "TABLE_ROW", "md_parent_section": "§AE.5 [Example 5]", "md_verbatim": "| 2 | T992 | AE | 002 | HipX22 | 2 | AE0033 | Osteomyelitis right hip | OSTEOMYELITIS | HIP | RIGHT | Y | MODERATE | REMOVED | PROBABLE | RECOVERING/RESOLVING | N | Y | N | Y | Y | N | N | | 2015-05-01 | | 15 | 25 |", "score": 0.4393, "match_basis": "verbatim_token+domain_route:AE"}, {"md_atom_id": "md_dmAE_ex_a019", "md_file": "knowledge_base/domains/AE/examples.md", "md_atom_type": "TABLE_ROW", "md_parent_section": "§AE.1 [Example 1]", "md_verbatim": "| 3 | ABC123 | AE | 123101 | 3 | PULMONARY EMBOLISM | | Pulmonary embolism | Vascular disorders | MODERATE | Y | DOSE REDUCED | PROBABLY NOT RELATED | RECOVERING/RESOLVING | | | | Y | Y | | TREATMENT | 2005-10-21 | | 9 | | AFTER TREATMENT |", "score": 0.4366, "match_basis": "verbatim_token+domain_route:AE"}, {"md_atom_id": "md_dmAE_assn_a029", "md_file": "knowledge_base/domains/AE/assumptions.md", "md_atom_type": "TABLE_ROW", "md_parent_section": "§AE [AE — Assumptions]", "md_verbatim": "      | If yes, check all that apply: | [ ] Fatal  [ ] Life-threatening  [ ] Inpatient hospitalization or prolongation of existing hospitalization  [ ] Persistent or significant disability/incapacity  [ ] Congenital anomaly/birth defect  [ ] Other medically important serious event |", "score": 0.4359, "match_basis": "verbatim_token+domain_route:AE"}, {"md_atom_id": "md_dmAE_ex_a018", "md_file": "knowledge_base/domains/AE/examples.md", "md_atom_type": "TABLE_ROW", "md_parent_section": "§AE.1 [Example 1]", "md_verbatim": "| 2 | ABC123 | AE | 123101 | 2 | BACK PAIN FOR 5 HOURS | Back pain | Back pain | Musculoskeletal and connective tissue disorders | MODERATE | N | DOSE REDUCED | RELATED | PROBABLY RELATED | RECOVERED/RESOLVED | | | | | | TREATMENT | 2005-10-13T13:05 | 2005-10-13T19:00 | 1 | 1 | |", "score": 0.429, "match_basis": "verbatim_token+domain_route:AE"}], "candidate_count": 5, "zero_candidate": false}
{"pdf_atom_id": "ig34_p0134_a022", "pdf_atom_type": "TABLE_ROW", "pdf_source": "SDTMIG_v3.4", "pdf_page": 134, "pdf_parent_section": "§6.2.1 [Adverse Events (AE)]", "pdf_verbatim": "| AECAT | Category for Adverse Event | Char | * | Grouping Qualifier | Used to define a category of related records. Examples: \"BLEEDING\", \"NEUROPSYCHIATRIC\". | Perm |", "figure_ref": null, "candidates": [{"md_atom_id": "md_dmAE_ex_a017", "md_file": "knowledge_base/domains/AE/examples.md", "md_atom_type": "TABLE_ROW", "md_parent_section": "§AE.1 [Example 1]", "md_verbatim": "| 1 | ABC123 | AE | 123101 | 1 | POUNDING HEADACHE | Headache | Headache | Nervous system disorders | SEVERE | N | | NOT APPLICABLE | DEFINITELY NOT RELATED | RECOVERED/RESOLVED | | | | | | SCREENING | 2005-10-12 | 2005-10-12 | -1 | -1 | |", "score": 0.4745, "match_basis": "verbatim_token+domain_route:AE"}, {"md_atom_id": "md_dmAE_ex_a032", "md_file": "knowledge_base/domains/AE/examples.md", "md_atom_type": "TABLE_ROW", "md_parent_section": "§AE.2 [Example 2]", "md_verbatim": "| 1 | ABC123 | AE | 123101 | 1 | NAUSEA | Nausea | Y | Gastrointestinal disorders | SEVERE | N | DOSE REDUCED | RELATED | RECOVERED/RESOLVED | TREATMENT | 2005-10-12 | 2005-10-13 | 2 | 3 |", "score": 0.4609, "match_basis": "verbatim_token+domain_route:AE"}, {"md_atom_id": "md_dmAE_ex_a059", "md_file": "knowledge_base/domains/AE/examples.md", "md_atom_type": "TABLE_ROW", "md_parent_section": "§AE.4 [Example 4]", "md_verbatim": "| 3 | ABC123 | AE | 123101 | 3 | 1 | VOMITING | Gastrointestinal disorders | SEVERE | N | DOSE NOT CHANGED | POSSIBLY RELATED | 2005-10-16 | 2005-10-17 |", "score": 0.4545, "match_basis": "verbatim_token+domain_route:AE"}, {"md_atom_id": "md_dmAE_ex_a034", "md_file": "knowledge_base/domains/AE/examples.md", "md_atom_type": "TABLE_ROW", "md_parent_section": "§AE.2 [Example 2]", "md_verbatim": "| 3 | ABC123 | AE | 123101 | 3 | HEADACHE | Headache | | Nervous system disorders | MILD | N | DOSE NOT CHANGED | POSSIBLY RELATED | RECOVERED/RESOLVED | TREATMENT | 2005-10-21 | | 11 | 11 |", "score": 0.4537, "match_basis": "verbatim_token+domain_route:AE"}, {"md_atom_id": "md_dmAE_ex_a033", "md_file": "knowledge_base/domains/AE/examples.md", "md_atom_type": "TABLE_ROW", "md_parent_section": "§AE.2 [Example 2]", "md_verbatim": "| 2 | ABC123 | AE | 123101 | 2 | VOMITING | Vomiting | Y | Gastrointestinal disorders | MODERATE | N | DOSE REDUCED | RELATED | RECOVERED/RESOLVED | TREATMENT | 2005-10-13T13:05 | 2005-10-13T19:00 | 3 | 3 |", "score": 0.4529, "match_basis": "verbatim_token+domain_route:AE"}], "candidate_count": 5, "zero_candidate": false}
{"pdf_atom_id": "ig34_p0134_a023", "pdf_atom_type": "TABLE_ROW", "pdf_source": "SDTMIG_v3.4", "pdf_page": 134, "pdf_parent_section": "§6.2.1 [Adverse Events (AE)]", "pdf_verbatim": "| AESCAT | Subcategory for Adverse Event | Char | * | Grouping Qualifier | A further categorization of adverse event. Example: \"NEUROLOGIC\". | Perm |", "figure_ref": null, "candidates": [{"md_atom_id": "md_dmAE_assn_a029", "md_file": "knowledge_base/domains/AE/assumptions.md", "md_atom_type": "TABLE_ROW", "md_parent_section": "§AE [AE — Assumptions]", "md_verbatim": "      | If yes, check all that apply: | [ ] Fatal  [ ] Life-threatening  [ ] Inpatient hospitalization or prolongation of existing hospitalization  [ ] Persistent or significant disability/incapacity  [ ] Congenital anomaly/birth defect  [ ] Other medically important serious event |", "score": 0.4736, "match_basis": "verbatim_token+domain_route:AE"}, {"md_atom_id": "md_dmAE_ex_a059", "md_file": "knowledge_base/domains/AE/examples.md", "md_atom_type": "TABLE_ROW", "md_parent_section": "§AE.4 [Example 4]", "md_verbatim": "| 3 | ABC123 | AE | 123101 | 3 | 1 | VOMITING | Gastrointestinal disorders | SEVERE | N | DOSE NOT CHANGED | POSSIBLY RELATED | 2005-10-16 | 2005-10-17 |", "score": 0.4313, "match_basis": "verbatim_token+domain_route:AE"}, {"md_atom_id": "md_dmAE_ex_a061", "md_file": "knowledge_base/domains/AE/examples.md", "md_atom_type": "TABLE_ROW", "md_parent_section": "§AE.4 [Example 4]", "md_verbatim": "| 5 | ABC123 | AE | 123101 | 5 | 2 | DIARRHEA | Gastrointestinal disorders | SEVERE | N | DOSE NOT CHANGED | POSSIBLY RELATED | 2005-10-16 | 2005-10-17 |", "score": 0.4256, "match_basis": "verbatim_token+domain_route:AE"}, {"md_atom_id": "md_dmAE_ex_a032", "md_file": "knowledge_base/domains/AE/examples.md", "md_atom_type": "TABLE_ROW", "md_parent_section": "§AE.2 [Example 2]", "md_verbatim": "| 1 | ABC123 | AE | 123101 | 1 | NAUSEA | Nausea | Y | Gastrointestinal disorders | SEVERE | N | DOSE REDUCED | RELATED | RECOVERED/RESOLVED | TREATMENT | 2005-10-12 | 2005-10-13 | 2 | 3 |", "score": 0.424, "match_basis": "verbatim_token+domain_route:AE"}, {"md_atom_id": "md_dmAE_ex_a096", "md_file": "knowledge_base/domains/AE/examples.md", "md_atom_type": "TABLE_ROW", "md_parent_section": "§AE.6 [Example 6]", "md_verbatim": "| 1 | 1001 | AE | 001 | Sensor123 | 1 | AE0049 | Skin redness | ERYTHEMA | N | MILD | SENSOR REPLACED AND REPOSITIONED | CAUSAL RELATIONSHIP | RECOVERED/RESOLVED | N | N | N | N | N | N | | 2013-09-07 | 2013-09-07 | 23 | 25 |", "score": 0.4234, "match_basis": "verbatim_token+domain_route:AE"}], "candidate_count": 5, "zero_candidate": false}
{"pdf_atom_id": "ig34_p0134_a024", "pdf_atom_type": "TABLE_ROW", "pdf_source": "SDTMIG_v3.4", "pdf_page": 134, "pdf_parent_section": "§6.2.1 [Adverse Events (AE)]", "pdf_verbatim": "| AEPRESP | Pre-Specified Adverse Event | Char | (NY) | Variable Qualifier | A value of \"Y\" indicates that this adverse event was prespecified on the CRF. Values are null for spontaneously reported events (i.e., those collected as free-text verbatim terms). | Perm |", "figure_ref": null, "candidates": [{"md_atom_id": "md_dmAE_assn_a029", "md_file": "knowledge_base/domains/AE/assumptions.md", "md_atom_type": "TABLE_ROW", "md_parent_section": "§AE [AE — Assumptions]", "md_verbatim": "      | If yes, check all that apply: | [ ] Fatal  [ ] Life-threatening  [ ] Inpatient hospitalization or prolongation of existing hospitalization  [ ] Persistent or significant disability/incapacity  [ ] Congenital anomaly/birth defect  [ ] Other medically important serious event |", "score": 0.4649, "match_basis": "verbatim_token+domain_route:AE"}, {"md_atom_id": "md_dmAE_ex_a017", "md_file": "knowledge_base/domains/AE/examples.md", "md_atom_type": "TABLE_ROW", "md_parent_section": "§AE.1 [Example 1]", "md_verbatim": "| 1 | ABC123 | AE | 123101 | 1 | POUNDING HEADACHE | Headache | Headache | Nervous system disorders | SEVERE | N | | NOT APPLICABLE | DEFINITELY NOT RELATED | RECOVERED/RESOLVED | | | | | | SCREENING | 2005-10-12 | 2005-10-12 | -1 | -1 | |", "score": 0.4442, "match_basis": "verbatim_token+domain_route:AE"}, {"md_atom_id": "md_dmAE_assn_a014", "md_file": "knowledge_base/domains/AE/assumptions.md", "md_atom_type": "LIST_ITEM", "md_parent_section": "§AE [AE — Assumptions]", "md_verbatim": "   c. If a study collects both prespecified adverse events and free-text events, the value of AEPRESP should be \"Y\" for all prespecified events and null for events reported as free text. AEPRESP is a permissible field and may be omitted from the dataset if all adverse events were collected as free text.", "score": 0.4386, "match_basis": "verbatim_token+domain_route:AE"}, {"md_atom_id": "md_dmAE_ex_a032", "md_file": "knowledge_base/domains/AE/examples.md", "md_atom_type": "TABLE_ROW", "md_parent_section": "§AE.2 [Example 2]", "md_verbatim": "| 1 | ABC123 | AE | 123101 | 1 | NAUSEA | Nausea | Y | Gastrointestinal disorders | SEVERE | N | DOSE REDUCED | RELATED | RECOVERED/RESOLVED | TREATMENT | 2005-10-12 | 2005-10-13 | 2 | 3 |", "score": 0.4353, "match_basis": "verbatim_token+domain_route:AE"}, {"md_atom_id": "md_dmAE_ex_a034", "md_file": "knowledge_base/domains/AE/examples.md", "md_atom_type": "TABLE_ROW", "md_parent_section": "§AE.2 [Example 2]", "md_verbatim": "| 3 | ABC123 | AE | 123101 | 3 | HEADACHE | Headache | | Nervous system disorders | MILD | N | DOSE NOT CHANGED | POSSIBLY RELATED | RECOVERED/RESOLVED | TREATMENT | 2005-10-21 | | 11 | 11 |", "score": 0.4342, "match_basis": "verbatim_token+domain_route:AE"}], "candidate_count": 5, "zero_candidate": false}
{"pdf_atom_id": "ig34_p0134_a025", "pdf_atom_type": "TABLE_ROW", "pdf_source": "SDTMIG_v3.4", "pdf_page": 134, "pdf_parent_section": "§6.2.1 [Adverse Events (AE)]", "pdf_verbatim": "| AEBODSYS | Body System or Organ Class | Char | * | Record Qualifier | Dictionary derived. Body system or organ class used by the sponsor from the coding dictionary (e.g., MedDRA). When using a multi-axial dictionary such as MedDRA, this should contain the SOC used for the sponsor's analyses and summary tables, which may not necessarily be the primary SOC. | Exp |", "figure_ref": null, "candidates": [{"md_atom_id": "md_dmAE_ex_a017", "md_file": "knowledge_base/domains/AE/examples.md", "md_atom_type": "TABLE_ROW", "md_parent_section": "§AE.1 [Example 1]", "md_verbatim": "| 1 | ABC123 | AE | 123101 | 1 | POUNDING HEADACHE | Headache | Headache | Nervous system disorders | SEVERE | N | | NOT APPLICABLE | DEFINITELY NOT RELATED | RECOVERED/RESOLVED | | | | | | SCREENING | 2005-10-12 | 2005-10-12 | -1 | -1 | |", "score": 0.4492, "match_basis": "verbatim_token+domain_route:AE"}, {"md_atom_id": "md_dmAE_ex_a018", "md_file": "knowledge_base/domains/AE/examples.md", "md_atom_type": "TABLE_ROW", "md_parent_section": "§AE.1 [Example 1]", "md_verbatim": "| 2 | ABC123 | AE | 123101 | 2 | BACK PAIN FOR 5 HOURS | Back pain | Back pain | Musculoskeletal and connective tissue disorders | MODERATE | N | DOSE REDUCED | RELATED | PROBABLY RELATED | RECOVERED/RESOLVED | | | | | | TREATMENT | 2005-10-13T13:05 | 2005-10-13T19:00 | 1 | 1 | |", "score": 0.4455, "match_basis": "verbatim_token+domain_route:AE"}, {"md_atom_id": "md_dmAE_ex_a097", "md_file": "knowledge_base/domains/AE/examples.md", "md_atom_type": "TABLE_ROW", "md_parent_section": "§AE.6 [Example 6]", "md_verbatim": "| 2 | 1001 | AE | 001 | Sensor123 | 2 | AE0049 | Infection at sensor site | INFECTION | Y | MODERATE | SENSOR REPLACED AND REPOSITIONED | PROBABLE | RECOVERED/RESOLVED | N | N | N | Y | N | N | Y | 2014-10-24 | 2014-11-27 | 78 | 113 |", "score": 0.4426, "match_basis": "verbatim_token+domain_route:AE"}, {"md_atom_id": "md_dmAE_ex_a034", "md_file": "knowledge_base/domains/AE/examples.md", "md_atom_type": "TABLE_ROW", "md_parent_section": "§AE.2 [Example 2]", "md_verbatim": "| 3 | ABC123 | AE | 123101 | 3 | HEADACHE | Headache | | Nervous system disorders | MILD | N | DOSE NOT CHANGED | POSSIBLY RELATED | RECOVERED/RESOLVED | TREATMENT | 2005-10-21 | | 11 | 11 |", "score": 0.4404, "match_basis": "verbatim_token+domain_route:AE"}, {"md_atom_id": "md_dmAE_ex_a019", "md_file": "knowledge_base/domains/AE/examples.md", "md_atom_type": "TABLE_ROW", "md_parent_section": "§AE.1 [Example 1]", "md_verbatim": "| 3 | ABC123 | AE | 123101 | 3 | PULMONARY EMBOLISM | | Pulmonary embolism | Vascular disorders | MODERATE | Y | DOSE REDUCED | PROBABLY NOT RELATED | RECOVERING/RESOLVING | | | | Y | Y | | TREATMENT | 2005-10-21 | | 9 | | AFTER TREATMENT |", "score": 0.4383, "match_basis": "verbatim_token+domain_route:AE"}], "candidate_count": 5, "zero_candidate": false}
{"pdf_atom_id": "ig34_p0135_a001", "pdf_atom_type": "TABLE_HEADER", "pdf_source": "SDTMIG_v3.4", "pdf_page": 135, "pdf_parent_section": "§6.2.1 [Adverse Events (AE)]", "pdf_verbatim": "| Variable Name | Variable Label | Type | Controlled Terms, Codelist or Format1 | Role | CDISC Notes | Core |", "figure_ref": null, "candidates": [{"md_atom_id": "md_dmAE_ex_a095", "md_file": "knowledge_base/domains/AE/examples.md", "md_atom_type": "TABLE_HEADER", "md_parent_section": "§AE.6 [Example 6]", "md_verbatim": "| Row | STUDYID | DOMAIN | USUBJID | SPDEVID | AESEQ | AESPID | AETERM | AEDECOD | AESER | AESEV | AEACNDEV | AERLDEV | AEOUT | AESCONG | AESDISAB | AESDTH | AESHOSP | AESLIFE | AESMIE | AESINTV | AESTDTC | AEENDTC | AESTDY | AEENDY |\n|-----|---------|--------|---------|---------|-------|--------|--------|---------|-------|-------|----------|---------|-------|---------|----------|--------|---------|---------|--------|---------|---------|---------|--------|--------|", "score": 0.4242, "match_basis": "verbatim_token+domain_route:AE"}, {"md_atom_id": "md_dmAE_ex_a016", "md_file": "knowledge_base/domains/AE/examples.md", "md_atom_type": "TABLE_HEADER", "md_parent_section": "§AE.1 [Example 1]", "md_verbatim": "| Row | STUDYID | DOMAIN | USUBJID | AESEQ | AETERM | AEMODIFY | AEDECOD | AEBODSYS | AESEV | AESER | AEACN | AEREL | AEOUT | AESCONG | AESDISAB | AESDTH | AESHOSP | AESLIFE | AESMIE | EPOCH | AESTDTC | AEENDTC | AESTDY | AEENDY | AEENRF |\n|-----|---------|--------|---------|-------|--------|----------|---------|----------|-------|-------|-------|-------|-------|---------|----------|--------|---------|---------|--------|-------|---------|---------|--------|--------|--------|", "score": 0.4238, "match_basis": "verbatim_token+domain_route:AE"}, {"md_atom_id": "md_dmAE_ex_a079", "md_file": "knowledge_base/domains/AE/examples.md", "md_atom_type": "TABLE_HEADER", "md_parent_section": "§AE.5 [Example 5]", "md_verbatim": "| Row | STUDYID | DOMAIN | USUBJID | SPDEVID | AESEQ | AESPID | AETERM | AEDECOD | AELOC | AELAT | AESER | AESEV | AEACNDEV | AERELDEV | AERLPRC | AEREL | AEOUT | AESCONG | AESDISAB | AESDTH | AESHOSP | AESLIFE | AESMIE | AEUNANT | AERLPRT | AESTDTC | AEENDTC | AESTDY | AEENDY |\n|-----|---------|--------|---------|---------|-------|--------|--------|---------|-------|-------|-------|-------|----------|----------|---------|-------|-------|---------|----------|--------|---------|---------|--------|---------|---------|---------|---------|--------|--------|", "score": 0.4221, "match_basis": "verbatim_token+domain_route:AE"}, {"md_atom_id": "md_dmAE_ex_a046", "md_file": "knowledge_base/domains/AE/examples.md", "md_atom_type": "TABLE_HEADER", "md_parent_section": "§AE.3 [Example 3]", "md_verbatim": "| Row | STUDYID | DOMAIN | USUBJID | AESEQ | AETERM | AEDECOD | AEPRESP | AEBODSYS | AESER | AEDTC | AESTDY |\n|-----|---------|--------|---------|-------|--------|---------|---------|----------|-------|-------|--------|", "score": 0.4212, "match_basis": "verbatim_token+domain_route:AE"}, {"md_atom_id": "md_dmAE_ex_a031", "md_file": "knowledge_base/domains/AE/examples.md", "md_atom_type": "TABLE_HEADER", "md_parent_section": "§AE.2 [Example 2]", "md_verbatim": "| Row | STUDYID | DOMAIN | USUBJID | AESEQ | AETERM | AEDECOD | AEPRESP | AEBODSYS | AESEV | AESER | AEACN | AEREL | AEOUT | EPOCH | AESTDTC | AEENDTC | AESTDY | AEENDY |\n|-----|---------|--------|---------|-------|--------|---------|---------|----------|-------|-------|-------|-------|-------|-------|---------|---------|--------|--------|", "score": 0.4175, "match_basis": "verbatim_token+domain_route:AE"}], "candidate_count": 5, "zero_candidate": false}
{"pdf_atom_id": "ig34_p0135_a002", "pdf_atom_type": "TABLE_ROW", "pdf_source": "SDTMIG_v3.4", "pdf_page": 135, "pdf_parent_section": "§6.2.1 [Adverse Events (AE)]", "pdf_verbatim": "| AEBDSYCD | Body System or Organ Class Code | Num | MedDRA | Variable Qualifier | Dictionary derived. Code for the body system or organ class used by the sponsor. When using a multi-axial dictionary such as MedDRA, this should contain the SOC used for the sponsor's analyses and summary tables, which may not necessarily be the primary SOC. | Exp |", "figure_ref": null, "candidates": [{"md_atom_id": "md_dmAE_ex_a018", "md_file": "knowledge_base/domains/AE/examples.md", "md_atom_type": "TABLE_ROW", "md_parent_section": "§AE.1 [Example 1]", "md_verbatim": "| 2 | ABC123 | AE | 123101 | 2 | BACK PAIN FOR 5 HOURS | Back pain | Back pain | Musculoskeletal and connective tissue disorders | MODERATE | N | DOSE REDUCED | RELATED | PROBABLY RELATED | RECOVERED/RESOLVED | | | | | | TREATMENT | 2005-10-13T13:05 | 2005-10-13T19:00 | 1 | 1 | |", "score": 0.4396, "match_basis": "verbatim_token+domain_route:AE"}, {"md_atom_id": "md_dmAE_ex_a097", "md_file": "knowledge_base/domains/AE/examples.md", "md_atom_type": "TABLE_ROW", "md_parent_section": "§AE.6 [Example 6]", "md_verbatim": "| 2 | 1001 | AE | 001 | Sensor123 | 2 | AE0049 | Infection at sensor site | INFECTION | Y | MODERATE | SENSOR REPLACED AND REPOSITIONED | PROBABLE | RECOVERED/RESOLVED | N | N | N | Y | N | N | Y | 2014-10-24 | 2014-11-27 | 78 | 113 |", "score": 0.4395, "match_basis": "verbatim_token+domain_route:AE"}, {"md_atom_id": "md_dmAE_ex_a017", "md_file": "knowledge_base/domains/AE/examples.md", "md_atom_type": "TABLE_ROW", "md_parent_section": "§AE.1 [Example 1]", "md_verbatim": "| 1 | ABC123 | AE | 123101 | 1 | POUNDING HEADACHE | Headache | Headache | Nervous system disorders | SEVERE | N | | NOT APPLICABLE | DEFINITELY NOT RELATED | RECOVERED/RESOLVED | | | | | | SCREENING | 2005-10-12 | 2005-10-12 | -1 | -1 | |", "score": 0.4359, "match_basis": "verbatim_token+domain_route:AE"}, {"md_atom_id": "md_dmAE_assn_a029", "md_file": "knowledge_base/domains/AE/assumptions.md", "md_atom_type": "TABLE_ROW", "md_parent_section": "§AE [AE — Assumptions]", "md_verbatim": "      | If yes, check all that apply: | [ ] Fatal  [ ] Life-threatening  [ ] Inpatient hospitalization or prolongation of existing hospitalization  [ ] Persistent or significant disability/incapacity  [ ] Congenital anomaly/birth defect  [ ] Other medically important serious event |", "score": 0.4351, "match_basis": "verbatim_token+domain_route:AE"}, {"md_atom_id": "md_dmAE_ex_a019", "md_file": "knowledge_base/domains/AE/examples.md", "md_atom_type": "TABLE_ROW", "md_parent_section": "§AE.1 [Example 1]", "md_verbatim": "| 3 | ABC123 | AE | 123101 | 3 | PULMONARY EMBOLISM | | Pulmonary embolism | Vascular disorders | MODERATE | Y | DOSE REDUCED | PROBABLY NOT RELATED | RECOVERING/RESOLVING | | | | Y | Y | | TREATMENT | 2005-10-21 | | 9 | | AFTER TREATMENT |", "score": 0.4321, "match_basis": "verbatim_token+domain_route:AE"}], "candidate_count": 5, "zero_candidate": false}
{"pdf_atom_id": "ig34_p0135_a003", "pdf_atom_type": "TABLE_ROW", "pdf_source": "SDTMIG_v3.4", "pdf_page": 135, "pdf_parent_section": "§6.2.1 [Adverse Events (AE)]", "pdf_verbatim": "| AESOC | Primary System Organ Class | Char | MedDRA | Variable Qualifier | Dictionary-derived text description of the primary SOC. Will be the same as AEBODSYS if the primary SOC was used for analysis. | Exp |", "figure_ref": null, "candidates": [{"md_atom_id": "md_dmAE_ex_a017", "md_file": "knowledge_base/domains/AE/examples.md", "md_atom_type": "TABLE_ROW", "md_parent_section": "§AE.1 [Example 1]", "md_verbatim": "| 1 | ABC123 | AE | 123101 | 1 | POUNDING HEADACHE | Headache | Headache | Nervous system disorders | SEVERE | N | | NOT APPLICABLE | DEFINITELY NOT RELATED | RECOVERED/RESOLVED | | | | | | SCREENING | 2005-10-12 | 2005-10-12 | -1 | -1 | |", "score": 0.4403, "match_basis": "verbatim_token+domain_route:AE"}, {"md_atom_id": "md_dmAE_assn_a029", "md_file": "knowledge_base/domains/AE/assumptions.md", "md_atom_type": "TABLE_ROW", "md_parent_section": "§AE [AE — Assumptions]", "md_verbatim": "      | If yes, check all that apply: | [ ] Fatal  [ ] Life-threatening  [ ] Inpatient hospitalization or prolongation of existing hospitalization  [ ] Persistent or significant disability/incapacity  [ ] Congenital anomaly/birth defect  [ ] Other medically important serious event |", "score": 0.4385, "match_basis": "verbatim_token+domain_route:AE"}, {"md_atom_id": "md_dmAE_ex_a097", "md_file": "knowledge_base/domains/AE/examples.md", "md_atom_type": "TABLE_ROW", "md_parent_section": "§AE.6 [Example 6]", "md_verbatim": "| 2 | 1001 | AE | 001 | Sensor123 | 2 | AE0049 | Infection at sensor site | INFECTION | Y | MODERATE | SENSOR REPLACED AND REPOSITIONED | PROBABLE | RECOVERED/RESOLVED | N | N | N | Y | N | N | Y | 2014-10-24 | 2014-11-27 | 78 | 113 |", "score": 0.4358, "match_basis": "verbatim_token+domain_route:AE"}, {"md_atom_id": "md_dmAE_ex_a034", "md_file": "knowledge_base/domains/AE/examples.md", "md_atom_type": "TABLE_ROW", "md_parent_section": "§AE.2 [Example 2]", "md_verbatim": "| 3 | ABC123 | AE | 123101 | 3 | HEADACHE | Headache | | Nervous system disorders | MILD | N | DOSE NOT CHANGED | POSSIBLY RELATED | RECOVERED/RESOLVED | TREATMENT | 2005-10-21 | | 11 | 11 |", "score": 0.4336, "match_basis": "verbatim_token+domain_route:AE"}, {"md_atom_id": "md_dmAE_ex_a081", "md_file": "knowledge_base/domains/AE/examples.md", "md_atom_type": "TABLE_ROW", "md_parent_section": "§AE.5 [Example 5]", "md_verbatim": "| 2 | T992 | AE | 002 | HipX22 | 2 | AE0033 | Osteomyelitis right hip | OSTEOMYELITIS | HIP | RIGHT | Y | MODERATE | REMOVED | PROBABLE | RECOVERING/RESOLVING | N | Y | N | Y | Y | N | N | | 2015-05-01 | | 15 | 25 |", "score": 0.4326, "match_basis": "verbatim_token+domain_route:AE"}], "candidate_count": 5, "zero_candidate": false}
{"pdf_atom_id": "ig34_p0135_a004", "pdf_atom_type": "TABLE_ROW", "pdf_source": "SDTMIG_v3.4", "pdf_page": 135, "pdf_parent_section": "§6.2.1 [Adverse Events (AE)]", "pdf_verbatim": "| AESOCCD | Primary System Organ Class Code | Num | MedDRA | Variable Qualifier | Dictionary-derived code for the primary SOC. Will be the same as AEBDSYCD if the primary SOC was used for analysis. | Exp |", "figure_ref": null, "candidates": [{"md_atom_id": "md_dmAE_ex_a097", "md_file": "knowledge_base/domains/AE/examples.md", "md_atom_type": "TABLE_ROW", "md_parent_section": "§AE.6 [Example 6]", "md_verbatim": "| 2 | 1001 | AE | 001 | Sensor123 | 2 | AE0049 | Infection at sensor site | INFECTION | Y | MODERATE | SENSOR REPLACED AND REPOSITIONED | PROBABLE | RECOVERED/RESOLVED | N | N | N | Y | N | N | Y | 2014-10-24 | 2014-11-27 | 78 | 113 |", "score": 0.4422, "match_basis": "verbatim_token+domain_route:AE"}, {"md_atom_id": "md_dmAE_assn_a029", "md_file": "knowledge_base/domains/AE/assumptions.md", "md_atom_type": "TABLE_ROW", "md_parent_section": "§AE [AE — Assumptions]", "md_verbatim": "      | If yes, check all that apply: | [ ] Fatal  [ ] Life-threatening  [ ] Inpatient hospitalization or prolongation of existing hospitalization  [ ] Persistent or significant disability/incapacity  [ ] Congenital anomaly/birth defect  [ ] Other medically important serious event |", "score": 0.4396, "match_basis": "verbatim_token+domain_route:AE"}, {"md_atom_id": "md_dmAE_ex_a081", "md_file": "knowledge_base/domains/AE/examples.md", "md_atom_type": "TABLE_ROW", "md_parent_section": "§AE.5 [Example 5]", "md_verbatim": "| 2 | T992 | AE | 002 | HipX22 | 2 | AE0033 | Osteomyelitis right hip | OSTEOMYELITIS | HIP | RIGHT | Y | MODERATE | REMOVED | PROBABLE | RECOVERING/RESOLVING | N | Y | N | Y | Y | N | N | | 2015-05-01 | | 15 | 25 |", "score": 0.439, "match_basis": "verbatim_token+domain_route:AE"}, {"md_atom_id": "md_dmAE_ex_a017", "md_file": "knowledge_base/domains/AE/examples.md", "md_atom_type": "TABLE_ROW", "md_parent_section": "§AE.1 [Example 1]", "md_verbatim": "| 1 | ABC123 | AE | 123101 | 1 | POUNDING HEADACHE | Headache | Headache | Nervous system disorders | SEVERE | N | | NOT APPLICABLE | DEFINITELY NOT RELATED | RECOVERED/RESOLVED | | | | | | SCREENING | 2005-10-12 | 2005-10-12 | -1 | -1 | |", "score": 0.4372, "match_basis": "verbatim_token+domain_route:AE"}, {"md_atom_id": "md_dmAE_ex_a019", "md_file": "knowledge_base/domains/AE/examples.md", "md_atom_type": "TABLE_ROW", "md_parent_section": "§AE.1 [Example 1]", "md_verbatim": "| 3 | ABC123 | AE | 123101 | 3 | PULMONARY EMBOLISM | | Pulmonary embolism | Vascular disorders | MODERATE | Y | DOSE REDUCED | PROBABLY NOT RELATED | RECOVERING/RESOLVING | | | | Y | Y | | TREATMENT | 2005-10-21 | | 9 | | AFTER TREATMENT |", "score": 0.4324, "match_basis": "verbatim_token+domain_route:AE"}], "candidate_count": 5, "zero_candidate": false}
{"pdf_atom_id": "ig34_p0135_a005", "pdf_atom_type": "TABLE_ROW", "pdf_source": "SDTMIG_v3.4", "pdf_page": 135, "pdf_parent_section": "§6.2.1 [Adverse Events (AE)]", "pdf_verbatim": "| AELOC | Location of Event | Char | (LOC) | Record Qualifier | Describes anatomical location relevant for the event (e.g., \"ARM\" for skin rash). | Perm |", "figure_ref": null, "candidates": [{"md_atom_id": "md_dmAE_assn_a029", "md_file": "knowledge_base/domains/AE/assumptions.md", "md_atom_type": "TABLE_ROW", "md_parent_section": "§AE [AE — Assumptions]", "md_verbatim": "      | If yes, check all that apply: | [ ] Fatal  [ ] Life-threatening  [ ] Inpatient hospitalization or prolongation of existing hospitalization  [ ] Persistent or significant disability/incapacity  [ ] Congenital anomaly/birth defect  [ ] Other medically important serious event |", "score": 0.4525, "match_basis": "verbatim_token+domain_route:AE"}, {"md_atom_id": "md_dmAE_ex_a096", "md_file": "knowledge_base/domains/AE/examples.md", "md_atom_type": "TABLE_ROW", "md_parent_section": "§AE.6 [Example 6]", "md_verbatim": "| 1 | 1001 | AE | 001 | Sensor123 | 1 | AE0049 | Skin redness | ERYTHEMA | N | MILD | SENSOR REPLACED AND REPOSITIONED | CAUSAL RELATIONSHIP | RECOVERED/RESOLVED | N | N | N | N | N | N | | 2013-09-07 | 2013-09-07 | 23 | 25 |", "score": 0.447, "match_basis": "verbatim_token+domain_route:AE"}, {"md_atom_id": "md_dmAE_ex_a017", "md_file": "knowledge_base/domains/AE/examples.md", "md_atom_type": "TABLE_ROW", "md_parent_section": "§AE.1 [Example 1]", "md_verbatim": "| 1 | ABC123 | AE | 123101 | 1 | POUNDING HEADACHE | Headache | Headache | Nervous system disorders | SEVERE | N | | NOT APPLICABLE | DEFINITELY NOT RELATED | RECOVERED/RESOLVED | | | | | | SCREENING | 2005-10-12 | 2005-10-12 | -1 | -1 | |", "score": 0.4331, "match_basis": "verbatim_token+domain_route:AE"}, {"md_atom_id": "md_dmAE_ex_a032", "md_file": "knowledge_base/domains/AE/examples.md", "md_atom_type": "TABLE_ROW", "md_parent_section": "§AE.2 [Example 2]", "md_verbatim": "| 1 | ABC123 | AE | 123101 | 1 | NAUSEA | Nausea | Y | Gastrointestinal disorders | SEVERE | N | DOSE REDUCED | RELATED | RECOVERED/RESOLVED | TREATMENT | 2005-10-12 | 2005-10-13 | 2 | 3 |", "score": 0.4313, "match_basis": "verbatim_token+domain_route:AE"}, {"md_atom_id": "md_dmAE_ex_a034", "md_file": "knowledge_base/domains/AE/examples.md", "md_atom_type": "TABLE_ROW", "md_parent_section": "§AE.2 [Example 2]", "md_verbatim": "| 3 | ABC123 | AE | 123101 | 3 | HEADACHE | Headache | | Nervous system disorders | MILD | N | DOSE NOT CHANGED | POSSIBLY RELATED | RECOVERED/RESOLVED | TREATMENT | 2005-10-21 | | 11 | 11 |", "score": 0.43, "match_basis": "verbatim_token+domain_route:AE"}], "candidate_count": 5, "zero_candidate": false}
{"pdf_atom_id": "ig34_p0135_a006", "pdf_atom_type": "TABLE_ROW", "pdf_source": "SDTMIG_v3.4", "pdf_page": 135, "pdf_parent_section": "§6.2.1 [Adverse Events (AE)]", "pdf_verbatim": "| AESEV | Severity/Intensity | Char | (AESEV) | Record Qualifier | The severity or intensity of the event. Examples: \"MILD\", \"MODERATE\", \"SEVERE\". | Perm |", "figure_ref": null, "candidates": [{"md_atom_id": "md_dmAE_ex_a033", "md_file": "knowledge_base/domains/AE/examples.md", "md_atom_type": "TABLE_ROW", "md_parent_section": "§AE.2 [Example 2]", "md_verbatim": "| 2 | ABC123 | AE | 123101 | 2 | VOMITING | Vomiting | Y | Gastrointestinal disorders | MODERATE | N | DOSE REDUCED | RELATED | RECOVERED/RESOLVED | TREATMENT | 2005-10-13T13:05 | 2005-10-13T19:00 | 3 | 3 |", "score": 0.4785, "match_basis": "verbatim_token+domain_route:AE"}, {"md_atom_id": "md_dmAE_ex_a097", "md_file": "knowledge_base/domains/AE/examples.md", "md_atom_type": "TABLE_ROW", "md_parent_section": "§AE.6 [Example 6]", "md_verbatim": "| 2 | 1001 | AE | 001 | Sensor123 | 2 | AE0049 | Infection at sensor site | INFECTION | Y | MODERATE | SENSOR REPLACED AND REPOSITIONED | PROBABLE | RECOVERED/RESOLVED | N | N | N | Y | N | N | Y | 2014-10-24 | 2014-11-27 | 78 | 113 |", "score": 0.4735, "match_basis": "verbatim_token+domain_route:AE"}, {"md_atom_id": "md_dmAE_ex_a032", "md_file": "knowledge_base/domains/AE/examples.md", "md_atom_type": "TABLE_ROW", "md_parent_section": "§AE.2 [Example 2]", "md_verbatim": "| 1 | ABC123 | AE | 123101 | 1 | NAUSEA | Nausea | Y | Gastrointestinal disorders | SEVERE | N | DOSE REDUCED | RELATED | RECOVERED/RESOLVED | TREATMENT | 2005-10-12 | 2005-10-13 | 2 | 3 |", "score": 0.4706, "match_basis": "verbatim_token+domain_route:AE"}, {"md_atom_id": "md_dmAE_ex_a057", "md_file": "knowledge_base/domains/AE/examples.md", "md_atom_type": "TABLE_ROW", "md_parent_section": "§AE.4 [Example 4]", "md_verbatim": "| 1 | ABC123 | AE | 123101 | 1 | | NAUSEA | Gastrointestinal disorders | MODERATE | N | DOSE NOT CHANGED | RELATED | 2005-10-13 | 2005-10-14 |", "score": 0.4682, "match_basis": "verbatim_token+domain_route:AE"}, {"md_atom_id": "md_dmAE_ex_a081", "md_file": "knowledge_base/domains/AE/examples.md", "md_atom_type": "TABLE_ROW", "md_parent_section": "§AE.5 [Example 5]", "md_verbatim": "| 2 | T992 | AE | 002 | HipX22 | 2 | AE0033 | Osteomyelitis right hip | OSTEOMYELITIS | HIP | RIGHT | Y | MODERATE | REMOVED | PROBABLE | RECOVERING/RESOLVING | N | Y | N | Y | Y | N | N | | 2015-05-01 | | 15 | 25 |", "score": 0.4638, "match_basis": "verbatim_token+domain_route:AE"}], "candidate_count": 5, "zero_candidate": false}
{"pdf_atom_id": "ig34_p0135_a007", "pdf_atom_type": "TABLE_ROW", "pdf_source": "SDTMIG_v3.4", "pdf_page": 135, "pdf_parent_section": "§6.2.1 [Adverse Events (AE)]", "pdf_verbatim": "| AESER | Serious Event | Char | (NY) | Record Qualifier | Is this a serious event? Valid values are \"Y\" and \"N\". | Exp |", "figure_ref": null, "candidates": [{"md_atom_id": "md_dmAE_assn_a029", "md_file": "knowledge_base/domains/AE/assumptions.md", "md_atom_type": "TABLE_ROW", "md_parent_section": "§AE [AE — Assumptions]", "md_verbatim": "      | If yes, check all that apply: | [ ] Fatal  [ ] Life-threatening  [ ] Inpatient hospitalization or prolongation of existing hospitalization  [ ] Persistent or significant disability/incapacity  [ ] Congenital anomaly/birth defect  [ ] Other medically important serious event |", "score": 0.4465, "match_basis": "verbatim_token+domain_route:AE"}, {"md_atom_id": "md_dmAE_ex_a034", "md_file": "knowledge_base/domains/AE/examples.md", "md_atom_type": "TABLE_ROW", "md_parent_section": "§AE.2 [Example 2]", "md_verbatim": "| 3 | ABC123 | AE | 123101 | 3 | HEADACHE | Headache | | Nervous system disorders | MILD | N | DOSE NOT CHANGED | POSSIBLY RELATED | RECOVERED/RESOLVED | TREATMENT | 2005-10-21 | | 11 | 11 |", "score": 0.4364, "match_basis": "verbatim_token+domain_route:AE"}, {"md_atom_id": "md_dmAE_ex_a032", "md_file": "knowledge_base/domains/AE/examples.md", "md_atom_type": "TABLE_ROW", "md_parent_section": "§AE.2 [Example 2]", "md_verbatim": "| 1 | ABC123 | AE | 123101 | 1 | NAUSEA | Nausea | Y | Gastrointestinal disorders | SEVERE | N | DOSE REDUCED | RELATED | RECOVERED/RESOLVED | TREATMENT | 2005-10-12 | 2005-10-13 | 2 | 3 |", "score": 0.4316, "match_basis": "verbatim_token+domain_route:AE"}, {"md_atom_id": "md_dmAE_assn_a028", "md_file": "knowledge_base/domains/AE/assumptions.md", "md_atom_type": "TABLE_HEADER", "md_parent_section": "§AE [AE — Assumptions]", "md_verbatim": "      | Serious? | [ ] Yes  [ ] No |\n      |----------|-----------------|", "score": 0.4282, "match_basis": "verbatim_token+domain_route:AE"}, {"md_atom_id": "md_dmAE_ex_a017", "md_file": "knowledge_base/domains/AE/examples.md", "md_atom_type": "TABLE_ROW", "md_parent_section": "§AE.1 [Example 1]", "md_verbatim": "| 1 | ABC123 | AE | 123101 | 1 | POUNDING HEADACHE | Headache | Headache | Nervous system disorders | SEVERE | N | | NOT APPLICABLE | DEFINITELY NOT RELATED | RECOVERED/RESOLVED | | | | | | SCREENING | 2005-10-12 | 2005-10-12 | -1 | -1 | |", "score": 0.4278, "match_basis": "verbatim_token+domain_route:AE"}], "candidate_count": 5, "zero_candidate": false}
{"pdf_atom_id": "ig34_p0135_a008", "pdf_atom_type": "TABLE_ROW", "pdf_source": "SDTMIG_v3.4", "pdf_page": 135, "pdf_parent_section": "§6.2.1 [Adverse Events (AE)]", "pdf_verbatim": "| AEACN | Action Taken with Study Treatment | Char | (ACN) | Record Qualifier | Describes changes to the study treatment as a result of the event. AEACN is specifically for the relationship to study treatment. AEACNOTH is for actions unrelated to dose adjustments of study treatment. Examples of AEACN values include ICH E2B values: \"DRUG WITHDRAWN\", \"DOSE REDUCED\", \"DOSE INCREASED\", \"DOSE NOT CHANGED\", \"UNKNOWN\" and \"NOT APPLICABLE\". | Exp |", "figure_ref": null, "candidates": [{"md_atom_id": "md_dmAE_ex_a034", "md_file": "knowledge_base/domains/AE/examples.md", "md_atom_type": "TABLE_ROW", "md_parent_section": "§AE.2 [Example 2]", "md_verbatim": "| 3 | ABC123 | AE | 123101 | 3 | HEADACHE | Headache | | Nervous system disorders | MILD | N | DOSE NOT CHANGED | POSSIBLY RELATED | RECOVERED/RESOLVED | TREATMENT | 2005-10-21 | | 11 | 11 |", "score": 0.4824, "match_basis": "verbatim_token+domain_route:AE"}, {"md_atom_id": "md_dmAE_ex_a032", "md_file": "knowledge_base/domains/AE/examples.md", "md_atom_type": "TABLE_ROW", "md_parent_section": "§AE.2 [Example 2]", "md_verbatim": "| 1 | ABC123 | AE | 123101 | 1 | NAUSEA | Nausea | Y | Gastrointestinal disorders | SEVERE | N | DOSE REDUCED | RELATED | RECOVERED/RESOLVED | TREATMENT | 2005-10-12 | 2005-10-13 | 2 | 3 |", "score": 0.4809, "match_basis": "verbatim_token+domain_route:AE"}, {"md_atom_id": "md_dmAE_ex_a018", "md_file": "knowledge_base/domains/AE/examples.md", "md_atom_type": "TABLE_ROW", "md_parent_section": "§AE.1 [Example 1]", "md_verbatim": "| 2 | ABC123 | AE | 123101 | 2 | BACK PAIN FOR 5 HOURS | Back pain | Back pain | Musculoskeletal and connective tissue disorders | MODERATE | N | DOSE REDUCED | RELATED | PROBABLY RELATED | RECOVERED/RESOLVED | | | | | | TREATMENT | 2005-10-13T13:05 | 2005-10-13T19:00 | 1 | 1 | |", "score": 0.4798, "match_basis": "verbatim_token+domain_route:AE"}, {"md_atom_id": "md_dmAE_ex_a019", "md_file": "knowledge_base/domains/AE/examples.md", "md_atom_type": "TABLE_ROW", "md_parent_section": "§AE.1 [Example 1]", "md_verbatim": "| 3 | ABC123 | AE | 123101 | 3 | PULMONARY EMBOLISM | | Pulmonary embolism | Vascular disorders | MODERATE | Y | DOSE REDUCED | PROBABLY NOT RELATED | RECOVERING/RESOLVING | | | | Y | Y | | TREATMENT | 2005-10-21 | | 9 | | AFTER TREATMENT |", "score": 0.4781, "match_basis": "verbatim_token+domain_route:AE"}, {"md_atom_id": "md_dmAE_ex_a033", "md_file": "knowledge_base/domains/AE/examples.md", "md_atom_type": "TABLE_ROW", "md_parent_section": "§AE.2 [Example 2]", "md_verbatim": "| 2 | ABC123 | AE | 123101 | 2 | VOMITING | Vomiting | Y | Gastrointestinal disorders | MODERATE | N | DOSE REDUCED | RELATED | RECOVERED/RESOLVED | TREATMENT | 2005-10-13T13:05 | 2005-10-13T19:00 | 3 | 3 |", "score": 0.4742, "match_basis": "verbatim_token+domain_route:AE"}], "candidate_count": 5, "zero_candidate": false}
{"pdf_atom_id": "ig34_p0135_a009", "pdf_atom_type": "TABLE_ROW", "pdf_source": "SDTMIG_v3.4", "pdf_page": 135, "pdf_parent_section": "§6.2.1 [Adverse Events (AE)]", "pdf_verbatim": "| AEACNOTH | Other Action Taken | Char | | Record Qualifier | Describes other actions taken as a result of the event that are unrelated to dose adjustments of study treatment. Usually reported as free text. Example: \"TREATMENT UNBLINDED. PRIMARY CARE PHYSICIAN NOTIFIED\". | Perm |", "figure_ref": null, "candidates": [{"md_atom_id": "md_dmAE_ex_a034", "md_file": "knowledge_base/domains/AE/examples.md", "md_atom_type": "TABLE_ROW", "md_parent_section": "§AE.2 [Example 2]", "md_verbatim": "| 3 | ABC123 | AE | 123101 | 3 | HEADACHE | Headache | | Nervous system disorders | MILD | N | DOSE NOT CHANGED | POSSIBLY RELATED | RECOVERED/RESOLVED | TREATMENT | 2005-10-21 | | 11 | 11 |", "score": 0.4727, "match_basis": "verbatim_token+domain_route:AE"}, {"md_atom_id": "md_dmAE_ex_a032", "md_file": "knowledge_base/domains/AE/examples.md", "md_atom_type": "TABLE_ROW", "md_parent_section": "§AE.2 [Example 2]", "md_verbatim": "| 1 | ABC123 | AE | 123101 | 1 | NAUSEA | Nausea | Y | Gastrointestinal disorders | SEVERE | N | DOSE REDUCED | RELATED | RECOVERED/RESOLVED | TREATMENT | 2005-10-12 | 2005-10-13 | 2 | 3 |", "score": 0.4708, "match_basis": "verbatim_token+domain_route:AE"}, {"md_atom_id": "md_dmAE_ex_a019", "md_file": "knowledge_base/domains/AE/examples.md", "md_atom_type": "TABLE_ROW", "md_parent_section": "§AE.1 [Example 1]", "md_verbatim": "| 3 | ABC123 | AE | 123101 | 3 | PULMONARY EMBOLISM | | Pulmonary embolism | Vascular disorders | MODERATE | Y | DOSE REDUCED | PROBABLY NOT RELATED | RECOVERING/RESOLVING | | | | Y | Y | | TREATMENT | 2005-10-21 | | 9 | | AFTER TREATMENT |", "score": 0.4686, "match_basis": "verbatim_token+domain_route:AE"}, {"md_atom_id": "md_dmAE_ex_a033", "md_file": "knowledge_base/domains/AE/examples.md", "md_atom_type": "TABLE_ROW", "md_parent_section": "§AE.2 [Example 2]", "md_verbatim": "| 2 | ABC123 | AE | 123101 | 2 | VOMITING | Vomiting | Y | Gastrointestinal disorders | MODERATE | N | DOSE REDUCED | RELATED | RECOVERED/RESOLVED | TREATMENT | 2005-10-13T13:05 | 2005-10-13T19:00 | 3 | 3 |", "score": 0.4639, "match_basis": "verbatim_token+domain_route:AE"}, {"md_atom_id": "md_dmAE_ex_a018", "md_file": "knowledge_base/domains/AE/examples.md", "md_atom_type": "TABLE_ROW", "md_parent_section": "§AE.1 [Example 1]", "md_verbatim": "| 2 | ABC123 | AE | 123101 | 2 | BACK PAIN FOR 5 HOURS | Back pain | Back pain | Musculoskeletal and connective tissue disorders | MODERATE | N | DOSE REDUCED | RELATED | PROBABLY RELATED | RECOVERED/RESOLVED | | | | | | TREATMENT | 2005-10-13T13:05 | 2005-10-13T19:00 | 1 | 1 | |", "score": 0.4603, "match_basis": "verbatim_token+domain_route:AE"}], "candidate_count": 5, "zero_candidate": false}
{"pdf_atom_id": "ig34_p0135_a010", "pdf_atom_type": "TABLE_ROW", "pdf_source": "SDTMIG_v3.4", "pdf_page": 135, "pdf_parent_section": "§6.2.1 [Adverse Events (AE)]", "pdf_verbatim": "| AEACNDEV | Action Taken with Device | Char | (DEACNDEV) | Record Qualifier | An action taken with a device as the result of the event. The device may or may not be a device under study. | Perm |", "figure_ref": null, "candidates": [{"md_atom_id": "md_dmAE_ex_a034", "md_file": "knowledge_base/domains/AE/examples.md", "md_atom_type": "TABLE_ROW", "md_parent_section": "§AE.2 [Example 2]", "md_verbatim": "| 3 | ABC123 | AE | 123101 | 3 | HEADACHE | Headache | | Nervous system disorders | MILD | N | DOSE NOT CHANGED | POSSIBLY RELATED | RECOVERED/RESOLVED | TREATMENT | 2005-10-21 | | 11 | 11 |", "score": 0.4425, "match_basis": "verbatim_token+domain_route:AE"}, {"md_atom_id": "md_dmAE_ex_a097", "md_file": "knowledge_base/domains/AE/examples.md", "md_atom_type": "TABLE_ROW", "md_parent_section": "§AE.6 [Example 6]", "md_verbatim": "| 2 | 1001 | AE | 001 | Sensor123 | 2 | AE0049 | Infection at sensor site | INFECTION | Y | MODERATE | SENSOR REPLACED AND REPOSITIONED | PROBABLE | RECOVERED/RESOLVED | N | N | N | Y | N | N | Y | 2014-10-24 | 2014-11-27 | 78 | 113 |", "score": 0.44, "match_basis": "verbatim_token+domain_route:AE"}, {"md_atom_id": "md_dmAE_ex_a017", "md_file": "knowledge_base/domains/AE/examples.md", "md_atom_type": "TABLE_ROW", "md_parent_section": "§AE.1 [Example 1]", "md_verbatim": "| 1 | ABC123 | AE | 123101 | 1 | POUNDING HEADACHE | Headache | Headache | Nervous system disorders | SEVERE | N | | NOT APPLICABLE | DEFINITELY NOT RELATED | RECOVERED/RESOLVED | | | | | | SCREENING | 2005-10-12 | 2005-10-12 | -1 | -1 | |", "score": 0.4397, "match_basis": "verbatim_token+domain_route:AE"}, {"md_atom_id": "md_dmAE_ex_a032", "md_file": "knowledge_base/domains/AE/examples.md", "md_atom_type": "TABLE_ROW", "md_parent_section": "§AE.2 [Example 2]", "md_verbatim": "| 1 | ABC123 | AE | 123101 | 1 | NAUSEA | Nausea | Y | Gastrointestinal disorders | SEVERE | N | DOSE REDUCED | RELATED | RECOVERED/RESOLVED | TREATMENT | 2005-10-12 | 2005-10-13 | 2 | 3 |", "score": 0.4385, "match_basis": "verbatim_token+domain_route:AE"}, {"md_atom_id": "md_dmAE_assn_a029", "md_file": "knowledge_base/domains/AE/assumptions.md", "md_atom_type": "TABLE_ROW", "md_parent_section": "§AE [AE — Assumptions]", "md_verbatim": "      | If yes, check all that apply: | [ ] Fatal  [ ] Life-threatening  [ ] Inpatient hospitalization or prolongation of existing hospitalization  [ ] Persistent or significant disability/incapacity  [ ] Congenital anomaly/birth defect  [ ] Other medically important serious event |", "score": 0.4377, "match_basis": "verbatim_token+domain_route:AE"}], "candidate_count": 5, "zero_candidate": false}
{"pdf_atom_id": "ig34_p0135_a011", "pdf_atom_type": "TABLE_ROW", "pdf_source": "SDTMIG_v3.4", "pdf_page": 135, "pdf_parent_section": "§6.2.1 [Adverse Events (AE)]", "pdf_verbatim": "| AEREL | Causality | Char | * | Record Qualifier | Records the investigator's opinion as to the causality of the event to the treatment. ICH does not establish any required or recommended terms for non-device relatedness. ICH E2A and E2B examples include (up-cased here for alignment to SDTM conventions) terms such as \"NOT RELATED\", \"UNLIKELY RELATED\", \"POSSIBLY RELATED\", \"RELATED\", but these example terms do not establish any conventions or expectations. Controlled terminology may be defined in the future. Check with regulatory authority for population of this variable. | Exp |", "figure_ref": null, "candidates": [{"md_atom_id": "md_dmAE_ex_a034", "md_file": "knowledge_base/domains/AE/examples.md", "md_atom_type": "TABLE_ROW", "md_parent_section": "§AE.2 [Example 2]", "md_verbatim": "| 3 | ABC123 | AE | 123101 | 3 | HEADACHE | Headache | | Nervous system disorders | MILD | N | DOSE NOT CHANGED | POSSIBLY RELATED | RECOVERED/RESOLVED | TREATMENT | 2005-10-21 | | 11 | 11 |", "score": 0.4658, "match_basis": "verbatim_token+domain_route:AE"}, {"md_atom_id": "md_dmAE_assn_a029", "md_file": "knowledge_base/domains/AE/assumptions.md", "md_atom_type": "TABLE_ROW", "md_parent_section": "§AE [AE — Assumptions]", "md_verbatim": "      | If yes, check all that apply: | [ ] Fatal  [ ] Life-threatening  [ ] Inpatient hospitalization or prolongation of existing hospitalization  [ ] Persistent or significant disability/incapacity  [ ] Congenital anomaly/birth defect  [ ] Other medically important serious event |", "score": 0.4594, "match_basis": "verbatim_token+domain_route:AE"}, {"md_atom_id": "md_dmAE_ex_a096", "md_file": "knowledge_base/domains/AE/examples.md", "md_atom_type": "TABLE_ROW", "md_parent_section": "§AE.6 [Example 6]", "md_verbatim": "| 1 | 1001 | AE | 001 | Sensor123 | 1 | AE0049 | Skin redness | ERYTHEMA | N | MILD | SENSOR REPLACED AND REPOSITIONED | CAUSAL RELATIONSHIP | RECOVERED/RESOLVED | N | N | N | N | N | N | | 2013-09-07 | 2013-09-07 | 23 | 25 |", "score": 0.458, "match_basis": "verbatim_token+domain_route:AE"}, {"md_atom_id": "md_dmAE_ex_a032", "md_file": "knowledge_base/domains/AE/examples.md", "md_atom_type": "TABLE_ROW", "md_parent_section": "§AE.2 [Example 2]", "md_verbatim": "| 1 | ABC123 | AE | 123101 | 1 | NAUSEA | Nausea | Y | Gastrointestinal disorders | SEVERE | N | DOSE REDUCED | RELATED | RECOVERED/RESOLVED | TREATMENT | 2005-10-12 | 2005-10-13 | 2 | 3 |", "score": 0.4559, "match_basis": "verbatim_token+domain_route:AE"}, {"md_atom_id": "md_dmAE_ex_a019", "md_file": "knowledge_base/domains/AE/examples.md", "md_atom_type": "TABLE_ROW", "md_parent_section": "§AE.1 [Example 1]", "md_verbatim": "| 3 | ABC123 | AE | 123101 | 3 | PULMONARY EMBOLISM | | Pulmonary embolism | Vascular disorders | MODERATE | Y | DOSE REDUCED | PROBABLY NOT RELATED | RECOVERING/RESOLVING | | | | Y | Y | | TREATMENT | 2005-10-21 | | 9 | | AFTER TREATMENT |", "score": 0.4552, "match_basis": "verbatim_token+domain_route:AE"}], "candidate_count": 5, "zero_candidate": false}
{"pdf_atom_id": "ig34_p0135_a012", "pdf_atom_type": "TABLE_ROW", "pdf_source": "SDTMIG_v3.4", "pdf_page": 135, "pdf_parent_section": "§6.2.1 [Adverse Events (AE)]", "pdf_verbatim": "| AERLDEV | Relationship of Event to Device | Char | * | Record Qualifier | A judgment as to the likelihood that the device caused the adverse event. The relationship is to a device identified in the data (i.e., has an SPDEVID). The device may be ancillary or under study. Terminology: In the EU, follow the European Commission Guidelines on Medical Devices, Clinical Investigations: SAE Reporting (MEDDEV 2.7/3) (e.g., Not Related, Unlikely, Possible, Probable, Causal Relationship), with device-specific definitions. No required Controlled Terminology in US. | Perm |", "figure_ref": null, "candidates": [{"md_atom_id": "md_dmAE_assn_a029", "md_file": "knowledge_base/domains/AE/assumptions.md", "md_atom_type": "TABLE_ROW", "md_parent_section": "§AE [AE — Assumptions]", "md_verbatim": "      | If yes, check all that apply: | [ ] Fatal  [ ] Life-threatening  [ ] Inpatient hospitalization or prolongation of existing hospitalization  [ ] Persistent or significant disability/incapacity  [ ] Congenital anomaly/birth defect  [ ] Other medically important serious event |", "score": 0.4747, "match_basis": "verbatim_token+domain_route:AE"}, {"md_atom_id": "md_dmAE_ex_a059", "md_file": "knowledge_base/domains/AE/examples.md", "md_atom_type": "TABLE_ROW", "md_parent_section": "§AE.4 [Example 4]", "md_verbatim": "| 3 | ABC123 | AE | 123101 | 3 | 1 | VOMITING | Gastrointestinal disorders | SEVERE | N | DOSE NOT CHANGED | POSSIBLY RELATED | 2005-10-16 | 2005-10-17 |", "score": 0.4622, "match_basis": "verbatim_token+domain_route:AE"}, {"md_atom_id": "md_dmAE_ex_a017", "md_file": "knowledge_base/domains/AE/examples.md", "md_atom_type": "TABLE_ROW", "md_parent_section": "§AE.1 [Example 1]", "md_verbatim": "| 1 | ABC123 | AE | 123101 | 1 | POUNDING HEADACHE | Headache | Headache | Nervous system disorders | SEVERE | N | | NOT APPLICABLE | DEFINITELY NOT RELATED | RECOVERED/RESOLVED | | | | | | SCREENING | 2005-10-12 | 2005-10-12 | -1 | -1 | |", "score": 0.462, "match_basis": "verbatim_token+domain_route:AE"}, {"md_atom_id": "md_dmAE_ex_a096", "md_file": "knowledge_base/domains/AE/examples.md", "md_atom_type": "TABLE_ROW", "md_parent_section": "§AE.6 [Example 6]", "md_verbatim": "| 1 | 1001 | AE | 001 | Sensor123 | 1 | AE0049 | Skin redness | ERYTHEMA | N | MILD | SENSOR REPLACED AND REPOSITIONED | CAUSAL RELATIONSHIP | RECOVERED/RESOLVED | N | N | N | N | N | N | | 2013-09-07 | 2013-09-07 | 23 | 25 |", "score": 0.4618, "match_basis": "verbatim_token+domain_route:AE"}, {"md_atom_id": "md_dmAE_ex_a019", "md_file": "knowledge_base/domains/AE/examples.md", "md_atom_type": "TABLE_ROW", "md_parent_section": "§AE.1 [Example 1]", "md_verbatim": "| 3 | ABC123 | AE | 123101 | 3 | PULMONARY EMBOLISM | | Pulmonary embolism | Vascular disorders | MODERATE | Y | DOSE REDUCED | PROBABLY NOT RELATED | RECOVERING/RESOLVING | | | | Y | Y | | TREATMENT | 2005-10-21 | | 9 | | AFTER TREATMENT |", "score": 0.4588, "match_basis": "verbatim_token+domain_route:AE"}], "candidate_count": 5, "zero_candidate": false}
{"pdf_atom_id": "ig34_p0135_a013", "pdf_atom_type": "TABLE_ROW", "pdf_source": "SDTMIG_v3.4", "pdf_page": 135, "pdf_parent_section": "§6.2.1 [Adverse Events (AE)]", "pdf_verbatim": "| AERELNST | Relationship to Non-Study Treatment | Char | | Record Qualifier | Records the investigator's opinion as to whether the event may have been due to a treatment other than study drug. May be reported as free text. Example: \"MORE LIKELY RELATED TO ASPIRIN USE\". | Perm |", "figure_ref": null, "candidates": [{"md_atom_id": "md_dmAE_ex_a032", "md_file": "knowledge_base/domains/AE/examples.md", "md_atom_type": "TABLE_ROW", "md_parent_section": "§AE.2 [Example 2]", "md_verbatim": "| 1 | ABC123 | AE | 123101 | 1 | NAUSEA | Nausea | Y | Gastrointestinal disorders | SEVERE | N | DOSE REDUCED | RELATED | RECOVERED/RESOLVED | TREATMENT | 2005-10-12 | 2005-10-13 | 2 | 3 |", "score": 0.4805, "match_basis": "verbatim_token+domain_route:AE"}, {"md_atom_id": "md_dmAE_ex_a034", "md_file": "knowledge_base/domains/AE/examples.md", "md_atom_type": "TABLE_ROW", "md_parent_section": "§AE.2 [Example 2]", "md_verbatim": "| 3 | ABC123 | AE | 123101 | 3 | HEADACHE | Headache | | Nervous system disorders | MILD | N | DOSE NOT CHANGED | POSSIBLY RELATED | RECOVERED/RESOLVED | TREATMENT | 2005-10-21 | | 11 | 11 |", "score": 0.4692, "match_basis": "verbatim_token+domain_route:AE"}, {"md_atom_id": "md_dmAE_ex_a033", "md_file": "knowledge_base/domains/AE/examples.md", "md_atom_type": "TABLE_ROW", "md_parent_section": "§AE.2 [Example 2]", "md_verbatim": "| 2 | ABC123 | AE | 123101 | 2 | VOMITING | Vomiting | Y | Gastrointestinal disorders | MODERATE | N | DOSE REDUCED | RELATED | RECOVERED/RESOLVED | TREATMENT | 2005-10-13T13:05 | 2005-10-13T19:00 | 3 | 3 |", "score": 0.4684, "match_basis": "verbatim_token+domain_route:AE"}, {"md_atom_id": "md_dmAE_assn_a029", "md_file": "knowledge_base/domains/AE/assumptions.md", "md_atom_type": "TABLE_ROW", "md_parent_section": "§AE [AE — Assumptions]", "md_verbatim": "      | If yes, check all that apply: | [ ] Fatal  [ ] Life-threatening  [ ] Inpatient hospitalization or prolongation of existing hospitalization  [ ] Persistent or significant disability/incapacity  [ ] Congenital anomaly/birth defect  [ ] Other medically important serious event |", "score": 0.466, "match_basis": "verbatim_token+domain_route:AE"}, {"md_atom_id": "md_dmAE_ex_a096", "md_file": "knowledge_base/domains/AE/examples.md", "md_atom_type": "TABLE_ROW", "md_parent_section": "§AE.6 [Example 6]", "md_verbatim": "| 1 | 1001 | AE | 001 | Sensor123 | 1 | AE0049 | Skin redness | ERYTHEMA | N | MILD | SENSOR REPLACED AND REPOSITIONED | CAUSAL RELATIONSHIP | RECOVERED/RESOLVED | N | N | N | N | N | N | | 2013-09-07 | 2013-09-07 | 23 | 25 |", "score": 0.4615, "match_basis": "verbatim_token+domain_route:AE"}], "candidate_count": 5, "zero_candidate": false}
{"pdf_atom_id": "ig34_p0135_a014", "pdf_atom_type": "TABLE_ROW", "pdf_source": "SDTMIG_v3.4", "pdf_page": 135, "pdf_parent_section": "§6.2.1 [Adverse Events (AE)]", "pdf_verbatim": "| AEPATT | Pattern of Adverse Event | Char | * | Record Qualifier | Used to indicate the pattern of the event over time. Examples: \"INTERMITTENT\", \"CONTINUOUS\", \"SINGLE EVENT\". | Perm |", "figure_ref": null, "candidates": [{"md_atom_id": "md_dmAE_ex_a032", "md_file": "knowledge_base/domains/AE/examples.md", "md_atom_type": "TABLE_ROW", "md_parent_section": "§AE.2 [Example 2]", "md_verbatim": "| 1 | ABC123 | AE | 123101 | 1 | NAUSEA | Nausea | Y | Gastrointestinal disorders | SEVERE | N | DOSE REDUCED | RELATED | RECOVERED/RESOLVED | TREATMENT | 2005-10-12 | 2005-10-13 | 2 | 3 |", "score": 0.465, "match_basis": "verbatim_token+domain_route:AE"}, {"md_atom_id": "md_dmAE_assn_a029", "md_file": "knowledge_base/domains/AE/assumptions.md", "md_atom_type": "TABLE_ROW", "md_parent_section": "§AE [AE — Assumptions]", "md_verbatim": "      | If yes, check all that apply: | [ ] Fatal  [ ] Life-threatening  [ ] Inpatient hospitalization or prolongation of existing hospitalization  [ ] Persistent or significant disability/incapacity  [ ] Congenital anomaly/birth defect  [ ] Other medically important serious event |", "score": 0.4643, "match_basis": "verbatim_token+domain_route:AE"}, {"md_atom_id": "md_dmAE_ex_a033", "md_file": "knowledge_base/domains/AE/examples.md", "md_atom_type": "TABLE_ROW", "md_parent_section": "§AE.2 [Example 2]", "md_verbatim": "| 2 | ABC123 | AE | 123101 | 2 | VOMITING | Vomiting | Y | Gastrointestinal disorders | MODERATE | N | DOSE REDUCED | RELATED | RECOVERED/RESOLVED | TREATMENT | 2005-10-13T13:05 | 2005-10-13T19:00 | 3 | 3 |", "score": 0.4614, "match_basis": "verbatim_token+domain_route:AE"}, {"md_atom_id": "md_dmAE_ex_a059", "md_file": "knowledge_base/domains/AE/examples.md", "md_atom_type": "TABLE_ROW", "md_parent_section": "§AE.4 [Example 4]", "md_verbatim": "| 3 | ABC123 | AE | 123101 | 3 | 1 | VOMITING | Gastrointestinal disorders | SEVERE | N | DOSE NOT CHANGED | POSSIBLY RELATED | 2005-10-16 | 2005-10-17 |", "score": 0.4584, "match_basis": "verbatim_token+domain_route:AE"}, {"md_atom_id": "md_dmAE_ex_a017", "md_file": "knowledge_base/domains/AE/examples.md", "md_atom_type": "TABLE_ROW", "md_parent_section": "§AE.1 [Example 1]", "md_verbatim": "| 1 | ABC123 | AE | 123101 | 1 | POUNDING HEADACHE | Headache | Headache | Nervous system disorders | SEVERE | N | | NOT APPLICABLE | DEFINITELY NOT RELATED | RECOVERED/RESOLVED | | | | | | SCREENING | 2005-10-12 | 2005-10-12 | -1 | -1 | |", "score": 0.4537, "match_basis": "verbatim_token+domain_route:AE"}], "candidate_count": 5, "zero_candidate": false}
{"pdf_atom_id": "ig34_p0135_a015", "pdf_atom_type": "TABLE_ROW", "pdf_source": "SDTMIG_v3.4", "pdf_page": 135, "pdf_parent_section": "§6.2.1 [Adverse Events (AE)]", "pdf_verbatim": "| AEOUT | Outcome of Adverse Event | Char | (OUT) | Record Qualifier | Description of the outcome of an event. | Perm |", "figure_ref": null, "candidates": [{"md_atom_id": "md_dmAE_assn_a029", "md_file": "knowledge_base/domains/AE/assumptions.md", "md_atom_type": "TABLE_ROW", "md_parent_section": "§AE [AE — Assumptions]", "md_verbatim": "      | If yes, check all that apply: | [ ] Fatal  [ ] Life-threatening  [ ] Inpatient hospitalization or prolongation of existing hospitalization  [ ] Persistent or significant disability/incapacity  [ ] Congenital anomaly/birth defect  [ ] Other medically important serious event |", "score": 0.4443, "match_basis": "verbatim_token+domain_route:AE"}, {"md_atom_id": "md_dmAE_ex_a032", "md_file": "knowledge_base/domains/AE/examples.md", "md_atom_type": "TABLE_ROW", "md_parent_section": "§AE.2 [Example 2]", "md_verbatim": "| 1 | ABC123 | AE | 123101 | 1 | NAUSEA | Nausea | Y | Gastrointestinal disorders | SEVERE | N | DOSE REDUCED | RELATED | RECOVERED/RESOLVED | TREATMENT | 2005-10-12 | 2005-10-13 | 2 | 3 |", "score": 0.442, "match_basis": "verbatim_token+domain_route:AE"}, {"md_atom_id": "md_dmAE_ex_a034", "md_file": "knowledge_base/domains/AE/examples.md", "md_atom_type": "TABLE_ROW", "md_parent_section": "§AE.2 [Example 2]", "md_verbatim": "| 3 | ABC123 | AE | 123101 | 3 | HEADACHE | Headache | | Nervous system disorders | MILD | N | DOSE NOT CHANGED | POSSIBLY RELATED | RECOVERED/RESOLVED | TREATMENT | 2005-10-21 | | 11 | 11 |", "score": 0.44, "match_basis": "verbatim_token+domain_route:AE"}, {"md_atom_id": "md_dmAE_ex_a017", "md_file": "knowledge_base/domains/AE/examples.md", "md_atom_type": "TABLE_ROW", "md_parent_section": "§AE.1 [Example 1]", "md_verbatim": "| 1 | ABC123 | AE | 123101 | 1 | POUNDING HEADACHE | Headache | Headache | Nervous system disorders | SEVERE | N | | NOT APPLICABLE | DEFINITELY NOT RELATED | RECOVERED/RESOLVED | | | | | | SCREENING | 2005-10-12 | 2005-10-12 | -1 | -1 | |", "score": 0.4372, "match_basis": "verbatim_token+domain_route:AE"}, {"md_atom_id": "md_dmAE_ex_a096", "md_file": "knowledge_base/domains/AE/examples.md", "md_atom_type": "TABLE_ROW", "md_parent_section": "§AE.6 [Example 6]", "md_verbatim": "| 1 | 1001 | AE | 001 | Sensor123 | 1 | AE0049 | Skin redness | ERYTHEMA | N | MILD | SENSOR REPLACED AND REPOSITIONED | CAUSAL RELATIONSHIP | RECOVERED/RESOLVED | N | N | N | N | N | N | | 2013-09-07 | 2013-09-07 | 23 | 25 |", "score": 0.4346, "match_basis": "verbatim_token+domain_route:AE"}], "candidate_count": 5, "zero_candidate": false}
{"pdf_atom_id": "ig34_p0135_a016", "pdf_atom_type": "TABLE_ROW", "pdf_source": "SDTMIG_v3.4", "pdf_page": 135, "pdf_parent_section": "§6.2.1 [Adverse Events (AE)]", "pdf_verbatim": "| AESCAN | Involves Cancer | Char | (NY) | Record Qualifier | Was the serious event associated with the development of cancer? Valid values are \"Y\" and \"N\". This is a legacy seriousness criterion. It is not included in ICH E2A or E2B. | Perm |", "figure_ref": null, "candidates": [{"md_atom_id": "md_dmAE_assn_a029", "md_file": "knowledge_base/domains/AE/assumptions.md", "md_atom_type": "TABLE_ROW", "md_parent_section": "§AE [AE — Assumptions]", "md_verbatim": "      | If yes, check all that apply: | [ ] Fatal  [ ] Life-threatening  [ ] Inpatient hospitalization or prolongation of existing hospitalization  [ ] Persistent or significant disability/incapacity  [ ] Congenital anomaly/birth defect  [ ] Other medically important serious event |", "score": 0.4537, "match_basis": "verbatim_token+domain_route:AE"}, {"md_atom_id": "md_dmAE_ex_a034", "md_file": "knowledge_base/domains/AE/examples.md", "md_atom_type": "TABLE_ROW", "md_parent_section": "§AE.2 [Example 2]", "md_verbatim": "| 3 | ABC123 | AE | 123101 | 3 | HEADACHE | Headache | | Nervous system disorders | MILD | N | DOSE NOT CHANGED | POSSIBLY RELATED | RECOVERED/RESOLVED | TREATMENT | 2005-10-21 | | 11 | 11 |", "score": 0.449, "match_basis": "verbatim_token+domain_route:AE"}, {"md_atom_id": "md_dmAE_ex_a017", "md_file": "knowledge_base/domains/AE/examples.md", "md_atom_type": "TABLE_ROW", "md_parent_section": "§AE.1 [Example 1]", "md_verbatim": "| 1 | ABC123 | AE | 123101 | 1 | POUNDING HEADACHE | Headache | Headache | Nervous system disorders | SEVERE | N | | NOT APPLICABLE | DEFINITELY NOT RELATED | RECOVERED/RESOLVED | | | | | | SCREENING | 2005-10-12 | 2005-10-12 | -1 | -1 | |", "score": 0.4423, "match_basis": "verbatim_token+domain_route:AE"}, {"md_atom_id": "md_dmAE_ex_a019", "md_file": "knowledge_base/domains/AE/examples.md", "md_atom_type": "TABLE_ROW", "md_parent_section": "§AE.1 [Example 1]", "md_verbatim": "| 3 | ABC123 | AE | 123101 | 3 | PULMONARY EMBOLISM | | Pulmonary embolism | Vascular disorders | MODERATE | Y | DOSE REDUCED | PROBABLY NOT RELATED | RECOVERING/RESOLVING | | | | Y | Y | | TREATMENT | 2005-10-21 | | 9 | | AFTER TREATMENT |", "score": 0.4418, "match_basis": "verbatim_token+domain_route:AE"}, {"md_atom_id": "md_dmAE_ex_a032", "md_file": "knowledge_base/domains/AE/examples.md", "md_atom_type": "TABLE_ROW", "md_parent_section": "§AE.2 [Example 2]", "md_verbatim": "| 1 | ABC123 | AE | 123101 | 1 | NAUSEA | Nausea | Y | Gastrointestinal disorders | SEVERE | N | DOSE REDUCED | RELATED | RECOVERED/RESOLVED | TREATMENT | 2005-10-12 | 2005-10-13 | 2 | 3 |", "score": 0.4417, "match_basis": "verbatim_token+domain_route:AE"}], "candidate_count": 5, "zero_candidate": false}
{"pdf_atom_id": "ig34_p0135_a017", "pdf_atom_type": "TABLE_ROW", "pdf_source": "SDTMIG_v3.4", "pdf_page": 135, "pdf_parent_section": "§6.2.1 [Adverse Events (AE)]", "pdf_verbatim": "| AESCONG | Congenital Anomaly or Birth Defect | Char | (NY) | Record Qualifier | Was the serious event associated with congenital anomaly or birth defect? Valid values are \"Y\" and \"N\". | Perm |", "figure_ref": null, "candidates": [{"md_atom_id": "md_dmAE_assn_a029", "md_file": "knowledge_base/domains/AE/assumptions.md", "md_atom_type": "TABLE_ROW", "md_parent_section": "§AE [AE — Assumptions]", "md_verbatim": "      | If yes, check all that apply: | [ ] Fatal  [ ] Life-threatening  [ ] Inpatient hospitalization or prolongation of existing hospitalization  [ ] Persistent or significant disability/incapacity  [ ] Congenital anomaly/birth defect  [ ] Other medically important serious event |", "score": 0.5351, "match_basis": "verbatim_token+domain_route:AE"}, {"md_atom_id": "md_dmAE_ex_a017", "md_file": "knowledge_base/domains/AE/examples.md", "md_atom_type": "TABLE_ROW", "md_parent_section": "§AE.1 [Example 1]", "md_verbatim": "| 1 | ABC123 | AE | 123101 | 1 | POUNDING HEADACHE | Headache | Headache | Nervous system disorders | SEVERE | N | | NOT APPLICABLE | DEFINITELY NOT RELATED | RECOVERED/RESOLVED | | | | | | SCREENING | 2005-10-12 | 2005-10-12 | -1 | -1 | |", "score": 0.4444, "match_basis": "verbatim_token+domain_route:AE"}, {"md_atom_id": "md_dmAE_ex_a034", "md_file": "knowledge_base/domains/AE/examples.md", "md_atom_type": "TABLE_ROW", "md_parent_section": "§AE.2 [Example 2]", "md_verbatim": "| 3 | ABC123 | AE | 123101 | 3 | HEADACHE | Headache | | Nervous system disorders | MILD | N | DOSE NOT CHANGED | POSSIBLY RELATED | RECOVERED/RESOLVED | TREATMENT | 2005-10-21 | | 11 | 11 |", "score": 0.4422, "match_basis": "verbatim_token+domain_route:AE"}, {"md_atom_id": "md_dmAE_ex_a018", "md_file": "knowledge_base/domains/AE/examples.md", "md_atom_type": "TABLE_ROW", "md_parent_section": "§AE.1 [Example 1]", "md_verbatim": "| 2 | ABC123 | AE | 123101 | 2 | BACK PAIN FOR 5 HOURS | Back pain | Back pain | Musculoskeletal and connective tissue disorders | MODERATE | N | DOSE REDUCED | RELATED | PROBABLY RELATED | RECOVERED/RESOLVED | | | | | | TREATMENT | 2005-10-13T13:05 | 2005-10-13T19:00 | 1 | 1 | |", "score": 0.44, "match_basis": "verbatim_token+domain_route:AE"}, {"md_atom_id": "md_dmAE_ex_a032", "md_file": "knowledge_base/domains/AE/examples.md", "md_atom_type": "TABLE_ROW", "md_parent_section": "§AE.2 [Example 2]", "md_verbatim": "| 1 | ABC123 | AE | 123101 | 1 | NAUSEA | Nausea | Y | Gastrointestinal disorders | SEVERE | N | DOSE REDUCED | RELATED | RECOVERED/RESOLVED | TREATMENT | 2005-10-12 | 2005-10-13 | 2 | 3 |", "score": 0.4336, "match_basis": "verbatim_token+domain_route:AE"}], "candidate_count": 5, "zero_candidate": false}
{"pdf_atom_id": "ig34_p0135_a018", "pdf_atom_type": "TABLE_ROW", "pdf_source": "SDTMIG_v3.4", "pdf_page": 135, "pdf_parent_section": "§6.2.1 [Adverse Events (AE)]", "pdf_verbatim": "| AESDISAB | Persist or Signif Disability/Incapacity | Char | (NY) | Record Qualifier | Did the serious event result in persistent or significant disability/incapacity? Valid values are \"Y\" and \"N\". | Perm |", "figure_ref": null, "candidates": [{"md_atom_id": "md_dmAE_assn_a029", "md_file": "knowledge_base/domains/AE/assumptions.md", "md_atom_type": "TABLE_ROW", "md_parent_section": "§AE [AE — Assumptions]", "md_verbatim": "      | If yes, check all that apply: | [ ] Fatal  [ ] Life-threatening  [ ] Inpatient hospitalization or prolongation of existing hospitalization  [ ] Persistent or significant disability/incapacity  [ ] Congenital anomaly/birth defect  [ ] Other medically important serious event |", "score": 0.5726, "match_basis": "verbatim_token+domain_route:AE"}, {"md_atom_id": "md_dmAE_ex_a034", "md_file": "knowledge_base/domains/AE/examples.md", "md_atom_type": "TABLE_ROW", "md_parent_section": "§AE.2 [Example 2]", "md_verbatim": "| 3 | ABC123 | AE | 123101 | 3 | HEADACHE | Headache | | Nervous system disorders | MILD | N | DOSE NOT CHANGED | POSSIBLY RELATED | RECOVERED/RESOLVED | TREATMENT | 2005-10-21 | | 11 | 11 |", "score": 0.4462, "match_basis": "verbatim_token+domain_route:AE"}, {"md_atom_id": "md_dmAE_ex_a017", "md_file": "knowledge_base/domains/AE/examples.md", "md_atom_type": "TABLE_ROW", "md_parent_section": "§AE.1 [Example 1]", "md_verbatim": "| 1 | ABC123 | AE | 123101 | 1 | POUNDING HEADACHE | Headache | Headache | Nervous system disorders | SEVERE | N | | NOT APPLICABLE | DEFINITELY NOT RELATED | RECOVERED/RESOLVED | | | | | | SCREENING | 2005-10-12 | 2005-10-12 | -1 | -1 | |", "score": 0.4435, "match_basis": "verbatim_token+domain_route:AE"}, {"md_atom_id": "md_dmAE_ex_a032", "md_file": "knowledge_base/domains/AE/examples.md", "md_atom_type": "TABLE_ROW", "md_parent_section": "§AE.2 [Example 2]", "md_verbatim": "| 1 | ABC123 | AE | 123101 | 1 | NAUSEA | Nausea | Y | Gastrointestinal disorders | SEVERE | N | DOSE REDUCED | RELATED | RECOVERED/RESOLVED | TREATMENT | 2005-10-12 | 2005-10-13 | 2 | 3 |", "score": 0.4378, "match_basis": "verbatim_token+domain_route:AE"}, {"md_atom_id": "md_dmAE_ex_a019", "md_file": "knowledge_base/domains/AE/examples.md", "md_atom_type": "TABLE_ROW", "md_parent_section": "§AE.1 [Example 1]", "md_verbatim": "| 3 | ABC123 | AE | 123101 | 3 | PULMONARY EMBOLISM | | Pulmonary embolism | Vascular disorders | MODERATE | Y | DOSE REDUCED | PROBABLY NOT RELATED | RECOVERING/RESOLVING | | | | Y | Y | | TREATMENT | 2005-10-21 | | 9 | | AFTER TREATMENT |", "score": 0.4338, "match_basis": "verbatim_token+domain_route:AE"}], "candidate_count": 5, "zero_candidate": false}
{"pdf_atom_id": "ig34_p0135_a019", "pdf_atom_type": "TABLE_ROW", "pdf_source": "SDTMIG_v3.4", "pdf_page": 135, "pdf_parent_section": "§6.2.1 [Adverse Events (AE)]", "pdf_verbatim": "| AESDTH | Results in Death | Char | (NY) | Record Qualifier | Did the serious event result in death? Valid values are \"Y\" and \"N\". | Perm |", "figure_ref": null, "candidates": [{"md_atom_id": "md_dmAE_assn_a029", "md_file": "knowledge_base/domains/AE/assumptions.md", "md_atom_type": "TABLE_ROW", "md_parent_section": "§AE [AE — Assumptions]", "md_verbatim": "      | If yes, check all that apply: | [ ] Fatal  [ ] Life-threatening  [ ] Inpatient hospitalization or prolongation of existing hospitalization  [ ] Persistent or significant disability/incapacity  [ ] Congenital anomaly/birth defect  [ ] Other medically important serious event |", "score": 0.456, "match_basis": "verbatim_token+domain_route:AE"}, {"md_atom_id": "md_dmAE_ex_a034", "md_file": "knowledge_base/domains/AE/examples.md", "md_atom_type": "TABLE_ROW", "md_parent_section": "§AE.2 [Example 2]", "md_verbatim": "| 3 | ABC123 | AE | 123101 | 3 | HEADACHE | Headache | | Nervous system disorders | MILD | N | DOSE NOT CHANGED | POSSIBLY RELATED | RECOVERED/RESOLVED | TREATMENT | 2005-10-21 | | 11 | 11 |", "score": 0.4444, "match_basis": "verbatim_token+domain_route:AE"}, {"md_atom_id": "md_dmAE_ex_a032", "md_file": "knowledge_base/domains/AE/examples.md", "md_atom_type": "TABLE_ROW", "md_parent_section": "§AE.2 [Example 2]", "md_verbatim": "| 1 | ABC123 | AE | 123101 | 1 | NAUSEA | Nausea | Y | Gastrointestinal disorders | SEVERE | N | DOSE REDUCED | RELATED | RECOVERED/RESOLVED | TREATMENT | 2005-10-12 | 2005-10-13 | 2 | 3 |", "score": 0.4404, "match_basis": "verbatim_token+domain_route:AE"}, {"md_atom_id": "md_dmAE_ex_a019", "md_file": "knowledge_base/domains/AE/examples.md", "md_atom_type": "TABLE_ROW", "md_parent_section": "§AE.1 [Example 1]", "md_verbatim": "| 3 | ABC123 | AE | 123101 | 3 | PULMONARY EMBOLISM | | Pulmonary embolism | Vascular disorders | MODERATE | Y | DOSE REDUCED | PROBABLY NOT RELATED | RECOVERING/RESOLVING | | | | Y | Y | | TREATMENT | 2005-10-21 | | 9 | | AFTER TREATMENT |", "score": 0.4353, "match_basis": "verbatim_token+domain_route:AE"}, {"md_atom_id": "md_dmAE_ex_a033", "md_file": "knowledge_base/domains/AE/examples.md", "md_atom_type": "TABLE_ROW", "md_parent_section": "§AE.2 [Example 2]", "md_verbatim": "| 2 | ABC123 | AE | 123101 | 2 | VOMITING | Vomiting | Y | Gastrointestinal disorders | MODERATE | N | DOSE REDUCED | RELATED | RECOVERED/RESOLVED | TREATMENT | 2005-10-13T13:05 | 2005-10-13T19:00 | 3 | 3 |", "score": 0.4321, "match_basis": "verbatim_token+domain_route:AE"}], "candidate_count": 5, "zero_candidate": false}
{"pdf_atom_id": "ig34_p0136_a001", "pdf_atom_type": "TABLE_HEADER", "pdf_source": "SDTMIG_v3.4", "pdf_page": 136, "pdf_parent_section": "§6.2.1 [Adverse Events (AE)]", "pdf_verbatim": "| Variable Name | Variable Label | Type | Controlled Terms, Codelist or Format¹ | Role | CDISC Notes | Core |", "figure_ref": null, "candidates": [{"md_atom_id": "md_dmAE_ex_a095", "md_file": "knowledge_base/domains/AE/examples.md", "md_atom_type": "TABLE_HEADER", "md_parent_section": "§AE.6 [Example 6]", "md_verbatim": "| Row | STUDYID | DOMAIN | USUBJID | SPDEVID | AESEQ | AESPID | AETERM | AEDECOD | AESER | AESEV | AEACNDEV | AERLDEV | AEOUT | AESCONG | AESDISAB | AESDTH | AESHOSP | AESLIFE | AESMIE | AESINTV | AESTDTC | AEENDTC | AESTDY | AEENDY |\n|-----|---------|--------|---------|---------|-------|--------|--------|---------|-------|-------|----------|---------|-------|---------|----------|--------|---------|---------|--------|---------|---------|---------|--------|--------|", "score": 0.4244, "match_basis": "verbatim_token+domain_route:AE"}, {"md_atom_id": "md_dmAE_ex_a016", "md_file": "knowledge_base/domains/AE/examples.md", "md_atom_type": "TABLE_HEADER", "md_parent_section": "§AE.1 [Example 1]", "md_verbatim": "| Row | STUDYID | DOMAIN | USUBJID | AESEQ | AETERM | AEMODIFY | AEDECOD | AEBODSYS | AESEV | AESER | AEACN | AEREL | AEOUT | AESCONG | AESDISAB | AESDTH | AESHOSP | AESLIFE | AESMIE | EPOCH | AESTDTC | AEENDTC | AESTDY | AEENDY | AEENRF |\n|-----|---------|--------|---------|-------|--------|----------|---------|----------|-------|-------|-------|-------|-------|---------|----------|--------|---------|---------|--------|-------|---------|---------|--------|--------|--------|", "score": 0.424, "match_basis": "verbatim_token+domain_route:AE"}, {"md_atom_id": "md_dmAE_ex_a079", "md_file": "knowledge_base/domains/AE/examples.md", "md_atom_type": "TABLE_HEADER", "md_parent_section": "§AE.5 [Example 5]", "md_verbatim": "| Row | STUDYID | DOMAIN | USUBJID | SPDEVID | AESEQ | AESPID | AETERM | AEDECOD | AELOC | AELAT | AESER | AESEV | AEACNDEV | AERELDEV | AERLPRC | AEREL | AEOUT | AESCONG | AESDISAB | AESDTH | AESHOSP | AESLIFE | AESMIE | AEUNANT | AERLPRT | AESTDTC | AEENDTC | AESTDY | AEENDY |\n|-----|---------|--------|---------|---------|-------|--------|--------|---------|-------|-------|-------|-------|----------|----------|---------|-------|-------|---------|----------|--------|---------|---------|--------|---------|---------|---------|---------|--------|--------|", "score": 0.4222, "match_basis": "verbatim_token+domain_route:AE"}, {"md_atom_id": "md_dmAE_ex_a046", "md_file": "knowledge_base/domains/AE/examples.md", "md_atom_type": "TABLE_HEADER", "md_parent_section": "§AE.3 [Example 3]", "md_verbatim": "| Row | STUDYID | DOMAIN | USUBJID | AESEQ | AETERM | AEDECOD | AEPRESP | AEBODSYS | AESER | AEDTC | AESTDY |\n|-----|---------|--------|---------|-------|--------|---------|---------|----------|-------|-------|--------|", "score": 0.4214, "match_basis": "verbatim_token+domain_route:AE"}, {"md_atom_id": "md_dmAE_ex_a031", "md_file": "knowledge_base/domains/AE/examples.md", "md_atom_type": "TABLE_HEADER", "md_parent_section": "§AE.2 [Example 2]", "md_verbatim": "| Row | STUDYID | DOMAIN | USUBJID | AESEQ | AETERM | AEDECOD | AEPRESP | AEBODSYS | AESEV | AESER | AEACN | AEREL | AEOUT | EPOCH | AESTDTC | AEENDTC | AESTDY | AEENDY |\n|-----|---------|--------|---------|-------|--------|---------|---------|----------|-------|-------|-------|-------|-------|-------|---------|---------|--------|--------|", "score": 0.4176, "match_basis": "verbatim_token+domain_route:AE"}], "candidate_count": 5, "zero_candidate": false}
{"pdf_atom_id": "ig34_p0136_a002", "pdf_atom_type": "TABLE_ROW", "pdf_source": "SDTMIG_v3.4", "pdf_page": 136, "pdf_parent_section": "§6.2.1 [Adverse Events (AE)]", "pdf_verbatim": "| AESHOSP | Requires or Prolongs Hospitalization | Char | (NY) | Record Qualifier | Did the serious event require or prolong hospitalization? Valid values are \"Y\" and \"N\". | Perm |", "figure_ref": null, "candidates": [{"md_atom_id": "md_dmAE_assn_a029", "md_file": "knowledge_base/domains/AE/assumptions.md", "md_atom_type": "TABLE_ROW", "md_parent_section": "§AE [AE — Assumptions]", "md_verbatim": "      | If yes, check all that apply: | [ ] Fatal  [ ] Life-threatening  [ ] Inpatient hospitalization or prolongation of existing hospitalization  [ ] Persistent or significant disability/incapacity  [ ] Congenital anomaly/birth defect  [ ] Other medically important serious event |", "score": 0.5208, "match_basis": "verbatim_token+domain_route:AE"}, {"md_atom_id": "md_dmAE_ex_a096", "md_file": "knowledge_base/domains/AE/examples.md", "md_atom_type": "TABLE_ROW", "md_parent_section": "§AE.6 [Example 6]", "md_verbatim": "| 1 | 1001 | AE | 001 | Sensor123 | 1 | AE0049 | Skin redness | ERYTHEMA | N | MILD | SENSOR REPLACED AND REPOSITIONED | CAUSAL RELATIONSHIP | RECOVERED/RESOLVED | N | N | N | N | N | N | | 2013-09-07 | 2013-09-07 | 23 | 25 |", "score": 0.4397, "match_basis": "verbatim_token+domain_route:AE"}, {"md_atom_id": "md_dmAE_ex_a097", "md_file": "knowledge_base/domains/AE/examples.md", "md_atom_type": "TABLE_ROW", "md_parent_section": "§AE.6 [Example 6]", "md_verbatim": "| 2 | 1001 | AE | 001 | Sensor123 | 2 | AE0049 | Infection at sensor site | INFECTION | Y | MODERATE | SENSOR REPLACED AND REPOSITIONED | PROBABLE | RECOVERED/RESOLVED | N | N | N | Y | N | N | Y | 2014-10-24 | 2014-11-27 | 78 | 113 |", "score": 0.4365, "match_basis": "verbatim_token+domain_route:AE"}, {"md_atom_id": "md_dmAE_ex_a034", "md_file": "knowledge_base/domains/AE/examples.md", "md_atom_type": "TABLE_ROW", "md_parent_section": "§AE.2 [Example 2]", "md_verbatim": "| 3 | ABC123 | AE | 123101 | 3 | HEADACHE | Headache | | Nervous system disorders | MILD | N | DOSE NOT CHANGED | POSSIBLY RELATED | RECOVERED/RESOLVED | TREATMENT | 2005-10-21 | | 11 | 11 |", "score": 0.4339, "match_basis": "verbatim_token+domain_route:AE"}, {"md_atom_id": "md_dmAE_ex_a018", "md_file": "knowledge_base/domains/AE/examples.md", "md_atom_type": "TABLE_ROW", "md_parent_section": "§AE.1 [Example 1]", "md_verbatim": "| 2 | ABC123 | AE | 123101 | 2 | BACK PAIN FOR 5 HOURS | Back pain | Back pain | Musculoskeletal and connective tissue disorders | MODERATE | N | DOSE REDUCED | RELATED | PROBABLY RELATED | RECOVERED/RESOLVED | | | | | | TREATMENT | 2005-10-13T13:05 | 2005-10-13T19:00 | 1 | 1 | |", "score": 0.4329, "match_basis": "verbatim_token+domain_route:AE"}], "candidate_count": 5, "zero_candidate": false}
{"pdf_atom_id": "ig34_p0136_a003", "pdf_atom_type": "TABLE_ROW", "pdf_source": "SDTMIG_v3.4", "pdf_page": 136, "pdf_parent_section": "§6.2.1 [Adverse Events (AE)]", "pdf_verbatim": "| AESLIFE | Is Life Threatening | Char | (NY) | Record Qualifier | Was the serious event life-threatening? Valid values are \"Y\" and \"N\". | Perm |", "figure_ref": null, "candidates": [{"md_atom_id": "md_dmAE_assn_a029", "md_file": "knowledge_base/domains/AE/assumptions.md", "md_atom_type": "TABLE_ROW", "md_parent_section": "§AE [AE — Assumptions]", "md_verbatim": "      | If yes, check all that apply: | [ ] Fatal  [ ] Life-threatening  [ ] Inpatient hospitalization or prolongation of existing hospitalization  [ ] Persistent or significant disability/incapacity  [ ] Congenital anomaly/birth defect  [ ] Other medically important serious event |", "score": 0.4972, "match_basis": "verbatim_token+domain_route:AE"}, {"md_atom_id": "md_dmAE_ex_a034", "md_file": "knowledge_base/domains/AE/examples.md", "md_atom_type": "TABLE_ROW", "md_parent_section": "§AE.2 [Example 2]", "md_verbatim": "| 3 | ABC123 | AE | 123101 | 3 | HEADACHE | Headache | | Nervous system disorders | MILD | N | DOSE NOT CHANGED | POSSIBLY RELATED | RECOVERED/RESOLVED | TREATMENT | 2005-10-21 | | 11 | 11 |", "score": 0.45, "match_basis": "verbatim_token+domain_route:AE"}, {"md_atom_id": "md_dmAE_ex_a017", "md_file": "knowledge_base/domains/AE/examples.md", "md_atom_type": "TABLE_ROW", "md_parent_section": "§AE.1 [Example 1]", "md_verbatim": "| 1 | ABC123 | AE | 123101 | 1 | POUNDING HEADACHE | Headache | Headache | Nervous system disorders | SEVERE | N | | NOT APPLICABLE | DEFINITELY NOT RELATED | RECOVERED/RESOLVED | | | | | | SCREENING | 2005-10-12 | 2005-10-12 | -1 | -1 | |", "score": 0.4466, "match_basis": "verbatim_token+domain_route:AE"}, {"md_atom_id": "md_dmAE_ex_a032", "md_file": "knowledge_base/domains/AE/examples.md", "md_atom_type": "TABLE_ROW", "md_parent_section": "§AE.2 [Example 2]", "md_verbatim": "| 1 | ABC123 | AE | 123101 | 1 | NAUSEA | Nausea | Y | Gastrointestinal disorders | SEVERE | N | DOSE REDUCED | RELATED | RECOVERED/RESOLVED | TREATMENT | 2005-10-12 | 2005-10-13 | 2 | 3 |", "score": 0.4462, "match_basis": "verbatim_token+domain_route:AE"}, {"md_atom_id": "md_dmAE_ex_a019", "md_file": "knowledge_base/domains/AE/examples.md", "md_atom_type": "TABLE_ROW", "md_parent_section": "§AE.1 [Example 1]", "md_verbatim": "| 3 | ABC123 | AE | 123101 | 3 | PULMONARY EMBOLISM | | Pulmonary embolism | Vascular disorders | MODERATE | Y | DOSE REDUCED | PROBABLY NOT RELATED | RECOVERING/RESOLVING | | | | Y | Y | | TREATMENT | 2005-10-21 | | 9 | | AFTER TREATMENT |", "score": 0.4458, "match_basis": "verbatim_token+domain_route:AE"}], "candidate_count": 5, "zero_candidate": false}
{"pdf_atom_id": "ig34_p0136_a004", "pdf_atom_type": "TABLE_ROW", "pdf_source": "SDTMIG_v3.4", "pdf_page": 136, "pdf_parent_section": "§6.2.1 [Adverse Events (AE)]", "pdf_verbatim": "| AESOD | Occurred with Overdose | Char | (NY) | Record Qualifier | Did the serious event occur with an overdose? Valid values are \"Y\" and \"N\". This is a legacy seriousness criterion. It is not included in ICH E2A or E2B. | Perm |", "figure_ref": null, "candidates": [{"md_atom_id": "md_dmAE_ex_a034", "md_file": "knowledge_base/domains/AE/examples.md", "md_atom_type": "TABLE_ROW", "md_parent_section": "§AE.2 [Example 2]", "md_verbatim": "| 3 | ABC123 | AE | 123101 | 3 | HEADACHE | Headache | | Nervous system disorders | MILD | N | DOSE NOT CHANGED | POSSIBLY RELATED | RECOVERED/RESOLVED | TREATMENT | 2005-10-21 | | 11 | 11 |", "score": 0.4586, "match_basis": "verbatim_token+domain_route:AE"}, {"md_atom_id": "md_dmAE_ex_a019", "md_file": "knowledge_base/domains/AE/examples.md", "md_atom_type": "TABLE_ROW", "md_parent_section": "§AE.1 [Example 1]", "md_verbatim": "| 3 | ABC123 | AE | 123101 | 3 | PULMONARY EMBOLISM | | Pulmonary embolism | Vascular disorders | MODERATE | Y | DOSE REDUCED | PROBABLY NOT RELATED | RECOVERING/RESOLVING | | | | Y | Y | | TREATMENT | 2005-10-21 | | 9 | | AFTER TREATMENT |", "score": 0.4545, "match_basis": "verbatim_token+domain_route:AE"}, {"md_atom_id": "md_dmAE_ex_a032", "md_file": "knowledge_base/domains/AE/examples.md", "md_atom_type": "TABLE_ROW", "md_parent_section": "§AE.2 [Example 2]", "md_verbatim": "| 1 | ABC123 | AE | 123101 | 1 | NAUSEA | Nausea | Y | Gastrointestinal disorders | SEVERE | N | DOSE REDUCED | RELATED | RECOVERED/RESOLVED | TREATMENT | 2005-10-12 | 2005-10-13 | 2 | 3 |", "score": 0.4508, "match_basis": "verbatim_token+domain_route:AE"}, {"md_atom_id": "md_dmAE_assn_a029", "md_file": "knowledge_base/domains/AE/assumptions.md", "md_atom_type": "TABLE_ROW", "md_parent_section": "§AE [AE — Assumptions]", "md_verbatim": "      | If yes, check all that apply: | [ ] Fatal  [ ] Life-threatening  [ ] Inpatient hospitalization or prolongation of existing hospitalization  [ ] Persistent or significant disability/incapacity  [ ] Congenital anomaly/birth defect  [ ] Other medically important serious event |", "score": 0.4503, "match_basis": "verbatim_token+domain_route:AE"}, {"md_atom_id": "md_dmAE_ex_a096", "md_file": "knowledge_base/domains/AE/examples.md", "md_atom_type": "TABLE_ROW", "md_parent_section": "§AE.6 [Example 6]", "md_verbatim": "| 1 | 1001 | AE | 001 | Sensor123 | 1 | AE0049 | Skin redness | ERYTHEMA | N | MILD | SENSOR REPLACED AND REPOSITIONED | CAUSAL RELATIONSHIP | RECOVERED/RESOLVED | N | N | N | N | N | N | | 2013-09-07 | 2013-09-07 | 23 | 25 |", "score": 0.4496, "match_basis": "verbatim_token+domain_route:AE"}], "candidate_count": 5, "zero_candidate": false}
{"pdf_atom_id": "ig34_p0136_a005", "pdf_atom_type": "TABLE_ROW", "pdf_source": "SDTMIG_v3.4", "pdf_page": 136, "pdf_parent_section": "§6.2.1 [Adverse Events (AE)]", "pdf_verbatim": "| AESMIE | Other Medically Important Serious Event | Char | (NY) | Record Qualifier | Do additional categories for seriousness apply? Valid values are \"Y\" and \"N\". | Perm |", "figure_ref": null, "candidates": [{"md_atom_id": "md_dmAE_assn_a029", "md_file": "knowledge_base/domains/AE/assumptions.md", "md_atom_type": "TABLE_ROW", "md_parent_section": "§AE [AE — Assumptions]", "md_verbatim": "      | If yes, check all that apply: | [ ] Fatal  [ ] Life-threatening  [ ] Inpatient hospitalization or prolongation of existing hospitalization  [ ] Persistent or significant disability/incapacity  [ ] Congenital anomaly/birth defect  [ ] Other medically important serious event |", "score": 0.5312, "match_basis": "verbatim_token+domain_route:AE"}, {"md_atom_id": "md_dmAE_ex_a096", "md_file": "knowledge_base/domains/AE/examples.md", "md_atom_type": "TABLE_ROW", "md_parent_section": "§AE.6 [Example 6]", "md_verbatim": "| 1 | 1001 | AE | 001 | Sensor123 | 1 | AE0049 | Skin redness | ERYTHEMA | N | MILD | SENSOR REPLACED AND REPOSITIONED | CAUSAL RELATIONSHIP | RECOVERED/RESOLVED | N | N | N | N | N | N | | 2013-09-07 | 2013-09-07 | 23 | 25 |", "score": 0.4397, "match_basis": "verbatim_token+domain_route:AE"}, {"md_atom_id": "md_dmAE_ex_a017", "md_file": "knowledge_base/domains/AE/examples.md", "md_atom_type": "TABLE_ROW", "md_parent_section": "§AE.1 [Example 1]", "md_verbatim": "| 1 | ABC123 | AE | 123101 | 1 | POUNDING HEADACHE | Headache | Headache | Nervous system disorders | SEVERE | N | | NOT APPLICABLE | DEFINITELY NOT RELATED | RECOVERED/RESOLVED | | | | | | SCREENING | 2005-10-12 | 2005-10-12 | -1 | -1 | |", "score": 0.437, "match_basis": "verbatim_token+domain_route:AE"}, {"md_atom_id": "md_dmAE_ex_a097", "md_file": "knowledge_base/domains/AE/examples.md", "md_atom_type": "TABLE_ROW", "md_parent_section": "§AE.6 [Example 6]", "md_verbatim": "| 2 | 1001 | AE | 001 | Sensor123 | 2 | AE0049 | Infection at sensor site | INFECTION | Y | MODERATE | SENSOR REPLACED AND REPOSITIONED | PROBABLE | RECOVERED/RESOLVED | N | N | N | Y | N | N | Y | 2014-10-24 | 2014-11-27 | 78 | 113 |", "score": 0.4321, "match_basis": "verbatim_token+domain_route:AE"}, {"md_atom_id": "md_dmAE_ex_a032", "md_file": "knowledge_base/domains/AE/examples.md", "md_atom_type": "TABLE_ROW", "md_parent_section": "§AE.2 [Example 2]", "md_verbatim": "| 1 | ABC123 | AE | 123101 | 1 | NAUSEA | Nausea | Y | Gastrointestinal disorders | SEVERE | N | DOSE REDUCED | RELATED | RECOVERED/RESOLVED | TREATMENT | 2005-10-12 | 2005-10-13 | 2 | 3 |", "score": 0.4311, "match_basis": "verbatim_token+domain_route:AE"}], "candidate_count": 5, "zero_candidate": false}
{"pdf_atom_id": "ig34_p0136_a006", "pdf_atom_type": "TABLE_ROW", "pdf_source": "SDTMIG_v3.4", "pdf_page": 136, "pdf_parent_section": "§6.2.1 [Adverse Events (AE)]", "pdf_verbatim": "| AESINTV | Needs Intervention to Prevent Impairment | Char | (NY) | Record Qualifier | Records whether medical or surgical intervention was necessary to preclude permanent impairment of a body function, or to prevent permanent damage to a body structure, with either situation suspected to be due to the use of a medical product. This variable is used in conjunction with the other \"seriousness\" variables (e.g., fatal, life-threatening). It is part of the US federal government definition of a serious adverse event; see 21 CFR Part 803.3(w)(3). | Perm |", "figure_ref": null, "candidates": [{"md_atom_id": "md_dmAE_assn_a029", "md_file": "knowledge_base/domains/AE/assumptions.md", "md_atom_type": "TABLE_ROW", "md_parent_section": "§AE [AE — Assumptions]", "md_verbatim": "      | If yes, check all that apply: | [ ] Fatal  [ ] Life-threatening  [ ] Inpatient hospitalization or prolongation of existing hospitalization  [ ] Persistent or significant disability/incapacity  [ ] Congenital anomaly/birth defect  [ ] Other medically important serious event |", "score": 0.5032, "match_basis": "verbatim_token+domain_route:AE"}, {"md_atom_id": "md_dmAE_ex_a017", "md_file": "knowledge_base/domains/AE/examples.md", "md_atom_type": "TABLE_ROW", "md_parent_section": "§AE.1 [Example 1]", "md_verbatim": "| 1 | ABC123 | AE | 123101 | 1 | POUNDING HEADACHE | Headache | Headache | Nervous system disorders | SEVERE | N | | NOT APPLICABLE | DEFINITELY NOT RELATED | RECOVERED/RESOLVED | | | | | | SCREENING | 2005-10-12 | 2005-10-12 | -1 | -1 | |", "score": 0.46, "match_basis": "verbatim_token+domain_route:AE"}, {"md_atom_id": "md_dmAE_ex_a018", "md_file": "knowledge_base/domains/AE/examples.md", "md_atom_type": "TABLE_ROW", "md_parent_section": "§AE.1 [Example 1]", "md_verbatim": "| 2 | ABC123 | AE | 123101 | 2 | BACK PAIN FOR 5 HOURS | Back pain | Back pain | Musculoskeletal and connective tissue disorders | MODERATE | N | DOSE REDUCED | RELATED | PROBABLY RELATED | RECOVERED/RESOLVED | | | | | | TREATMENT | 2005-10-13T13:05 | 2005-10-13T19:00 | 1 | 1 | |", "score": 0.4563, "match_basis": "verbatim_token+domain_route:AE"}, {"md_atom_id": "md_dmAE_ex_a019", "md_file": "knowledge_base/domains/AE/examples.md", "md_atom_type": "TABLE_ROW", "md_parent_section": "§AE.1 [Example 1]", "md_verbatim": "| 3 | ABC123 | AE | 123101 | 3 | PULMONARY EMBOLISM | | Pulmonary embolism | Vascular disorders | MODERATE | Y | DOSE REDUCED | PROBABLY NOT RELATED | RECOVERING/RESOLVING | | | | Y | Y | | TREATMENT | 2005-10-21 | | 9 | | AFTER TREATMENT |", "score": 0.4538, "match_basis": "verbatim_token+domain_route:AE"}, {"md_atom_id": "md_dmAE_ex_a033", "md_file": "knowledge_base/domains/AE/examples.md", "md_atom_type": "TABLE_ROW", "md_parent_section": "§AE.2 [Example 2]", "md_verbatim": "| 2 | ABC123 | AE | 123101 | 2 | VOMITING | Vomiting | Y | Gastrointestinal disorders | MODERATE | N | DOSE REDUCED | RELATED | RECOVERED/RESOLVED | TREATMENT | 2005-10-13T13:05 | 2005-10-13T19:00 | 3 | 3 |", "score": 0.4529, "match_basis": "verbatim_token+domain_route:AE"}], "candidate_count": 5, "zero_candidate": false}
{"pdf_atom_id": "ig34_p0136_a007", "pdf_atom_type": "TABLE_ROW", "pdf_source": "SDTMIG_v3.4", "pdf_page": 136, "pdf_parent_section": "§6.2.1 [Adverse Events (AE)]", "pdf_verbatim": "| AEUNANT | Unanticipated Adverse Device Effect | Char | (NY) | Record Qualifier | Any serious adverse effect on health or safety or any life-threatening problem or death caused by or associated with a device, if that effect, problem, or death was not previously identified in nature, severity, or degree of incidence in the investigational plan or application (including a supplementary plan or application),\nor\nany other unanticipated serious problem associated with a device that relates to the rights, safety, or welfare of subjects. (21 CFR Part 812.3(s)).\nThis variable applies only to serious AEs and should hold collected data; if the value is derived, it should be held in ADaM. | Perm |", "figure_ref": null, "candidates": [{"md_atom_id": "md_dmAE_assn_a029", "md_file": "knowledge_base/domains/AE/assumptions.md", "md_atom_type": "TABLE_ROW", "md_parent_section": "§AE [AE — Assumptions]", "md_verbatim": "      | If yes, check all that apply: | [ ] Fatal  [ ] Life-threatening  [ ] Inpatient hospitalization or prolongation of existing hospitalization  [ ] Persistent or significant disability/incapacity  [ ] Congenital anomaly/birth defect  [ ] Other medically important serious event |", "score": 0.4899, "match_basis": "verbatim_token+domain_route:AE"}, {"md_atom_id": "md_dmAE_ex_a017", "md_file": "knowledge_base/domains/AE/examples.md", "md_atom_type": "TABLE_ROW", "md_parent_section": "§AE.1 [Example 1]", "md_verbatim": "| 1 | ABC123 | AE | 123101 | 1 | POUNDING HEADACHE | Headache | Headache | Nervous system disorders | SEVERE | N | | NOT APPLICABLE | DEFINITELY NOT RELATED | RECOVERED/RESOLVED | | | | | | SCREENING | 2005-10-12 | 2005-10-12 | -1 | -1 | |", "score": 0.4692, "match_basis": "verbatim_token+domain_route:AE"}, {"md_atom_id": "md_dmAE_ex_a032", "md_file": "knowledge_base/domains/AE/examples.md", "md_atom_type": "TABLE_ROW", "md_parent_section": "§AE.2 [Example 2]", "md_verbatim": "| 1 | ABC123 | AE | 123101 | 1 | NAUSEA | Nausea | Y | Gastrointestinal disorders | SEVERE | N | DOSE REDUCED | RELATED | RECOVERED/RESOLVED | TREATMENT | 2005-10-12 | 2005-10-13 | 2 | 3 |", "score": 0.4569, "match_basis": "verbatim_token+domain_route:AE"}, {"md_atom_id": "md_dmAE_ex_a019", "md_file": "knowledge_base/domains/AE/examples.md", "md_atom_type": "TABLE_ROW", "md_parent_section": "§AE.1 [Example 1]", "md_verbatim": "| 3 | ABC123 | AE | 123101 | 3 | PULMONARY EMBOLISM | | Pulmonary embolism | Vascular disorders | MODERATE | Y | DOSE REDUCED | PROBABLY NOT RELATED | RECOVERING/RESOLVING | | | | Y | Y | | TREATMENT | 2005-10-21 | | 9 | | AFTER TREATMENT |", "score": 0.4513, "match_basis": "verbatim_token+domain_route:AE"}, {"md_atom_id": "md_dmAE_ex_a018", "md_file": "knowledge_base/domains/AE/examples.md", "md_atom_type": "TABLE_ROW", "md_parent_section": "§AE.1 [Example 1]", "md_verbatim": "| 2 | ABC123 | AE | 123101 | 2 | BACK PAIN FOR 5 HOURS | Back pain | Back pain | Musculoskeletal and connective tissue disorders | MODERATE | N | DOSE REDUCED | RELATED | PROBABLY RELATED | RECOVERED/RESOLVED | | | | | | TREATMENT | 2005-10-13T13:05 | 2005-10-13T19:00 | 1 | 1 | |", "score": 0.4489, "match_basis": "verbatim_token+domain_route:AE"}], "candidate_count": 5, "zero_candidate": false}
{"pdf_atom_id": "ig34_p0136_a008", "pdf_atom_type": "TABLE_ROW", "pdf_source": "SDTMIG_v3.4", "pdf_page": 136, "pdf_parent_section": "§6.2.1 [Adverse Events (AE)]", "pdf_verbatim": "| AERLPRT | Rel of AE to Non-Dev-Rel Study Activity | Char | * | Record Qualifier | The investigator's opinion as to the causality of the event as related to other protocol-required activities, actions, or assessments (e.g., medication changes, tests/assessments, other procedures). The relationship is to a protocol-specified, non-device-related activity where the device is identified in the data (i.e., has an SPDEVID). The device may be ancillary or under study.\nTerminology:\n• In the EU, follow the European Commission Guidelines on Medical Devices, Clinical Investigations: SAE Reporting (MEDDEV 2.7/3) (e.g., Not Related, Unlikely, Possible, Probable, Causal Relationship), with device-specific definitions.\n• No required Controlled Terminology in US. | Perm |", "figure_ref": null, "candidates": [{"md_atom_id": "md_dmAE_assn_a029", "md_file": "knowledge_base/domains/AE/assumptions.md", "md_atom_type": "TABLE_ROW", "md_parent_section": "§AE [AE — Assumptions]", "md_verbatim": "      | If yes, check all that apply: | [ ] Fatal  [ ] Life-threatening  [ ] Inpatient hospitalization or prolongation of existing hospitalization  [ ] Persistent or significant disability/incapacity  [ ] Congenital anomaly/birth defect  [ ] Other medically important serious event |", "score": 0.4742, "match_basis": "verbatim_token+domain_route:AE"}, {"md_atom_id": "md_dmAE_ex_a059", "md_file": "knowledge_base/domains/AE/examples.md", "md_atom_type": "TABLE_ROW", "md_parent_section": "§AE.4 [Example 4]", "md_verbatim": "| 3 | ABC123 | AE | 123101 | 3 | 1 | VOMITING | Gastrointestinal disorders | SEVERE | N | DOSE NOT CHANGED | POSSIBLY RELATED | 2005-10-16 | 2005-10-17 |", "score": 0.4629, "match_basis": "verbatim_token+domain_route:AE"}, {"md_atom_id": "md_dmAE_ex_a096", "md_file": "knowledge_base/domains/AE/examples.md", "md_atom_type": "TABLE_ROW", "md_parent_section": "§AE.6 [Example 6]", "md_verbatim": "| 1 | 1001 | AE | 001 | Sensor123 | 1 | AE0049 | Skin redness | ERYTHEMA | N | MILD | SENSOR REPLACED AND REPOSITIONED | CAUSAL RELATIONSHIP | RECOVERED/RESOLVED | N | N | N | N | N | N | | 2013-09-07 | 2013-09-07 | 23 | 25 |", "score": 0.4625, "match_basis": "verbatim_token+domain_route:AE"}, {"md_atom_id": "md_dmAE_ex_a058", "md_file": "knowledge_base/domains/AE/examples.md", "md_atom_type": "TABLE_ROW", "md_parent_section": "§AE.4 [Example 4]", "md_verbatim": "| 2 | ABC123 | AE | 123101 | 2 | 1 | VOMITING | Gastrointestinal disorders | MILD | N | DOSE NOT CHANGED | POSSIBLY RELATED | 2005-10-14 | 2005-10-15 |", "score": 0.4581, "match_basis": "verbatim_token+domain_route:AE"}, {"md_atom_id": "md_dmAE_ex_a060", "md_file": "knowledge_base/domains/AE/examples.md", "md_atom_type": "TABLE_ROW", "md_parent_section": "§AE.4 [Example 4]", "md_verbatim": "| 4 | ABC123 | AE | 123101 | 4 | 1 | VOMITING | Gastrointestinal disorders | MILD | N | DOSE NOT CHANGED | POSSIBLY RELATED | 2005-10-17 | 2005-10-20 |", "score": 0.4581, "match_basis": "verbatim_token+domain_route:AE"}], "candidate_count": 5, "zero_candidate": false}
{"pdf_atom_id": "ig34_p0136_a009", "pdf_atom_type": "TABLE_ROW", "pdf_source": "SDTMIG_v3.4", "pdf_page": 136, "pdf_parent_section": "§6.2.1 [Adverse Events (AE)]", "pdf_verbatim": "| AERLPRC | Rel of AE to Device-Related Procedure | Char | * | Record Qualifier | The investigator's opinion as to the likelihood that the device-related study procedure (e.g., implant/insertion, revision/adjustment, explant/removal) caused the AE. The relationship is to a device-related procedure where the device is identified in the data (i.e., has an SPDEVID). The device may be ancillary or under study.\nTerminology:\n• In the EU, follow the European Commission Guidelines on Medical Devices, Clinical Investigations: SAE Reporting (MEDDEV 2.7/3) (e.g., Not Related, Unlikely, Possible, Probable, Causal Relationship), with device-specific definitions.\n• No required Controlled Terminology in US. | Perm |", "figure_ref": null, "candidates": [{"md_atom_id": "md_dmAE_assn_a029", "md_file": "knowledge_base/domains/AE/assumptions.md", "md_atom_type": "TABLE_ROW", "md_parent_section": "§AE [AE — Assumptions]", "md_verbatim": "      | If yes, check all that apply: | [ ] Fatal  [ ] Life-threatening  [ ] Inpatient hospitalization or prolongation of existing hospitalization  [ ] Persistent or significant disability/incapacity  [ ] Congenital anomaly/birth defect  [ ] Other medically important serious event |", "score": 0.4698, "match_basis": "verbatim_token+domain_route:AE"}, {"md_atom_id": "md_dmAE_ex_a096", "md_file": "knowledge_base/domains/AE/examples.md", "md_atom_type": "TABLE_ROW", "md_parent_section": "§AE.6 [Example 6]", "md_verbatim": "| 1 | 1001 | AE | 001 | Sensor123 | 1 | AE0049 | Skin redness | ERYTHEMA | N | MILD | SENSOR REPLACED AND REPOSITIONED | CAUSAL RELATIONSHIP | RECOVERED/RESOLVED | N | N | N | N | N | N | | 2013-09-07 | 2013-09-07 | 23 | 25 |", "score": 0.46, "match_basis": "verbatim_token+domain_route:AE"}, {"md_atom_id": "md_dmAE_ex_a019", "md_file": "knowledge_base/domains/AE/examples.md", "md_atom_type": "TABLE_ROW", "md_parent_section": "§AE.1 [Example 1]", "md_verbatim": "| 3 | ABC123 | AE | 123101 | 3 | PULMONARY EMBOLISM | | Pulmonary embolism | Vascular disorders | MODERATE | Y | DOSE REDUCED | PROBABLY NOT RELATED | RECOVERING/RESOLVING | | | | Y | Y | | TREATMENT | 2005-10-21 | | 9 | | AFTER TREATMENT |", "score": 0.4549, "match_basis": "verbatim_token+domain_route:AE"}, {"md_atom_id": "md_dmAE_ex_a032", "md_file": "knowledge_base/domains/AE/examples.md", "md_atom_type": "TABLE_ROW", "md_parent_section": "§AE.2 [Example 2]", "md_verbatim": "| 1 | ABC123 | AE | 123101 | 1 | NAUSEA | Nausea | Y | Gastrointestinal disorders | SEVERE | N | DOSE REDUCED | RELATED | RECOVERED/RESOLVED | TREATMENT | 2005-10-12 | 2005-10-13 | 2 | 3 |", "score": 0.4506, "match_basis": "verbatim_token+domain_route:AE"}, {"md_atom_id": "md_dmAE_ex_a017", "md_file": "knowledge_base/domains/AE/examples.md", "md_atom_type": "TABLE_ROW", "md_parent_section": "§AE.1 [Example 1]", "md_verbatim": "| 1 | ABC123 | AE | 123101 | 1 | POUNDING HEADACHE | Headache | Headache | Nervous system disorders | SEVERE | N | | NOT APPLICABLE | DEFINITELY NOT RELATED | RECOVERED/RESOLVED | | | | | | SCREENING | 2005-10-12 | 2005-10-12 | -1 | -1 | |", "score": 0.4505, "match_basis": "verbatim_token+domain_route:AE"}], "candidate_count": 5, "zero_candidate": false}
{"pdf_atom_id": "ig34_p0136_a010", "pdf_atom_type": "TABLE_ROW", "pdf_source": "SDTMIG_v3.4", "pdf_page": 136, "pdf_parent_section": "§6.2.1 [Adverse Events (AE)]", "pdf_verbatim": "| AECONTRT | Concomitant or Additional Trtmnt Given | Char | (NY) | Record Qualifier | Was another treatment given because of the occurrence of the event? Valid values are \"Y\" and \"N\". | Perm |", "figure_ref": null, "candidates": [{"md_atom_id": "md_dmAE_ex_a032", "md_file": "knowledge_base/domains/AE/examples.md", "md_atom_type": "TABLE_ROW", "md_parent_section": "§AE.2 [Example 2]", "md_verbatim": "| 1 | ABC123 | AE | 123101 | 1 | NAUSEA | Nausea | Y | Gastrointestinal disorders | SEVERE | N | DOSE REDUCED | RELATED | RECOVERED/RESOLVED | TREATMENT | 2005-10-12 | 2005-10-13 | 2 | 3 |", "score": 0.4651, "match_basis": "verbatim_token+domain_route:AE"}, {"md_atom_id": "md_dmAE_assn_a029", "md_file": "knowledge_base/domains/AE/assumptions.md", "md_atom_type": "TABLE_ROW", "md_parent_section": "§AE [AE — Assumptions]", "md_verbatim": "      | If yes, check all that apply: | [ ] Fatal  [ ] Life-threatening  [ ] Inpatient hospitalization or prolongation of existing hospitalization  [ ] Persistent or significant disability/incapacity  [ ] Congenital anomaly/birth defect  [ ] Other medically important serious event |", "score": 0.4644, "match_basis": "verbatim_token+domain_route:AE"}, {"md_atom_id": "md_dmAE_ex_a033", "md_file": "knowledge_base/domains/AE/examples.md", "md_atom_type": "TABLE_ROW", "md_parent_section": "§AE.2 [Example 2]", "md_verbatim": "| 2 | ABC123 | AE | 123101 | 2 | VOMITING | Vomiting | Y | Gastrointestinal disorders | MODERATE | N | DOSE REDUCED | RELATED | RECOVERED/RESOLVED | TREATMENT | 2005-10-13T13:05 | 2005-10-13T19:00 | 3 | 3 |", "score": 0.4618, "match_basis": "verbatim_token+domain_route:AE"}, {"md_atom_id": "md_dmAE_ex_a034", "md_file": "knowledge_base/domains/AE/examples.md", "md_atom_type": "TABLE_ROW", "md_parent_section": "§AE.2 [Example 2]", "md_verbatim": "| 3 | ABC123 | AE | 123101 | 3 | HEADACHE | Headache | | Nervous system disorders | MILD | N | DOSE NOT CHANGED | POSSIBLY RELATED | RECOVERED/RESOLVED | TREATMENT | 2005-10-21 | | 11 | 11 |", "score": 0.4529, "match_basis": "verbatim_token+domain_route:AE"}, {"md_atom_id": "md_dmAE_ex_a018", "md_file": "knowledge_base/domains/AE/examples.md", "md_atom_type": "TABLE_ROW", "md_parent_section": "§AE.1 [Example 1]", "md_verbatim": "| 2 | ABC123 | AE | 123101 | 2 | BACK PAIN FOR 5 HOURS | Back pain | Back pain | Musculoskeletal and connective tissue disorders | MODERATE | N | DOSE REDUCED | RELATED | PROBABLY RELATED | RECOVERED/RESOLVED | | | | | | TREATMENT | 2005-10-13T13:05 | 2005-10-13T19:00 | 1 | 1 | |", "score": 0.4494, "match_basis": "verbatim_token+domain_route:AE"}], "candidate_count": 5, "zero_candidate": false}
{"pdf_atom_id": "ig34_p0136_a011", "pdf_atom_type": "TABLE_ROW", "pdf_source": "SDTMIG_v3.4", "pdf_page": 136, "pdf_parent_section": "§6.2.1 [Adverse Events (AE)]", "pdf_verbatim": "| AETOXGR | Standard Toxicity Grade | Char | * | Record Qualifier | Toxicity grade according to a standard toxicity scale (e.g., Common Terminology Criteria for Adverse Events, CTCAE). Sponsors should specify the name of the scale and version used in the metadata (see assumption 7d). If value is from a numeric scale, represent only the number (e.g., \"2\", not \"Grade 2\"). | Perm |", "figure_ref": null, "candidates": [{"md_atom_id": "md_dmAE_assn_a029", "md_file": "knowledge_base/domains/AE/assumptions.md", "md_atom_type": "TABLE_ROW", "md_parent_section": "§AE [AE — Assumptions]", "md_verbatim": "      | If yes, check all that apply: | [ ] Fatal  [ ] Life-threatening  [ ] Inpatient hospitalization or prolongation of existing hospitalization  [ ] Persistent or significant disability/incapacity  [ ] Congenital anomaly/birth defect  [ ] Other medically important serious event |", "score": 0.4522, "match_basis": "verbatim_token+domain_route:AE"}, {"md_atom_id": "md_dmAE_ex_a096", "md_file": "knowledge_base/domains/AE/examples.md", "md_atom_type": "TABLE_ROW", "md_parent_section": "§AE.6 [Example 6]", "md_verbatim": "| 1 | 1001 | AE | 001 | Sensor123 | 1 | AE0049 | Skin redness | ERYTHEMA | N | MILD | SENSOR REPLACED AND REPOSITIONED | CAUSAL RELATIONSHIP | RECOVERED/RESOLVED | N | N | N | N | N | N | | 2013-09-07 | 2013-09-07 | 23 | 25 |", "score": 0.4417, "match_basis": "verbatim_token+domain_route:AE"}, {"md_atom_id": "md_dmAE_ex_a097", "md_file": "knowledge_base/domains/AE/examples.md", "md_atom_type": "TABLE_ROW", "md_parent_section": "§AE.6 [Example 6]", "md_verbatim": "| 2 | 1001 | AE | 001 | Sensor123 | 2 | AE0049 | Infection at sensor site | INFECTION | Y | MODERATE | SENSOR REPLACED AND REPOSITIONED | PROBABLE | RECOVERED/RESOLVED | N | N | N | Y | N | N | Y | 2014-10-24 | 2014-11-27 | 78 | 113 |", "score": 0.4398, "match_basis": "verbatim_token+domain_route:AE"}, {"md_atom_id": "md_dmAE_ex_a017", "md_file": "knowledge_base/domains/AE/examples.md", "md_atom_type": "TABLE_ROW", "md_parent_section": "§AE.1 [Example 1]", "md_verbatim": "| 1 | ABC123 | AE | 123101 | 1 | POUNDING HEADACHE | Headache | Headache | Nervous system disorders | SEVERE | N | | NOT APPLICABLE | DEFINITELY NOT RELATED | RECOVERED/RESOLVED | | | | | | SCREENING | 2005-10-12 | 2005-10-12 | -1 | -1 | |", "score": 0.4396, "match_basis": "verbatim_token+domain_route:AE"}, {"md_atom_id": "md_dmAE_ex_a019", "md_file": "knowledge_base/domains/AE/examples.md", "md_atom_type": "TABLE_ROW", "md_parent_section": "§AE.1 [Example 1]", "md_verbatim": "| 3 | ABC123 | AE | 123101 | 3 | PULMONARY EMBOLISM | | Pulmonary embolism | Vascular disorders | MODERATE | Y | DOSE REDUCED | PROBABLY NOT RELATED | RECOVERING/RESOLVING | | | | Y | Y | | TREATMENT | 2005-10-21 | | 9 | | AFTER TREATMENT |", "score": 0.4392, "match_basis": "verbatim_token+domain_route:AE"}], "candidate_count": 5, "zero_candidate": false}
{"pdf_atom_id": "ig34_p0136_a012", "pdf_atom_type": "TABLE_ROW", "pdf_source": "SDTMIG_v3.4", "pdf_page": 136, "pdf_parent_section": "§6.2.1 [Adverse Events (AE)]", "pdf_verbatim": "| TAETORD | Planned Order of Element within Arm | Num | | Timing | Number that gives the planned order of the element within the arm. | Perm |", "figure_ref": null, "candidates": [{"md_atom_id": "md_dmAE_ex_a018", "md_file": "knowledge_base/domains/AE/examples.md", "md_atom_type": "TABLE_ROW", "md_parent_section": "§AE.1 [Example 1]", "md_verbatim": "| 2 | ABC123 | AE | 123101 | 2 | BACK PAIN FOR 5 HOURS | Back pain | Back pain | Musculoskeletal and connective tissue disorders | MODERATE | N | DOSE REDUCED | RELATED | PROBABLY RELATED | RECOVERED/RESOLVED | | | | | | TREATMENT | 2005-10-13T13:05 | 2005-10-13T19:00 | 1 | 1 | |", "score": 0.4384, "match_basis": "verbatim_token+domain_route:AE"}, {"md_atom_id": "md_dmAE_ex_a048", "md_file": "knowledge_base/domains/AE/examples.md", "md_atom_type": "TABLE_ROW", "md_parent_section": "§AE.3 [Example 3]", "md_verbatim": "| 2 | ABC123 | AE | 123101 | 2 | VOMITING | Vomiting | Y | Gastrointestinal disorders | | 2005-10-29 | 19 |", "score": 0.4348, "match_basis": "verbatim_token+domain_route:AE"}, {"md_atom_id": "md_dmAE_ex_a033", "md_file": "knowledge_base/domains/AE/examples.md", "md_atom_type": "TABLE_ROW", "md_parent_section": "§AE.2 [Example 2]", "md_verbatim": "| 2 | ABC123 | AE | 123101 | 2 | VOMITING | Vomiting | Y | Gastrointestinal disorders | MODERATE | N | DOSE REDUCED | RELATED | RECOVERED/RESOLVED | TREATMENT | 2005-10-13T13:05 | 2005-10-13T19:00 | 3 | 3 |", "score": 0.434, "match_basis": "verbatim_token+domain_route:AE"}, {"md_atom_id": "md_dmAE_ex_a019", "md_file": "knowledge_base/domains/AE/examples.md", "md_atom_type": "TABLE_ROW", "md_parent_section": "§AE.1 [Example 1]", "md_verbatim": "| 3 | ABC123 | AE | 123101 | 3 | PULMONARY EMBOLISM | | Pulmonary embolism | Vascular disorders | MODERATE | Y | DOSE REDUCED | PROBABLY NOT RELATED | RECOVERING/RESOLVING | | | | Y | Y | | TREATMENT | 2005-10-21 | | 9 | | AFTER TREATMENT |", "score": 0.4316, "match_basis": "verbatim_token+domain_route:AE"}, {"md_atom_id": "md_dmAE_ex_a032", "md_file": "knowledge_base/domains/AE/examples.md", "md_atom_type": "TABLE_ROW", "md_parent_section": "§AE.2 [Example 2]", "md_verbatim": "| 1 | ABC123 | AE | 123101 | 1 | NAUSEA | Nausea | Y | Gastrointestinal disorders | SEVERE | N | DOSE REDUCED | RELATED | RECOVERED/RESOLVED | TREATMENT | 2005-10-12 | 2005-10-13 | 2 | 3 |", "score": 0.43, "match_basis": "verbatim_token+domain_route:AE"}], "candidate_count": 5, "zero_candidate": false}
{"pdf_atom_id": "ig34_p0136_a013", "pdf_atom_type": "TABLE_ROW", "pdf_source": "SDTMIG_v3.4", "pdf_page": 136, "pdf_parent_section": "§6.2.1 [Adverse Events (AE)]", "pdf_verbatim": "| EPOCH | Epoch | Char | (EPOCH) | Timing | Epoch associated with the start date/time of the adverse event. Examples: \"SCREENING\", \"TREATMENT\", \"FOLLOW-UP\". | Perm |", "figure_ref": null, "candidates": [{"md_atom_id": "md_dmAE_ex_a032", "md_file": "knowledge_base/domains/AE/examples.md", "md_atom_type": "TABLE_ROW", "md_parent_section": "§AE.2 [Example 2]", "md_verbatim": "| 1 | ABC123 | AE | 123101 | 1 | NAUSEA | Nausea | Y | Gastrointestinal disorders | SEVERE | N | DOSE REDUCED | RELATED | RECOVERED/RESOLVED | TREATMENT | 2005-10-12 | 2005-10-13 | 2 | 3 |", "score": 0.4643, "match_basis": "verbatim_token+domain_route:AE"}, {"md_atom_id": "md_dmAE_ex_a034", "md_file": "knowledge_base/domains/AE/examples.md", "md_atom_type": "TABLE_ROW", "md_parent_section": "§AE.2 [Example 2]", "md_verbatim": "| 3 | ABC123 | AE | 123101 | 3 | HEADACHE | Headache | | Nervous system disorders | MILD | N | DOSE NOT CHANGED | POSSIBLY RELATED | RECOVERED/RESOLVED | TREATMENT | 2005-10-21 | | 11 | 11 |", "score": 0.4615, "match_basis": "verbatim_token+domain_route:AE"}, {"md_atom_id": "md_dmAE_ex_a033", "md_file": "knowledge_base/domains/AE/examples.md", "md_atom_type": "TABLE_ROW", "md_parent_section": "§AE.2 [Example 2]", "md_verbatim": "| 2 | ABC123 | AE | 123101 | 2 | VOMITING | Vomiting | Y | Gastrointestinal disorders | MODERATE | N | DOSE REDUCED | RELATED | RECOVERED/RESOLVED | TREATMENT | 2005-10-13T13:05 | 2005-10-13T19:00 | 3 | 3 |", "score": 0.4605, "match_basis": "verbatim_token+domain_route:AE"}, {"md_atom_id": "md_dmAE_ex_a017", "md_file": "knowledge_base/domains/AE/examples.md", "md_atom_type": "TABLE_ROW", "md_parent_section": "§AE.1 [Example 1]", "md_verbatim": "| 1 | ABC123 | AE | 123101 | 1 | POUNDING HEADACHE | Headache | Headache | Nervous system disorders | SEVERE | N | | NOT APPLICABLE | DEFINITELY NOT RELATED | RECOVERED/RESOLVED | | | | | | SCREENING | 2005-10-12 | 2005-10-12 | -1 | -1 | |", "score": 0.4576, "match_basis": "verbatim_token+domain_route:AE"}, {"md_atom_id": "md_dmAE_ex_a019", "md_file": "knowledge_base/domains/AE/examples.md", "md_atom_type": "TABLE_ROW", "md_parent_section": "§AE.1 [Example 1]", "md_verbatim": "| 3 | ABC123 | AE | 123101 | 3 | PULMONARY EMBOLISM | | Pulmonary embolism | Vascular disorders | MODERATE | Y | DOSE REDUCED | PROBABLY NOT RELATED | RECOVERING/RESOLVING | | | | Y | Y | | TREATMENT | 2005-10-21 | | 9 | | AFTER TREATMENT |", "score": 0.4567, "match_basis": "verbatim_token+domain_route:AE"}], "candidate_count": 5, "zero_candidate": false}
{"pdf_atom_id": "ig34_p0137_a001", "pdf_atom_type": "TABLE_HEADER", "pdf_source": "SDTMIG_v3.4", "pdf_page": 137, "pdf_parent_section": "§6.2.1 [Adverse Events (AE)]", "pdf_verbatim": "| Variable Name | Variable Label | Type | Controlled Terms, Codelist or Format¹ | Role | CDISC Notes | Core |", "figure_ref": null, "candidates": [{"md_atom_id": "md_dmAE_ex_a095", "md_file": "knowledge_base/domains/AE/examples.md", "md_atom_type": "TABLE_HEADER", "md_parent_section": "§AE.6 [Example 6]", "md_verbatim": "| Row | STUDYID | DOMAIN | USUBJID | SPDEVID | AESEQ | AESPID | AETERM | AEDECOD | AESER | AESEV | AEACNDEV | AERLDEV | AEOUT | AESCONG | AESDISAB | AESDTH | AESHOSP | AESLIFE | AESMIE | AESINTV | AESTDTC | AEENDTC | AESTDY | AEENDY |\n|-----|---------|--------|---------|---------|-------|--------|--------|---------|-------|-------|----------|---------|-------|---------|----------|--------|---------|---------|--------|---------|---------|---------|--------|--------|", "score": 0.4244, "match_basis": "verbatim_token+domain_route:AE"}, {"md_atom_id": "md_dmAE_ex_a016", "md_file": "knowledge_base/domains/AE/examples.md", "md_atom_type": "TABLE_HEADER", "md_parent_section": "§AE.1 [Example 1]", "md_verbatim": "| Row | STUDYID | DOMAIN | USUBJID | AESEQ | AETERM | AEMODIFY | AEDECOD | AEBODSYS | AESEV | AESER | AEACN | AEREL | AEOUT | AESCONG | AESDISAB | AESDTH | AESHOSP | AESLIFE | AESMIE | EPOCH | AESTDTC | AEENDTC | AESTDY | AEENDY | AEENRF |\n|-----|---------|--------|---------|-------|--------|----------|---------|----------|-------|-------|-------|-------|-------|---------|----------|--------|---------|---------|--------|-------|---------|---------|--------|--------|--------|", "score": 0.424, "match_basis": "verbatim_token+domain_route:AE"}, {"md_atom_id": "md_dmAE_ex_a079", "md_file": "knowledge_base/domains/AE/examples.md", "md_atom_type": "TABLE_HEADER", "md_parent_section": "§AE.5 [Example 5]", "md_verbatim": "| Row | STUDYID | DOMAIN | USUBJID | SPDEVID | AESEQ | AESPID | AETERM | AEDECOD | AELOC | AELAT | AESER | AESEV | AEACNDEV | AERELDEV | AERLPRC | AEREL | AEOUT | AESCONG | AESDISAB | AESDTH | AESHOSP | AESLIFE | AESMIE | AEUNANT | AERLPRT | AESTDTC | AEENDTC | AESTDY | AEENDY |\n|-----|---------|--------|---------|---------|-------|--------|--------|---------|-------|-------|-------|-------|----------|----------|---------|-------|-------|---------|----------|--------|---------|---------|--------|---------|---------|---------|---------|--------|--------|", "score": 0.4222, "match_basis": "verbatim_token+domain_route:AE"}, {"md_atom_id": "md_dmAE_ex_a046", "md_file": "knowledge_base/domains/AE/examples.md", "md_atom_type": "TABLE_HEADER", "md_parent_section": "§AE.3 [Example 3]", "md_verbatim": "| Row | STUDYID | DOMAIN | USUBJID | AESEQ | AETERM | AEDECOD | AEPRESP | AEBODSYS | AESER | AEDTC | AESTDY |\n|-----|---------|--------|---------|-------|--------|---------|---------|----------|-------|-------|--------|", "score": 0.4214, "match_basis": "verbatim_token+domain_route:AE"}, {"md_atom_id": "md_dmAE_ex_a031", "md_file": "knowledge_base/domains/AE/examples.md", "md_atom_type": "TABLE_HEADER", "md_parent_section": "§AE.2 [Example 2]", "md_verbatim": "| Row | STUDYID | DOMAIN | USUBJID | AESEQ | AETERM | AEDECOD | AEPRESP | AEBODSYS | AESEV | AESER | AEACN | AEREL | AEOUT | EPOCH | AESTDTC | AEENDTC | AESTDY | AEENDY |\n|-----|---------|--------|---------|-------|--------|---------|---------|----------|-------|-------|-------|-------|-------|-------|---------|---------|--------|--------|", "score": 0.4176, "match_basis": "verbatim_token+domain_route:AE"}], "candidate_count": 5, "zero_candidate": false}
{"pdf_atom_id": "ig34_p0137_a002", "pdf_atom_type": "TABLE_ROW", "pdf_source": "SDTMIG_v3.4", "pdf_page": 137, "pdf_parent_section": "§6.2.1 [Adverse Events (AE)]", "pdf_verbatim": "| AESTDTC | Start Date/Time of Adverse Event | Char | ISO 8601 datetime or interval | Timing | Start date/time of the adverse event represented in ISO 8601 character format. | Exp |", "figure_ref": null, "candidates": [{"md_atom_id": "md_dmAE_ex_a059", "md_file": "knowledge_base/domains/AE/examples.md", "md_atom_type": "TABLE_ROW", "md_parent_section": "§AE.4 [Example 4]", "md_verbatim": "| 3 | ABC123 | AE | 123101 | 3 | 1 | VOMITING | Gastrointestinal disorders | SEVERE | N | DOSE NOT CHANGED | POSSIBLY RELATED | 2005-10-16 | 2005-10-17 |", "score": 0.466, "match_basis": "verbatim_token+domain_route:AE"}, {"md_atom_id": "md_dmAE_ex_a032", "md_file": "knowledge_base/domains/AE/examples.md", "md_atom_type": "TABLE_ROW", "md_parent_section": "§AE.2 [Example 2]", "md_verbatim": "| 1 | ABC123 | AE | 123101 | 1 | NAUSEA | Nausea | Y | Gastrointestinal disorders | SEVERE | N | DOSE REDUCED | RELATED | RECOVERED/RESOLVED | TREATMENT | 2005-10-12 | 2005-10-13 | 2 | 3 |", "score": 0.4606, "match_basis": "verbatim_token+domain_route:AE"}, {"md_atom_id": "md_dmAE_ex_a061", "md_file": "knowledge_base/domains/AE/examples.md", "md_atom_type": "TABLE_ROW", "md_parent_section": "§AE.4 [Example 4]", "md_verbatim": "| 5 | ABC123 | AE | 123101 | 5 | 2 | DIARRHEA | Gastrointestinal disorders | SEVERE | N | DOSE NOT CHANGED | POSSIBLY RELATED | 2005-10-16 | 2005-10-17 |", "score": 0.4588, "match_basis": "verbatim_token+domain_route:AE"}, {"md_atom_id": "md_dmAE_ex_a033", "md_file": "knowledge_base/domains/AE/examples.md", "md_atom_type": "TABLE_ROW", "md_parent_section": "§AE.2 [Example 2]", "md_verbatim": "| 2 | ABC123 | AE | 123101 | 2 | VOMITING | Vomiting | Y | Gastrointestinal disorders | MODERATE | N | DOSE REDUCED | RELATED | RECOVERED/RESOLVED | TREATMENT | 2005-10-13T13:05 | 2005-10-13T19:00 | 3 | 3 |", "score": 0.4569, "match_basis": "verbatim_token+domain_route:AE"}, {"md_atom_id": "md_dmAE_ex_a058", "md_file": "knowledge_base/domains/AE/examples.md", "md_atom_type": "TABLE_ROW", "md_parent_section": "§AE.4 [Example 4]", "md_verbatim": "| 2 | ABC123 | AE | 123101 | 2 | 1 | VOMITING | Gastrointestinal disorders | MILD | N | DOSE NOT CHANGED | POSSIBLY RELATED | 2005-10-14 | 2005-10-15 |", "score": 0.454, "match_basis": "verbatim_token+domain_route:AE"}], "candidate_count": 5, "zero_candidate": false}
{"pdf_atom_id": "ig34_p0137_a003", "pdf_atom_type": "TABLE_ROW", "pdf_source": "SDTMIG_v3.4", "pdf_page": 137, "pdf_parent_section": "§6.2.1 [Adverse Events (AE)]", "pdf_verbatim": "| AEENDTC | End Date/Time of Adverse Event | Char | ISO 8601 datetime or interval | Timing | End date/time of the adverse event represented in ISO 8601 character format. | Exp |", "figure_ref": null, "candidates": [{"md_atom_id": "md_dmAE_ex_a059", "md_file": "knowledge_base/domains/AE/examples.md", "md_atom_type": "TABLE_ROW", "md_parent_section": "§AE.4 [Example 4]", "md_verbatim": "| 3 | ABC123 | AE | 123101 | 3 | 1 | VOMITING | Gastrointestinal disorders | SEVERE | N | DOSE NOT CHANGED | POSSIBLY RELATED | 2005-10-16 | 2005-10-17 |", "score": 0.4612, "match_basis": "verbatim_token+domain_route:AE"}, {"md_atom_id": "md_dmAE_ex_a032", "md_file": "knowledge_base/domains/AE/examples.md", "md_atom_type": "TABLE_ROW", "md_parent_section": "§AE.2 [Example 2]", "md_verbatim": "| 1 | ABC123 | AE | 123101 | 1 | NAUSEA | Nausea | Y | Gastrointestinal disorders | SEVERE | N | DOSE REDUCED | RELATED | RECOVERED/RESOLVED | TREATMENT | 2005-10-12 | 2005-10-13 | 2 | 3 |", "score": 0.4561, "match_basis": "verbatim_token+domain_route:AE"}, {"md_atom_id": "md_dmAE_ex_a061", "md_file": "knowledge_base/domains/AE/examples.md", "md_atom_type": "TABLE_ROW", "md_parent_section": "§AE.4 [Example 4]", "md_verbatim": "| 5 | ABC123 | AE | 123101 | 5 | 2 | DIARRHEA | Gastrointestinal disorders | SEVERE | N | DOSE NOT CHANGED | POSSIBLY RELATED | 2005-10-16 | 2005-10-17 |", "score": 0.454, "match_basis": "verbatim_token+domain_route:AE"}, {"md_atom_id": "md_dmAE_ex_a033", "md_file": "knowledge_base/domains/AE/examples.md", "md_atom_type": "TABLE_ROW", "md_parent_section": "§AE.2 [Example 2]", "md_verbatim": "| 2 | ABC123 | AE | 123101 | 2 | VOMITING | Vomiting | Y | Gastrointestinal disorders | MODERATE | N | DOSE REDUCED | RELATED | RECOVERED/RESOLVED | TREATMENT | 2005-10-13T13:05 | 2005-10-13T19:00 | 3 | 3 |", "score": 0.4526, "match_basis": "verbatim_token+domain_route:AE"}, {"md_atom_id": "md_dmAE_ex_a017", "md_file": "knowledge_base/domains/AE/examples.md", "md_atom_type": "TABLE_ROW", "md_parent_section": "§AE.1 [Example 1]", "md_verbatim": "| 1 | ABC123 | AE | 123101 | 1 | POUNDING HEADACHE | Headache | Headache | Nervous system disorders | SEVERE | N | | NOT APPLICABLE | DEFINITELY NOT RELATED | RECOVERED/RESOLVED | | | | | | SCREENING | 2005-10-12 | 2005-10-12 | -1 | -1 | |", "score": 0.45, "match_basis": "verbatim_token+domain_route:AE"}], "candidate_count": 5, "zero_candidate": false}
{"pdf_atom_id": "ig34_p0137_a004", "pdf_atom_type": "TABLE_ROW", "pdf_source": "SDTMIG_v3.4", "pdf_page": 137, "pdf_parent_section": "§6.2.1 [Adverse Events (AE)]", "pdf_verbatim": "| AESTDY | Study Day of Start of Adverse Event | Num | | Timing | Study day of start of adverse event relative to the sponsor-defined RFSTDTC. | Perm |", "figure_ref": null, "candidates": [{"md_atom_id": "md_dmAE_ex_a017", "md_file": "knowledge_base/domains/AE/examples.md", "md_atom_type": "TABLE_ROW", "md_parent_section": "§AE.1 [Example 1]", "md_verbatim": "| 1 | ABC123 | AE | 123101 | 1 | POUNDING HEADACHE | Headache | Headache | Nervous system disorders | SEVERE | N | | NOT APPLICABLE | DEFINITELY NOT RELATED | RECOVERED/RESOLVED | | | | | | SCREENING | 2005-10-12 | 2005-10-12 | -1 | -1 | |", "score": 0.4569, "match_basis": "verbatim_token+domain_route:AE"}, {"md_atom_id": "md_dmAE_ex_a059", "md_file": "knowledge_base/domains/AE/examples.md", "md_atom_type": "TABLE_ROW", "md_parent_section": "§AE.4 [Example 4]", "md_verbatim": "| 3 | ABC123 | AE | 123101 | 3 | 1 | VOMITING | Gastrointestinal disorders | SEVERE | N | DOSE NOT CHANGED | POSSIBLY RELATED | 2005-10-16 | 2005-10-17 |", "score": 0.4562, "match_basis": "verbatim_token+domain_route:AE"}, {"md_atom_id": "md_dmAE_ex_a096", "md_file": "knowledge_base/domains/AE/examples.md", "md_atom_type": "TABLE_ROW", "md_parent_section": "§AE.6 [Example 6]", "md_verbatim": "| 1 | 1001 | AE | 001 | Sensor123 | 1 | AE0049 | Skin redness | ERYTHEMA | N | MILD | SENSOR REPLACED AND REPOSITIONED | CAUSAL RELATIONSHIP | RECOVERED/RESOLVED | N | N | N | N | N | N | | 2013-09-07 | 2013-09-07 | 23 | 25 |", "score": 0.4561, "match_basis": "verbatim_token+domain_route:AE"}, {"md_atom_id": "md_dmAE_ex_a032", "md_file": "knowledge_base/domains/AE/examples.md", "md_atom_type": "TABLE_ROW", "md_parent_section": "§AE.2 [Example 2]", "md_verbatim": "| 1 | ABC123 | AE | 123101 | 1 | NAUSEA | Nausea | Y | Gastrointestinal disorders | SEVERE | N | DOSE REDUCED | RELATED | RECOVERED/RESOLVED | TREATMENT | 2005-10-12 | 2005-10-13 | 2 | 3 |", "score": 0.4514, "match_basis": "verbatim_token+domain_route:AE"}, {"md_atom_id": "md_dmAE_ex_a061", "md_file": "knowledge_base/domains/AE/examples.md", "md_atom_type": "TABLE_ROW", "md_parent_section": "§AE.4 [Example 4]", "md_verbatim": "| 5 | ABC123 | AE | 123101 | 5 | 2 | DIARRHEA | Gastrointestinal disorders | SEVERE | N | DOSE NOT CHANGED | POSSIBLY RELATED | 2005-10-16 | 2005-10-17 |", "score": 0.449, "match_basis": "verbatim_token+domain_route:AE"}], "candidate_count": 5, "zero_candidate": false}
