{"pdf_atom_id": "ig34_p0172_a0010", "pdf_atom_type": "TABLE_ROW", "pdf_source": "SDTMIG_v3.4", "pdf_page": 172, "pdf_parent_section": "§6.2.6 Medical History (MH)", "pdf_verbatim": "| MHENRF | End Relative to Reference Period | Char | (STENRF) | Timing | Describes the end of the event relative to the sponsor-defined reference period. The sponsor-defined reference period is a continuous period of time defined by a discrete starting point and a discrete ending point (represented by RFSTDTC and RFENDTC in Demographics). Not all values of the codelist are allowable for this variable. See Section 4.4.7, Use of Relative Timing Variables. | Perm |", "figure_ref": null, "candidates": [{"md_atom_id": "md_dmMH_assn_a026", "md_file": "knowledge_base/domains/MH/assumptions.md", "md_atom_type": "LIST_ITEM", "md_parent_section": "§MH [MH — Assumptions]", "md_verbatim": "   a. Relative timing assessments such as \"Ongoing\" or \"Active\" are common in the collection of MH information. MHENRF may be used when this relative timing assessment is coincident with the start of the study reference period for the subject represented in the Demographics (DM) dataset (RFSTDTC). MHENRTPT and MHENTPT may be used when \"Ongoing\" is relative to another date such as the screening visit date. See the examples in this section and in Section 4.4.7, Use of Relative Timing Variables.", "score": 0.4414, "match_basis": "verbatim_token+domain_route:MH"}, {"md_atom_id": "md_dmMH_ex_a020", "md_file": "knowledge_base/domains/MH/examples.md", "md_atom_type": "TABLE_ROW", "md_parent_section": "§MH.1 [Example 1]", "md_verbatim": "| 2 | ABC123 | MH | 123101 | 2 | | FREQUENT HEADACHES | Headache | GENERAL MEDICAL HISTORY | CNS | Central and peripheral nervous system disorders | 2004-09-18 | ONGOING | |", "score": 0.4375, "match_basis": "verbatim_token+domain_route:MH"}, {"md_atom_id": "md_dmMH_assn_a023", "md_file": "knowledge_base/domains/MH/assumptions.md", "md_atom_type": "TABLE_ROW", "md_parent_section": "§MH [MH — Assumptions]", "md_verbatim": "      | Pre-specified event has no response | Y | | NOT DONE |", "score": 0.4365, "match_basis": "verbatim_token+domain_route:MH"}, {"md_atom_id": "md_dmMH_assn_a020", "md_file": "knowledge_base/domains/MH/assumptions.md", "md_atom_type": "TABLE_ROW", "md_parent_section": "§MH [MH — Assumptions]", "md_verbatim": "      | Spontaneously reported event occurred | | | |", "score": 0.4353, "match_basis": "verbatim_token+domain_route:MH"}, {"md_atom_id": "md_dmMH_ex_a046", "md_file": "knowledge_base/domains/MH/examples.md", "md_atom_type": "TABLE_ROW", "md_parent_section": "§MH.2 [Example 2]", "md_verbatim": "| 2 | ABC123 | MH | 123101 | 2 | FREQUENT HEADACHES | Headache | GENERAL MEDICAL HISTORY | CNS | Central and peripheral nervous system disorders | | | | DURING/AFTER |", "score": 0.4342, "match_basis": "verbatim_token+domain_route:MH"}], "candidate_count": 5, "zero_candidate": false}
{"pdf_atom_id": "ig34_p0172_a0011", "pdf_atom_type": "TABLE_ROW", "pdf_source": "SDTMIG_v3.4", "pdf_page": 172, "pdf_parent_section": "§6.2.6 Medical History (MH)", "pdf_verbatim": "| MHENRTPT | End Relative to Reference Time Point | Char | (STENRF) | Timing | Identifies the end of the event as being before or after the reference time point defined by variable MHENTPT. Not all values of the codelist are allowable for this variable. See Section 4.4.7, Use of Relative Timing Variables. | Perm |", "figure_ref": null, "candidates": [{"md_atom_id": "md_dmMH_ex_a101", "md_file": "knowledge_base/domains/MH/examples.md", "md_atom_type": "TABLE_ROW", "md_parent_section": "§MH.5 [Example 5]", "md_verbatim": "| 3 | XYZ234 | MH | 204 | 2 | COMMON COLD | RESPIRATORY INFECTIONS | | | 2019-12-08 | | -1 | -P6M | BEFORE | 2019-12-08 |", "score": 0.4397, "match_basis": "verbatim_token+domain_route:MH"}, {"md_atom_id": "md_dmMH_ex_a102", "md_file": "knowledge_base/domains/MH/examples.md", "md_atom_type": "TABLE_ROW", "md_parent_section": "§MH.5 [Example 5]", "md_verbatim": "| 4 | XYZ234 | MH | 204 | 3 | BRONCHITIS | RESPIRATORY INFECTIONS | | | 2019-12-08 | 2019-10-20 | -1 | -P6M | BEFORE | 2019-12-08 |", "score": 0.439, "match_basis": "verbatim_token+domain_route:MH"}, {"md_atom_id": "md_dmMH_ex_a046", "md_file": "knowledge_base/domains/MH/examples.md", "md_atom_type": "TABLE_ROW", "md_parent_section": "§MH.2 [Example 2]", "md_verbatim": "| 2 | ABC123 | MH | 123101 | 2 | FREQUENT HEADACHES | Headache | GENERAL MEDICAL HISTORY | CNS | Central and peripheral nervous system disorders | | | | DURING/AFTER |", "score": 0.4353, "match_basis": "verbatim_token+domain_route:MH"}, {"md_atom_id": "md_dmMH_assn_a022", "md_file": "knowledge_base/domains/MH/assumptions.md", "md_atom_type": "TABLE_ROW", "md_parent_section": "§MH [MH — Assumptions]", "md_verbatim": "      | Pre-specified event did not occur | Y | N | |", "score": 0.4346, "match_basis": "verbatim_token+domain_route:MH"}, {"md_atom_id": "md_dmMH_assn_a023", "md_file": "knowledge_base/domains/MH/assumptions.md", "md_atom_type": "TABLE_ROW", "md_parent_section": "§MH [MH — Assumptions]", "md_verbatim": "      | Pre-specified event has no response | Y | | NOT DONE |", "score": 0.433, "match_basis": "verbatim_token+domain_route:MH"}], "candidate_count": 5, "zero_candidate": false}
{"pdf_atom_id": "ig34_p0172_a0012", "pdf_atom_type": "TABLE_ROW", "pdf_source": "SDTMIG_v3.4", "pdf_page": 172, "pdf_parent_section": "§6.2.6 Medical History (MH)", "pdf_verbatim": "| MHENTPT | End Reference Time Point | Char | | Timing | Description or date/time in ISO 8601 character format of the reference point referred to by MHENRTPT. Examples: \"2003-12-25\", \"VISIT 2\". | Perm |", "figure_ref": null, "candidates": [{"md_atom_id": "md_dmMH_ex_a020", "md_file": "knowledge_base/domains/MH/examples.md", "md_atom_type": "TABLE_ROW", "md_parent_section": "§MH.1 [Example 1]", "md_verbatim": "| 2 | ABC123 | MH | 123101 | 2 | | FREQUENT HEADACHES | Headache | GENERAL MEDICAL HISTORY | CNS | Central and peripheral nervous system disorders | 2004-09-18 | ONGOING | |", "score": 0.4331, "match_basis": "verbatim_token+domain_route:MH"}, {"md_atom_id": "md_dmMH_ex_a071", "md_file": "knowledge_base/domains/MH/examples.md", "md_atom_type": "TABLE_ROW", "md_parent_section": "§MH.3 [Example 3]", "md_verbatim": "| 8 | ABC123 | MH | 101003 | 3 | PERIPHERAL VASCULAR DISEASE | Peripheral Vascular Disease | Y | N | | | 1 | SCREEN | 2006-05-03 | -3 |", "score": 0.4319, "match_basis": "verbatim_token+domain_route:MH"}, {"md_atom_id": "md_dmMH_ex_a021", "md_file": "knowledge_base/domains/MH/examples.md", "md_atom_type": "TABLE_ROW", "md_parent_section": "§MH.1 [Example 1]", "md_verbatim": "| 3 | ABC123 | MH | 123101 | 3 | | BROKEN LEG | Bone fracture | GENERAL MEDICAL HISTORY | OTHER | Musculoskeletal system disorders | 2004-09-18 | BEFORE | |", "score": 0.4281, "match_basis": "verbatim_token+domain_route:MH"}, {"md_atom_id": "md_dmMH_ex_a046", "md_file": "knowledge_base/domains/MH/examples.md", "md_atom_type": "TABLE_ROW", "md_parent_section": "§MH.2 [Example 2]", "md_verbatim": "| 2 | ABC123 | MH | 123101 | 2 | FREQUENT HEADACHES | Headache | GENERAL MEDICAL HISTORY | CNS | Central and peripheral nervous system disorders | | | | DURING/AFTER |", "score": 0.4281, "match_basis": "verbatim_token+domain_route:MH"}, {"md_atom_id": "md_dmMH_ex_a073", "md_file": "knowledge_base/domains/MH/examples.md", "md_atom_type": "TABLE_ROW", "md_parent_section": "§MH.3 [Example 3]", "md_verbatim": "| 10 | ABC123 | MH | 101003 | 5 | ASTHMA | Asthma | Y | | NOT DONE | FORGOT TO ASK | 1 | SCREEN | 2006-05-03 | -3 |", "score": 0.4273, "match_basis": "verbatim_token+domain_route:MH"}], "candidate_count": 5, "zero_candidate": false}
{"pdf_atom_id": "ig34_p0172_a0013", "pdf_atom_type": "NOTE", "pdf_source": "SDTMIG_v3.4", "pdf_page": 172, "pdf_parent_section": "§6.2.6 Medical History (MH)", "pdf_verbatim": "1In this column, an asterisk (*) indicates that the variable may be subject to controlled terminology. CDISC/NCI codelist values are enclosed in parentheses.", "figure_ref": null, "candidates": [{"md_atom_id": "md_dmMH_ex_a013", "md_file": "knowledge_base/domains/MH/examples.md", "md_atom_type": "SENTENCE", "md_parent_section": "§MH.1 [Example 1]", "md_verbatim": "**Rows 4-5:** MHCAT indicates that these data were collected on the Cardiac Medical History CRF.", "score": 0.4159, "match_basis": "verbatim_token+domain_route:MH"}, {"md_atom_id": "md_dmMH_ex_a006", "md_file": "knowledge_base/domains/MH/examples.md", "md_atom_type": "SENTENCE", "md_parent_section": "§MH.1 [Example 1]", "md_verbatim": "**Rows 1-3:** MHCAT indicates that these data were collected on the General Medical History CRF, and MHSCAT displays the body systems specified on the CRF.", "score": 0.4068, "match_basis": "verbatim_token+domain_route:MH"}, {"md_atom_id": "md_dmMH_ex_a040", "md_file": "knowledge_base/domains/MH/examples.md", "md_atom_type": "SENTENCE", "md_parent_section": "§MH.2 [Example 2]", "md_verbatim": "MHPRESP values of \"Y\" indicate that each risk factor was prespecified on the CRF.", "score": 0.4009, "match_basis": "verbatim_token+domain_route:MH"}, {"md_atom_id": "md_dmMH_assn_a031", "md_file": "knowledge_base/domains/MH/assumptions.md", "md_atom_type": "NOTE", "md_parent_section": "§MH [MH — Assumptions]", "md_verbatim": "> **Note:** PDF 原文此处写的是 MHENDTYP，但根据 assumption 6a 的定义、MH spec 变量表以及所有 MH/SM/FA examples 中的用法，该变量名应为 MHEVDTYP。MHENDTYP 不是 SDTM 标准变量，疑为 PDF 原文笔误。", "score": 0.4, "match_basis": "verbatim_token+domain_route:MH"}, {"md_atom_id": "md_dmMH_ex_a076", "md_file": "knowledge_base/domains/MH/examples.md", "md_atom_type": "SENTENCE", "md_parent_section": "§MH.4 [Example 4]", "md_verbatim": "Data collection included which kind of diabetes the subject had and the date of diagnosis of the condition.", "score": 0.3981, "match_basis": "verbatim_token+domain_route:MH"}], "candidate_count": 5, "zero_candidate": false}
{"pdf_atom_id": "ig34_p0172_a0014", "pdf_atom_type": "HEADING", "pdf_source": "SDTMIG_v3.4", "pdf_page": 172, "pdf_parent_section": "§6.2.6 Medical History (MH)", "pdf_verbatim": "MH – Assumptions", "figure_ref": null, "candidates": [{"md_atom_id": "md_dmMH_assn_a001", "md_file": "knowledge_base/domains/MH/assumptions.md", "md_atom_type": "HEADING", "md_parent_section": "§MH [MH — Assumptions]", "md_verbatim": "# MH — Assumptions", "score": 1.0, "match_basis": "verbatim_token+domain_route:MH"}, {"md_atom_id": "md_dmMH_ex_a001", "md_file": "knowledge_base/domains/MH/examples.md", "md_atom_type": "HEADING", "md_parent_section": "§MH [MH — Examples]", "md_verbatim": "# MH — Examples", "score": 0.4, "match_basis": "verbatim_token+domain_route:MH"}, {"md_atom_id": "md_dmMH_ex_a002", "md_file": "knowledge_base/domains/MH/examples.md", "md_atom_type": "HEADING", "md_parent_section": "§MH [MH — Examples]", "md_verbatim": "## Example 1", "score": 0.4, "match_basis": "verbatim_token+domain_route:MH"}, {"md_atom_id": "md_dmMH_ex_a024", "md_file": "knowledge_base/domains/MH/examples.md", "md_atom_type": "HEADING", "md_parent_section": "§MH [MH — Examples]", "md_verbatim": "## Example 2", "score": 0.4, "match_basis": "verbatim_token+domain_route:MH"}, {"md_atom_id": "md_dmMH_ex_a053", "md_file": "knowledge_base/domains/MH/examples.md", "md_atom_type": "HEADING", "md_parent_section": "§MH [MH — Examples]", "md_verbatim": "## Example 3", "score": 0.4, "match_basis": "verbatim_token+domain_route:MH"}], "candidate_count": 5, "zero_candidate": false}
{"pdf_atom_id": "ig34_p0172_a0015", "pdf_atom_type": "LIST_ITEM", "pdf_source": "SDTMIG_v3.4", "pdf_page": 172, "pdf_parent_section": "§6.2.6 Medical History (MH)", "pdf_verbatim": "1. Prior treatments, including prior medications and procedures, should be submitted in an appropriate dataset from the Interventions class (e.g., Concomitant/Prior Medications (CM) or Procedures (PR)).", "figure_ref": null, "candidates": [{"md_atom_id": "md_dmMH_assn_a002", "md_file": "knowledge_base/domains/MH/assumptions.md", "md_atom_type": "LIST_ITEM", "md_parent_section": "§MH [MH — Assumptions]", "md_verbatim": "1. Prior treatments, including prior medications and procedures, should be submitted in an appropriate dataset from the Interventions class (e.g., Concomitant/Prior Medications (CM) or Procedures (PR)).", "score": 1.0, "match_basis": "verbatim_token+domain_route:MH"}, {"md_atom_id": "md_dmMH_assn_a005", "md_file": "knowledge_base/domains/MH/assumptions.md", "md_atom_type": "LIST_ITEM", "md_parent_section": "§MH [MH — Assumptions]", "md_verbatim": "   b. MHMODIFY is a permissible variable and should be included if the sponsor's procedure permits modification of a verbatim term for coding. The variable should be populated as per the sponsor's procedures; null values are permitted.", "score": 0.5559, "match_basis": "verbatim_token+domain_route:MH"}, {"md_atom_id": "md_dmMH_assn_a017", "md_file": "knowledge_base/domains/MH/assumptions.md", "md_atom_type": "LIST_ITEM", "md_parent_section": "§MH [MH — Assumptions]", "md_verbatim": "   c. If a medical history event was reported using free text, the values of MHPRESP and MHOCCUR should be null. MHPRESP and MHOCCUR are permissible fields and may be omitted from the dataset if all medical history events were collected as free text.", "score": 0.5174, "match_basis": "verbatim_token+domain_route:MH"}, {"md_atom_id": "md_dmMH_assn_a024", "md_file": "knowledge_base/domains/MH/assumptions.md", "md_atom_type": "LIST_ITEM", "md_parent_section": "§MH [MH — Assumptions]", "md_verbatim": "   e. When medical history events are collected with the recording of free text, a record may be entered into the data management system to indicate \"no medical history\" for a specific subject or prespecified body system category (e.g., gastrointestinal). For these subjects or categories within subject, do not include a record in the MH dataset to indicate that there were no events.", "score": 0.5, "match_basis": "verbatim_token+domain_route:MH"}, {"md_atom_id": "md_dmMH_assn_a018", "md_file": "knowledge_base/domains/MH/assumptions.md", "md_atom_type": "LIST_ITEM", "md_parent_section": "§MH [MH — Assumptions]", "md_verbatim": "   d. MHSTAT and MHREASND provide information about prespecified medical history questions for which no response was collected. MHSTAT and MHREASND are permissible fields and may be omitted from the dataset if all medications were collected as free text or if all prespecified conditions had responses in MHOCCUR.", "score": 0.4976, "match_basis": "verbatim_token+domain_route:MH"}], "candidate_count": 5, "zero_candidate": false}
{"pdf_atom_id": "ig34_p0172_a0016", "pdf_atom_type": "LIST_ITEM", "pdf_source": "SDTMIG_v3.4", "pdf_page": 172, "pdf_parent_section": "§6.2.6 Medical History (MH)", "pdf_verbatim": "2. MH description and coding", "figure_ref": null, "candidates": [{"md_atom_id": "md_dmMH_assn_a003", "md_file": "knowledge_base/domains/MH/assumptions.md", "md_atom_type": "LIST_ITEM", "md_parent_section": "§MH [MH — Assumptions]", "md_verbatim": "2. **MH description and coding**", "score": 1.0, "match_basis": "verbatim_token+domain_route:MH"}, {"md_atom_id": "md_dmMH_ex_a026", "md_file": "knowledge_base/domains/MH/examples.md", "md_atom_type": "LIST_ITEM", "md_parent_section": "§MH.2 [Example 2]", "md_verbatim": "- A General Medical History CRF collected descriptions of conditions and events by body system (e.g., endocrine, metabolic) and asked whether the conditions were ongoing at study start. The reported events were coded using a standard dictionary.", "score": 0.4692, "match_basis": "verbatim_token+domain_route:MH"}, {"md_atom_id": "md_dmMH_assn_a009", "md_file": "knowledge_base/domains/MH/assumptions.md", "md_atom_type": "LIST_ITEM", "md_parent_section": "§MH [MH — Assumptions]", "md_verbatim": "3. **Additional categorization and grouping**", "score": 0.4686, "match_basis": "verbatim_token+domain_route:MH"}, {"md_atom_id": "md_dmMH_assn_a005", "md_file": "knowledge_base/domains/MH/assumptions.md", "md_atom_type": "LIST_ITEM", "md_parent_section": "§MH [MH — Assumptions]", "md_verbatim": "   b. MHMODIFY is a permissible variable and should be included if the sponsor's procedure permits modification of a verbatim term for coding. The variable should be populated as per the sponsor's procedures; null values are permitted.", "score": 0.4483, "match_basis": "verbatim_token+domain_route:MH"}, {"md_atom_id": "md_dmMH_assn_a007", "md_file": "knowledge_base/domains/MH/assumptions.md", "md_atom_type": "LIST_ITEM", "md_parent_section": "§MH [MH — Assumptions]", "md_verbatim": "   d. MHBODSYS is the system organ class (SOC) from the coding dictionary associated with the adverse event by the sponsor. This value may differ from the primary SOC designated in the coding dictionary's standard hierarchy. It is expected that this variable will be populated.", "score": 0.4432, "match_basis": "verbatim_token+domain_route:MH"}], "candidate_count": 5, "zero_candidate": false}
{"pdf_atom_id": "ig34_p0172_a0017", "pdf_atom_type": "LIST_ITEM", "pdf_source": "SDTMIG_v3.4", "pdf_page": 172, "pdf_parent_section": "§6.2.6 Medical History (MH)", "pdf_verbatim": "a. MHTERM is the topic variable and captures the verbatim term collected for the condition or event or the prespecified term used to collect information about the occurrence of any of a group of conditions or events. MHTERM is a required variable and must have a value.", "figure_ref": null, "candidates": [{"md_atom_id": "md_dmMH_assn_a004", "md_file": "knowledge_base/domains/MH/assumptions.md", "md_atom_type": "LIST_ITEM", "md_parent_section": "§MH [MH — Assumptions]", "md_verbatim": "   a. MHTERM is the topic variable and captures the verbatim term collected for the condition or event or the prespecified term used to collect information about the occurrence of any of a group of conditions or events. MHTERM is a required variable and must have a value.", "score": 1.0, "match_basis": "verbatim_token+domain_route:MH"}, {"md_atom_id": "md_dmMH_assn_a016", "md_file": "knowledge_base/domains/MH/assumptions.md", "md_atom_type": "LIST_ITEM", "md_parent_section": "§MH [MH — Assumptions]", "md_verbatim": "   b. MHOCCUR is used to indicate whether a prespecified medical condition occurred; a value of \"Y\" indicates that the event occurred and \"N\" indicates that it did not.", "score": 0.58, "match_basis": "verbatim_token+domain_route:MH"}, {"md_atom_id": "md_dmMH_assn_a015", "md_file": "knowledge_base/domains/MH/assumptions.md", "md_atom_type": "LIST_ITEM", "md_parent_section": "§MH [MH — Assumptions]", "md_verbatim": "   a. Information on medical history is generally collected in 2 different ways, either by recording free text or using a prespecified list of terms. The solicitation of information on specific medical history events may affect the frequency at which they are reported; therefore, the fact that a specific medical history event was solicited may be of interest to reviewers. MHPRESP and MHOCCUR are used together to indicate whether the condition in MHTERM was prespecified and whether it occurred. A value of \"Y\" in MHPRESP indicates that the term was prespecified.", "score": 0.5768, "match_basis": "verbatim_token+domain_route:MH"}, {"md_atom_id": "md_dmMH_assn_a018", "md_file": "knowledge_base/domains/MH/assumptions.md", "md_atom_type": "LIST_ITEM", "md_parent_section": "§MH [MH — Assumptions]", "md_verbatim": "   d. MHSTAT and MHREASND provide information about prespecified medical history questions for which no response was collected. MHSTAT and MHREASND are permissible fields and may be omitted from the dataset if all medications were collected as free text or if all prespecified conditions had responses in MHOCCUR.", "score": 0.5556, "match_basis": "verbatim_token+domain_route:MH"}, {"md_atom_id": "md_dmMH_assn_a029", "md_file": "knowledge_base/domains/MH/assumptions.md", "md_atom_type": "LIST_ITEM", "md_parent_section": "§MH [MH — Assumptions]", "md_verbatim": "   a. MHEVDTYP is a domain-specific variable that can be used to indicate the aspect of the event that is represented in the event start and/or end date/times (MHSTDTC and/or MHENDTC). If a start date and/or end date is collected without further specification of what constitutes the start or end of the event, then MHEVDTYP is not needed. However, when data collection specifies how the start or end date is to be reported, MHEVDTYP can be used to provide this information. For example, when collecting the date of diagnosis, it would be used to populate MHSTDTC; MHEVDTYP would be populated with \"DIAGNOSIS\". If MHEVDTYP is not needed for any collected data, it need not be included in the dataset. If MHEVDTYP is included in the dataset, it should be populated only when the data collection specifies the aspect of the event that is to be used to populate the start and/or end date; otherwise, it should be null.", "score": 0.5263, "match_basis": "verbatim_token+domain_route:MH"}], "candidate_count": 5, "zero_candidate": false}
{"pdf_atom_id": "ig34_p0172_a0018", "pdf_atom_type": "LIST_ITEM", "pdf_source": "SDTMIG_v3.4", "pdf_page": 172, "pdf_parent_section": "§6.2.6 Medical History (MH)", "pdf_verbatim": "b. MHMODIFY is a permissible variable and should be included if the sponsor's procedure permits modification of a verbatim term for coding. The modified term is listed in MHMODIFY. The variable should be populated as per the sponsor's procedures; null values are permitted.", "figure_ref": null, "candidates": [{"md_atom_id": "md_dmMH_assn_a005", "md_file": "knowledge_base/domains/MH/assumptions.md", "md_atom_type": "LIST_ITEM", "md_parent_section": "§MH [MH — Assumptions]", "md_verbatim": "   b. MHMODIFY is a permissible variable and should be included if the sponsor's procedure permits modification of a verbatim term for coding. The variable should be populated as per the sponsor's procedures; null values are permitted.", "score": 0.9647, "match_basis": "verbatim_token+domain_route:MH"}, {"md_atom_id": "md_dmMH_assn_a002", "md_file": "knowledge_base/domains/MH/assumptions.md", "md_atom_type": "LIST_ITEM", "md_parent_section": "§MH [MH — Assumptions]", "md_verbatim": "1. Prior treatments, including prior medications and procedures, should be submitted in an appropriate dataset from the Interventions class (e.g., Concomitant/Prior Medications (CM) or Procedures (PR)).", "score": 0.55, "match_basis": "verbatim_token+domain_route:MH"}, {"md_atom_id": "md_dmMH_assn_a008", "md_file": "knowledge_base/domains/MH/assumptions.md", "md_atom_type": "LIST_ITEM", "md_parent_section": "§MH [MH — Assumptions]", "md_verbatim": "   e. If a CRF collects medical history by prespecified body systems and the sponsor also codes reported terms using a standard dictionary, then MHDECOD and MHBODSYS are populated using the standard dictionary. MHCAT and MHSCAT should be used for the prespecified body systems.", "score": 0.536, "match_basis": "verbatim_token+domain_route:MH"}, {"md_atom_id": "md_dmMH_assn_a017", "md_file": "knowledge_base/domains/MH/assumptions.md", "md_atom_type": "LIST_ITEM", "md_parent_section": "§MH [MH — Assumptions]", "md_verbatim": "   c. If a medical history event was reported using free text, the values of MHPRESP and MHOCCUR should be null. MHPRESP and MHOCCUR are permissible fields and may be omitted from the dataset if all medical history events were collected as free text.", "score": 0.5338, "match_basis": "verbatim_token+domain_route:MH"}, {"md_atom_id": "md_dmMH_assn_a029", "md_file": "knowledge_base/domains/MH/assumptions.md", "md_atom_type": "LIST_ITEM", "md_parent_section": "§MH [MH — Assumptions]", "md_verbatim": "   a. MHEVDTYP is a domain-specific variable that can be used to indicate the aspect of the event that is represented in the event start and/or end date/times (MHSTDTC and/or MHENDTC). If a start date and/or end date is collected without further specification of what constitutes the start or end of the event, then MHEVDTYP is not needed. However, when data collection specifies how the start or end date is to be reported, MHEVDTYP can be used to provide this information. For example, when collecting the date of diagnosis, it would be used to populate MHSTDTC; MHEVDTYP would be populated with \"DIAGNOSIS\". If MHEVDTYP is not needed for any collected data, it need not be included in the dataset. If MHEVDTYP is included in the dataset, it should be populated only when the data collection specifies the aspect of the event that is to be used to populate the start and/or end date; otherwise, it should be null.", "score": 0.5229, "match_basis": "verbatim_token+domain_route:MH"}], "candidate_count": 5, "zero_candidate": false}
{"pdf_atom_id": "ig34_p0173_a0001", "pdf_atom_type": "LIST_ITEM", "pdf_source": "SDTMIG_v3.4", "pdf_page": 173, "pdf_parent_section": "§6.2.6 Medical History (MH)", "pdf_verbatim": "c. If the sponsor codes the reported term (MHTERM) using a standard dictionary, then MHDECOD will be populated with the preferred term derived from the dictionary. The sponsor is expected to provide the dictionary name and version used to map the terms utilizing the external codelist element in the Define-XML document.", "figure_ref": null, "candidates": [{"md_atom_id": "md_dmMH_assn_a006", "md_file": "knowledge_base/domains/MH/assumptions.md", "md_atom_type": "LIST_ITEM", "md_parent_section": "§MH [MH — Assumptions]", "md_verbatim": "   c. If the sponsor codes the reported term (MHTERM) using a standard dictionary, then MHDECOD will be populated with the preferred term derived from the dictionary. The sponsor is expected to provide the dictionary name and version used to map the terms utilizing the external codelist element in the Define-XML document.", "score": 1.0, "match_basis": "verbatim_token+domain_route:MH"}, {"md_atom_id": "md_dmMH_assn_a008", "md_file": "knowledge_base/domains/MH/assumptions.md", "md_atom_type": "LIST_ITEM", "md_parent_section": "§MH [MH — Assumptions]", "md_verbatim": "   e. If a CRF collects medical history by prespecified body systems and the sponsor also codes reported terms using a standard dictionary, then MHDECOD and MHBODSYS are populated using the standard dictionary. MHCAT and MHSCAT should be used for the prespecified body systems.", "score": 0.5938, "match_basis": "verbatim_token+domain_route:MH"}, {"md_atom_id": "md_dmMH_assn_a007", "md_file": "knowledge_base/domains/MH/assumptions.md", "md_atom_type": "LIST_ITEM", "md_parent_section": "§MH [MH — Assumptions]", "md_verbatim": "   d. MHBODSYS is the system organ class (SOC) from the coding dictionary associated with the adverse event by the sponsor. This value may differ from the primary SOC designated in the coding dictionary's standard hierarchy. It is expected that this variable will be populated.", "score": 0.5552, "match_basis": "verbatim_token+domain_route:MH"}, {"md_atom_id": "md_dmMH_assn_a010", "md_file": "knowledge_base/domains/MH/assumptions.md", "md_atom_type": "LIST_ITEM", "md_parent_section": "§MH [MH — Assumptions]", "md_verbatim": "   a. MHCAT and MHSCAT may be populated with the sponsor's predefined categorization of medical history events, which are often prespecified on the CRF. Note that even if the sponsor uses the body system terminology from the standard dictionary, MHBODSYS and MHCAT may differ; MHBODSYS is derived from the coding system, whereas MHCAT is effectively assigned when the investigator records a condition under the prespecified category.", "score": 0.5473, "match_basis": "verbatim_token+domain_route:MH"}, {"md_atom_id": "md_dmMH_ex_a027", "md_file": "knowledge_base/domains/MH/examples.md", "md_atom_type": "LIST_ITEM", "md_parent_section": "§MH.2 [Example 2]", "md_verbatim": "- A second CRF collected stroke history. Terms were selected from a list of terms taken from the standard dictionary.", "score": 0.5191, "match_basis": "verbatim_token+domain_route:MH"}], "candidate_count": 5, "zero_candidate": false}
{"pdf_atom_id": "ig34_p0173_a0002", "pdf_atom_type": "LIST_ITEM", "pdf_source": "SDTMIG_v3.4", "pdf_page": 173, "pdf_parent_section": "§6.2.6 Medical History (MH)", "pdf_verbatim": "d. MHBODSYS is the system organ class (SOC) from the coding dictionary associated with the adverse event by the sponsor. This value may differ from the primary SOC designated in the coding dictionary's standard hierarchy.", "figure_ref": null, "candidates": [{"md_atom_id": "md_dmMH_assn_a007", "md_file": "knowledge_base/domains/MH/assumptions.md", "md_atom_type": "LIST_ITEM", "md_parent_section": "§MH [MH — Assumptions]", "md_verbatim": "   d. MHBODSYS is the system organ class (SOC) from the coding dictionary associated with the adverse event by the sponsor. This value may differ from the primary SOC designated in the coding dictionary's standard hierarchy. It is expected that this variable will be populated.", "score": 0.8857, "match_basis": "verbatim_token+domain_route:MH"}, {"md_atom_id": "md_dmMH_assn_a010", "md_file": "knowledge_base/domains/MH/assumptions.md", "md_atom_type": "LIST_ITEM", "md_parent_section": "§MH [MH — Assumptions]", "md_verbatim": "   a. MHCAT and MHSCAT may be populated with the sponsor's predefined categorization of medical history events, which are often prespecified on the CRF. Note that even if the sponsor uses the body system terminology from the standard dictionary, MHBODSYS and MHCAT may differ; MHBODSYS is derived from the coding system, whereas MHCAT is effectively assigned when the investigator records a condition under the prespecified category.", "score": 0.5577, "match_basis": "verbatim_token+domain_route:MH"}, {"md_atom_id": "md_dmMH_assn_a008", "md_file": "knowledge_base/domains/MH/assumptions.md", "md_atom_type": "LIST_ITEM", "md_parent_section": "§MH [MH — Assumptions]", "md_verbatim": "   e. If a CRF collects medical history by prespecified body systems and the sponsor also codes reported terms using a standard dictionary, then MHDECOD and MHBODSYS are populated using the standard dictionary. MHCAT and MHSCAT should be used for the prespecified body systems.", "score": 0.5409, "match_basis": "verbatim_token+domain_route:MH"}, {"md_atom_id": "md_dmMH_assn_a006", "md_file": "knowledge_base/domains/MH/assumptions.md", "md_atom_type": "LIST_ITEM", "md_parent_section": "§MH [MH — Assumptions]", "md_verbatim": "   c. If the sponsor codes the reported term (MHTERM) using a standard dictionary, then MHDECOD will be populated with the preferred term derived from the dictionary. The sponsor is expected to provide the dictionary name and version used to map the terms utilizing the external codelist element in the Define-XML document.", "score": 0.5193, "match_basis": "verbatim_token+domain_route:MH"}, {"md_atom_id": "md_dmMH_ex_a026", "md_file": "knowledge_base/domains/MH/examples.md", "md_atom_type": "LIST_ITEM", "md_parent_section": "§MH.2 [Example 2]", "md_verbatim": "- A General Medical History CRF collected descriptions of conditions and events by body system (e.g., endocrine, metabolic) and asked whether the conditions were ongoing at study start. The reported events were coded using a standard dictionary.", "score": 0.5146, "match_basis": "verbatim_token+domain_route:MH"}], "candidate_count": 5, "zero_candidate": false}
{"pdf_atom_id": "ig34_p0173_a0003", "pdf_atom_type": "LIST_ITEM", "pdf_source": "SDTMIG_v3.4", "pdf_page": 173, "pdf_parent_section": "§6.2.6 Medical History (MH)", "pdf_verbatim": "e. If a CRF collects medical history by prespecified body systems and the sponsor also codes reported terms using a standard dictionary, then MHDECOD and MHBODSYS are populated using the standard dictionary. MHCAT and MHSCAT should be used for the prespecified body systems.", "figure_ref": null, "candidates": [{"md_atom_id": "md_dmMH_assn_a008", "md_file": "knowledge_base/domains/MH/assumptions.md", "md_atom_type": "LIST_ITEM", "md_parent_section": "§MH [MH — Assumptions]", "md_verbatim": "   e. If a CRF collects medical history by prespecified body systems and the sponsor also codes reported terms using a standard dictionary, then MHDECOD and MHBODSYS are populated using the standard dictionary. MHCAT and MHSCAT should be used for the prespecified body systems.", "score": 1.0, "match_basis": "verbatim_token+domain_route:MH"}, {"md_atom_id": "md_dmMH_assn_a010", "md_file": "knowledge_base/domains/MH/assumptions.md", "md_atom_type": "LIST_ITEM", "md_parent_section": "§MH [MH — Assumptions]", "md_verbatim": "   a. MHCAT and MHSCAT may be populated with the sponsor's predefined categorization of medical history events, which are often prespecified on the CRF. Note that even if the sponsor uses the body system terminology from the standard dictionary, MHBODSYS and MHCAT may differ; MHBODSYS is derived from the coding system, whereas MHCAT is effectively assigned when the investigator records a condition under the prespecified category.", "score": 0.631, "match_basis": "verbatim_token+domain_route:MH"}, {"md_atom_id": "md_dmMH_assn_a006", "md_file": "knowledge_base/domains/MH/assumptions.md", "md_atom_type": "LIST_ITEM", "md_parent_section": "§MH [MH — Assumptions]", "md_verbatim": "   c. If the sponsor codes the reported term (MHTERM) using a standard dictionary, then MHDECOD will be populated with the preferred term derived from the dictionary. The sponsor is expected to provide the dictionary name and version used to map the terms utilizing the external codelist element in the Define-XML document.", "score": 0.5938, "match_basis": "verbatim_token+domain_route:MH"}, {"md_atom_id": "md_dmMH_ex_a026", "md_file": "knowledge_base/domains/MH/examples.md", "md_atom_type": "LIST_ITEM", "md_parent_section": "§MH.2 [Example 2]", "md_verbatim": "- A General Medical History CRF collected descriptions of conditions and events by body system (e.g., endocrine, metabolic) and asked whether the conditions were ongoing at study start. The reported events were coded using a standard dictionary.", "score": 0.5934, "match_basis": "verbatim_token+domain_route:MH"}, {"md_atom_id": "md_dmMH_ex_a027", "md_file": "knowledge_base/domains/MH/examples.md", "md_atom_type": "LIST_ITEM", "md_parent_section": "§MH.2 [Example 2]", "md_verbatim": "- A second CRF collected stroke history. Terms were selected from a list of terms taken from the standard dictionary.", "score": 0.559, "match_basis": "verbatim_token+domain_route:MH"}], "candidate_count": 5, "zero_candidate": false}
{"pdf_atom_id": "ig34_p0173_a0004", "pdf_atom_type": "LIST_ITEM", "pdf_source": "SDTMIG_v3.4", "pdf_page": 173, "pdf_parent_section": "§6.2.6 Medical History (MH)", "pdf_verbatim": "3. Additional categorization and grouping", "figure_ref": null, "candidates": [{"md_atom_id": "md_dmMH_assn_a009", "md_file": "knowledge_base/domains/MH/assumptions.md", "md_atom_type": "LIST_ITEM", "md_parent_section": "§MH [MH — Assumptions]", "md_verbatim": "3. **Additional categorization and grouping**", "score": 1.0, "match_basis": "verbatim_token+domain_route:MH"}, {"md_atom_id": "md_dmMH_assn_a027", "md_file": "knowledge_base/domains/MH/assumptions.md", "md_atom_type": "LIST_ITEM", "md_parent_section": "§MH [MH — Assumptions]", "md_verbatim": "   b. Additional timing variables (e.g., MHSTRF) may be used when appropriate.", "score": 0.5176, "match_basis": "verbatim_token+domain_route:MH"}, {"md_atom_id": "md_dmMH_assn_a011", "md_file": "knowledge_base/domains/MH/assumptions.md", "md_atom_type": "LIST_ITEM", "md_parent_section": "§MH [MH — Assumptions]", "md_verbatim": "      i. This categorization should not group all records (within the MH domain) into one generic group such as \"Medical Medical History\" or \"General Medical History\" because this is redundant information with the domain code. If no smaller categorization can be applied, then it is not necessary to include or populate this variable.", "score": 0.4744, "match_basis": "verbatim_token+domain_route:MH"}, {"md_atom_id": "md_dmMH_assn_a003", "md_file": "knowledge_base/domains/MH/assumptions.md", "md_atom_type": "LIST_ITEM", "md_parent_section": "§MH [MH — Assumptions]", "md_verbatim": "2. **MH description and coding**", "score": 0.4686, "match_basis": "verbatim_token+domain_route:MH"}, {"md_atom_id": "md_dmMH_assn_a010", "md_file": "knowledge_base/domains/MH/assumptions.md", "md_atom_type": "LIST_ITEM", "md_parent_section": "§MH [MH — Assumptions]", "md_verbatim": "   a. MHCAT and MHSCAT may be populated with the sponsor's predefined categorization of medical history events, which are often prespecified on the CRF. Note that even if the sponsor uses the body system terminology from the standard dictionary, MHBODSYS and MHCAT may differ; MHBODSYS is derived from the coding system, whereas MHCAT is effectively assigned when the investigator records a condition under the prespecified category.", "score": 0.4607, "match_basis": "verbatim_token+domain_route:MH"}], "candidate_count": 5, "zero_candidate": false}
{"pdf_atom_id": "ig34_p0173_a0005", "pdf_atom_type": "LIST_ITEM", "pdf_source": "SDTMIG_v3.4", "pdf_page": 173, "pdf_parent_section": "§6.2.6 Medical History (MH)", "pdf_verbatim": "a. MHCAT and MHSCAT may be populated with the sponsor's predefined categorization of medical history events, which are often prespecified on the CRF. Note that even if the sponsor uses the body system terminology from the standard dictionary, MHBODSYS and MHCAT may differ; MHBODSYS is derived from the coding system, whereas MHCAT is effectively assigned when the investigator records a condition under the prespecified category.", "figure_ref": null, "candidates": [{"md_atom_id": "md_dmMH_assn_a010", "md_file": "knowledge_base/domains/MH/assumptions.md", "md_atom_type": "LIST_ITEM", "md_parent_section": "§MH [MH — Assumptions]", "md_verbatim": "   a. MHCAT and MHSCAT may be populated with the sponsor's predefined categorization of medical history events, which are often prespecified on the CRF. Note that even if the sponsor uses the body system terminology from the standard dictionary, MHBODSYS and MHCAT may differ; MHBODSYS is derived from the coding system, whereas MHCAT is effectively assigned when the investigator records a condition under the prespecified category.", "score": 1.0, "match_basis": "verbatim_token+domain_route:MH"}, {"md_atom_id": "md_dmMH_assn_a008", "md_file": "knowledge_base/domains/MH/assumptions.md", "md_atom_type": "LIST_ITEM", "md_parent_section": "§MH [MH — Assumptions]", "md_verbatim": "   e. If a CRF collects medical history by prespecified body systems and the sponsor also codes reported terms using a standard dictionary, then MHDECOD and MHBODSYS are populated using the standard dictionary. MHCAT and MHSCAT should be used for the prespecified body systems.", "score": 0.631, "match_basis": "verbatim_token+domain_route:MH"}, {"md_atom_id": "md_dmMH_assn_a007", "md_file": "knowledge_base/domains/MH/assumptions.md", "md_atom_type": "LIST_ITEM", "md_parent_section": "§MH [MH — Assumptions]", "md_verbatim": "   d. MHBODSYS is the system organ class (SOC) from the coding dictionary associated with the adverse event by the sponsor. This value may differ from the primary SOC designated in the coding dictionary's standard hierarchy. It is expected that this variable will be populated.", "score": 0.5756, "match_basis": "verbatim_token+domain_route:MH"}, {"md_atom_id": "md_dmMH_assn_a024", "md_file": "knowledge_base/domains/MH/assumptions.md", "md_atom_type": "LIST_ITEM", "md_parent_section": "§MH [MH — Assumptions]", "md_verbatim": "   e. When medical history events are collected with the recording of free text, a record may be entered into the data management system to indicate \"no medical history\" for a specific subject or prespecified body system category (e.g., gastrointestinal). For these subjects or categories within subject, do not include a record in the MH dataset to indicate that there were no events.", "score": 0.5702, "match_basis": "verbatim_token+domain_route:MH"}, {"md_atom_id": "md_dmMH_assn_a015", "md_file": "knowledge_base/domains/MH/assumptions.md", "md_atom_type": "LIST_ITEM", "md_parent_section": "§MH [MH — Assumptions]", "md_verbatim": "   a. Information on medical history is generally collected in 2 different ways, either by recording free text or using a prespecified list of terms. The solicitation of information on specific medical history events may affect the frequency at which they are reported; therefore, the fact that a specific medical history event was solicited may be of interest to reviewers. MHPRESP and MHOCCUR are used together to indicate whether the condition in MHTERM was prespecified and whether it occurred. A value of \"Y\" in MHPRESP indicates that the term was prespecified.", "score": 0.556, "match_basis": "verbatim_token+domain_route:MH"}], "candidate_count": 5, "zero_candidate": false}
{"pdf_atom_id": "ig34_p0173_a0006", "pdf_atom_type": "LIST_ITEM", "pdf_source": "SDTMIG_v3.4", "pdf_page": 173, "pdf_parent_section": "§6.2.6 Medical History (MH)", "pdf_verbatim": "i. This categorization should not group all records (within the MH domain) into one generic group such as \"Medical History\" or \"General Medical History\" because this is redundant information with the domain code. If no smaller categorization can be applied, then it is not necessary to include or populate this variable.", "figure_ref": null, "candidates": [{"md_atom_id": "md_dmMH_assn_a011", "md_file": "knowledge_base/domains/MH/assumptions.md", "md_atom_type": "LIST_ITEM", "md_parent_section": "§MH [MH — Assumptions]", "md_verbatim": "      i. This categorization should not group all records (within the MH domain) into one generic group such as \"Medical Medical History\" or \"General Medical History\" because this is redundant information with the domain code. If no smaller categorization can be applied, then it is not necessary to include or populate this variable.", "score": 1.0, "match_basis": "verbatim_token+domain_route:MH"}, {"md_atom_id": "md_dmMH_assn_a012", "md_file": "knowledge_base/domains/MH/assumptions.md", "md_atom_type": "LIST_ITEM", "md_parent_section": "§MH [MH — Assumptions]", "md_verbatim": "      ii. Examples of MHCAT could include \"General Medical History\" (see above assumption; if \"General Medical History\" is an MHCAT value, then there should be other MHCAT values), \"Allergy Medical History,\" and \"Reproductive Medical History\".", "score": 0.528, "match_basis": "verbatim_token+domain_route:MH"}, {"md_atom_id": "md_dmMH_assn_a029", "md_file": "knowledge_base/domains/MH/assumptions.md", "md_atom_type": "LIST_ITEM", "md_parent_section": "§MH [MH — Assumptions]", "md_verbatim": "   a. MHEVDTYP is a domain-specific variable that can be used to indicate the aspect of the event that is represented in the event start and/or end date/times (MHSTDTC and/or MHENDTC). If a start date and/or end date is collected without further specification of what constitutes the start or end of the event, then MHEVDTYP is not needed. However, when data collection specifies how the start or end date is to be reported, MHEVDTYP can be used to provide this information. For example, when collecting the date of diagnosis, it would be used to populate MHSTDTC; MHEVDTYP would be populated with \"DIAGNOSIS\". If MHEVDTYP is not needed for any collected data, it need not be included in the dataset. If MHEVDTYP is included in the dataset, it should be populated only when the data collection specifies the aspect of the event that is to be used to populate the start and/or end date; otherwise, it should be null.", "score": 0.5248, "match_basis": "verbatim_token+domain_route:MH"}, {"md_atom_id": "md_dmMH_assn_a024", "md_file": "knowledge_base/domains/MH/assumptions.md", "md_atom_type": "LIST_ITEM", "md_parent_section": "§MH [MH — Assumptions]", "md_verbatim": "   e. When medical history events are collected with the recording of free text, a record may be entered into the data management system to indicate \"no medical history\" for a specific subject or prespecified body system category (e.g., gastrointestinal). For these subjects or categories within subject, do not include a record in the MH dataset to indicate that there were no events.", "score": 0.5206, "match_basis": "verbatim_token+domain_route:MH"}, {"md_atom_id": "md_dmMH_assn_a010", "md_file": "knowledge_base/domains/MH/assumptions.md", "md_atom_type": "LIST_ITEM", "md_parent_section": "§MH [MH — Assumptions]", "md_verbatim": "   a. MHCAT and MHSCAT may be populated with the sponsor's predefined categorization of medical history events, which are often prespecified on the CRF. Note that even if the sponsor uses the body system terminology from the standard dictionary, MHBODSYS and MHCAT may differ; MHBODSYS is derived from the coding system, whereas MHCAT is effectively assigned when the investigator records a condition under the prespecified category.", "score": 0.5195, "match_basis": "verbatim_token+domain_route:MH"}], "candidate_count": 5, "zero_candidate": false}
{"pdf_atom_id": "ig34_p0173_a0007", "pdf_atom_type": "LIST_ITEM", "pdf_source": "SDTMIG_v3.4", "pdf_page": 173, "pdf_parent_section": "§6.2.6 Medical History (MH)", "pdf_verbatim": "ii. Examples of MHCAT could include \"General Medical History\" (see above assumption; if \"General Medical History\" is an MHCAT value, then there should be other MHCAT values), \"Allergy Medical History, \" and \"Reproductive Medical History\".", "figure_ref": null, "candidates": [{"md_atom_id": "md_dmMH_assn_a012", "md_file": "knowledge_base/domains/MH/assumptions.md", "md_atom_type": "LIST_ITEM", "md_parent_section": "§MH [MH — Assumptions]", "md_verbatim": "      ii. Examples of MHCAT could include \"General Medical History\" (see above assumption; if \"General Medical History\" is an MHCAT value, then there should be other MHCAT values), \"Allergy Medical History,\" and \"Reproductive Medical History\".", "score": 1.0, "match_basis": "verbatim_token+domain_route:MH"}, {"md_atom_id": "md_dmMH_assn_a011", "md_file": "knowledge_base/domains/MH/assumptions.md", "md_atom_type": "LIST_ITEM", "md_parent_section": "§MH [MH — Assumptions]", "md_verbatim": "      i. This categorization should not group all records (within the MH domain) into one generic group such as \"Medical Medical History\" or \"General Medical History\" because this is redundant information with the domain code. If no smaller categorization can be applied, then it is not necessary to include or populate this variable.", "score": 0.528, "match_basis": "verbatim_token+domain_route:MH"}, {"md_atom_id": "md_dmMH_assn_a017", "md_file": "knowledge_base/domains/MH/assumptions.md", "md_atom_type": "LIST_ITEM", "md_parent_section": "§MH [MH — Assumptions]", "md_verbatim": "   c. If a medical history event was reported using free text, the values of MHPRESP and MHOCCUR should be null. MHPRESP and MHOCCUR are permissible fields and may be omitted from the dataset if all medical history events were collected as free text.", "score": 0.5091, "match_basis": "verbatim_token+domain_route:MH"}, {"md_atom_id": "md_dmMH_ex_a026", "md_file": "knowledge_base/domains/MH/examples.md", "md_atom_type": "LIST_ITEM", "md_parent_section": "§MH.2 [Example 2]", "md_verbatim": "- A General Medical History CRF collected descriptions of conditions and events by body system (e.g., endocrine, metabolic) and asked whether the conditions were ongoing at study start. The reported events were coded using a standard dictionary.", "score": 0.5061, "match_basis": "verbatim_token+domain_route:MH"}, {"md_atom_id": "md_dmMH_assn_a008", "md_file": "knowledge_base/domains/MH/assumptions.md", "md_atom_type": "LIST_ITEM", "md_parent_section": "§MH [MH — Assumptions]", "md_verbatim": "   e. If a CRF collects medical history by prespecified body systems and the sponsor also codes reported terms using a standard dictionary, then MHDECOD and MHBODSYS are populated using the standard dictionary. MHCAT and MHSCAT should be used for the prespecified body systems.", "score": 0.5034, "match_basis": "verbatim_token+domain_route:MH"}], "candidate_count": 5, "zero_candidate": false}
{"pdf_atom_id": "ig34_p0173_a0008", "pdf_atom_type": "LIST_ITEM", "pdf_source": "SDTMIG_v3.4", "pdf_page": 173, "pdf_parent_section": "§6.2.6 Medical History (MH)", "pdf_verbatim": "b. MHGRPID may be used to link (or associate) different records together to form a block of related records at the subject level within the MH domain. It should not be used in place of MHCAT or MHSCAT, which are used to group data across subjects. For example, if a group of syndromes reported for a subject were related to a particular disease, then the MHGRPID variable could be populated with the appropriate text.", "figure_ref": null, "candidates": [{"md_atom_id": "md_dmMH_assn_a013", "md_file": "knowledge_base/domains/MH/assumptions.md", "md_atom_type": "LIST_ITEM", "md_parent_section": "§MH [MH — Assumptions]", "md_verbatim": "   b. MHGRPID may be used to link (or associate) different records together to form a block of related records at the subject level within the MH domain. It should not be used in place of MHCAT or MHSCAT, which are used to group data across subjects. For example, if a group of syndromes reported for a subject were related to a particular disease, then the MHGRPID variable could be populated with the appropriate text.", "score": 1.0, "match_basis": "verbatim_token+domain_route:MH"}, {"md_atom_id": "md_dmMH_assn_a029", "md_file": "knowledge_base/domains/MH/assumptions.md", "md_atom_type": "LIST_ITEM", "md_parent_section": "§MH [MH — Assumptions]", "md_verbatim": "   a. MHEVDTYP is a domain-specific variable that can be used to indicate the aspect of the event that is represented in the event start and/or end date/times (MHSTDTC and/or MHENDTC). If a start date and/or end date is collected without further specification of what constitutes the start or end of the event, then MHEVDTYP is not needed. However, when data collection specifies how the start or end date is to be reported, MHEVDTYP can be used to provide this information. For example, when collecting the date of diagnosis, it would be used to populate MHSTDTC; MHEVDTYP would be populated with \"DIAGNOSIS\". If MHEVDTYP is not needed for any collected data, it need not be included in the dataset. If MHEVDTYP is included in the dataset, it should be populated only when the data collection specifies the aspect of the event that is to be used to populate the start and/or end date; otherwise, it should be null.", "score": 0.5317, "match_basis": "verbatim_token+domain_route:MH"}, {"md_atom_id": "md_dmMH_assn_a011", "md_file": "knowledge_base/domains/MH/assumptions.md", "md_atom_type": "LIST_ITEM", "md_parent_section": "§MH [MH — Assumptions]", "md_verbatim": "      i. This categorization should not group all records (within the MH domain) into one generic group such as \"Medical Medical History\" or \"General Medical History\" because this is redundant information with the domain code. If no smaller categorization can be applied, then it is not necessary to include or populate this variable.", "score": 0.5148, "match_basis": "verbatim_token+domain_route:MH"}, {"md_atom_id": "md_dmMH_assn_a026", "md_file": "knowledge_base/domains/MH/assumptions.md", "md_atom_type": "LIST_ITEM", "md_parent_section": "§MH [MH — Assumptions]", "md_verbatim": "   a. Relative timing assessments such as \"Ongoing\" or \"Active\" are common in the collection of MH information. MHENRF may be used when this relative timing assessment is coincident with the start of the study reference period for the subject represented in the Demographics (DM) dataset (RFSTDTC). MHENRTPT and MHENTPT may be used when \"Ongoing\" is relative to another date such as the screening visit date. See the examples in this section and in Section 4.4.7, Use of Relative Timing Variables.", "score": 0.513, "match_basis": "verbatim_token+domain_route:MH"}, {"md_atom_id": "md_dmMH_assn_a030", "md_file": "knowledge_base/domains/MH/assumptions.md", "md_atom_type": "LIST_ITEM", "md_parent_section": "§MH [MH — Assumptions]", "md_verbatim": "   b. When data collected about an event includes 2 different dates that could be considered the start or end of an event, then an MH record will be created for each. For example, if data collection included both a date of onset of symptoms and a date of diagnosis, there would be 2 records for the event, one with MHSTDTC the date of onset of symptoms and MHEVDTYP = \"SYMPTOMS\" and a second with MHSTDTC the date of diagnosis and MHENDTYP = \"DIAGNOSIS\". In such a case, it is recommended that the 2 records be linked by means such as a common value of MHSPID or MHGRPID.", "score": 0.5091, "match_basis": "verbatim_token+domain_route:MH"}], "candidate_count": 5, "zero_candidate": false}
{"pdf_atom_id": "ig34_p0173_a0009", "pdf_atom_type": "LIST_ITEM", "pdf_source": "SDTMIG_v3.4", "pdf_page": 173, "pdf_parent_section": "§6.2.6 Medical History (MH)", "pdf_verbatim": "4. Prespecified terms; presence or absence of events", "figure_ref": null, "candidates": [{"md_atom_id": "md_dmMH_assn_a014", "md_file": "knowledge_base/domains/MH/assumptions.md", "md_atom_type": "LIST_ITEM", "md_parent_section": "§MH [MH — Assumptions]", "md_verbatim": "4. **Prespecified terms; presence or absence of events**", "score": 1.0, "match_basis": "verbatim_token+domain_route:MH"}, {"md_atom_id": "md_dmMH_assn_a016", "md_file": "knowledge_base/domains/MH/assumptions.md", "md_atom_type": "LIST_ITEM", "md_parent_section": "§MH [MH — Assumptions]", "md_verbatim": "   b. MHOCCUR is used to indicate whether a prespecified medical condition occurred; a value of \"Y\" indicates that the event occurred and \"N\" indicates that it did not.", "score": 0.5258, "match_basis": "verbatim_token+domain_route:MH"}, {"md_atom_id": "md_dmMH_assn_a004", "md_file": "knowledge_base/domains/MH/assumptions.md", "md_atom_type": "LIST_ITEM", "md_parent_section": "§MH [MH — Assumptions]", "md_verbatim": "   a. MHTERM is the topic variable and captures the verbatim term collected for the condition or event or the prespecified term used to collect information about the occurrence of any of a group of conditions or events. MHTERM is a required variable and must have a value.", "score": 0.5125, "match_basis": "verbatim_token+domain_route:MH"}, {"md_atom_id": "md_dmMH_assn_a023", "md_file": "knowledge_base/domains/MH/assumptions.md", "md_atom_type": "TABLE_ROW", "md_parent_section": "§MH [MH — Assumptions]", "md_verbatim": "      | Pre-specified event has no response | Y | | NOT DONE |", "score": 0.5016, "match_basis": "verbatim_token+domain_route:MH"}, {"md_atom_id": "md_dmMH_assn_a022", "md_file": "knowledge_base/domains/MH/assumptions.md", "md_atom_type": "TABLE_ROW", "md_parent_section": "§MH [MH — Assumptions]", "md_verbatim": "      | Pre-specified event did not occur | Y | N | |", "score": 0.4857, "match_basis": "verbatim_token+domain_route:MH"}], "candidate_count": 5, "zero_candidate": false}
{"pdf_atom_id": "ig34_p0173_a0010", "pdf_atom_type": "LIST_ITEM", "pdf_source": "SDTMIG_v3.4", "pdf_page": 173, "pdf_parent_section": "§6.2.6 Medical History (MH)", "pdf_verbatim": "a. Information on medical history is generally collected in 2 different ways, either by recording free text or using a prespecified list of terms. The solicitation of information on specific medical history events may affect the frequency at which they are reported; therefore, the fact that a specific medical history event was solicited may be of interest to reviewers. MHPRESP and MHOCCUR are used together to indicate whether the condition in MHTERM was prespecified and whether it occurred, respectively. A value of \"Y\" in MHPRESP indicates that the term was prespecified.", "figure_ref": null, "candidates": [{"md_atom_id": "md_dmMH_assn_a015", "md_file": "knowledge_base/domains/MH/assumptions.md", "md_atom_type": "LIST_ITEM", "md_parent_section": "§MH [MH — Assumptions]", "md_verbatim": "   a. Information on medical history is generally collected in 2 different ways, either by recording free text or using a prespecified list of terms. The solicitation of information on specific medical history events may affect the frequency at which they are reported; therefore, the fact that a specific medical history event was solicited may be of interest to reviewers. MHPRESP and MHOCCUR are used together to indicate whether the condition in MHTERM was prespecified and whether it occurred. A value of \"Y\" in MHPRESP indicates that the term was prespecified.", "score": 0.9812, "match_basis": "verbatim_token+domain_route:MH"}, {"md_atom_id": "md_dmMH_assn_a018", "md_file": "knowledge_base/domains/MH/assumptions.md", "md_atom_type": "LIST_ITEM", "md_parent_section": "§MH [MH — Assumptions]", "md_verbatim": "   d. MHSTAT and MHREASND provide information about prespecified medical history questions for which no response was collected. MHSTAT and MHREASND are permissible fields and may be omitted from the dataset if all medications were collected as free text or if all prespecified conditions had responses in MHOCCUR.", "score": 0.5913, "match_basis": "verbatim_token+domain_route:MH"}, {"md_atom_id": "md_dmMH_assn_a016", "md_file": "knowledge_base/domains/MH/assumptions.md", "md_atom_type": "LIST_ITEM", "md_parent_section": "§MH [MH — Assumptions]", "md_verbatim": "   b. MHOCCUR is used to indicate whether a prespecified medical condition occurred; a value of \"Y\" indicates that the event occurred and \"N\" indicates that it did not.", "score": 0.5852, "match_basis": "verbatim_token+domain_route:MH"}, {"md_atom_id": "md_dmMH_assn_a024", "md_file": "knowledge_base/domains/MH/assumptions.md", "md_atom_type": "LIST_ITEM", "md_parent_section": "§MH [MH — Assumptions]", "md_verbatim": "   e. When medical history events are collected with the recording of free text, a record may be entered into the data management system to indicate \"no medical history\" for a specific subject or prespecified body system category (e.g., gastrointestinal). For these subjects or categories within subject, do not include a record in the MH dataset to indicate that there were no events.", "score": 0.5811, "match_basis": "verbatim_token+domain_route:MH"}, {"md_atom_id": "md_dmMH_assn_a017", "md_file": "knowledge_base/domains/MH/assumptions.md", "md_atom_type": "LIST_ITEM", "md_parent_section": "§MH [MH — Assumptions]", "md_verbatim": "   c. If a medical history event was reported using free text, the values of MHPRESP and MHOCCUR should be null. MHPRESP and MHOCCUR are permissible fields and may be omitted from the dataset if all medical history events were collected as free text.", "score": 0.5778, "match_basis": "verbatim_token+domain_route:MH"}], "candidate_count": 5, "zero_candidate": false}
{"pdf_atom_id": "ig34_p0173_a0011", "pdf_atom_type": "LIST_ITEM", "pdf_source": "SDTMIG_v3.4", "pdf_page": 173, "pdf_parent_section": "§6.2.6 Medical History (MH)", "pdf_verbatim": "b. MHOCCUR is used to indicate whether a prespecified medical condition occurred; a value of \"Y\" indicates that the event occurred and \"N\" indicates that it did not.", "figure_ref": null, "candidates": [{"md_atom_id": "md_dmMH_assn_a016", "md_file": "knowledge_base/domains/MH/assumptions.md", "md_atom_type": "LIST_ITEM", "md_parent_section": "§MH [MH — Assumptions]", "md_verbatim": "   b. MHOCCUR is used to indicate whether a prespecified medical condition occurred; a value of \"Y\" indicates that the event occurred and \"N\" indicates that it did not.", "score": 1.0, "match_basis": "verbatim_token+domain_route:MH"}, {"md_atom_id": "md_dmMH_assn_a015", "md_file": "knowledge_base/domains/MH/assumptions.md", "md_atom_type": "LIST_ITEM", "md_parent_section": "§MH [MH — Assumptions]", "md_verbatim": "   a. Information on medical history is generally collected in 2 different ways, either by recording free text or using a prespecified list of terms. The solicitation of information on specific medical history events may affect the frequency at which they are reported; therefore, the fact that a specific medical history event was solicited may be of interest to reviewers. MHPRESP and MHOCCUR are used together to indicate whether the condition in MHTERM was prespecified and whether it occurred. A value of \"Y\" in MHPRESP indicates that the term was prespecified.", "score": 0.5911, "match_basis": "verbatim_token+domain_route:MH"}, {"md_atom_id": "md_dmMH_assn_a004", "md_file": "knowledge_base/domains/MH/assumptions.md", "md_atom_type": "LIST_ITEM", "md_parent_section": "§MH [MH — Assumptions]", "md_verbatim": "   a. MHTERM is the topic variable and captures the verbatim term collected for the condition or event or the prespecified term used to collect information about the occurrence of any of a group of conditions or events. MHTERM is a required variable and must have a value.", "score": 0.58, "match_basis": "verbatim_token+domain_route:MH"}, {"md_atom_id": "md_dmMH_ex_a057", "md_file": "knowledge_base/domains/MH/examples.md", "md_atom_type": "SENTENCE", "md_parent_section": "§MH.3 [Example 3]", "md_verbatim": "**Rows 1-9:** MHPRESP = \"Y\" indicates that these conditions were specifically queried.", "score": 0.5394, "match_basis": "verbatim_token+domain_route:MH"}, {"md_atom_id": "md_dmMH_ex_a092", "md_file": "knowledge_base/domains/MH/examples.md", "md_atom_type": "SENTENCE", "md_parent_section": "§MH.5 [Example 5]", "md_verbatim": "The same value (\"Respiratory Infections\") in both MHTERM and MHCAT indicates that the occurrence question was about a group of medical conditions rather than a specific single medical condition.", "score": 0.535, "match_basis": "verbatim_token+domain_route:MH"}], "candidate_count": 5, "zero_candidate": false}
{"pdf_atom_id": "ig34_p0173_a0012", "pdf_atom_type": "LIST_ITEM", "pdf_source": "SDTMIG_v3.4", "pdf_page": 173, "pdf_parent_section": "§6.2.6 Medical History (MH)", "pdf_verbatim": "c. If a medical history event was reported using free text, the values of MHPRESP and MHOCCUR should be null. MHPRESP and MHOCCUR are permissible fields and may be omitted from the dataset if all medical history events were collected as free text.", "figure_ref": null, "candidates": [{"md_atom_id": "md_dmMH_assn_a017", "md_file": "knowledge_base/domains/MH/assumptions.md", "md_atom_type": "LIST_ITEM", "md_parent_section": "§MH [MH — Assumptions]", "md_verbatim": "   c. If a medical history event was reported using free text, the values of MHPRESP and MHOCCUR should be null. MHPRESP and MHOCCUR are permissible fields and may be omitted from the dataset if all medical history events were collected as free text.", "score": 1.0, "match_basis": "verbatim_token+domain_route:MH"}, {"md_atom_id": "md_dmMH_assn_a018", "md_file": "knowledge_base/domains/MH/assumptions.md", "md_atom_type": "LIST_ITEM", "md_parent_section": "§MH [MH — Assumptions]", "md_verbatim": "   d. MHSTAT and MHREASND provide information about prespecified medical history questions for which no response was collected. MHSTAT and MHREASND are permissible fields and may be omitted from the dataset if all medications were collected as free text or if all prespecified conditions had responses in MHOCCUR.", "score": 0.6735, "match_basis": "verbatim_token+domain_route:MH"}, {"md_atom_id": "md_dmMH_assn_a015", "md_file": "knowledge_base/domains/MH/assumptions.md", "md_atom_type": "LIST_ITEM", "md_parent_section": "§MH [MH — Assumptions]", "md_verbatim": "   a. Information on medical history is generally collected in 2 different ways, either by recording free text or using a prespecified list of terms. The solicitation of information on specific medical history events may affect the frequency at which they are reported; therefore, the fact that a specific medical history event was solicited may be of interest to reviewers. MHPRESP and MHOCCUR are used together to indicate whether the condition in MHTERM was prespecified and whether it occurred. A value of \"Y\" in MHPRESP indicates that the term was prespecified.", "score": 0.5826, "match_basis": "verbatim_token+domain_route:MH"}, {"md_atom_id": "md_dmMH_assn_a024", "md_file": "knowledge_base/domains/MH/assumptions.md", "md_atom_type": "LIST_ITEM", "md_parent_section": "§MH [MH — Assumptions]", "md_verbatim": "   e. When medical history events are collected with the recording of free text, a record may be entered into the data management system to indicate \"no medical history\" for a specific subject or prespecified body system category (e.g., gastrointestinal). For these subjects or categories within subject, do not include a record in the MH dataset to indicate that there were no events.", "score": 0.5491, "match_basis": "verbatim_token+domain_route:MH"}, {"md_atom_id": "md_dmMH_assn_a008", "md_file": "knowledge_base/domains/MH/assumptions.md", "md_atom_type": "LIST_ITEM", "md_parent_section": "§MH [MH — Assumptions]", "md_verbatim": "   e. If a CRF collects medical history by prespecified body systems and the sponsor also codes reported terms using a standard dictionary, then MHDECOD and MHBODSYS are populated using the standard dictionary. MHCAT and MHSCAT should be used for the prespecified body systems.", "score": 0.5459, "match_basis": "verbatim_token+domain_route:MH"}], "candidate_count": 5, "zero_candidate": false}
{"pdf_atom_id": "ig34_p0173_a0013", "pdf_atom_type": "LIST_ITEM", "pdf_source": "SDTMIG_v3.4", "pdf_page": 173, "pdf_parent_section": "§6.2.6 Medical History (MH)", "pdf_verbatim": "d. MHSTAT and MHREASND provide information about prespecified medical history questions for which no response was collected. MHSTAT and MHREASND are permissible fields and may be omitted from the dataset if all medications were collected as free text or if all prespecified conditions had responses in MHOCCUR.", "figure_ref": null, "candidates": [{"md_atom_id": "md_dmMH_assn_a018", "md_file": "knowledge_base/domains/MH/assumptions.md", "md_atom_type": "LIST_ITEM", "md_parent_section": "§MH [MH — Assumptions]", "md_verbatim": "   d. MHSTAT and MHREASND provide information about prespecified medical history questions for which no response was collected. MHSTAT and MHREASND are permissible fields and may be omitted from the dataset if all medications were collected as free text or if all prespecified conditions had responses in MHOCCUR.", "score": 1.0, "match_basis": "verbatim_token+domain_route:MH"}, {"md_atom_id": "md_dmMH_assn_a017", "md_file": "knowledge_base/domains/MH/assumptions.md", "md_atom_type": "LIST_ITEM", "md_parent_section": "§MH [MH — Assumptions]", "md_verbatim": "   c. If a medical history event was reported using free text, the values of MHPRESP and MHOCCUR should be null. MHPRESP and MHOCCUR are permissible fields and may be omitted from the dataset if all medical history events were collected as free text.", "score": 0.6735, "match_basis": "verbatim_token+domain_route:MH"}, {"md_atom_id": "md_dmMH_assn_a015", "md_file": "knowledge_base/domains/MH/assumptions.md", "md_atom_type": "LIST_ITEM", "md_parent_section": "§MH [MH — Assumptions]", "md_verbatim": "   a. Information on medical history is generally collected in 2 different ways, either by recording free text or using a prespecified list of terms. The solicitation of information on specific medical history events may affect the frequency at which they are reported; therefore, the fact that a specific medical history event was solicited may be of interest to reviewers. MHPRESP and MHOCCUR are used together to indicate whether the condition in MHTERM was prespecified and whether it occurred. A value of \"Y\" in MHPRESP indicates that the term was prespecified.", "score": 0.596, "match_basis": "verbatim_token+domain_route:MH"}, {"md_atom_id": "md_dmMH_assn_a004", "md_file": "knowledge_base/domains/MH/assumptions.md", "md_atom_type": "LIST_ITEM", "md_parent_section": "§MH [MH — Assumptions]", "md_verbatim": "   a. MHTERM is the topic variable and captures the verbatim term collected for the condition or event or the prespecified term used to collect information about the occurrence of any of a group of conditions or events. MHTERM is a required variable and must have a value.", "score": 0.5556, "match_basis": "verbatim_token+domain_route:MH"}, {"md_atom_id": "md_dmMH_assn_a024", "md_file": "knowledge_base/domains/MH/assumptions.md", "md_atom_type": "LIST_ITEM", "md_parent_section": "§MH [MH — Assumptions]", "md_verbatim": "   e. When medical history events are collected with the recording of free text, a record may be entered into the data management system to indicate \"no medical history\" for a specific subject or prespecified body system category (e.g., gastrointestinal). For these subjects or categories within subject, do not include a record in the MH dataset to indicate that there were no events.", "score": 0.5508, "match_basis": "verbatim_token+domain_route:MH"}], "candidate_count": 5, "zero_candidate": false}
{"pdf_atom_id": "ig34_p0174_a0001", "pdf_atom_type": "TABLE_HEADER", "pdf_source": "SDTMIG_v3.4", "pdf_page": 174, "pdf_parent_section": "§6.2.6 Medical History (MH)", "pdf_verbatim": "| Situation | Value of MHPRESP | Value of MHOCCUR | Value of MHSTAT |", "figure_ref": null, "candidates": [{"md_atom_id": "md_dmMH_assn_a019", "md_file": "knowledge_base/domains/MH/assumptions.md", "md_atom_type": "TABLE_HEADER", "md_parent_section": "§MH [MH — Assumptions]", "md_verbatim": "      | Situation | MHPRESP | MHOCCUR | MHSTAT |\n      |-----------|---------|---------|--------|", "score": 0.925, "match_basis": "verbatim_token+domain_route:MH"}, {"md_atom_id": "md_dmMH_ex_a063", "md_file": "knowledge_base/domains/MH/examples.md", "md_atom_type": "TABLE_HEADER", "md_parent_section": "§MH.3 [Example 3]", "md_verbatim": "| Row | STUDYID | DOMAIN | USUBJID | MHSEQ | MHTERM | MHDECOD | MHPRESP | MHOCCUR | MHSTAT | MHREASND | VISITNUM | VISIT | MHDTC | MHDY |\n|-----|---------|--------|---------|-------|--------|---------|---------|---------|--------|----------|----------|-------|-------|------|", "score": 0.5406, "match_basis": "verbatim_token+domain_route:MH"}, {"md_atom_id": "md_dmMH_ex_a083", "md_file": "knowledge_base/domains/MH/examples.md", "md_atom_type": "TABLE_HEADER", "md_parent_section": "§MH.4 [Example 4]", "md_verbatim": "| Row | STUDYID | DOMAIN | USUBJID | MHSEQ | MHTERM | MHDECOD | MHEVDTYP | MHCAT | MHPRESP | MHOCCUR | MHDTC | MHSTDTC |\n|-----|---------|--------|---------|-------|--------|---------|----------|-------|---------|---------|-------|---------|", "score": 0.5143, "match_basis": "verbatim_token+domain_route:MH"}, {"md_atom_id": "md_dmMH_ex_a044", "md_file": "knowledge_base/domains/MH/examples.md", "md_atom_type": "TABLE_HEADER", "md_parent_section": "§MH.2 [Example 2]", "md_verbatim": "| Row | STUDYID | DOMAIN | USUBJID | MHSEQ | MHTERM | MHDECOD | MHCAT | MHSCAT | MHBODSYS | MHPRESP | MHOCCUR | MHSTDTC | MHENRF |\n|-----|---------|--------|---------|-------|--------|---------|-------|--------|----------|---------|---------|---------|--------|", "score": 0.5059, "match_basis": "verbatim_token+domain_route:MH"}, {"md_atom_id": "md_dmMH_ex_a098", "md_file": "knowledge_base/domains/MH/examples.md", "md_atom_type": "TABLE_HEADER", "md_parent_section": "§MH.5 [Example 5]", "md_verbatim": "| Row | STUDYID | DOMAIN | USUBJID | MHSEQ | MHTERM | MHCAT | MHPRESP | MHOCCUR | MHDTC | MHENDTC | MHDY | MHEVLINT | MHENRTPT | MHENTPT |\n|-----|---------|--------|---------|-------|--------|-------|---------|---------|-------|---------|------|----------|----------|---------|", "score": 0.4985, "match_basis": "verbatim_token+domain_route:MH"}], "candidate_count": 5, "zero_candidate": false}
{"pdf_atom_id": "ig34_p0174_a0002", "pdf_atom_type": "TABLE_ROW", "pdf_source": "SDTMIG_v3.4", "pdf_page": 174, "pdf_parent_section": "§6.2.6 Medical History (MH)", "pdf_verbatim": "| Spontaneously reported event occurred | | | |", "figure_ref": null, "candidates": [{"md_atom_id": "md_dmMH_assn_a020", "md_file": "knowledge_base/domains/MH/assumptions.md", "md_atom_type": "TABLE_ROW", "md_parent_section": "§MH [MH — Assumptions]", "md_verbatim": "      | Spontaneously reported event occurred | | | |", "score": 1.0, "match_basis": "verbatim_token+domain_route:MH"}, {"md_atom_id": "md_dmMH_assn_a021", "md_file": "knowledge_base/domains/MH/assumptions.md", "md_atom_type": "TABLE_ROW", "md_parent_section": "§MH [MH — Assumptions]", "md_verbatim": "      | Pre-specified event occurred | Y | Y | |", "score": 0.5588, "match_basis": "verbatim_token+domain_route:MH"}, {"md_atom_id": "md_dmMH_assn_a022", "md_file": "knowledge_base/domains/MH/assumptions.md", "md_atom_type": "TABLE_ROW", "md_parent_section": "§MH [MH — Assumptions]", "md_verbatim": "      | Pre-specified event did not occur | Y | N | |", "score": 0.5, "match_basis": "verbatim_token+domain_route:MH"}, {"md_atom_id": "md_dmMH_assn_a023", "md_file": "knowledge_base/domains/MH/assumptions.md", "md_atom_type": "TABLE_ROW", "md_parent_section": "§MH [MH — Assumptions]", "md_verbatim": "      | Pre-specified event has no response | Y | | NOT DONE |", "score": 0.4714, "match_basis": "verbatim_token+domain_route:MH"}, {"md_atom_id": "md_dmMH_ex_a020", "md_file": "knowledge_base/domains/MH/examples.md", "md_atom_type": "TABLE_ROW", "md_parent_section": "§MH.1 [Example 1]", "md_verbatim": "| 2 | ABC123 | MH | 123101 | 2 | | FREQUENT HEADACHES | Headache | GENERAL MEDICAL HISTORY | CNS | Central and peripheral nervous system disorders | 2004-09-18 | ONGOING | |", "score": 0.413, "match_basis": "verbatim_token+domain_route:MH"}], "candidate_count": 5, "zero_candidate": false}
{"pdf_atom_id": "ig34_p0174_a0003", "pdf_atom_type": "TABLE_ROW", "pdf_source": "SDTMIG_v3.4", "pdf_page": 174, "pdf_parent_section": "§6.2.6 Medical History (MH)", "pdf_verbatim": "| Pre-specified event occurred | Y | Y | |", "figure_ref": null, "candidates": [{"md_atom_id": "md_dmMH_assn_a021", "md_file": "knowledge_base/domains/MH/assumptions.md", "md_atom_type": "TABLE_ROW", "md_parent_section": "§MH [MH — Assumptions]", "md_verbatim": "      | Pre-specified event occurred | Y | Y | |", "score": 1.0, "match_basis": "verbatim_token+domain_route:MH"}, {"md_atom_id": "md_dmMH_assn_a022", "md_file": "knowledge_base/domains/MH/assumptions.md", "md_atom_type": "TABLE_ROW", "md_parent_section": "§MH [MH — Assumptions]", "md_verbatim": "      | Pre-specified event did not occur | Y | N | |", "score": 0.8421, "match_basis": "verbatim_token+domain_route:MH"}, {"md_atom_id": "md_dmMH_assn_a023", "md_file": "knowledge_base/domains/MH/assumptions.md", "md_atom_type": "TABLE_ROW", "md_parent_section": "§MH [MH — Assumptions]", "md_verbatim": "      | Pre-specified event has no response | Y | | NOT DONE |", "score": 0.6444, "match_basis": "verbatim_token+domain_route:MH"}, {"md_atom_id": "md_dmMH_assn_a020", "md_file": "knowledge_base/domains/MH/assumptions.md", "md_atom_type": "TABLE_ROW", "md_parent_section": "§MH [MH — Assumptions]", "md_verbatim": "      | Spontaneously reported event occurred | | | |", "score": 0.5588, "match_basis": "verbatim_token+domain_route:MH"}, {"md_atom_id": "md_dmMH_assn_a014", "md_file": "knowledge_base/domains/MH/assumptions.md", "md_atom_type": "LIST_ITEM", "md_parent_section": "§MH [MH — Assumptions]", "md_verbatim": "4. **Prespecified terms; presence or absence of events**", "score": 0.4476, "match_basis": "verbatim_token+domain_route:MH"}], "candidate_count": 5, "zero_candidate": false}
{"pdf_atom_id": "ig34_p0174_a0004", "pdf_atom_type": "TABLE_ROW", "pdf_source": "SDTMIG_v3.4", "pdf_page": 174, "pdf_parent_section": "§6.2.6 Medical History (MH)", "pdf_verbatim": "| Pre-specified event did not occur | Y | N | |", "figure_ref": null, "candidates": [{"md_atom_id": "md_dmMH_assn_a022", "md_file": "knowledge_base/domains/MH/assumptions.md", "md_atom_type": "TABLE_ROW", "md_parent_section": "§MH [MH — Assumptions]", "md_verbatim": "      | Pre-specified event did not occur | Y | N | |", "score": 1.0, "match_basis": "verbatim_token+domain_route:MH"}, {"md_atom_id": "md_dmMH_assn_a021", "md_file": "knowledge_base/domains/MH/assumptions.md", "md_atom_type": "TABLE_ROW", "md_parent_section": "§MH [MH — Assumptions]", "md_verbatim": "      | Pre-specified event occurred | Y | Y | |", "score": 0.8421, "match_basis": "verbatim_token+domain_route:MH"}, {"md_atom_id": "md_dmMH_assn_a023", "md_file": "knowledge_base/domains/MH/assumptions.md", "md_atom_type": "TABLE_ROW", "md_parent_section": "§MH [MH — Assumptions]", "md_verbatim": "      | Pre-specified event has no response | Y | | NOT DONE |", "score": 0.688, "match_basis": "verbatim_token+domain_route:MH"}, {"md_atom_id": "md_dmMH_assn_a020", "md_file": "knowledge_base/domains/MH/assumptions.md", "md_atom_type": "TABLE_ROW", "md_parent_section": "§MH [MH — Assumptions]", "md_verbatim": "      | Spontaneously reported event occurred | | | |", "score": 0.5, "match_basis": "verbatim_token+domain_route:MH"}, {"md_atom_id": "md_dmMH_assn_a014", "md_file": "knowledge_base/domains/MH/assumptions.md", "md_atom_type": "LIST_ITEM", "md_parent_section": "§MH [MH — Assumptions]", "md_verbatim": "4. **Prespecified terms; presence or absence of events**", "score": 0.4557, "match_basis": "verbatim_token+domain_route:MH"}], "candidate_count": 5, "zero_candidate": false}
{"pdf_atom_id": "ig34_p0174_a0005", "pdf_atom_type": "TABLE_ROW", "pdf_source": "SDTMIG_v3.4", "pdf_page": 174, "pdf_parent_section": "§6.2.6 Medical History (MH)", "pdf_verbatim": "| Pre-specified event has no response | Y | | NOT DONE |", "figure_ref": null, "candidates": [{"md_atom_id": "md_dmMH_assn_a023", "md_file": "knowledge_base/domains/MH/assumptions.md", "md_atom_type": "TABLE_ROW", "md_parent_section": "§MH [MH — Assumptions]", "md_verbatim": "      | Pre-specified event has no response | Y | | NOT DONE |", "score": 1.0, "match_basis": "verbatim_token+domain_route:MH"}, {"md_atom_id": "md_dmMH_assn_a022", "md_file": "knowledge_base/domains/MH/assumptions.md", "md_atom_type": "TABLE_ROW", "md_parent_section": "§MH [MH — Assumptions]", "md_verbatim": "      | Pre-specified event did not occur | Y | N | |", "score": 0.688, "match_basis": "verbatim_token+domain_route:MH"}, {"md_atom_id": "md_dmMH_assn_a021", "md_file": "knowledge_base/domains/MH/assumptions.md", "md_atom_type": "TABLE_ROW", "md_parent_section": "§MH [MH — Assumptions]", "md_verbatim": "      | Pre-specified event occurred | Y | Y | |", "score": 0.6444, "match_basis": "verbatim_token+domain_route:MH"}, {"md_atom_id": "md_dmMH_assn_a014", "md_file": "knowledge_base/domains/MH/assumptions.md", "md_atom_type": "LIST_ITEM", "md_parent_section": "§MH [MH — Assumptions]", "md_verbatim": "4. **Prespecified terms; presence or absence of events**", "score": 0.4716, "match_basis": "verbatim_token+domain_route:MH"}, {"md_atom_id": "md_dmMH_assn_a020", "md_file": "knowledge_base/domains/MH/assumptions.md", "md_atom_type": "TABLE_ROW", "md_parent_section": "§MH [MH — Assumptions]", "md_verbatim": "      | Spontaneously reported event occurred | | | |", "score": 0.4714, "match_basis": "verbatim_token+domain_route:MH"}], "candidate_count": 5, "zero_candidate": false}
{"pdf_atom_id": "ig34_p0174_a0006", "pdf_atom_type": "LIST_ITEM", "pdf_source": "SDTMIG_v3.4", "pdf_page": 174, "pdf_parent_section": "§6.2.6 Medical History (MH)", "pdf_verbatim": "e. When medical history events are collected with the recording of free text, a record may be entered into the data management system to indicate \"no medical history\" for a specific subject or prespecified body system category (e.g., gastrointestinal). For these subjects or categories within subject, do not include a record in the MH dataset to indicate that there were no events.", "figure_ref": null, "candidates": [{"md_atom_id": "md_dmMH_assn_a024", "md_file": "knowledge_base/domains/MH/assumptions.md", "md_atom_type": "LIST_ITEM", "md_parent_section": "§MH [MH — Assumptions]", "md_verbatim": "   e. When medical history events are collected with the recording of free text, a record may be entered into the data management system to indicate \"no medical history\" for a specific subject or prespecified body system category (e.g., gastrointestinal). For these subjects or categories within subject, do not include a record in the MH dataset to indicate that there were no events.", "score": 1.0, "match_basis": "verbatim_token+domain_route:MH"}, {"md_atom_id": "md_dmMH_assn_a015", "md_file": "knowledge_base/domains/MH/assumptions.md", "md_atom_type": "LIST_ITEM", "md_parent_section": "§MH [MH — Assumptions]", "md_verbatim": "   a. Information on medical history is generally collected in 2 different ways, either by recording free text or using a prespecified list of terms. The solicitation of information on specific medical history events may affect the frequency at which they are reported; therefore, the fact that a specific medical history event was solicited may be of interest to reviewers. MHPRESP and MHOCCUR are used together to indicate whether the condition in MHTERM was prespecified and whether it occurred. A value of \"Y\" in MHPRESP indicates that the term was prespecified.", "score": 0.5855, "match_basis": "verbatim_token+domain_route:MH"}, {"md_atom_id": "md_dmMH_assn_a010", "md_file": "knowledge_base/domains/MH/assumptions.md", "md_atom_type": "LIST_ITEM", "md_parent_section": "§MH [MH — Assumptions]", "md_verbatim": "   a. MHCAT and MHSCAT may be populated with the sponsor's predefined categorization of medical history events, which are often prespecified on the CRF. Note that even if the sponsor uses the body system terminology from the standard dictionary, MHBODSYS and MHCAT may differ; MHBODSYS is derived from the coding system, whereas MHCAT is effectively assigned when the investigator records a condition under the prespecified category.", "score": 0.5702, "match_basis": "verbatim_token+domain_route:MH"}, {"md_atom_id": "md_dmMH_assn_a018", "md_file": "knowledge_base/domains/MH/assumptions.md", "md_atom_type": "LIST_ITEM", "md_parent_section": "§MH [MH — Assumptions]", "md_verbatim": "   d. MHSTAT and MHREASND provide information about prespecified medical history questions for which no response was collected. MHSTAT and MHREASND are permissible fields and may be omitted from the dataset if all medications were collected as free text or if all prespecified conditions had responses in MHOCCUR.", "score": 0.5508, "match_basis": "verbatim_token+domain_route:MH"}, {"md_atom_id": "md_dmMH_assn_a017", "md_file": "knowledge_base/domains/MH/assumptions.md", "md_atom_type": "LIST_ITEM", "md_parent_section": "§MH [MH — Assumptions]", "md_verbatim": "   c. If a medical history event was reported using free text, the values of MHPRESP and MHOCCUR should be null. MHPRESP and MHOCCUR are permissible fields and may be omitted from the dataset if all medical history events were collected as free text.", "score": 0.5491, "match_basis": "verbatim_token+domain_route:MH"}], "candidate_count": 5, "zero_candidate": false}
{"pdf_atom_id": "ig34_p0174_a0007", "pdf_atom_type": "LIST_ITEM", "pdf_source": "SDTMIG_v3.4", "pdf_page": 174, "pdf_parent_section": "§6.2.6 Medical History (MH)", "pdf_verbatim": "5. Timing variables", "figure_ref": null, "candidates": [{"md_atom_id": "md_dmMH_assn_a025", "md_file": "knowledge_base/domains/MH/assumptions.md", "md_atom_type": "LIST_ITEM", "md_parent_section": "§MH [MH — Assumptions]", "md_verbatim": "5. **Timing variables**", "score": 1.0, "match_basis": "verbatim_token+domain_route:MH"}, {"md_atom_id": "md_dmMH_assn_a027", "md_file": "knowledge_base/domains/MH/assumptions.md", "md_atom_type": "LIST_ITEM", "md_parent_section": "§MH [MH — Assumptions]", "md_verbatim": "   b. Additional timing variables (e.g., MHSTRF) may be used when appropriate.", "score": 0.5833, "match_basis": "verbatim_token+domain_route:MH"}, {"md_atom_id": "md_dmMH_ex_a012", "md_file": "knowledge_base/domains/MH/examples.md", "md_atom_type": "SENTENCE", "md_parent_section": "§MH.1 [Example 1]", "md_verbatim": "See Section 4.4.7, Use of Relative Timing Variables, for further guidance.", "score": 0.4933, "match_basis": "verbatim_token+domain_route:MH"}, {"md_atom_id": "md_dmMH_ex_a036", "md_file": "knowledge_base/domains/MH/examples.md", "md_atom_type": "SENTENCE", "md_parent_section": "§MH.2 [Example 2]", "md_verbatim": "See Section 4.4.7, Use of Relative Timing Variables, for further guidance.", "score": 0.4933, "match_basis": "verbatim_token+domain_route:MH"}, {"md_atom_id": "md_dmMH_assn_a032", "md_file": "knowledge_base/domains/MH/assumptions.md", "md_atom_type": "LIST_ITEM", "md_parent_section": "§MH [MH — Assumptions]", "md_verbatim": "7. Any identifiers, timing variables, or Events general observation-class qualifiers may be added to the MH domain, but the following Qualifiers would generally not be used: --SER, --ACN, --ACNOTH, --REL, --RELNST, --OUT, --SCAN, --SCONG, --SDISAB, --SDTH, --SHOSP, --SLIFE, --SOD, --SMIE.", "score": 0.4688, "match_basis": "verbatim_token+domain_route:MH"}], "candidate_count": 5, "zero_candidate": false}
{"pdf_atom_id": "ig34_p0174_a0008", "pdf_atom_type": "LIST_ITEM", "pdf_source": "SDTMIG_v3.4", "pdf_page": 174, "pdf_parent_section": "§6.2.6 Medical History (MH)", "pdf_verbatim": "a. Relative timing assessments such as \"Ongoing\" or \"Active\" are common in the collection of MH information. MHENRF may be used when this relative timing assessment is coincident with the start of the study reference period for the subject represented in the Demographics (DM) dataset (RFSTDTC). MHENRTPT and MHENTPT may be used when \"Ongoing\" is relative to another date such as the screening visit date. See the examples in this section and in Section 4.4.7, Use of Relative Timing Variables.", "figure_ref": null, "candidates": [{"md_atom_id": "md_dmMH_assn_a026", "md_file": "knowledge_base/domains/MH/assumptions.md", "md_atom_type": "LIST_ITEM", "md_parent_section": "§MH [MH — Assumptions]", "md_verbatim": "   a. Relative timing assessments such as \"Ongoing\" or \"Active\" are common in the collection of MH information. MHENRF may be used when this relative timing assessment is coincident with the start of the study reference period for the subject represented in the Demographics (DM) dataset (RFSTDTC). MHENRTPT and MHENTPT may be used when \"Ongoing\" is relative to another date such as the screening visit date. See the examples in this section and in Section 4.4.7, Use of Relative Timing Variables.", "score": 1.0, "match_basis": "verbatim_token+domain_route:MH"}, {"md_atom_id": "md_dmMH_assn_a029", "md_file": "knowledge_base/domains/MH/assumptions.md", "md_atom_type": "LIST_ITEM", "md_parent_section": "§MH [MH — Assumptions]", "md_verbatim": "   a. MHEVDTYP is a domain-specific variable that can be used to indicate the aspect of the event that is represented in the event start and/or end date/times (MHSTDTC and/or MHENDTC). If a start date and/or end date is collected without further specification of what constitutes the start or end of the event, then MHEVDTYP is not needed. However, when data collection specifies how the start or end date is to be reported, MHEVDTYP can be used to provide this information. For example, when collecting the date of diagnosis, it would be used to populate MHSTDTC; MHEVDTYP would be populated with \"DIAGNOSIS\". If MHEVDTYP is not needed for any collected data, it need not be included in the dataset. If MHEVDTYP is included in the dataset, it should be populated only when the data collection specifies the aspect of the event that is to be used to populate the start and/or end date; otherwise, it should be null.", "score": 0.5636, "match_basis": "verbatim_token+domain_route:MH"}, {"md_atom_id": "md_dmMH_assn_a030", "md_file": "knowledge_base/domains/MH/assumptions.md", "md_atom_type": "LIST_ITEM", "md_parent_section": "§MH [MH — Assumptions]", "md_verbatim": "   b. When data collected about an event includes 2 different dates that could be considered the start or end of an event, then an MH record will be created for each. For example, if data collection included both a date of onset of symptoms and a date of diagnosis, there would be 2 records for the event, one with MHSTDTC the date of onset of symptoms and MHEVDTYP = \"SYMPTOMS\" and a second with MHSTDTC the date of diagnosis and MHENDTYP = \"DIAGNOSIS\". In such a case, it is recommended that the 2 records be linked by means such as a common value of MHSPID or MHGRPID.", "score": 0.5299, "match_basis": "verbatim_token+domain_route:MH"}, {"md_atom_id": "md_dmMH_assn_a013", "md_file": "knowledge_base/domains/MH/assumptions.md", "md_atom_type": "LIST_ITEM", "md_parent_section": "§MH [MH — Assumptions]", "md_verbatim": "   b. MHGRPID may be used to link (or associate) different records together to form a block of related records at the subject level within the MH domain. It should not be used in place of MHCAT or MHSCAT, which are used to group data across subjects. For example, if a group of syndromes reported for a subject were related to a particular disease, then the MHGRPID variable could be populated with the appropriate text.", "score": 0.513, "match_basis": "verbatim_token+domain_route:MH"}, {"md_atom_id": "md_dmMH_assn_a024", "md_file": "knowledge_base/domains/MH/assumptions.md", "md_atom_type": "LIST_ITEM", "md_parent_section": "§MH [MH — Assumptions]", "md_verbatim": "   e. When medical history events are collected with the recording of free text, a record may be entered into the data management system to indicate \"no medical history\" for a specific subject or prespecified body system category (e.g., gastrointestinal). For these subjects or categories within subject, do not include a record in the MH dataset to indicate that there were no events.", "score": 0.5081, "match_basis": "verbatim_token+domain_route:MH"}], "candidate_count": 5, "zero_candidate": false}
{"pdf_atom_id": "ig34_p0174_a0009", "pdf_atom_type": "LIST_ITEM", "pdf_source": "SDTMIG_v3.4", "pdf_page": 174, "pdf_parent_section": "§6.2.6 Medical History (MH)", "pdf_verbatim": "b. Additional timing variables (e.g., MHSTRF) may be used when appropriate.", "figure_ref": null, "candidates": [{"md_atom_id": "md_dmMH_assn_a027", "md_file": "knowledge_base/domains/MH/assumptions.md", "md_atom_type": "LIST_ITEM", "md_parent_section": "§MH [MH — Assumptions]", "md_verbatim": "   b. Additional timing variables (e.g., MHSTRF) may be used when appropriate.", "score": 1.0, "match_basis": "verbatim_token+domain_route:MH"}, {"md_atom_id": "md_dmMH_assn_a025", "md_file": "knowledge_base/domains/MH/assumptions.md", "md_atom_type": "LIST_ITEM", "md_parent_section": "§MH [MH — Assumptions]", "md_verbatim": "5. **Timing variables**", "score": 0.5833, "match_basis": "verbatim_token+domain_route:MH"}, {"md_atom_id": "md_dmMH_assn_a009", "md_file": "knowledge_base/domains/MH/assumptions.md", "md_atom_type": "LIST_ITEM", "md_parent_section": "§MH [MH — Assumptions]", "md_verbatim": "3. **Additional categorization and grouping**", "score": 0.5176, "match_basis": "verbatim_token+domain_route:MH"}, {"md_atom_id": "md_dmMH_assn_a032", "md_file": "knowledge_base/domains/MH/assumptions.md", "md_atom_type": "LIST_ITEM", "md_parent_section": "§MH [MH — Assumptions]", "md_verbatim": "7. Any identifiers, timing variables, or Events general observation-class qualifiers may be added to the MH domain, but the following Qualifiers would generally not be used: --SER, --ACN, --ACNOTH, --REL, --RELNST, --OUT, --SCAN, --SCONG, --SDISAB, --SDTH, --SHOSP, --SLIFE, --SOD, --SMIE.", "score": 0.4887, "match_basis": "verbatim_token+domain_route:MH"}, {"md_atom_id": "md_dmMH_assn_a013", "md_file": "knowledge_base/domains/MH/assumptions.md", "md_atom_type": "LIST_ITEM", "md_parent_section": "§MH [MH — Assumptions]", "md_verbatim": "   b. MHGRPID may be used to link (or associate) different records together to form a block of related records at the subject level within the MH domain. It should not be used in place of MHCAT or MHSCAT, which are used to group data across subjects. For example, if a group of syndromes reported for a subject were related to a particular disease, then the MHGRPID variable could be populated with the appropriate text.", "score": 0.4735, "match_basis": "verbatim_token+domain_route:MH"}], "candidate_count": 5, "zero_candidate": false}
{"pdf_atom_id": "ig34_p0174_a0010", "pdf_atom_type": "LIST_ITEM", "pdf_source": "SDTMIG_v3.4", "pdf_page": 174, "pdf_parent_section": "§6.2.6 Medical History (MH)", "pdf_verbatim": "6. MH event date type", "figure_ref": null, "candidates": [{"md_atom_id": "md_dmMH_assn_a028", "md_file": "knowledge_base/domains/MH/assumptions.md", "md_atom_type": "LIST_ITEM", "md_parent_section": "§MH [MH — Assumptions]", "md_verbatim": "6. **MH event date type**", "score": 1.0, "match_basis": "verbatim_token+domain_route:MH"}, {"md_atom_id": "md_dmMH_assn_a014", "md_file": "knowledge_base/domains/MH/assumptions.md", "md_atom_type": "LIST_ITEM", "md_parent_section": "§MH [MH — Assumptions]", "md_verbatim": "4. **Prespecified terms; presence or absence of events**", "score": 0.4667, "match_basis": "verbatim_token+domain_route:MH"}, {"md_atom_id": "md_dmMH_assn_a016", "md_file": "knowledge_base/domains/MH/assumptions.md", "md_atom_type": "LIST_ITEM", "md_parent_section": "§MH [MH — Assumptions]", "md_verbatim": "   b. MHOCCUR is used to indicate whether a prespecified medical condition occurred; a value of \"Y\" indicates that the event occurred and \"N\" indicates that it did not.", "score": 0.4436, "match_basis": "verbatim_token+domain_route:MH"}, {"md_atom_id": "md_dmMH_assn_a002", "md_file": "knowledge_base/domains/MH/assumptions.md", "md_atom_type": "LIST_ITEM", "md_parent_section": "§MH [MH — Assumptions]", "md_verbatim": "1. Prior treatments, including prior medications and procedures, should be submitted in an appropriate dataset from the Interventions class (e.g., Concomitant/Prior Medications (CM) or Procedures (PR)).", "score": 0.4289, "match_basis": "verbatim_token+domain_route:MH"}, {"md_atom_id": "md_dmMH_assn_a017", "md_file": "knowledge_base/domains/MH/assumptions.md", "md_atom_type": "LIST_ITEM", "md_parent_section": "§MH [MH — Assumptions]", "md_verbatim": "   c. If a medical history event was reported using free text, the values of MHPRESP and MHOCCUR should be null. MHPRESP and MHOCCUR are permissible fields and may be omitted from the dataset if all medical history events were collected as free text.", "score": 0.4273, "match_basis": "verbatim_token+domain_route:MH"}], "candidate_count": 5, "zero_candidate": false}
{"pdf_atom_id": "ig34_p0174_a0011", "pdf_atom_type": "LIST_ITEM", "pdf_source": "SDTMIG_v3.4", "pdf_page": 174, "pdf_parent_section": "§6.2.6 Medical History (MH)", "pdf_verbatim": "a. MHEVDTYP is a domain-specific variable that can be used to indicate the aspect of the event that is represented in the event start and/or end date/times (MHSTDTC and/or MHENDTC). If a start date and/or end date is collected without further specification of what constitutes the start or end of the event, then MHEVDTYP is not needed. However, when data collection specifies how the start or end date is to be reported, MHEVDTYP can be used to provide this information. For example, when collecting the date of diagnosis, it would be used to populate MHSTDTC; MHEVDTYP would be populated with \"DIAGNOSIS\". If MHEVDTYP is not needed for any collected data, it need not be included in the dataset. If MHEVDTYP is included in the dataset, it should be populated only when the data collection specifies the aspect of the event that is to be used to populate the start and/or end date; otherwise, it should be null.", "figure_ref": null, "candidates": [{"md_atom_id": "md_dmMH_assn_a029", "md_file": "knowledge_base/domains/MH/assumptions.md", "md_atom_type": "LIST_ITEM", "md_parent_section": "§MH [MH — Assumptions]", "md_verbatim": "   a. MHEVDTYP is a domain-specific variable that can be used to indicate the aspect of the event that is represented in the event start and/or end date/times (MHSTDTC and/or MHENDTC). If a start date and/or end date is collected without further specification of what constitutes the start or end of the event, then MHEVDTYP is not needed. However, when data collection specifies how the start or end date is to be reported, MHEVDTYP can be used to provide this information. For example, when collecting the date of diagnosis, it would be used to populate MHSTDTC; MHEVDTYP would be populated with \"DIAGNOSIS\". If MHEVDTYP is not needed for any collected data, it need not be included in the dataset. If MHEVDTYP is included in the dataset, it should be populated only when the data collection specifies the aspect of the event that is to be used to populate the start and/or end date; otherwise, it should be null.", "score": 1.0, "match_basis": "verbatim_token+domain_route:MH"}, {"md_atom_id": "md_dmMH_assn_a030", "md_file": "knowledge_base/domains/MH/assumptions.md", "md_atom_type": "LIST_ITEM", "md_parent_section": "§MH [MH — Assumptions]", "md_verbatim": "   b. When data collected about an event includes 2 different dates that could be considered the start or end of an event, then an MH record will be created for each. For example, if data collection included both a date of onset of symptoms and a date of diagnosis, there would be 2 records for the event, one with MHSTDTC the date of onset of symptoms and MHEVDTYP = \"SYMPTOMS\" and a second with MHSTDTC the date of diagnosis and MHENDTYP = \"DIAGNOSIS\". In such a case, it is recommended that the 2 records be linked by means such as a common value of MHSPID or MHGRPID.", "score": 0.5885, "match_basis": "verbatim_token+domain_route:MH"}, {"md_atom_id": "md_dmMH_assn_a026", "md_file": "knowledge_base/domains/MH/assumptions.md", "md_atom_type": "LIST_ITEM", "md_parent_section": "§MH [MH — Assumptions]", "md_verbatim": "   a. Relative timing assessments such as \"Ongoing\" or \"Active\" are common in the collection of MH information. MHENRF may be used when this relative timing assessment is coincident with the start of the study reference period for the subject represented in the Demographics (DM) dataset (RFSTDTC). MHENRTPT and MHENTPT may be used when \"Ongoing\" is relative to another date such as the screening visit date. See the examples in this section and in Section 4.4.7, Use of Relative Timing Variables.", "score": 0.5636, "match_basis": "verbatim_token+domain_route:MH"}, {"md_atom_id": "md_dmMH_assn_a024", "md_file": "knowledge_base/domains/MH/assumptions.md", "md_atom_type": "LIST_ITEM", "md_parent_section": "§MH [MH — Assumptions]", "md_verbatim": "   e. When medical history events are collected with the recording of free text, a record may be entered into the data management system to indicate \"no medical history\" for a specific subject or prespecified body system category (e.g., gastrointestinal). For these subjects or categories within subject, do not include a record in the MH dataset to indicate that there were no events.", "score": 0.5446, "match_basis": "verbatim_token+domain_route:MH"}, {"md_atom_id": "md_dmMH_assn_a013", "md_file": "knowledge_base/domains/MH/assumptions.md", "md_atom_type": "LIST_ITEM", "md_parent_section": "§MH [MH — Assumptions]", "md_verbatim": "   b. MHGRPID may be used to link (or associate) different records together to form a block of related records at the subject level within the MH domain. It should not be used in place of MHCAT or MHSCAT, which are used to group data across subjects. For example, if a group of syndromes reported for a subject were related to a particular disease, then the MHGRPID variable could be populated with the appropriate text.", "score": 0.5317, "match_basis": "verbatim_token+domain_route:MH"}], "candidate_count": 5, "zero_candidate": false}
{"pdf_atom_id": "ig34_p0174_a0012", "pdf_atom_type": "LIST_ITEM", "pdf_source": "SDTMIG_v3.4", "pdf_page": 174, "pdf_parent_section": "§6.2.6 Medical History (MH)", "pdf_verbatim": "b. When data collected about an event includes 2 different dates that could be considered the start or end of an event, then an MH record will be created for each. For example, if data collection included both a date of onset of symptoms and a date of diagnosis, there would be 2 records for the event, one with MHSTDTC the date of onset of symptoms and MHEVDTYP = \"SYMPTOMS\" and a second with MHSTDTC the date of diagnosis and MHENDTYP = \"DIAGNOSIS\". In such a case, it is recommended that the 2 records be linked by means such as a common value of MHSPID or MHGRPID.", "figure_ref": null, "candidates": [{"md_atom_id": "md_dmMH_assn_a030", "md_file": "knowledge_base/domains/MH/assumptions.md", "md_atom_type": "LIST_ITEM", "md_parent_section": "§MH [MH — Assumptions]", "md_verbatim": "   b. When data collected about an event includes 2 different dates that could be considered the start or end of an event, then an MH record will be created for each. For example, if data collection included both a date of onset of symptoms and a date of diagnosis, there would be 2 records for the event, one with MHSTDTC the date of onset of symptoms and MHEVDTYP = \"SYMPTOMS\" and a second with MHSTDTC the date of diagnosis and MHENDTYP = \"DIAGNOSIS\". In such a case, it is recommended that the 2 records be linked by means such as a common value of MHSPID or MHGRPID.", "score": 1.0, "match_basis": "verbatim_token+domain_route:MH"}, {"md_atom_id": "md_dmMH_assn_a029", "md_file": "knowledge_base/domains/MH/assumptions.md", "md_atom_type": "LIST_ITEM", "md_parent_section": "§MH [MH — Assumptions]", "md_verbatim": "   a. MHEVDTYP is a domain-specific variable that can be used to indicate the aspect of the event that is represented in the event start and/or end date/times (MHSTDTC and/or MHENDTC). If a start date and/or end date is collected without further specification of what constitutes the start or end of the event, then MHEVDTYP is not needed. However, when data collection specifies how the start or end date is to be reported, MHEVDTYP can be used to provide this information. For example, when collecting the date of diagnosis, it would be used to populate MHSTDTC; MHEVDTYP would be populated with \"DIAGNOSIS\". If MHEVDTYP is not needed for any collected data, it need not be included in the dataset. If MHEVDTYP is included in the dataset, it should be populated only when the data collection specifies the aspect of the event that is to be used to populate the start and/or end date; otherwise, it should be null.", "score": 0.5885, "match_basis": "verbatim_token+domain_route:MH"}, {"md_atom_id": "md_dmMH_assn_a026", "md_file": "knowledge_base/domains/MH/assumptions.md", "md_atom_type": "LIST_ITEM", "md_parent_section": "§MH [MH — Assumptions]", "md_verbatim": "   a. Relative timing assessments such as \"Ongoing\" or \"Active\" are common in the collection of MH information. MHENRF may be used when this relative timing assessment is coincident with the start of the study reference period for the subject represented in the Demographics (DM) dataset (RFSTDTC). MHENRTPT and MHENTPT may be used when \"Ongoing\" is relative to another date such as the screening visit date. See the examples in this section and in Section 4.4.7, Use of Relative Timing Variables.", "score": 0.5299, "match_basis": "verbatim_token+domain_route:MH"}, {"md_atom_id": "md_dmMH_assn_a013", "md_file": "knowledge_base/domains/MH/assumptions.md", "md_atom_type": "LIST_ITEM", "md_parent_section": "§MH [MH — Assumptions]", "md_verbatim": "   b. MHGRPID may be used to link (or associate) different records together to form a block of related records at the subject level within the MH domain. It should not be used in place of MHCAT or MHSCAT, which are used to group data across subjects. For example, if a group of syndromes reported for a subject were related to a particular disease, then the MHGRPID variable could be populated with the appropriate text.", "score": 0.5091, "match_basis": "verbatim_token+domain_route:MH"}, {"md_atom_id": "md_dmMH_assn_a024", "md_file": "knowledge_base/domains/MH/assumptions.md", "md_atom_type": "LIST_ITEM", "md_parent_section": "§MH [MH — Assumptions]", "md_verbatim": "   e. When medical history events are collected with the recording of free text, a record may be entered into the data management system to indicate \"no medical history\" for a specific subject or prespecified body system category (e.g., gastrointestinal). For these subjects or categories within subject, do not include a record in the MH dataset to indicate that there were no events.", "score": 0.5037, "match_basis": "verbatim_token+domain_route:MH"}], "candidate_count": 5, "zero_candidate": false}
{"pdf_atom_id": "ig34_p0174_a0013", "pdf_atom_type": "LIST_ITEM", "pdf_source": "SDTMIG_v3.4", "pdf_page": 174, "pdf_parent_section": "§6.2.6 Medical History (MH)", "pdf_verbatim": "7. Any identifiers, timing variables, or Events general observation-class qualifiers may be added to the MH domain, but the following Qualifiers would generally not be used: --SER, --ACN, --ACNOTH, --REL, --RELNST, --OUT, --SCAN, --SCONG, --SDISAB, --SDTH, --SHOSP, --SLIFE, --SOD, --SMIE.", "figure_ref": null, "candidates": [{"md_atom_id": "md_dmMH_assn_a032", "md_file": "knowledge_base/domains/MH/assumptions.md", "md_atom_type": "LIST_ITEM", "md_parent_section": "§MH [MH — Assumptions]", "md_verbatim": "7. Any identifiers, timing variables, or Events general observation-class qualifiers may be added to the MH domain, but the following Qualifiers would generally not be used: --SER, --ACN, --ACNOTH, --REL, --RELNST, --OUT, --SCAN, --SCONG, --SDISAB, --SDTH, --SHOSP, --SLIFE, --SOD, --SMIE.", "score": 1.0, "match_basis": "verbatim_token+domain_route:MH"}, {"md_atom_id": "md_dmMH_assn_a029", "md_file": "knowledge_base/domains/MH/assumptions.md", "md_atom_type": "LIST_ITEM", "md_parent_section": "§MH [MH — Assumptions]", "md_verbatim": "   a. MHEVDTYP is a domain-specific variable that can be used to indicate the aspect of the event that is represented in the event start and/or end date/times (MHSTDTC and/or MHENDTC). If a start date and/or end date is collected without further specification of what constitutes the start or end of the event, then MHEVDTYP is not needed. However, when data collection specifies how the start or end date is to be reported, MHEVDTYP can be used to provide this information. For example, when collecting the date of diagnosis, it would be used to populate MHSTDTC; MHEVDTYP would be populated with \"DIAGNOSIS\". If MHEVDTYP is not needed for any collected data, it need not be included in the dataset. If MHEVDTYP is included in the dataset, it should be populated only when the data collection specifies the aspect of the event that is to be used to populate the start and/or end date; otherwise, it should be null.", "score": 0.5005, "match_basis": "verbatim_token+domain_route:MH"}, {"md_atom_id": "md_dmMH_assn_a027", "md_file": "knowledge_base/domains/MH/assumptions.md", "md_atom_type": "LIST_ITEM", "md_parent_section": "§MH [MH — Assumptions]", "md_verbatim": "   b. Additional timing variables (e.g., MHSTRF) may be used when appropriate.", "score": 0.4887, "match_basis": "verbatim_token+domain_route:MH"}, {"md_atom_id": "md_dmMH_assn_a011", "md_file": "knowledge_base/domains/MH/assumptions.md", "md_atom_type": "LIST_ITEM", "md_parent_section": "§MH [MH — Assumptions]", "md_verbatim": "      i. This categorization should not group all records (within the MH domain) into one generic group such as \"Medical Medical History\" or \"General Medical History\" because this is redundant information with the domain code. If no smaller categorization can be applied, then it is not necessary to include or populate this variable.", "score": 0.4862, "match_basis": "verbatim_token+domain_route:MH"}, {"md_atom_id": "md_dmMH_assn_a004", "md_file": "knowledge_base/domains/MH/assumptions.md", "md_atom_type": "LIST_ITEM", "md_parent_section": "§MH [MH — Assumptions]", "md_verbatim": "   a. MHTERM is the topic variable and captures the verbatim term collected for the condition or event or the prespecified term used to collect information about the occurrence of any of a group of conditions or events. MHTERM is a required variable and must have a value.", "score": 0.4841, "match_basis": "verbatim_token+domain_route:MH"}], "candidate_count": 5, "zero_candidate": false}
{"pdf_atom_id": "ig34_p0175_a0001", "pdf_atom_type": "HEADING", "pdf_source": "SDTMIG_v3.4", "pdf_page": 175, "pdf_parent_section": "§6.2.6 Medical History (MH)", "pdf_verbatim": "MH – Examples", "figure_ref": null, "candidates": [{"md_atom_id": "md_dmMH_ex_a001", "md_file": "knowledge_base/domains/MH/examples.md", "md_atom_type": "HEADING", "md_parent_section": "§MH [MH — Examples]", "md_verbatim": "# MH — Examples", "score": 1.0, "match_basis": "verbatim_token+domain_route:MH"}, {"md_atom_id": "md_dmMH_ex_a002", "md_file": "knowledge_base/domains/MH/examples.md", "md_atom_type": "HEADING", "md_parent_section": "§MH [MH — Examples]", "md_verbatim": "## Example 1", "score": 0.9, "match_basis": "verbatim_token+domain_route:MH"}, {"md_atom_id": "md_dmMH_ex_a024", "md_file": "knowledge_base/domains/MH/examples.md", "md_atom_type": "HEADING", "md_parent_section": "§MH [MH — Examples]", "md_verbatim": "## Example 2", "score": 0.9, "match_basis": "verbatim_token+domain_route:MH"}, {"md_atom_id": "md_dmMH_ex_a053", "md_file": "knowledge_base/domains/MH/examples.md", "md_atom_type": "HEADING", "md_parent_section": "§MH [MH — Examples]", "md_verbatim": "## Example 3", "score": 0.9, "match_basis": "verbatim_token+domain_route:MH"}, {"md_atom_id": "md_dmMH_ex_a074", "md_file": "knowledge_base/domains/MH/examples.md", "md_atom_type": "HEADING", "md_parent_section": "§MH [MH — Examples]", "md_verbatim": "## Example 4", "score": 0.9, "match_basis": "verbatim_token+domain_route:MH"}], "candidate_count": 5, "zero_candidate": false}
{"pdf_atom_id": "ig34_p0175_a0002", "pdf_atom_type": "SENTENCE", "pdf_source": "SDTMIG_v3.4", "pdf_page": 175, "pdf_parent_section": "§6.2.6 Medical History (MH)", "pdf_verbatim": "Example 1", "figure_ref": null, "candidates": [{"md_atom_id": "md_dmMH_ex_a002", "md_file": "knowledge_base/domains/MH/examples.md", "md_atom_type": "HEADING", "md_parent_section": "§MH [MH — Examples]", "md_verbatim": "## Example 1", "score": 0.76, "match_basis": "verbatim_token+domain_route:MH"}, {"md_atom_id": "md_dmMH_ex_a024", "md_file": "knowledge_base/domains/MH/examples.md", "md_atom_type": "HEADING", "md_parent_section": "§MH [MH — Examples]", "md_verbatim": "## Example 2", "score": 0.76, "match_basis": "verbatim_token+domain_route:MH"}, {"md_atom_id": "md_dmMH_ex_a053", "md_file": "knowledge_base/domains/MH/examples.md", "md_atom_type": "HEADING", "md_parent_section": "§MH [MH — Examples]", "md_verbatim": "## Example 3", "score": 0.76, "match_basis": "verbatim_token+domain_route:MH"}, {"md_atom_id": "md_dmMH_ex_a074", "md_file": "knowledge_base/domains/MH/examples.md", "md_atom_type": "HEADING", "md_parent_section": "§MH [MH — Examples]", "md_verbatim": "## Example 4", "score": 0.76, "match_basis": "verbatim_token+domain_route:MH"}, {"md_atom_id": "md_dmMH_ex_a088", "md_file": "knowledge_base/domains/MH/examples.md", "md_atom_type": "HEADING", "md_parent_section": "§MH [MH — Examples]", "md_verbatim": "## Example 5", "score": 0.76, "match_basis": "verbatim_token+domain_route:MH"}, {"md_atom_id": "md_dmMH_ex_a001", "md_file": "knowledge_base/domains/MH/examples.md", "md_atom_type": "HEADING", "md_parent_section": "§MH [MH — Examples]", "md_verbatim": "# MH — Examples", "score": 0.66, "match_basis": "verbatim_token+domain_route:MH"}, {"md_atom_id": "md_dmMH_ex_a090", "md_file": "knowledge_base/domains/MH/examples.md", "md_atom_type": "SENTENCE", "md_parent_section": "§MH.5 [Example 5]", "md_verbatim": "The example shows data for 2 subjects.", "score": 0.5667, "match_basis": "verbatim_token+domain_route:MH"}, {"md_atom_id": "md_dmMH_ex_a025", "md_file": "knowledge_base/domains/MH/examples.md", "md_atom_type": "SENTENCE", "md_parent_section": "§MH.2 [Example 2]", "md_verbatim": "In this example, data from 3 CRF modules related to medical history were collected:", "score": 0.4769, "match_basis": "verbatim_token+domain_route:MH"}, {"md_atom_id": "md_dmMH_ex_a054", "md_file": "knowledge_base/domains/MH/examples.md", "md_atom_type": "SENTENCE", "md_parent_section": "§MH.3 [Example 3]", "md_verbatim": "This is an example of a medical history CRF where the history of specific (prespecified) conditions is solicited.", "score": 0.4638, "match_basis": "verbatim_token+domain_route:MH"}, {"md_atom_id": "md_dmMH_ex_a089", "md_file": "knowledge_base/domains/MH/examples.md", "md_atom_type": "SENTENCE", "md_parent_section": "§MH.5 [Example 5]", "md_verbatim": "This example shows data from a study in which data were collected about whether subjects had had any respiratory infections in the prior 6 months and, if they had, collected data on those respiratory infections.", "score": 0.4417, "match_basis": "verbatim_token+domain_route:MH"}], "candidate_count": 10, "zero_candidate": false}
{"pdf_atom_id": "ig34_p0175_a0003", "pdf_atom_type": "SENTENCE", "pdf_source": "SDTMIG_v3.4", "pdf_page": 175, "pdf_parent_section": "§6.2.6 Medical History (MH)", "pdf_verbatim": "In this example, a General Medical History CRF collected verbatim descriptions of conditions and events by body system (e.g., endocrine, metabolic), did not collect start date, but asked whether or not the condition was ongoing at the time of the visit. Another CRF page was used for cardiac history events. This page asked for date of onset of symptoms and date of diagnosis, but did not include the ongoing question.", "figure_ref": null, "candidates": [{"md_atom_id": "md_dmMH_ex_a003", "md_file": "knowledge_base/domains/MH/examples.md", "md_atom_type": "SENTENCE", "md_parent_section": "§MH.1 [Example 1]", "md_verbatim": "In this example, a General Medical History CRF collected verbatim descriptions of conditions and events by body system (e.g., endocrine, metabolic), did not collect start date, but asked whether or not the condition was ongoing at the time of the visit.", "score": 0.8444, "match_basis": "verbatim_token+domain_route:MH"}, {"md_atom_id": "md_dmMH_ex_a026", "md_file": "knowledge_base/domains/MH/examples.md", "md_atom_type": "LIST_ITEM", "md_parent_section": "§MH.2 [Example 2]", "md_verbatim": "- A General Medical History CRF collected descriptions of conditions and events by body system (e.g., endocrine, metabolic) and asked whether the conditions were ongoing at study start. The reported events were coded using a standard dictionary.", "score": 0.61, "match_basis": "verbatim_token+domain_route:MH"}, {"md_atom_id": "md_dmMH_ex_a005", "md_file": "knowledge_base/domains/MH/examples.md", "md_atom_type": "SENTENCE", "md_parent_section": "§MH.1 [Example 1]", "md_verbatim": "This page asked for date of onset of symptoms and date of diagnosis, but did not include the ongoing question.", "score": 0.6089, "match_basis": "verbatim_token+domain_route:MH"}, {"md_atom_id": "md_dmMH_ex_a015", "md_file": "knowledge_base/domains/MH/examples.md", "md_atom_type": "SENTENCE", "md_parent_section": "§MH.1 [Example 1]", "md_verbatim": "Because 2 kinds of start date were collected for congestive heart failure, there are 2 records for this event, with start dates with MHEVDTYP = \"SYMPTOM ONSET\" and MHEVDTYP = \"DIAGNOSIS\".", "score": 0.5447, "match_basis": "verbatim_token+domain_route:MH"}, {"md_atom_id": "md_dmMH_ex_a009", "md_file": "knowledge_base/domains/MH/examples.md", "md_atom_type": "SENTENCE", "md_parent_section": "§MH.1 [Example 1]", "md_verbatim": "MHENRTPT was populated based on the response to the \"Ongoing at Study Start\" question on the General Medical History CRF.", "score": 0.5432, "match_basis": "verbatim_token+domain_route:MH"}], "candidate_count": 5, "zero_candidate": false}
{"pdf_atom_id": "ig34_p0175_a0004", "pdf_atom_type": "LIST_ITEM", "pdf_source": "SDTMIG_v3.4", "pdf_page": 175, "pdf_parent_section": "§6.2.6 Medical History (MH)", "pdf_verbatim": "Rows 1-3: MHCAT indicates that these data were collected on the General Medical History CRF, and MHSCAT indicates the body system for which the event was collected. The reported events were coded using a standard dictionary. MHDECOD and MHBODSYS display the preferred term and body system assigned through the coding process. MHENRTPT was populated based on the response to the \"Ongoing\" question on the General Medical History CRF. MHENTPT displays the reference date for MHENRTPT, that is, the date the information was collected. If \"Yes\" was specified for Ongoing, MHENRTPT = \"ONGOING\"; if \"No\" was checked, MHENRTPT = \"BEFORE\". See Section 4.4.7, Use of Relative Timing Variables, for further guidance.", "figure_ref": null, "candidates": [{"md_atom_id": "md_dmMH_assn_a008", "md_file": "knowledge_base/domains/MH/assumptions.md", "md_atom_type": "LIST_ITEM", "md_parent_section": "§MH [MH — Assumptions]", "md_verbatim": "   e. If a CRF collects medical history by prespecified body systems and the sponsor also codes reported terms using a standard dictionary, then MHDECOD and MHBODSYS are populated using the standard dictionary. MHCAT and MHSCAT should be used for the prespecified body systems.", "score": 0.6378, "match_basis": "verbatim_token+domain_route:MH"}, {"md_atom_id": "md_dmMH_assn_a010", "md_file": "knowledge_base/domains/MH/assumptions.md", "md_atom_type": "LIST_ITEM", "md_parent_section": "§MH [MH — Assumptions]", "md_verbatim": "   a. MHCAT and MHSCAT may be populated with the sponsor's predefined categorization of medical history events, which are often prespecified on the CRF. Note that even if the sponsor uses the body system terminology from the standard dictionary, MHBODSYS and MHCAT may differ; MHBODSYS is derived from the coding system, whereas MHCAT is effectively assigned when the investigator records a condition under the prespecified category.", "score": 0.618, "match_basis": "verbatim_token+domain_route:MH"}, {"md_atom_id": "md_dmMH_assn_a015", "md_file": "knowledge_base/domains/MH/assumptions.md", "md_atom_type": "LIST_ITEM", "md_parent_section": "§MH [MH — Assumptions]", "md_verbatim": "   a. Information on medical history is generally collected in 2 different ways, either by recording free text or using a prespecified list of terms. The solicitation of information on specific medical history events may affect the frequency at which they are reported; therefore, the fact that a specific medical history event was solicited may be of interest to reviewers. MHPRESP and MHOCCUR are used together to indicate whether the condition in MHTERM was prespecified and whether it occurred. A value of \"Y\" in MHPRESP indicates that the term was prespecified.", "score": 0.589, "match_basis": "verbatim_token+domain_route:MH"}, {"md_atom_id": "md_dmMH_ex_a026", "md_file": "knowledge_base/domains/MH/examples.md", "md_atom_type": "LIST_ITEM", "md_parent_section": "§MH.2 [Example 2]", "md_verbatim": "- A General Medical History CRF collected descriptions of conditions and events by body system (e.g., endocrine, metabolic) and asked whether the conditions were ongoing at study start. The reported events were coded using a standard dictionary.", "score": 0.5714, "match_basis": "verbatim_token+domain_route:MH"}, {"md_atom_id": "md_dmMH_assn_a029", "md_file": "knowledge_base/domains/MH/assumptions.md", "md_atom_type": "LIST_ITEM", "md_parent_section": "§MH [MH — Assumptions]", "md_verbatim": "   a. MHEVDTYP is a domain-specific variable that can be used to indicate the aspect of the event that is represented in the event start and/or end date/times (MHSTDTC and/or MHENDTC). If a start date and/or end date is collected without further specification of what constitutes the start or end of the event, then MHEVDTYP is not needed. However, when data collection specifies how the start or end date is to be reported, MHEVDTYP can be used to provide this information. For example, when collecting the date of diagnosis, it would be used to populate MHSTDTC; MHEVDTYP would be populated with \"DIAGNOSIS\". If MHEVDTYP is not needed for any collected data, it need not be included in the dataset. If MHEVDTYP is included in the dataset, it should be populated only when the data collection specifies the aspect of the event that is to be used to populate the start and/or end date; otherwise, it should be null.", "score": 0.5572, "match_basis": "verbatim_token+domain_route:MH"}], "candidate_count": 5, "zero_candidate": false}
{"pdf_atom_id": "ig34_p0175_a0005", "pdf_atom_type": "LIST_ITEM", "pdf_source": "SDTMIG_v3.4", "pdf_page": 175, "pdf_parent_section": "§6.2.6 Medical History (MH)", "pdf_verbatim": "Rows 4-5: MHCAT indicates that these data were collected on the Cardiac Medical History CRF. Because 2 kinds of start date were collected for congestive heart failure, there are 2 records for this event, with start dates of MHEVDTYP = \"SYMPTOM ONSET\" and MHEVDTYP = \"DIAGNOSIS\". The sponsor grouped these 2 records using the MHGRPID value \"CHF\".", "figure_ref": null, "candidates": [{"md_atom_id": "md_dmMH_ex_a015", "md_file": "knowledge_base/domains/MH/examples.md", "md_atom_type": "SENTENCE", "md_parent_section": "§MH.1 [Example 1]", "md_verbatim": "Because 2 kinds of start date were collected for congestive heart failure, there are 2 records for this event, with start dates with MHEVDTYP = \"SYMPTOM ONSET\" and MHEVDTYP = \"DIAGNOSIS\".", "score": 0.6838, "match_basis": "verbatim_token+domain_route:MH"}, {"md_atom_id": "md_dmMH_assn_a030", "md_file": "knowledge_base/domains/MH/assumptions.md", "md_atom_type": "LIST_ITEM", "md_parent_section": "§MH [MH — Assumptions]", "md_verbatim": "   b. When data collected about an event includes 2 different dates that could be considered the start or end of an event, then an MH record will be created for each. For example, if data collection included both a date of onset of symptoms and a date of diagnosis, there would be 2 records for the event, one with MHSTDTC the date of onset of symptoms and MHEVDTYP = \"SYMPTOMS\" and a second with MHSTDTC the date of diagnosis and MHENDTYP = \"DIAGNOSIS\". In such a case, it is recommended that the 2 records be linked by means such as a common value of MHSPID or MHGRPID.", "score": 0.5867, "match_basis": "verbatim_token+domain_route:MH"}, {"md_atom_id": "md_dmMH_assn_a024", "md_file": "knowledge_base/domains/MH/assumptions.md", "md_atom_type": "LIST_ITEM", "md_parent_section": "§MH [MH — Assumptions]", "md_verbatim": "   e. When medical history events are collected with the recording of free text, a record may be entered into the data management system to indicate \"no medical history\" for a specific subject or prespecified body system category (e.g., gastrointestinal). For these subjects or categories within subject, do not include a record in the MH dataset to indicate that there were no events.", "score": 0.5556, "match_basis": "verbatim_token+domain_route:MH"}, {"md_atom_id": "md_dmMH_assn_a029", "md_file": "knowledge_base/domains/MH/assumptions.md", "md_atom_type": "LIST_ITEM", "md_parent_section": "§MH [MH — Assumptions]", "md_verbatim": "   a. MHEVDTYP is a domain-specific variable that can be used to indicate the aspect of the event that is represented in the event start and/or end date/times (MHSTDTC and/or MHENDTC). If a start date and/or end date is collected without further specification of what constitutes the start or end of the event, then MHEVDTYP is not needed. However, when data collection specifies how the start or end date is to be reported, MHEVDTYP can be used to provide this information. For example, when collecting the date of diagnosis, it would be used to populate MHSTDTC; MHEVDTYP would be populated with \"DIAGNOSIS\". If MHEVDTYP is not needed for any collected data, it need not be included in the dataset. If MHEVDTYP is included in the dataset, it should be populated only when the data collection specifies the aspect of the event that is to be used to populate the start and/or end date; otherwise, it should be null.", "score": 0.5345, "match_basis": "verbatim_token+domain_route:MH"}, {"md_atom_id": "md_dmMH_assn_a015", "md_file": "knowledge_base/domains/MH/assumptions.md", "md_atom_type": "LIST_ITEM", "md_parent_section": "§MH [MH — Assumptions]", "md_verbatim": "   a. Information on medical history is generally collected in 2 different ways, either by recording free text or using a prespecified list of terms. The solicitation of information on specific medical history events may affect the frequency at which they are reported; therefore, the fact that a specific medical history event was solicited may be of interest to reviewers. MHPRESP and MHOCCUR are used together to indicate whether the condition in MHTERM was prespecified and whether it occurred. A value of \"Y\" in MHPRESP indicates that the term was prespecified.", "score": 0.5289, "match_basis": "verbatim_token+domain_route:MH"}], "candidate_count": 5, "zero_candidate": false}
{"pdf_atom_id": "ig34_p0175_a0006", "pdf_atom_type": "CODE_LITERAL", "pdf_source": "SDTMIG_v3.4", "pdf_page": 175, "pdf_parent_section": "§6.2.6 Medical History (MH)", "pdf_verbatim": "mh.xpt", "figure_ref": null, "candidates": [{"md_atom_id": "md_dmMH_ex_a017", "md_file": "knowledge_base/domains/MH/examples.md", "md_atom_type": "SENTENCE", "md_parent_section": "§MH.1 [Example 1]", "md_verbatim": "**mh.xpt**", "score": 0.79, "match_basis": "verbatim_token+domain_route:MH"}, {"md_atom_id": "md_dmMH_ex_a043", "md_file": "knowledge_base/domains/MH/examples.md", "md_atom_type": "SENTENCE", "md_parent_section": "§MH.2 [Example 2]", "md_verbatim": "**mh.xpt**", "score": 0.79, "match_basis": "verbatim_token+domain_route:MH"}, {"md_atom_id": "md_dmMH_ex_a062", "md_file": "knowledge_base/domains/MH/examples.md", "md_atom_type": "SENTENCE", "md_parent_section": "§MH.3 [Example 3]", "md_verbatim": "**mh.xpt**", "score": 0.79, "match_basis": "verbatim_token+domain_route:MH"}, {"md_atom_id": "md_dmMH_ex_a082", "md_file": "knowledge_base/domains/MH/examples.md", "md_atom_type": "SENTENCE", "md_parent_section": "§MH.4 [Example 4]", "md_verbatim": "**mh.xpt**", "score": 0.79, "match_basis": "verbatim_token+domain_route:MH"}, {"md_atom_id": "md_dmMH_ex_a097", "md_file": "knowledge_base/domains/MH/examples.md", "md_atom_type": "SENTENCE", "md_parent_section": "§MH.5 [Example 5]", "md_verbatim": "**mh.xpt**", "score": 0.79, "match_basis": "verbatim_token+domain_route:MH"}, {"md_atom_id": "md_dmMH_assn_a001", "md_file": "knowledge_base/domains/MH/assumptions.md", "md_atom_type": "HEADING", "md_parent_section": "§MH [MH — Assumptions]", "md_verbatim": "# MH — Assumptions", "score": 0.19, "match_basis": "verbatim_token+domain_route:MH"}, {"md_atom_id": "md_dmMH_assn_a002", "md_file": "knowledge_base/domains/MH/assumptions.md", "md_atom_type": "LIST_ITEM", "md_parent_section": "§MH [MH — Assumptions]", "md_verbatim": "1. Prior treatments, including prior medications and procedures, should be submitted in an appropriate dataset from the Interventions class (e.g., Concomitant/Prior Medications (CM) or Procedures (PR)).", "score": 0.19, "match_basis": "verbatim_token+domain_route:MH"}, {"md_atom_id": "md_dmMH_assn_a003", "md_file": "knowledge_base/domains/MH/assumptions.md", "md_atom_type": "LIST_ITEM", "md_parent_section": "§MH [MH — Assumptions]", "md_verbatim": "2. **MH description and coding**", "score": 0.19, "match_basis": "verbatim_token+domain_route:MH"}, {"md_atom_id": "md_dmMH_assn_a004", "md_file": "knowledge_base/domains/MH/assumptions.md", "md_atom_type": "LIST_ITEM", "md_parent_section": "§MH [MH — Assumptions]", "md_verbatim": "   a. MHTERM is the topic variable and captures the verbatim term collected for the condition or event or the prespecified term used to collect information about the occurrence of any of a group of conditions or events. MHTERM is a required variable and must have a value.", "score": 0.19, "match_basis": "verbatim_token+domain_route:MH"}, {"md_atom_id": "md_dmMH_assn_a005", "md_file": "knowledge_base/domains/MH/assumptions.md", "md_atom_type": "LIST_ITEM", "md_parent_section": "§MH [MH — Assumptions]", "md_verbatim": "   b. MHMODIFY is a permissible variable and should be included if the sponsor's procedure permits modification of a verbatim term for coding. The variable should be populated as per the sponsor's procedures; null values are permitted.", "score": 0.19, "match_basis": "verbatim_token+domain_route:MH"}], "candidate_count": 10, "zero_candidate": false}
{"pdf_atom_id": "ig34_p0175_a0007", "pdf_atom_type": "TABLE_HEADER", "pdf_source": "SDTMIG_v3.4", "pdf_page": 175, "pdf_parent_section": "§6.2.6 Medical History (MH)", "pdf_verbatim": "| Row | STUDYID | DOMAIN | USUBJID | MHSEQ | MHGRPID | MHTERM | MHDECOD | MHEVDTYP | MHCAT | MHSCAT | MHBODSYS | MHSTDTC | MHENRTPT | MHENTPT |", "figure_ref": null, "candidates": [{"md_atom_id": "md_dmMH_ex_a018", "md_file": "knowledge_base/domains/MH/examples.md", "md_atom_type": "TABLE_HEADER", "md_parent_section": "§MH.1 [Example 1]", "md_verbatim": "| Row | STUDYID | DOMAIN | USUBJID | MHSEQ | MHGRPID | MHTERM | MHDECOD | MHCAT | MHSCAT | MHBODSYS | MHSTDTC | MHENRTPT | MHENTPT |\n|-----|---------|--------|---------|-------|---------|--------|---------|-------|--------|----------|---------|----------|---------|", "score": 0.95, "match_basis": "verbatim_token+domain_route:MH"}, {"md_atom_id": "md_dmMH_ex_a044", "md_file": "knowledge_base/domains/MH/examples.md", "md_atom_type": "TABLE_HEADER", "md_parent_section": "§MH.2 [Example 2]", "md_verbatim": "| Row | STUDYID | DOMAIN | USUBJID | MHSEQ | MHTERM | MHDECOD | MHCAT | MHSCAT | MHBODSYS | MHPRESP | MHOCCUR | MHSTDTC | MHENRF |\n|-----|---------|--------|---------|-------|--------|---------|-------|--------|----------|---------|---------|---------|--------|", "score": 0.7803, "match_basis": "verbatim_token+domain_route:MH"}, {"md_atom_id": "md_dmMH_ex_a083", "md_file": "knowledge_base/domains/MH/examples.md", "md_atom_type": "TABLE_HEADER", "md_parent_section": "§MH.4 [Example 4]", "md_verbatim": "| Row | STUDYID | DOMAIN | USUBJID | MHSEQ | MHTERM | MHDECOD | MHEVDTYP | MHCAT | MHPRESP | MHOCCUR | MHDTC | MHSTDTC |\n|-----|---------|--------|---------|-------|--------|---------|----------|-------|---------|---------|-------|---------|", "score": 0.738, "match_basis": "verbatim_token+domain_route:MH"}, {"md_atom_id": "md_dmMH_ex_a098", "md_file": "knowledge_base/domains/MH/examples.md", "md_atom_type": "TABLE_HEADER", "md_parent_section": "§MH.5 [Example 5]", "md_verbatim": "| Row | STUDYID | DOMAIN | USUBJID | MHSEQ | MHTERM | MHCAT | MHPRESP | MHOCCUR | MHDTC | MHENDTC | MHDY | MHEVLINT | MHENRTPT | MHENTPT |\n|-----|---------|--------|---------|-------|--------|-------|---------|---------|-------|---------|------|----------|----------|---------|", "score": 0.6769, "match_basis": "verbatim_token+domain_route:MH"}, {"md_atom_id": "md_dmMH_ex_a063", "md_file": "knowledge_base/domains/MH/examples.md", "md_atom_type": "TABLE_HEADER", "md_parent_section": "§MH.3 [Example 3]", "md_verbatim": "| Row | STUDYID | DOMAIN | USUBJID | MHSEQ | MHTERM | MHDECOD | MHPRESP | MHOCCUR | MHSTAT | MHREASND | VISITNUM | VISIT | MHDTC | MHDY |\n|-----|---------|--------|---------|-------|--------|---------|---------|---------|--------|----------|----------|-------|-------|------|", "score": 0.6023, "match_basis": "verbatim_token+domain_route:MH"}], "candidate_count": 5, "zero_candidate": false}
{"pdf_atom_id": "ig34_p0175_a0008", "pdf_atom_type": "TABLE_ROW", "pdf_source": "SDTMIG_v3.4", "pdf_page": 175, "pdf_parent_section": "§6.2.6 Medical History (MH)", "pdf_verbatim": "| 1 | ABC123 | MH | 123101 | 1 | | ASTHMA | Asthma | | GENERAL MEDICAL HISTORY | RESPIRATORY | Respiratory system disorders | | ONGOING | 2004-09-18 |", "figure_ref": null, "candidates": [{"md_atom_id": "md_dmMH_ex_a019", "md_file": "knowledge_base/domains/MH/examples.md", "md_atom_type": "TABLE_ROW", "md_parent_section": "§MH.1 [Example 1]", "md_verbatim": "| 1 | ABC123 | MH | 123101 | 1 | | ASTHMA | Asthma | GENERAL MEDICAL HISTORY | RESPIRATORY | Respiratory system disorders | 2004-09-18 | ONGOING | |", "score": 1.0, "match_basis": "verbatim_token+domain_route:MH"}, {"md_atom_id": "md_dmMH_ex_a045", "md_file": "knowledge_base/domains/MH/examples.md", "md_atom_type": "TABLE_ROW", "md_parent_section": "§MH.2 [Example 2]", "md_verbatim": "| 1 | ABC123 | MH | 123101 | 1 | ASTHMA | Asthma | GENERAL MEDICAL HISTORY | RESPIRATORY | Respiratory system disorders | | | | DURING/AFTER |", "score": 0.8737, "match_basis": "verbatim_token+domain_route:MH"}, {"md_atom_id": "md_dmMH_ex_a020", "md_file": "knowledge_base/domains/MH/examples.md", "md_atom_type": "TABLE_ROW", "md_parent_section": "§MH.1 [Example 1]", "md_verbatim": "| 2 | ABC123 | MH | 123101 | 2 | | FREQUENT HEADACHES | Headache | GENERAL MEDICAL HISTORY | CNS | Central and peripheral nervous system disorders | 2004-09-18 | ONGOING | |", "score": 0.7038, "match_basis": "verbatim_token+domain_route:MH"}, {"md_atom_id": "md_dmMH_ex_a021", "md_file": "knowledge_base/domains/MH/examples.md", "md_atom_type": "TABLE_ROW", "md_parent_section": "§MH.1 [Example 1]", "md_verbatim": "| 3 | ABC123 | MH | 123101 | 3 | | BROKEN LEG | Bone fracture | GENERAL MEDICAL HISTORY | OTHER | Musculoskeletal system disorders | 2004-09-18 | BEFORE | |", "score": 0.65, "match_basis": "verbatim_token+domain_route:MH"}, {"md_atom_id": "md_dmMH_ex_a046", "md_file": "knowledge_base/domains/MH/examples.md", "md_atom_type": "TABLE_ROW", "md_parent_section": "§MH.2 [Example 2]", "md_verbatim": "| 2 | ABC123 | MH | 123101 | 2 | FREQUENT HEADACHES | Headache | GENERAL MEDICAL HISTORY | CNS | Central and peripheral nervous system disorders | | | | DURING/AFTER |", "score": 0.64, "match_basis": "verbatim_token+domain_route:MH"}], "candidate_count": 5, "zero_candidate": false}
{"pdf_atom_id": "ig34_p0175_a0009", "pdf_atom_type": "TABLE_ROW", "pdf_source": "SDTMIG_v3.4", "pdf_page": 175, "pdf_parent_section": "§6.2.6 Medical History (MH)", "pdf_verbatim": "| 2 | ABC123 | MH | 123101 | 2 | | FREQUENT HEADACHES | Headache | | GENERAL MEDICAL HISTORY | CNS | Central and peripheral nervous system disorders | | ONGOING | 2004-09-18 |", "figure_ref": null, "candidates": [{"md_atom_id": "md_dmMH_ex_a020", "md_file": "knowledge_base/domains/MH/examples.md", "md_atom_type": "TABLE_ROW", "md_parent_section": "§MH.1 [Example 1]", "md_verbatim": "| 2 | ABC123 | MH | 123101 | 2 | | FREQUENT HEADACHES | Headache | GENERAL MEDICAL HISTORY | CNS | Central and peripheral nervous system disorders | 2004-09-18 | ONGOING | |", "score": 1.0, "match_basis": "verbatim_token+domain_route:MH"}, {"md_atom_id": "md_dmMH_ex_a046", "md_file": "knowledge_base/domains/MH/examples.md", "md_atom_type": "TABLE_ROW", "md_parent_section": "§MH.2 [Example 2]", "md_verbatim": "| 2 | ABC123 | MH | 123101 | 2 | FREQUENT HEADACHES | Headache | GENERAL MEDICAL HISTORY | CNS | Central and peripheral nervous system disorders | | | | DURING/AFTER |", "score": 0.9027, "match_basis": "verbatim_token+domain_route:MH"}, {"md_atom_id": "md_dmMH_ex_a019", "md_file": "knowledge_base/domains/MH/examples.md", "md_atom_type": "TABLE_ROW", "md_parent_section": "§MH.1 [Example 1]", "md_verbatim": "| 1 | ABC123 | MH | 123101 | 1 | | ASTHMA | Asthma | GENERAL MEDICAL HISTORY | RESPIRATORY | Respiratory system disorders | 2004-09-18 | ONGOING | |", "score": 0.7038, "match_basis": "verbatim_token+domain_route:MH"}, {"md_atom_id": "md_dmMH_ex_a045", "md_file": "knowledge_base/domains/MH/examples.md", "md_atom_type": "TABLE_ROW", "md_parent_section": "§MH.2 [Example 2]", "md_verbatim": "| 1 | ABC123 | MH | 123101 | 1 | ASTHMA | Asthma | GENERAL MEDICAL HISTORY | RESPIRATORY | Respiratory system disorders | | | | DURING/AFTER |", "score": 0.64, "match_basis": "verbatim_token+domain_route:MH"}, {"md_atom_id": "md_dmMH_ex_a021", "md_file": "knowledge_base/domains/MH/examples.md", "md_atom_type": "TABLE_ROW", "md_parent_section": "§MH.1 [Example 1]", "md_verbatim": "| 3 | ABC123 | MH | 123101 | 3 | | BROKEN LEG | Bone fracture | GENERAL MEDICAL HISTORY | OTHER | Musculoskeletal system disorders | 2004-09-18 | BEFORE | |", "score": 0.616, "match_basis": "verbatim_token+domain_route:MH"}], "candidate_count": 5, "zero_candidate": false}
{"pdf_atom_id": "ig34_p0175_a0010", "pdf_atom_type": "TABLE_ROW", "pdf_source": "SDTMIG_v3.4", "pdf_page": 175, "pdf_parent_section": "§6.2.6 Medical History (MH)", "pdf_verbatim": "| 3 | ABC123 | MH | 123101 | 3 | | BROKEN LEG | Bone fracture | | GENERAL MEDICAL HISTORY | OTHER | Musculoskeletal system disorders | | BEFORE | 2004-09-18 |", "figure_ref": null, "candidates": [{"md_atom_id": "md_dmMH_ex_a021", "md_file": "knowledge_base/domains/MH/examples.md", "md_atom_type": "TABLE_ROW", "md_parent_section": "§MH.1 [Example 1]", "md_verbatim": "| 3 | ABC123 | MH | 123101 | 3 | | BROKEN LEG | Bone fracture | GENERAL MEDICAL HISTORY | OTHER | Musculoskeletal system disorders | 2004-09-18 | BEFORE | |", "score": 1.0, "match_basis": "verbatim_token+domain_route:MH"}, {"md_atom_id": "md_dmMH_ex_a047", "md_file": "knowledge_base/domains/MH/examples.md", "md_atom_type": "TABLE_ROW", "md_parent_section": "§MH.2 [Example 2]", "md_verbatim": "| 3 | ABC123 | MH | 123101 | 3 | BROKEN LEG | Bone fracture | GENERAL MEDICAL HISTORY | OTHER | Musculoskeletal system disorders | | | | BEFORE |", "score": 0.9824, "match_basis": "verbatim_token+domain_route:MH"}, {"md_atom_id": "md_dmMH_ex_a019", "md_file": "knowledge_base/domains/MH/examples.md", "md_atom_type": "TABLE_ROW", "md_parent_section": "§MH.1 [Example 1]", "md_verbatim": "| 1 | ABC123 | MH | 123101 | 1 | | ASTHMA | Asthma | GENERAL MEDICAL HISTORY | RESPIRATORY | Respiratory system disorders | 2004-09-18 | ONGOING | |", "score": 0.65, "match_basis": "verbatim_token+domain_route:MH"}, {"md_atom_id": "md_dmMH_ex_a045", "md_file": "knowledge_base/domains/MH/examples.md", "md_atom_type": "TABLE_ROW", "md_parent_section": "§MH.2 [Example 2]", "md_verbatim": "| 1 | ABC123 | MH | 123101 | 1 | ASTHMA | Asthma | GENERAL MEDICAL HISTORY | RESPIRATORY | Respiratory system disorders | | | | DURING/AFTER |", "score": 0.6302, "match_basis": "verbatim_token+domain_route:MH"}, {"md_atom_id": "md_dmMH_ex_a020", "md_file": "knowledge_base/domains/MH/examples.md", "md_atom_type": "TABLE_ROW", "md_parent_section": "§MH.1 [Example 1]", "md_verbatim": "| 2 | ABC123 | MH | 123101 | 2 | | FREQUENT HEADACHES | Headache | GENERAL MEDICAL HISTORY | CNS | Central and peripheral nervous system disorders | 2004-09-18 | ONGOING | |", "score": 0.616, "match_basis": "verbatim_token+domain_route:MH"}], "candidate_count": 5, "zero_candidate": false}
{"pdf_atom_id": "ig34_p0175_a0011", "pdf_atom_type": "TABLE_ROW", "pdf_source": "SDTMIG_v3.4", "pdf_page": 175, "pdf_parent_section": "§6.2.6 Medical History (MH)", "pdf_verbatim": "| 4 | ABC123 | MH | 123101 | 4 | CHF | CONGESTIVE HEART FAILURE | Cardiac failure congestive | SYMPTOM ONSET | CARDIAC MEDICAL HISTORY | | Cardiac disorders | 2004-09-17 | | |", "figure_ref": null, "candidates": [{"md_atom_id": "md_dmMH_ex_a022", "md_file": "knowledge_base/domains/MH/examples.md", "md_atom_type": "TABLE_ROW", "md_parent_section": "§MH.1 [Example 1]", "md_verbatim": "| 4 | ABC123 | MH | 123101 | 4 | CHF | CONGESTIVE HEART FAILURE | Cardiac failure congestive | CARDIAC MEDICAL HISTORY | | Cardiac disorders | 2004-09-17 | | |", "score": 0.9143, "match_basis": "verbatim_token+domain_route:MH"}, {"md_atom_id": "md_dmMH_ex_a023", "md_file": "knowledge_base/domains/MH/examples.md", "md_atom_type": "TABLE_ROW", "md_parent_section": "§MH.1 [Example 1]", "md_verbatim": "| 5 | ABC123 | MH | 123101 | 5 | CHF | CONGESTIVE HEART FAILURE | Cardiac failure congestive | CARDIAC MEDICAL HISTORY | | Cardiac disorders | 2004-09-19 | | |", "score": 0.9143, "match_basis": "verbatim_token+domain_route:MH"}, {"md_atom_id": "md_dmMH_ex_a065", "md_file": "knowledge_base/domains/MH/examples.md", "md_atom_type": "TABLE_ROW", "md_parent_section": "§MH.3 [Example 3]", "md_verbatim": "| 2 | ABC123 | MH | 101002 | 2 | CONGESTIVE HEART FAILURE | Congestive Heart Failure | Y | N | | | 1 | SCREEN | 2006-04-22 | -5 |", "score": 0.6062, "match_basis": "verbatim_token+domain_route:MH"}, {"md_atom_id": "md_dmMH_ex_a070", "md_file": "knowledge_base/domains/MH/examples.md", "md_atom_type": "TABLE_ROW", "md_parent_section": "§MH.3 [Example 3]", "md_verbatim": "| 7 | ABC123 | MH | 101003 | 2 | CONGESTIVE HEART FAILURE | Congestive Heart Failure | Y | N | | | 1 | SCREEN | 2006-05-03 | -3 |", "score": 0.6062, "match_basis": "verbatim_token+domain_route:MH"}, {"md_atom_id": "md_dmMH_ex_a019", "md_file": "knowledge_base/domains/MH/examples.md", "md_atom_type": "TABLE_ROW", "md_parent_section": "§MH.1 [Example 1]", "md_verbatim": "| 1 | ABC123 | MH | 123101 | 1 | | ASTHMA | Asthma | GENERAL MEDICAL HISTORY | RESPIRATORY | Respiratory system disorders | 2004-09-18 | ONGOING | |", "score": 0.6025, "match_basis": "verbatim_token+domain_route:MH"}], "candidate_count": 5, "zero_candidate": false}
{"pdf_atom_id": "ig34_p0175_a0012", "pdf_atom_type": "TABLE_ROW", "pdf_source": "SDTMIG_v3.4", "pdf_page": 175, "pdf_parent_section": "§6.2.6 Medical History (MH)", "pdf_verbatim": "| 5 | ABC123 | MH | 123101 | 5 | CHF | CONGESTIVE HEART FAILURE | Cardiac failure congestive | DIAGNOSIS | CARDIAC MEDICAL HISTORY | | Cardiac disorders | 2004-09-19 | | |", "figure_ref": null, "candidates": [{"md_atom_id": "md_dmMH_ex_a022", "md_file": "knowledge_base/domains/MH/examples.md", "md_atom_type": "TABLE_ROW", "md_parent_section": "§MH.1 [Example 1]", "md_verbatim": "| 4 | ABC123 | MH | 123101 | 4 | CHF | CONGESTIVE HEART FAILURE | Cardiac failure congestive | CARDIAC MEDICAL HISTORY | | Cardiac disorders | 2004-09-17 | | |", "score": 0.9333, "match_basis": "verbatim_token+domain_route:MH"}, {"md_atom_id": "md_dmMH_ex_a023", "md_file": "knowledge_base/domains/MH/examples.md", "md_atom_type": "TABLE_ROW", "md_parent_section": "§MH.1 [Example 1]", "md_verbatim": "| 5 | ABC123 | MH | 123101 | 5 | CHF | CONGESTIVE HEART FAILURE | Cardiac failure congestive | CARDIAC MEDICAL HISTORY | | Cardiac disorders | 2004-09-19 | | |", "score": 0.9333, "match_basis": "verbatim_token+domain_route:MH"}, {"md_atom_id": "md_dmMH_ex_a065", "md_file": "knowledge_base/domains/MH/examples.md", "md_atom_type": "TABLE_ROW", "md_parent_section": "§MH.3 [Example 3]", "md_verbatim": "| 2 | ABC123 | MH | 101002 | 2 | CONGESTIVE HEART FAILURE | Congestive Heart Failure | Y | N | | | 1 | SCREEN | 2006-04-22 | -5 |", "score": 0.6129, "match_basis": "verbatim_token+domain_route:MH"}, {"md_atom_id": "md_dmMH_ex_a070", "md_file": "knowledge_base/domains/MH/examples.md", "md_atom_type": "TABLE_ROW", "md_parent_section": "§MH.3 [Example 3]", "md_verbatim": "| 7 | ABC123 | MH | 101003 | 2 | CONGESTIVE HEART FAILURE | Congestive Heart Failure | Y | N | | | 1 | SCREEN | 2006-05-03 | -3 |", "score": 0.6129, "match_basis": "verbatim_token+domain_route:MH"}, {"md_atom_id": "md_dmMH_ex_a019", "md_file": "knowledge_base/domains/MH/examples.md", "md_atom_type": "TABLE_ROW", "md_parent_section": "§MH.1 [Example 1]", "md_verbatim": "| 1 | ABC123 | MH | 123101 | 1 | | ASTHMA | Asthma | GENERAL MEDICAL HISTORY | RESPIRATORY | Respiratory system disorders | 2004-09-18 | ONGOING | |", "score": 0.6077, "match_basis": "verbatim_token+domain_route:MH"}], "candidate_count": 5, "zero_candidate": false}
{"pdf_atom_id": "ig34_p0175_a0013", "pdf_atom_type": "SENTENCE", "pdf_source": "SDTMIG_v3.4", "pdf_page": 175, "pdf_parent_section": "§6.2.6 Medical History (MH)", "pdf_verbatim": "Example 2", "figure_ref": null, "candidates": [{"md_atom_id": "md_dmMH_ex_a002", "md_file": "knowledge_base/domains/MH/examples.md", "md_atom_type": "HEADING", "md_parent_section": "§MH [MH — Examples]", "md_verbatim": "## Example 1", "score": 0.76, "match_basis": "verbatim_token+domain_route:MH"}, {"md_atom_id": "md_dmMH_ex_a024", "md_file": "knowledge_base/domains/MH/examples.md", "md_atom_type": "HEADING", "md_parent_section": "§MH [MH — Examples]", "md_verbatim": "## Example 2", "score": 0.76, "match_basis": "verbatim_token+domain_route:MH"}, {"md_atom_id": "md_dmMH_ex_a053", "md_file": "knowledge_base/domains/MH/examples.md", "md_atom_type": "HEADING", "md_parent_section": "§MH [MH — Examples]", "md_verbatim": "## Example 3", "score": 0.76, "match_basis": "verbatim_token+domain_route:MH"}, {"md_atom_id": "md_dmMH_ex_a074", "md_file": "knowledge_base/domains/MH/examples.md", "md_atom_type": "HEADING", "md_parent_section": "§MH [MH — Examples]", "md_verbatim": "## Example 4", "score": 0.76, "match_basis": "verbatim_token+domain_route:MH"}, {"md_atom_id": "md_dmMH_ex_a088", "md_file": "knowledge_base/domains/MH/examples.md", "md_atom_type": "HEADING", "md_parent_section": "§MH [MH — Examples]", "md_verbatim": "## Example 5", "score": 0.76, "match_basis": "verbatim_token+domain_route:MH"}, {"md_atom_id": "md_dmMH_ex_a001", "md_file": "knowledge_base/domains/MH/examples.md", "md_atom_type": "HEADING", "md_parent_section": "§MH [MH — Examples]", "md_verbatim": "# MH — Examples", "score": 0.66, "match_basis": "verbatim_token+domain_route:MH"}, {"md_atom_id": "md_dmMH_ex_a090", "md_file": "knowledge_base/domains/MH/examples.md", "md_atom_type": "SENTENCE", "md_parent_section": "§MH.5 [Example 5]", "md_verbatim": "The example shows data for 2 subjects.", "score": 0.5667, "match_basis": "verbatim_token+domain_route:MH"}, {"md_atom_id": "md_dmMH_ex_a025", "md_file": "knowledge_base/domains/MH/examples.md", "md_atom_type": "SENTENCE", "md_parent_section": "§MH.2 [Example 2]", "md_verbatim": "In this example, data from 3 CRF modules related to medical history were collected:", "score": 0.4769, "match_basis": "verbatim_token+domain_route:MH"}, {"md_atom_id": "md_dmMH_ex_a054", "md_file": "knowledge_base/domains/MH/examples.md", "md_atom_type": "SENTENCE", "md_parent_section": "§MH.3 [Example 3]", "md_verbatim": "This is an example of a medical history CRF where the history of specific (prespecified) conditions is solicited.", "score": 0.4638, "match_basis": "verbatim_token+domain_route:MH"}, {"md_atom_id": "md_dmMH_ex_a089", "md_file": "knowledge_base/domains/MH/examples.md", "md_atom_type": "SENTENCE", "md_parent_section": "§MH.5 [Example 5]", "md_verbatim": "This example shows data from a study in which data were collected about whether subjects had had any respiratory infections in the prior 6 months and, if they had, collected data on those respiratory infections.", "score": 0.4417, "match_basis": "verbatim_token+domain_route:MH"}], "candidate_count": 10, "zero_candidate": false}
{"pdf_atom_id": "ig34_p0175_a0014", "pdf_atom_type": "SENTENCE", "pdf_source": "SDTMIG_v3.4", "pdf_page": 175, "pdf_parent_section": "§6.2.6 Medical History (MH)", "pdf_verbatim": "In this example, data from 3 CRF modules related to medical history were collected:", "figure_ref": null, "candidates": [{"md_atom_id": "md_dmMH_ex_a025", "md_file": "knowledge_base/domains/MH/examples.md", "md_atom_type": "SENTENCE", "md_parent_section": "§MH.2 [Example 2]", "md_verbatim": "In this example, data from 3 CRF modules related to medical history were collected:", "score": 1.0, "match_basis": "verbatim_token+domain_route:MH"}, {"md_atom_id": "md_dmMH_ex_a013", "md_file": "knowledge_base/domains/MH/examples.md", "md_atom_type": "SENTENCE", "md_parent_section": "§MH.1 [Example 1]", "md_verbatim": "**Rows 4-5:** MHCAT indicates that these data were collected on the Cardiac Medical History CRF.", "score": 0.6421, "match_basis": "verbatim_token+domain_route:MH"}, {"md_atom_id": "md_dmMH_ex_a029", "md_file": "knowledge_base/domains/MH/examples.md", "md_atom_type": "SENTENCE", "md_parent_section": "§MH.2 [Example 2]", "md_verbatim": "In all of the records shown below, MHCAT is populated with the CRF module (general medical history, stroke history, or risk factors) through which the data were collected.", "score": 0.6, "match_basis": "verbatim_token+domain_route:MH"}, {"md_atom_id": "md_dmMH_ex_a006", "md_file": "knowledge_base/domains/MH/examples.md", "md_atom_type": "SENTENCE", "md_parent_section": "§MH.1 [Example 1]", "md_verbatim": "**Rows 1-3:** MHCAT indicates that these data were collected on the General Medical History CRF, and MHSCAT displays the body systems specified on the CRF.", "score": 0.5704, "match_basis": "verbatim_token+domain_route:MH"}, {"md_atom_id": "md_dmMH_ex_a054", "md_file": "knowledge_base/domains/MH/examples.md", "md_atom_type": "SENTENCE", "md_parent_section": "§MH.3 [Example 3]", "md_verbatim": "This is an example of a medical history CRF where the history of specific (prespecified) conditions is solicited.", "score": 0.5701, "match_basis": "verbatim_token+domain_route:MH"}], "candidate_count": 5, "zero_candidate": false}
{"pdf_atom_id": "ig34_p0175_a0015", "pdf_atom_type": "LIST_ITEM", "pdf_source": "SDTMIG_v3.4", "pdf_page": 175, "pdf_parent_section": "§6.2.6 Medical History (MH)", "pdf_verbatim": "A General Medical History CRF collected descriptions of conditions and events by body system (e.g., endocrine, metabolic) and asked whether the conditions were ongoing at study start. The reported events were coded using a standard dictionary.", "figure_ref": null, "candidates": [{"md_atom_id": "md_dmMH_ex_a026", "md_file": "knowledge_base/domains/MH/examples.md", "md_atom_type": "LIST_ITEM", "md_parent_section": "§MH.2 [Example 2]", "md_verbatim": "- A General Medical History CRF collected descriptions of conditions and events by body system (e.g., endocrine, metabolic) and asked whether the conditions were ongoing at study start. The reported events were coded using a standard dictionary.", "score": 1.0, "match_basis": "verbatim_token+domain_route:MH"}, {"md_atom_id": "md_dmMH_ex_a003", "md_file": "knowledge_base/domains/MH/examples.md", "md_atom_type": "SENTENCE", "md_parent_section": "§MH.1 [Example 1]", "md_verbatim": "In this example, a General Medical History CRF collected verbatim descriptions of conditions and events by body system (e.g., endocrine, metabolic), did not collect start date, but asked whether or not the condition was ongoing at the time of the visit.", "score": 0.6874, "match_basis": "verbatim_token+domain_route:MH"}, {"md_atom_id": "md_dmMH_assn_a008", "md_file": "knowledge_base/domains/MH/assumptions.md", "md_atom_type": "LIST_ITEM", "md_parent_section": "§MH [MH — Assumptions]", "md_verbatim": "   e. If a CRF collects medical history by prespecified body systems and the sponsor also codes reported terms using a standard dictionary, then MHDECOD and MHBODSYS are populated using the standard dictionary. MHCAT and MHSCAT should be used for the prespecified body systems.", "score": 0.5934, "match_basis": "verbatim_token+domain_route:MH"}, {"md_atom_id": "md_dmMH_ex_a027", "md_file": "knowledge_base/domains/MH/examples.md", "md_atom_type": "LIST_ITEM", "md_parent_section": "§MH.2 [Example 2]", "md_verbatim": "- A second CRF collected stroke history. Terms were selected from a list of terms taken from the standard dictionary.", "score": 0.5613, "match_basis": "verbatim_token+domain_route:MH"}, {"md_atom_id": "md_dmMH_assn_a015", "md_file": "knowledge_base/domains/MH/assumptions.md", "md_atom_type": "LIST_ITEM", "md_parent_section": "§MH [MH — Assumptions]", "md_verbatim": "   a. Information on medical history is generally collected in 2 different ways, either by recording free text or using a prespecified list of terms. The solicitation of information on specific medical history events may affect the frequency at which they are reported; therefore, the fact that a specific medical history event was solicited may be of interest to reviewers. MHPRESP and MHOCCUR are used together to indicate whether the condition in MHTERM was prespecified and whether it occurred. A value of \"Y\" in MHPRESP indicates that the term was prespecified.", "score": 0.5485, "match_basis": "verbatim_token+domain_route:MH"}], "candidate_count": 5, "zero_candidate": false}
{"pdf_atom_id": "ig34_p0175_a0016", "pdf_atom_type": "LIST_ITEM", "pdf_source": "SDTMIG_v3.4", "pdf_page": 175, "pdf_parent_section": "§6.2.6 Medical History (MH)", "pdf_verbatim": "A second CRF collected stroke history. Terms were selected from a list of terms taken from the standard dictionary.", "figure_ref": null, "candidates": [{"md_atom_id": "md_dmMH_ex_a027", "md_file": "knowledge_base/domains/MH/examples.md", "md_atom_type": "LIST_ITEM", "md_parent_section": "§MH.2 [Example 2]", "md_verbatim": "- A second CRF collected stroke history. Terms were selected from a list of terms taken from the standard dictionary.", "score": 1.0, "match_basis": "verbatim_token+domain_route:MH"}, {"md_atom_id": "md_dmMH_ex_a026", "md_file": "knowledge_base/domains/MH/examples.md", "md_atom_type": "LIST_ITEM", "md_parent_section": "§MH.2 [Example 2]", "md_verbatim": "- A General Medical History CRF collected descriptions of conditions and events by body system (e.g., endocrine, metabolic) and asked whether the conditions were ongoing at study start. The reported events were coded using a standard dictionary.", "score": 0.5613, "match_basis": "verbatim_token+domain_route:MH"}, {"md_atom_id": "md_dmMH_assn_a008", "md_file": "knowledge_base/domains/MH/assumptions.md", "md_atom_type": "LIST_ITEM", "md_parent_section": "§MH [MH — Assumptions]", "md_verbatim": "   e. If a CRF collects medical history by prespecified body systems and the sponsor also codes reported terms using a standard dictionary, then MHDECOD and MHBODSYS are populated using the standard dictionary. MHCAT and MHSCAT should be used for the prespecified body systems.", "score": 0.559, "match_basis": "verbatim_token+domain_route:MH"}, {"md_atom_id": "md_dmMH_assn_a006", "md_file": "knowledge_base/domains/MH/assumptions.md", "md_atom_type": "LIST_ITEM", "md_parent_section": "§MH [MH — Assumptions]", "md_verbatim": "   c. If the sponsor codes the reported term (MHTERM) using a standard dictionary, then MHDECOD will be populated with the preferred term derived from the dictionary. The sponsor is expected to provide the dictionary name and version used to map the terms utilizing the external codelist element in the Define-XML document.", "score": 0.5191, "match_basis": "verbatim_token+domain_route:MH"}, {"md_atom_id": "md_dmMH_assn_a018", "md_file": "knowledge_base/domains/MH/assumptions.md", "md_atom_type": "LIST_ITEM", "md_parent_section": "§MH [MH — Assumptions]", "md_verbatim": "   d. MHSTAT and MHREASND provide information about prespecified medical history questions for which no response was collected. MHSTAT and MHREASND are permissible fields and may be omitted from the dataset if all medications were collected as free text or if all prespecified conditions had responses in MHOCCUR.", "score": 0.5095, "match_basis": "verbatim_token+domain_route:MH"}], "candidate_count": 5, "zero_candidate": false}
{"pdf_atom_id": "ig34_p0175_a0017", "pdf_atom_type": "LIST_ITEM", "pdf_source": "SDTMIG_v3.4", "pdf_page": 175, "pdf_parent_section": "§6.2.6 Medical History (MH)", "pdf_verbatim": "A third CRF asked whether the subject had any of a list of 4 specific risk factors.", "figure_ref": null, "candidates": [{"md_atom_id": "md_dmMH_ex_a028", "md_file": "knowledge_base/domains/MH/examples.md", "md_atom_type": "LIST_ITEM", "md_parent_section": "§MH.2 [Example 2]", "md_verbatim": "- A third CRF asked whether the subject had any of a list of 4 specific risk factors.", "score": 1.0, "match_basis": "verbatim_token+domain_route:MH"}, {"md_atom_id": "md_dmMH_assn_a016", "md_file": "knowledge_base/domains/MH/assumptions.md", "md_atom_type": "LIST_ITEM", "md_parent_section": "§MH [MH — Assumptions]", "md_verbatim": "   b. MHOCCUR is used to indicate whether a prespecified medical condition occurred; a value of \"Y\" indicates that the event occurred and \"N\" indicates that it did not.", "score": 0.4789, "match_basis": "verbatim_token+domain_route:MH"}, {"md_atom_id": "md_dmMH_assn_a024", "md_file": "knowledge_base/domains/MH/assumptions.md", "md_atom_type": "LIST_ITEM", "md_parent_section": "§MH [MH — Assumptions]", "md_verbatim": "   e. When medical history events are collected with the recording of free text, a record may be entered into the data management system to indicate \"no medical history\" for a specific subject or prespecified body system category (e.g., gastrointestinal). For these subjects or categories within subject, do not include a record in the MH dataset to indicate that there were no events.", "score": 0.4767, "match_basis": "verbatim_token+domain_route:MH"}, {"md_atom_id": "md_dmMH_assn_a015", "md_file": "knowledge_base/domains/MH/assumptions.md", "md_atom_type": "LIST_ITEM", "md_parent_section": "§MH [MH — Assumptions]", "md_verbatim": "   a. Information on medical history is generally collected in 2 different ways, either by recording free text or using a prespecified list of terms. The solicitation of information on specific medical history events may affect the frequency at which they are reported; therefore, the fact that a specific medical history event was solicited may be of interest to reviewers. MHPRESP and MHOCCUR are used together to indicate whether the condition in MHTERM was prespecified and whether it occurred. A value of \"Y\" in MHPRESP indicates that the term was prespecified.", "score": 0.4593, "match_basis": "verbatim_token+domain_route:MH"}, {"md_atom_id": "md_dmMH_ex_a026", "md_file": "knowledge_base/domains/MH/examples.md", "md_atom_type": "LIST_ITEM", "md_parent_section": "§MH.2 [Example 2]", "md_verbatim": "- A General Medical History CRF collected descriptions of conditions and events by body system (e.g., endocrine, metabolic) and asked whether the conditions were ongoing at study start. The reported events were coded using a standard dictionary.", "score": 0.4581, "match_basis": "verbatim_token+domain_route:MH"}], "candidate_count": 5, "zero_candidate": false}
{"pdf_atom_id": "ig34_p0175_a0018", "pdf_atom_type": "SENTENCE", "pdf_source": "SDTMIG_v3.4", "pdf_page": 175, "pdf_parent_section": "§6.2.6 Medical History (MH)", "pdf_verbatim": "In all of the records shown below, MHCAT is populated with the CRF module (general medical history, stroke history, or risk factors) through which the data were collected. MHPRESP and MHOCCUR were populated only when the term was prespecified, in keeping with MH assumption 4.", "figure_ref": null, "candidates": [{"md_atom_id": "md_dmMH_ex_a029", "md_file": "knowledge_base/domains/MH/examples.md", "md_atom_type": "SENTENCE", "md_parent_section": "§MH.2 [Example 2]", "md_verbatim": "In all of the records shown below, MHCAT is populated with the CRF module (general medical history, stroke history, or risk factors) through which the data were collected.", "score": 0.7946, "match_basis": "verbatim_token+domain_route:MH"}, {"md_atom_id": "md_dmMH_ex_a030", "md_file": "knowledge_base/domains/MH/examples.md", "md_atom_type": "SENTENCE", "md_parent_section": "§MH.2 [Example 2]", "md_verbatim": "MHPRESP and MHOCCUR were populated only when the term was prespecified, in keeping with MH assumption 4.", "score": 0.6703, "match_basis": "verbatim_token+domain_route:MH"}, {"md_atom_id": "md_dmMH_ex_a041", "md_file": "knowledge_base/domains/MH/examples.md", "md_atom_type": "SENTENCE", "md_parent_section": "§MH.2 [Example 2]", "md_verbatim": "MHOCCUR is populated with \"Y\" or \"N\", corresponding to the CRF response to the questions for the 4 prespecified risk factors.", "score": 0.5776, "match_basis": "verbatim_token+domain_route:MH"}, {"md_atom_id": "md_dmMH_ex_a006", "md_file": "knowledge_base/domains/MH/examples.md", "md_atom_type": "SENTENCE", "md_parent_section": "§MH.1 [Example 1]", "md_verbatim": "**Rows 1-3:** MHCAT indicates that these data were collected on the General Medical History CRF, and MHSCAT displays the body systems specified on the CRF.", "score": 0.5765, "match_basis": "verbatim_token+domain_route:MH"}, {"md_atom_id": "md_dmMH_ex_a025", "md_file": "knowledge_base/domains/MH/examples.md", "md_atom_type": "SENTENCE", "md_parent_section": "§MH.2 [Example 2]", "md_verbatim": "In this example, data from 3 CRF modules related to medical history were collected:", "score": 0.5377, "match_basis": "verbatim_token+domain_route:MH"}], "candidate_count": 5, "zero_candidate": false}
{"pdf_atom_id": "ig34_p0176_a0001", "pdf_atom_type": "LIST_ITEM", "pdf_source": "SDTMIG_v3.4", "pdf_page": 176, "pdf_parent_section": "§6.2.6 Medical History (MH)", "pdf_verbatim": "Rows 1-3:\tShow records from the General Medical History CRF. MHSCAT displays the body systems specified on the CRF. The coded terms are represented in MHDECOD. MHENRF has been populated based on the response to the \"Ongoing at Study Start\" question on the CRF. If \"Yes\" was specified, MHENRF = \"DURING/AFTER\"; if \"No\" was checked, MHENRF = \"BEFORE\". See Section 4.4.7, Use of Relative Timing Variables, for further guidance on using --STRF and --ENRF.", "figure_ref": null, "candidates": [{"md_atom_id": "md_dmMH_assn_a008", "md_file": "knowledge_base/domains/MH/assumptions.md", "md_atom_type": "LIST_ITEM", "md_parent_section": "§MH [MH — Assumptions]", "md_verbatim": "   e. If a CRF collects medical history by prespecified body systems and the sponsor also codes reported terms using a standard dictionary, then MHDECOD and MHBODSYS are populated using the standard dictionary. MHCAT and MHSCAT should be used for the prespecified body systems.", "score": 0.6136, "match_basis": "verbatim_token+domain_route:MH"}, {"md_atom_id": "md_dmMH_assn_a010", "md_file": "knowledge_base/domains/MH/assumptions.md", "md_atom_type": "LIST_ITEM", "md_parent_section": "§MH [MH — Assumptions]", "md_verbatim": "   a. MHCAT and MHSCAT may be populated with the sponsor's predefined categorization of medical history events, which are often prespecified on the CRF. Note that even if the sponsor uses the body system terminology from the standard dictionary, MHBODSYS and MHCAT may differ; MHBODSYS is derived from the coding system, whereas MHCAT is effectively assigned when the investigator records a condition under the prespecified category.", "score": 0.5711, "match_basis": "verbatim_token+domain_route:MH"}, {"md_atom_id": "md_dmMH_ex_a026", "md_file": "knowledge_base/domains/MH/examples.md", "md_atom_type": "LIST_ITEM", "md_parent_section": "§MH.2 [Example 2]", "md_verbatim": "- A General Medical History CRF collected descriptions of conditions and events by body system (e.g., endocrine, metabolic) and asked whether the conditions were ongoing at study start. The reported events were coded using a standard dictionary.", "score": 0.545, "match_basis": "verbatim_token+domain_route:MH"}, {"md_atom_id": "md_dmMH_assn_a026", "md_file": "knowledge_base/domains/MH/assumptions.md", "md_atom_type": "LIST_ITEM", "md_parent_section": "§MH [MH — Assumptions]", "md_verbatim": "   a. Relative timing assessments such as \"Ongoing\" or \"Active\" are common in the collection of MH information. MHENRF may be used when this relative timing assessment is coincident with the start of the study reference period for the subject represented in the Demographics (DM) dataset (RFSTDTC). MHENRTPT and MHENTPT may be used when \"Ongoing\" is relative to another date such as the screening visit date. See the examples in this section and in Section 4.4.7, Use of Relative Timing Variables.", "score": 0.5403, "match_basis": "verbatim_token+domain_route:MH"}, {"md_atom_id": "md_dmMH_assn_a015", "md_file": "knowledge_base/domains/MH/assumptions.md", "md_atom_type": "LIST_ITEM", "md_parent_section": "§MH [MH — Assumptions]", "md_verbatim": "   a. Information on medical history is generally collected in 2 different ways, either by recording free text or using a prespecified list of terms. The solicitation of information on specific medical history events may affect the frequency at which they are reported; therefore, the fact that a specific medical history event was solicited may be of interest to reviewers. MHPRESP and MHOCCUR are used together to indicate whether the condition in MHTERM was prespecified and whether it occurred. A value of \"Y\" in MHPRESP indicates that the term was prespecified.", "score": 0.5354, "match_basis": "verbatim_token+domain_route:MH"}], "candidate_count": 5, "zero_candidate": false}
{"pdf_atom_id": "ig34_p0176_a0002", "pdf_atom_type": "LIST_ITEM", "pdf_source": "SDTMIG_v3.4", "pdf_page": 176, "pdf_parent_section": "§6.2.6 Medical History (MH)", "pdf_verbatim": "Row 4:\tShows the record from the Stroke History CRF. MHSTDTC was populated with the date and time at which the event occurred.", "figure_ref": null, "candidates": [{"md_atom_id": "md_dmMH_ex_a014", "md_file": "knowledge_base/domains/MH/examples.md", "md_atom_type": "SENTENCE", "md_parent_section": "§MH.1 [Example 1]", "md_verbatim": "MHSTDTC was populated with the date and time at which the event occurred.", "score": 0.6792, "match_basis": "verbatim_token+domain_route:MH"}, {"md_atom_id": "md_dmMH_ex_a038", "md_file": "knowledge_base/domains/MH/examples.md", "md_atom_type": "SENTENCE", "md_parent_section": "§MH.2 [Example 2]", "md_verbatim": "MHSTDTC was populated with the date and time at which the event occurred.", "score": 0.6792, "match_basis": "verbatim_token+domain_route:MH"}, {"md_atom_id": "md_dmMH_ex_a037", "md_file": "knowledge_base/domains/MH/examples.md", "md_atom_type": "SENTENCE", "md_parent_section": "§MH.2 [Example 2]", "md_verbatim": "**Row 4:** Shows the record from the Stroke History CRF.", "score": 0.5523, "match_basis": "verbatim_token+domain_route:MH"}, {"md_atom_id": "md_dmMH_ex_a027", "md_file": "knowledge_base/domains/MH/examples.md", "md_atom_type": "LIST_ITEM", "md_parent_section": "§MH.2 [Example 2]", "md_verbatim": "- A second CRF collected stroke history. Terms were selected from a list of terms taken from the standard dictionary.", "score": 0.5129, "match_basis": "verbatim_token+domain_route:MH"}, {"md_atom_id": "md_dmMH_assn_a010", "md_file": "knowledge_base/domains/MH/assumptions.md", "md_atom_type": "LIST_ITEM", "md_parent_section": "§MH [MH — Assumptions]", "md_verbatim": "   a. MHCAT and MHSCAT may be populated with the sponsor's predefined categorization of medical history events, which are often prespecified on the CRF. Note that even if the sponsor uses the body system terminology from the standard dictionary, MHBODSYS and MHCAT may differ; MHBODSYS is derived from the coding system, whereas MHCAT is effectively assigned when the investigator records a condition under the prespecified category.", "score": 0.5028, "match_basis": "verbatim_token+domain_route:MH"}], "candidate_count": 5, "zero_candidate": false}
{"pdf_atom_id": "ig34_p0176_a0003", "pdf_atom_type": "LIST_ITEM", "pdf_source": "SDTMIG_v3.4", "pdf_page": 176, "pdf_parent_section": "§6.2.6 Medical History (MH)", "pdf_verbatim": "Rows 5-8:\tShow records from the Risk Factors CRF. MHPRESP values of \"Y\" indicate that each risk factor was prespecified on the CRF. MHOCCUR is populated with \"Y\" or \"N\", corresponding to the CRF response to the questions for the 4 prespecified risk factors. The terms used to describe these risk factors were chosen to have associated codes in the standard dictionary.", "figure_ref": null, "candidates": [{"md_atom_id": "md_dmMH_assn_a008", "md_file": "knowledge_base/domains/MH/assumptions.md", "md_atom_type": "LIST_ITEM", "md_parent_section": "§MH [MH — Assumptions]", "md_verbatim": "   e. If a CRF collects medical history by prespecified body systems and the sponsor also codes reported terms using a standard dictionary, then MHDECOD and MHBODSYS are populated using the standard dictionary. MHCAT and MHSCAT should be used for the prespecified body systems.", "score": 0.5877, "match_basis": "verbatim_token+domain_route:MH"}, {"md_atom_id": "md_dmMH_ex_a042", "md_file": "knowledge_base/domains/MH/examples.md", "md_atom_type": "SENTENCE", "md_parent_section": "§MH.2 [Example 2]", "md_verbatim": "The terms used to describe these risk factors were chosen to have associated codes in the standard dictionary.", "score": 0.5865, "match_basis": "verbatim_token+domain_route:MH"}, {"md_atom_id": "md_dmMH_ex_a041", "md_file": "knowledge_base/domains/MH/examples.md", "md_atom_type": "SENTENCE", "md_parent_section": "§MH.2 [Example 2]", "md_verbatim": "MHOCCUR is populated with \"Y\" or \"N\", corresponding to the CRF response to the questions for the 4 prespecified risk factors.", "score": 0.5761, "match_basis": "verbatim_token+domain_route:MH"}, {"md_atom_id": "md_dmMH_assn_a010", "md_file": "knowledge_base/domains/MH/assumptions.md", "md_atom_type": "LIST_ITEM", "md_parent_section": "§MH [MH — Assumptions]", "md_verbatim": "   a. MHCAT and MHSCAT may be populated with the sponsor's predefined categorization of medical history events, which are often prespecified on the CRF. Note that even if the sponsor uses the body system terminology from the standard dictionary, MHBODSYS and MHCAT may differ; MHBODSYS is derived from the coding system, whereas MHCAT is effectively assigned when the investigator records a condition under the prespecified category.", "score": 0.5746, "match_basis": "verbatim_token+domain_route:MH"}, {"md_atom_id": "md_dmMH_assn_a015", "md_file": "knowledge_base/domains/MH/assumptions.md", "md_atom_type": "LIST_ITEM", "md_parent_section": "§MH [MH — Assumptions]", "md_verbatim": "   a. Information on medical history is generally collected in 2 different ways, either by recording free text or using a prespecified list of terms. The solicitation of information on specific medical history events may affect the frequency at which they are reported; therefore, the fact that a specific medical history event was solicited may be of interest to reviewers. MHPRESP and MHOCCUR are used together to indicate whether the condition in MHTERM was prespecified and whether it occurred. A value of \"Y\" in MHPRESP indicates that the term was prespecified.", "score": 0.557, "match_basis": "verbatim_token+domain_route:MH"}], "candidate_count": 5, "zero_candidate": false}
{"pdf_atom_id": "ig34_p0176_a0004", "pdf_atom_type": "CODE_LITERAL", "pdf_source": "SDTMIG_v3.4", "pdf_page": 176, "pdf_parent_section": "§6.2.6 Medical History (MH)", "pdf_verbatim": "mh.xpt", "figure_ref": null, "candidates": [{"md_atom_id": "md_dmMH_ex_a017", "md_file": "knowledge_base/domains/MH/examples.md", "md_atom_type": "SENTENCE", "md_parent_section": "§MH.1 [Example 1]", "md_verbatim": "**mh.xpt**", "score": 0.79, "match_basis": "verbatim_token+domain_route:MH"}, {"md_atom_id": "md_dmMH_ex_a043", "md_file": "knowledge_base/domains/MH/examples.md", "md_atom_type": "SENTENCE", "md_parent_section": "§MH.2 [Example 2]", "md_verbatim": "**mh.xpt**", "score": 0.79, "match_basis": "verbatim_token+domain_route:MH"}, {"md_atom_id": "md_dmMH_ex_a062", "md_file": "knowledge_base/domains/MH/examples.md", "md_atom_type": "SENTENCE", "md_parent_section": "§MH.3 [Example 3]", "md_verbatim": "**mh.xpt**", "score": 0.79, "match_basis": "verbatim_token+domain_route:MH"}, {"md_atom_id": "md_dmMH_ex_a082", "md_file": "knowledge_base/domains/MH/examples.md", "md_atom_type": "SENTENCE", "md_parent_section": "§MH.4 [Example 4]", "md_verbatim": "**mh.xpt**", "score": 0.79, "match_basis": "verbatim_token+domain_route:MH"}, {"md_atom_id": "md_dmMH_ex_a097", "md_file": "knowledge_base/domains/MH/examples.md", "md_atom_type": "SENTENCE", "md_parent_section": "§MH.5 [Example 5]", "md_verbatim": "**mh.xpt**", "score": 0.79, "match_basis": "verbatim_token+domain_route:MH"}, {"md_atom_id": "md_dmMH_assn_a001", "md_file": "knowledge_base/domains/MH/assumptions.md", "md_atom_type": "HEADING", "md_parent_section": "§MH [MH — Assumptions]", "md_verbatim": "# MH — Assumptions", "score": 0.19, "match_basis": "verbatim_token+domain_route:MH"}, {"md_atom_id": "md_dmMH_assn_a002", "md_file": "knowledge_base/domains/MH/assumptions.md", "md_atom_type": "LIST_ITEM", "md_parent_section": "§MH [MH — Assumptions]", "md_verbatim": "1. Prior treatments, including prior medications and procedures, should be submitted in an appropriate dataset from the Interventions class (e.g., Concomitant/Prior Medications (CM) or Procedures (PR)).", "score": 0.19, "match_basis": "verbatim_token+domain_route:MH"}, {"md_atom_id": "md_dmMH_assn_a003", "md_file": "knowledge_base/domains/MH/assumptions.md", "md_atom_type": "LIST_ITEM", "md_parent_section": "§MH [MH — Assumptions]", "md_verbatim": "2. **MH description and coding**", "score": 0.19, "match_basis": "verbatim_token+domain_route:MH"}, {"md_atom_id": "md_dmMH_assn_a004", "md_file": "knowledge_base/domains/MH/assumptions.md", "md_atom_type": "LIST_ITEM", "md_parent_section": "§MH [MH — Assumptions]", "md_verbatim": "   a. MHTERM is the topic variable and captures the verbatim term collected for the condition or event or the prespecified term used to collect information about the occurrence of any of a group of conditions or events. MHTERM is a required variable and must have a value.", "score": 0.19, "match_basis": "verbatim_token+domain_route:MH"}, {"md_atom_id": "md_dmMH_assn_a005", "md_file": "knowledge_base/domains/MH/assumptions.md", "md_atom_type": "LIST_ITEM", "md_parent_section": "§MH [MH — Assumptions]", "md_verbatim": "   b. MHMODIFY is a permissible variable and should be included if the sponsor's procedure permits modification of a verbatim term for coding. The variable should be populated as per the sponsor's procedures; null values are permitted.", "score": 0.19, "match_basis": "verbatim_token+domain_route:MH"}], "candidate_count": 10, "zero_candidate": false}
{"pdf_atom_id": "ig34_p0176_a0005", "pdf_atom_type": "TABLE_HEADER", "pdf_source": "SDTMIG_v3.4", "pdf_page": 176, "pdf_parent_section": "§6.2.6 Medical History (MH)", "pdf_verbatim": "| Row | STUDYID | DOMAIN | USUBJID | MHSEQ | MHTERM | MHDECOD | MHCAT | MHSCAT | MHPRESP | MHOCCUR | MHBODSYS | MHSTDTC | MHENRF |", "figure_ref": null, "candidates": [{"md_atom_id": "md_dmMH_ex_a044", "md_file": "knowledge_base/domains/MH/examples.md", "md_atom_type": "TABLE_HEADER", "md_parent_section": "§MH.2 [Example 2]", "md_verbatim": "| Row | STUDYID | DOMAIN | USUBJID | MHSEQ | MHTERM | MHDECOD | MHCAT | MHSCAT | MHBODSYS | MHPRESP | MHOCCUR | MHSTDTC | MHENRF |\n|-----|---------|--------|---------|-------|--------|---------|-------|--------|----------|---------|---------|---------|--------|", "score": 1.0, "match_basis": "verbatim_token+domain_route:MH"}, {"md_atom_id": "md_dmMH_ex_a083", "md_file": "knowledge_base/domains/MH/examples.md", "md_atom_type": "TABLE_HEADER", "md_parent_section": "§MH.4 [Example 4]", "md_verbatim": "| Row | STUDYID | DOMAIN | USUBJID | MHSEQ | MHTERM | MHDECOD | MHEVDTYP | MHCAT | MHPRESP | MHOCCUR | MHDTC | MHSTDTC |\n|-----|---------|--------|---------|-------|--------|---------|----------|-------|---------|---------|-------|---------|", "score": 0.8355, "match_basis": "verbatim_token+domain_route:MH"}, {"md_atom_id": "md_dmMH_ex_a018", "md_file": "knowledge_base/domains/MH/examples.md", "md_atom_type": "TABLE_HEADER", "md_parent_section": "§MH.1 [Example 1]", "md_verbatim": "| Row | STUDYID | DOMAIN | USUBJID | MHSEQ | MHGRPID | MHTERM | MHDECOD | MHCAT | MHSCAT | MHBODSYS | MHSTDTC | MHENRTPT | MHENTPT |\n|-----|---------|--------|---------|-------|---------|--------|---------|-------|--------|----------|---------|----------|---------|", "score": 0.8091, "match_basis": "verbatim_token+domain_route:MH"}, {"md_atom_id": "md_dmMH_ex_a098", "md_file": "knowledge_base/domains/MH/examples.md", "md_atom_type": "TABLE_HEADER", "md_parent_section": "§MH.5 [Example 5]", "md_verbatim": "| Row | STUDYID | DOMAIN | USUBJID | MHSEQ | MHTERM | MHCAT | MHPRESP | MHOCCUR | MHDTC | MHENDTC | MHDY | MHEVLINT | MHENRTPT | MHENTPT |\n|-----|---------|--------|---------|-------|--------|-------|---------|---------|-------|---------|------|----------|----------|---------|", "score": 0.7429, "match_basis": "verbatim_token+domain_route:MH"}, {"md_atom_id": "md_dmMH_ex_a063", "md_file": "knowledge_base/domains/MH/examples.md", "md_atom_type": "TABLE_HEADER", "md_parent_section": "§MH.3 [Example 3]", "md_verbatim": "| Row | STUDYID | DOMAIN | USUBJID | MHSEQ | MHTERM | MHDECOD | MHPRESP | MHOCCUR | MHSTAT | MHREASND | VISITNUM | VISIT | MHDTC | MHDY |\n|-----|---------|--------|---------|-------|--------|---------|---------|---------|--------|----------|----------|-------|-------|------|", "score": 0.725, "match_basis": "verbatim_token+domain_route:MH"}], "candidate_count": 5, "zero_candidate": false}
{"pdf_atom_id": "ig34_p0176_a0006", "pdf_atom_type": "TABLE_ROW", "pdf_source": "SDTMIG_v3.4", "pdf_page": 176, "pdf_parent_section": "§6.2.6 Medical History (MH)", "pdf_verbatim": "| 1 | ABC123 | MH | 123101 | 1 | ASTHMA | Asthma | GENERAL MEDICAL HISTORY | RESPIRATORY | | | Respiratory system disorders | | DURING/AFTER |", "figure_ref": null, "candidates": [{"md_atom_id": "md_dmMH_ex_a045", "md_file": "knowledge_base/domains/MH/examples.md", "md_atom_type": "TABLE_ROW", "md_parent_section": "§MH.2 [Example 2]", "md_verbatim": "| 1 | ABC123 | MH | 123101 | 1 | ASTHMA | Asthma | GENERAL MEDICAL HISTORY | RESPIRATORY | Respiratory system disorders | | | | DURING/AFTER |", "score": 1.0, "match_basis": "verbatim_token+domain_route:MH"}, {"md_atom_id": "md_dmMH_ex_a019", "md_file": "knowledge_base/domains/MH/examples.md", "md_atom_type": "TABLE_ROW", "md_parent_section": "§MH.1 [Example 1]", "md_verbatim": "| 1 | ABC123 | MH | 123101 | 1 | | ASTHMA | Asthma | GENERAL MEDICAL HISTORY | RESPIRATORY | Respiratory system disorders | 2004-09-18 | ONGOING | |", "score": 0.8737, "match_basis": "verbatim_token+domain_route:MH"}, {"md_atom_id": "md_dmMH_ex_a046", "md_file": "knowledge_base/domains/MH/examples.md", "md_atom_type": "TABLE_ROW", "md_parent_section": "§MH.2 [Example 2]", "md_verbatim": "| 2 | ABC123 | MH | 123101 | 2 | FREQUENT HEADACHES | Headache | GENERAL MEDICAL HISTORY | CNS | Central and peripheral nervous system disorders | | | | DURING/AFTER |", "score": 0.7038, "match_basis": "verbatim_token+domain_route:MH"}, {"md_atom_id": "md_dmMH_ex_a020", "md_file": "knowledge_base/domains/MH/examples.md", "md_atom_type": "TABLE_ROW", "md_parent_section": "§MH.1 [Example 1]", "md_verbatim": "| 2 | ABC123 | MH | 123101 | 2 | | FREQUENT HEADACHES | Headache | GENERAL MEDICAL HISTORY | CNS | Central and peripheral nervous system disorders | 2004-09-18 | ONGOING | |", "score": 0.64, "match_basis": "verbatim_token+domain_route:MH"}, {"md_atom_id": "md_dmMH_ex_a047", "md_file": "knowledge_base/domains/MH/examples.md", "md_atom_type": "TABLE_ROW", "md_parent_section": "§MH.2 [Example 2]", "md_verbatim": "| 3 | ABC123 | MH | 123101 | 3 | BROKEN LEG | Bone fracture | GENERAL MEDICAL HISTORY | OTHER | Musculoskeletal system disorders | | | | BEFORE |", "score": 0.6357, "match_basis": "verbatim_token+domain_route:MH"}], "candidate_count": 5, "zero_candidate": false}
{"pdf_atom_id": "ig34_p0176_a0007", "pdf_atom_type": "TABLE_ROW", "pdf_source": "SDTMIG_v3.4", "pdf_page": 176, "pdf_parent_section": "§6.2.6 Medical History (MH)", "pdf_verbatim": "| 2 | ABC123 | MH | 123101 | 2 | FREQUENT HEADACHES | Headache | GENERAL MEDICAL HISTORY | CNS | | | Central and peripheral nervous system disorders | | DURING/AFTER |", "figure_ref": null, "candidates": [{"md_atom_id": "md_dmMH_ex_a046", "md_file": "knowledge_base/domains/MH/examples.md", "md_atom_type": "TABLE_ROW", "md_parent_section": "§MH.2 [Example 2]", "md_verbatim": "| 2 | ABC123 | MH | 123101 | 2 | FREQUENT HEADACHES | Headache | GENERAL MEDICAL HISTORY | CNS | Central and peripheral nervous system disorders | | | | DURING/AFTER |", "score": 1.0, "match_basis": "verbatim_token+domain_route:MH"}, {"md_atom_id": "md_dmMH_ex_a020", "md_file": "knowledge_base/domains/MH/examples.md", "md_atom_type": "TABLE_ROW", "md_parent_section": "§MH.1 [Example 1]", "md_verbatim": "| 2 | ABC123 | MH | 123101 | 2 | | FREQUENT HEADACHES | Headache | GENERAL MEDICAL HISTORY | CNS | Central and peripheral nervous system disorders | 2004-09-18 | ONGOING | |", "score": 0.9027, "match_basis": "verbatim_token+domain_route:MH"}, {"md_atom_id": "md_dmMH_ex_a045", "md_file": "knowledge_base/domains/MH/examples.md", "md_atom_type": "TABLE_ROW", "md_parent_section": "§MH.2 [Example 2]", "md_verbatim": "| 1 | ABC123 | MH | 123101 | 1 | ASTHMA | Asthma | GENERAL MEDICAL HISTORY | RESPIRATORY | Respiratory system disorders | | | | DURING/AFTER |", "score": 0.7038, "match_basis": "verbatim_token+domain_route:MH"}, {"md_atom_id": "md_dmMH_ex_a019", "md_file": "knowledge_base/domains/MH/examples.md", "md_atom_type": "TABLE_ROW", "md_parent_section": "§MH.1 [Example 1]", "md_verbatim": "| 1 | ABC123 | MH | 123101 | 1 | | ASTHMA | Asthma | GENERAL MEDICAL HISTORY | RESPIRATORY | Respiratory system disorders | 2004-09-18 | ONGOING | |", "score": 0.64, "match_basis": "verbatim_token+domain_route:MH"}, {"md_atom_id": "md_dmMH_ex_a047", "md_file": "knowledge_base/domains/MH/examples.md", "md_atom_type": "TABLE_ROW", "md_parent_section": "§MH.2 [Example 2]", "md_verbatim": "| 3 | ABC123 | MH | 123101 | 3 | BROKEN LEG | Bone fracture | GENERAL MEDICAL HISTORY | OTHER | Musculoskeletal system disorders | | | | BEFORE |", "score": 0.604, "match_basis": "verbatim_token+domain_route:MH"}], "candidate_count": 5, "zero_candidate": false}
{"pdf_atom_id": "ig34_p0176_a0008", "pdf_atom_type": "TABLE_ROW", "pdf_source": "SDTMIG_v3.4", "pdf_page": 176, "pdf_parent_section": "§6.2.6 Medical History (MH)", "pdf_verbatim": "| 3 | ABC123 | MH | 123101 | 3 | BROKEN LEG | Bone fracture | GENERAL MEDICAL HISTORY | OTHER | | | Musculoskeletal system disorders | | BEFORE |", "figure_ref": null, "candidates": [{"md_atom_id": "md_dmMH_ex_a047", "md_file": "knowledge_base/domains/MH/examples.md", "md_atom_type": "TABLE_ROW", "md_parent_section": "§MH.2 [Example 2]", "md_verbatim": "| 3 | ABC123 | MH | 123101 | 3 | BROKEN LEG | Bone fracture | GENERAL MEDICAL HISTORY | OTHER | Musculoskeletal system disorders | | | | BEFORE |", "score": 1.0, "match_basis": "verbatim_token+domain_route:MH"}, {"md_atom_id": "md_dmMH_ex_a021", "md_file": "knowledge_base/domains/MH/examples.md", "md_atom_type": "TABLE_ROW", "md_parent_section": "§MH.1 [Example 1]", "md_verbatim": "| 3 | ABC123 | MH | 123101 | 3 | | BROKEN LEG | Bone fracture | GENERAL MEDICAL HISTORY | OTHER | Musculoskeletal system disorders | 2004-09-18 | BEFORE | |", "score": 0.9824, "match_basis": "verbatim_token+domain_route:MH"}, {"md_atom_id": "md_dmMH_ex_a019", "md_file": "knowledge_base/domains/MH/examples.md", "md_atom_type": "TABLE_ROW", "md_parent_section": "§MH.1 [Example 1]", "md_verbatim": "| 1 | ABC123 | MH | 123101 | 1 | | ASTHMA | Asthma | GENERAL MEDICAL HISTORY | RESPIRATORY | Respiratory system disorders | 2004-09-18 | ONGOING | |", "score": 0.6357, "match_basis": "verbatim_token+domain_route:MH"}, {"md_atom_id": "md_dmMH_ex_a045", "md_file": "knowledge_base/domains/MH/examples.md", "md_atom_type": "TABLE_ROW", "md_parent_section": "§MH.2 [Example 2]", "md_verbatim": "| 1 | ABC123 | MH | 123101 | 1 | ASTHMA | Asthma | GENERAL MEDICAL HISTORY | RESPIRATORY | Respiratory system disorders | | | | DURING/AFTER |", "score": 0.6357, "match_basis": "verbatim_token+domain_route:MH"}, {"md_atom_id": "md_dmMH_ex_a020", "md_file": "knowledge_base/domains/MH/examples.md", "md_atom_type": "TABLE_ROW", "md_parent_section": "§MH.1 [Example 1]", "md_verbatim": "| 2 | ABC123 | MH | 123101 | 2 | | FREQUENT HEADACHES | Headache | GENERAL MEDICAL HISTORY | CNS | Central and peripheral nervous system disorders | 2004-09-18 | ONGOING | |", "score": 0.604, "match_basis": "verbatim_token+domain_route:MH"}], "candidate_count": 5, "zero_candidate": false}
{"pdf_atom_id": "ig34_p0176_a0009", "pdf_atom_type": "TABLE_ROW", "pdf_source": "SDTMIG_v3.4", "pdf_page": 176, "pdf_parent_section": "§6.2.6 Medical History (MH)", "pdf_verbatim": "| 4 | ABC123 | MH | 123101 | 4 | ISCHEMIC STROKE | Ischaemic Stroke | STROKE HISTORY | | | | | 2004-09-17T07:30 | |", "figure_ref": null, "candidates": [{"md_atom_id": "md_dmMH_ex_a048", "md_file": "knowledge_base/domains/MH/examples.md", "md_atom_type": "TABLE_ROW", "md_parent_section": "§MH.2 [Example 2]", "md_verbatim": "| 4 | ABC123 | MH | 123101 | 4 | ISCHEMIC STROKE | Ischaemic Stroke | STROKE HISTORY | | | | | 2004-09-17T07:30 | |", "score": 1.0, "match_basis": "verbatim_token+domain_route:MH"}, {"md_atom_id": "md_dmMH_ex_a052", "md_file": "knowledge_base/domains/MH/examples.md", "md_atom_type": "TABLE_ROW", "md_parent_section": "§MH.2 [Example 2]", "md_verbatim": "| 8 | ABC123 | MH | 123101 | 8 | TIA | Transient ischaemic attack | RISK FACTORS | | | Y | N | | |", "score": 0.5875, "match_basis": "verbatim_token+domain_route:MH"}, {"md_atom_id": "md_dmMH_ex_a067", "md_file": "knowledge_base/domains/MH/examples.md", "md_atom_type": "TABLE_ROW", "md_parent_section": "§MH.3 [Example 3]", "md_verbatim": "| 4 | ABC123 | MH | 101002 | 4 | TRANSIENT ISCHEMIC ATTACK | Transient Ischemic Attack | Y | Y | | 1 | | SCREEN | 2006-04-22 | -5 |", "score": 0.5469, "match_basis": "verbatim_token+domain_route:MH"}, {"md_atom_id": "md_dmMH_ex_a072", "md_file": "knowledge_base/domains/MH/examples.md", "md_atom_type": "TABLE_ROW", "md_parent_section": "§MH.3 [Example 3]", "md_verbatim": "| 9 | ABC123 | MH | 101003 | 4 | TRANSIENT ISCHEMIC ATTACK | Transient Ischemic Attack | Y | N | | | 1 | SCREEN | 2006-05-03 | -3 |", "score": 0.5469, "match_basis": "verbatim_token+domain_route:MH"}, {"md_atom_id": "md_dmMH_ex_a022", "md_file": "knowledge_base/domains/MH/examples.md", "md_atom_type": "TABLE_ROW", "md_parent_section": "§MH.1 [Example 1]", "md_verbatim": "| 4 | ABC123 | MH | 123101 | 4 | CHF | CONGESTIVE HEART FAILURE | Cardiac failure congestive | CARDIAC MEDICAL HISTORY | | Cardiac disorders | 2004-09-17 | | |", "score": 0.5312, "match_basis": "verbatim_token+domain_route:MH"}], "candidate_count": 5, "zero_candidate": false}
{"pdf_atom_id": "ig34_p0176_a0010", "pdf_atom_type": "TABLE_ROW", "pdf_source": "SDTMIG_v3.4", "pdf_page": 176, "pdf_parent_section": "§6.2.6 Medical History (MH)", "pdf_verbatim": "| 5 | ABC123 | MH | 123101 | 5 | DIABETES | Diabetes mellitus | RISK FACTORS | | Y | Y | | | |", "figure_ref": null, "candidates": [{"md_atom_id": "md_dmMH_ex_a049", "md_file": "knowledge_base/domains/MH/examples.md", "md_atom_type": "TABLE_ROW", "md_parent_section": "§MH.2 [Example 2]", "md_verbatim": "| 5 | ABC123 | MH | 123101 | 5 | DIABETES | Diabetes mellitus | RISK FACTORS | | | Y | Y | | |", "score": 1.0, "match_basis": "verbatim_token+domain_route:MH"}, {"md_atom_id": "md_dmMH_ex_a051", "md_file": "knowledge_base/domains/MH/examples.md", "md_atom_type": "TABLE_ROW", "md_parent_section": "§MH.2 [Example 2]", "md_verbatim": "| 7 | ABC123 | MH | 123101 | 7 | HYPERTENSION | Hypertension | RISK FACTORS | | | Y | Y | | |", "score": 0.6333, "match_basis": "verbatim_token+domain_route:MH"}, {"md_atom_id": "md_dmMH_ex_a085", "md_file": "knowledge_base/domains/MH/examples.md", "md_atom_type": "TABLE_ROW", "md_parent_section": "§MH.4 [Example 4]", "md_verbatim": "| 2 | XYZ | MH | XYZ-001-001 | 2 | TYPE 2 DIABETES MELLITUS | Type 2 diabetes mellitus | | DIABETES | Y | N | 2010-09-26 | |", "score": 0.625, "match_basis": "verbatim_token+domain_route:MH"}, {"md_atom_id": "md_dmMH_ex_a086", "md_file": "knowledge_base/domains/MH/examples.md", "md_atom_type": "TABLE_ROW", "md_parent_section": "§MH.4 [Example 4]", "md_verbatim": "| 3 | XYZ | MH | XYZ-001-002 | 1 | TYPE 1 DIABETES MELLITUS | Type 1 diabetes mellitus | | DIABETES | Y | N | 2010-10-26 | |", "score": 0.6182, "match_basis": "verbatim_token+domain_route:MH"}, {"md_atom_id": "md_dmMH_ex_a050", "md_file": "knowledge_base/domains/MH/examples.md", "md_atom_type": "TABLE_ROW", "md_parent_section": "§MH.2 [Example 2]", "md_verbatim": "| 6 | ABC123 | MH | 123101 | 6 | HYPERCHOLESTEROLEMIA | Hypercholesterolemia | RISK FACTORS | | | Y | Y | | |", "score": 0.5953, "match_basis": "verbatim_token+domain_route:MH"}], "candidate_count": 5, "zero_candidate": false}
{"pdf_atom_id": "ig34_p0176_a0011", "pdf_atom_type": "TABLE_ROW", "pdf_source": "SDTMIG_v3.4", "pdf_page": 176, "pdf_parent_section": "§6.2.6 Medical History (MH)", "pdf_verbatim": "| 6 | ABC123 | MH | 123101 | 6 | HYPERCHOLESTEROLEMIA | Hypercholesterolemia | RISK FACTORS | | Y | Y | | | |", "figure_ref": null, "candidates": [{"md_atom_id": "md_dmMH_ex_a050", "md_file": "knowledge_base/domains/MH/examples.md", "md_atom_type": "TABLE_ROW", "md_parent_section": "§MH.2 [Example 2]", "md_verbatim": "| 6 | ABC123 | MH | 123101 | 6 | HYPERCHOLESTEROLEMIA | Hypercholesterolemia | RISK FACTORS | | | Y | Y | | |", "score": 1.0, "match_basis": "verbatim_token+domain_route:MH"}, {"md_atom_id": "md_dmMH_ex_a051", "md_file": "knowledge_base/domains/MH/examples.md", "md_atom_type": "TABLE_ROW", "md_parent_section": "§MH.2 [Example 2]", "md_verbatim": "| 7 | ABC123 | MH | 123101 | 7 | HYPERTENSION | Hypertension | RISK FACTORS | | | Y | Y | | |", "score": 0.6684, "match_basis": "verbatim_token+domain_route:MH"}, {"md_atom_id": "md_dmMH_ex_a049", "md_file": "knowledge_base/domains/MH/examples.md", "md_atom_type": "TABLE_ROW", "md_parent_section": "§MH.2 [Example 2]", "md_verbatim": "| 5 | ABC123 | MH | 123101 | 5 | DIABETES | Diabetes mellitus | RISK FACTORS | | | Y | Y | | |", "score": 0.5953, "match_basis": "verbatim_token+domain_route:MH"}, {"md_atom_id": "md_dmMH_ex_a052", "md_file": "knowledge_base/domains/MH/examples.md", "md_atom_type": "TABLE_ROW", "md_parent_section": "§MH.2 [Example 2]", "md_verbatim": "| 8 | ABC123 | MH | 123101 | 8 | TIA | Transient ischaemic attack | RISK FACTORS | | | Y | N | | |", "score": 0.5837, "match_basis": "verbatim_token+domain_route:MH"}, {"md_atom_id": "md_dmMH_ex_a048", "md_file": "knowledge_base/domains/MH/examples.md", "md_atom_type": "TABLE_ROW", "md_parent_section": "§MH.2 [Example 2]", "md_verbatim": "| 4 | ABC123 | MH | 123101 | 4 | ISCHEMIC STROKE | Ischaemic Stroke | STROKE HISTORY | | | | | 2004-09-17T07:30 | |", "score": 0.5038, "match_basis": "verbatim_token+domain_route:MH"}], "candidate_count": 5, "zero_candidate": false}
{"pdf_atom_id": "ig34_p0176_a0012", "pdf_atom_type": "TABLE_ROW", "pdf_source": "SDTMIG_v3.4", "pdf_page": 176, "pdf_parent_section": "§6.2.6 Medical History (MH)", "pdf_verbatim": "| 7 | ABC123 | MH | 123101 | 7 | HYPERTENSION | Hypertension | RISK FACTORS | | Y | Y | | | |", "figure_ref": null, "candidates": [{"md_atom_id": "md_dmMH_ex_a051", "md_file": "knowledge_base/domains/MH/examples.md", "md_atom_type": "TABLE_ROW", "md_parent_section": "§MH.2 [Example 2]", "md_verbatim": "| 7 | ABC123 | MH | 123101 | 7 | HYPERTENSION | Hypertension | RISK FACTORS | | | Y | Y | | |", "score": 1.0, "match_basis": "verbatim_token+domain_route:MH"}, {"md_atom_id": "md_dmMH_ex_a050", "md_file": "knowledge_base/domains/MH/examples.md", "md_atom_type": "TABLE_ROW", "md_parent_section": "§MH.2 [Example 2]", "md_verbatim": "| 6 | ABC123 | MH | 123101 | 6 | HYPERCHOLESTEROLEMIA | Hypercholesterolemia | RISK FACTORS | | | Y | Y | | |", "score": 0.6684, "match_basis": "verbatim_token+domain_route:MH"}, {"md_atom_id": "md_dmMH_ex_a049", "md_file": "knowledge_base/domains/MH/examples.md", "md_atom_type": "TABLE_ROW", "md_parent_section": "§MH.2 [Example 2]", "md_verbatim": "| 5 | ABC123 | MH | 123101 | 5 | DIABETES | Diabetes mellitus | RISK FACTORS | | | Y | Y | | |", "score": 0.6333, "match_basis": "verbatim_token+domain_route:MH"}, {"md_atom_id": "md_dmMH_ex_a052", "md_file": "knowledge_base/domains/MH/examples.md", "md_atom_type": "TABLE_ROW", "md_parent_section": "§MH.2 [Example 2]", "md_verbatim": "| 8 | ABC123 | MH | 123101 | 8 | TIA | Transient ischaemic attack | RISK FACTORS | | | Y | N | | |", "score": 0.6143, "match_basis": "verbatim_token+domain_route:MH"}, {"md_atom_id": "md_dmMH_ex_a048", "md_file": "knowledge_base/domains/MH/examples.md", "md_atom_type": "TABLE_ROW", "md_parent_section": "§MH.2 [Example 2]", "md_verbatim": "| 4 | ABC123 | MH | 123101 | 4 | ISCHEMIC STROKE | Ischaemic Stroke | STROKE HISTORY | | | | | 2004-09-17T07:30 | |", "score": 0.5043, "match_basis": "verbatim_token+domain_route:MH"}], "candidate_count": 5, "zero_candidate": false}
{"pdf_atom_id": "ig34_p0176_a0013", "pdf_atom_type": "TABLE_ROW", "pdf_source": "SDTMIG_v3.4", "pdf_page": 176, "pdf_parent_section": "§6.2.6 Medical History (MH)", "pdf_verbatim": "| 8 | ABC123 | MH | 123101 | 8 | TIA | Transient ischaemic attack | RISK FACTORS | | Y | N | | | |", "figure_ref": null, "candidates": [{"md_atom_id": "md_dmMH_ex_a052", "md_file": "knowledge_base/domains/MH/examples.md", "md_atom_type": "TABLE_ROW", "md_parent_section": "§MH.2 [Example 2]", "md_verbatim": "| 8 | ABC123 | MH | 123101 | 8 | TIA | Transient ischaemic attack | RISK FACTORS | | | Y | N | | |", "score": 1.0, "match_basis": "verbatim_token+domain_route:MH"}, {"md_atom_id": "md_dmMH_ex_a067", "md_file": "knowledge_base/domains/MH/examples.md", "md_atom_type": "TABLE_ROW", "md_parent_section": "§MH.3 [Example 3]", "md_verbatim": "| 4 | ABC123 | MH | 101002 | 4 | TRANSIENT ISCHEMIC ATTACK | Transient Ischemic Attack | Y | Y | | 1 | | SCREEN | 2006-04-22 | -5 |", "score": 0.6727, "match_basis": "verbatim_token+domain_route:MH"}, {"md_atom_id": "md_dmMH_ex_a072", "md_file": "knowledge_base/domains/MH/examples.md", "md_atom_type": "TABLE_ROW", "md_parent_section": "§MH.3 [Example 3]", "md_verbatim": "| 9 | ABC123 | MH | 101003 | 4 | TRANSIENT ISCHEMIC ATTACK | Transient Ischemic Attack | Y | N | | | 1 | SCREEN | 2006-05-03 | -3 |", "score": 0.6727, "match_basis": "verbatim_token+domain_route:MH"}, {"md_atom_id": "md_dmMH_ex_a051", "md_file": "knowledge_base/domains/MH/examples.md", "md_atom_type": "TABLE_ROW", "md_parent_section": "§MH.2 [Example 2]", "md_verbatim": "| 7 | ABC123 | MH | 123101 | 7 | HYPERTENSION | Hypertension | RISK FACTORS | | | Y | Y | | |", "score": 0.6143, "match_basis": "verbatim_token+domain_route:MH"}, {"md_atom_id": "md_dmMH_ex_a048", "md_file": "knowledge_base/domains/MH/examples.md", "md_atom_type": "TABLE_ROW", "md_parent_section": "§MH.2 [Example 2]", "md_verbatim": "| 4 | ABC123 | MH | 123101 | 4 | ISCHEMIC STROKE | Ischaemic Stroke | STROKE HISTORY | | | | | 2004-09-17T07:30 | |", "score": 0.5875, "match_basis": "verbatim_token+domain_route:MH"}], "candidate_count": 5, "zero_candidate": false}
{"pdf_atom_id": "ig34_p0176_a0014", "pdf_atom_type": "SENTENCE", "pdf_source": "SDTMIG_v3.4", "pdf_page": 176, "pdf_parent_section": "§6.2.6 Medical History (MH)", "pdf_verbatim": "Example 3", "figure_ref": null, "candidates": [{"md_atom_id": "md_dmMH_ex_a002", "md_file": "knowledge_base/domains/MH/examples.md", "md_atom_type": "HEADING", "md_parent_section": "§MH [MH — Examples]", "md_verbatim": "## Example 1", "score": 0.76, "match_basis": "verbatim_token+domain_route:MH"}, {"md_atom_id": "md_dmMH_ex_a024", "md_file": "knowledge_base/domains/MH/examples.md", "md_atom_type": "HEADING", "md_parent_section": "§MH [MH — Examples]", "md_verbatim": "## Example 2", "score": 0.76, "match_basis": "verbatim_token+domain_route:MH"}, {"md_atom_id": "md_dmMH_ex_a053", "md_file": "knowledge_base/domains/MH/examples.md", "md_atom_type": "HEADING", "md_parent_section": "§MH [MH — Examples]", "md_verbatim": "## Example 3", "score": 0.76, "match_basis": "verbatim_token+domain_route:MH"}, {"md_atom_id": "md_dmMH_ex_a074", "md_file": "knowledge_base/domains/MH/examples.md", "md_atom_type": "HEADING", "md_parent_section": "§MH [MH — Examples]", "md_verbatim": "## Example 4", "score": 0.76, "match_basis": "verbatim_token+domain_route:MH"}, {"md_atom_id": "md_dmMH_ex_a088", "md_file": "knowledge_base/domains/MH/examples.md", "md_atom_type": "HEADING", "md_parent_section": "§MH [MH — Examples]", "md_verbatim": "## Example 5", "score": 0.76, "match_basis": "verbatim_token+domain_route:MH"}, {"md_atom_id": "md_dmMH_ex_a001", "md_file": "knowledge_base/domains/MH/examples.md", "md_atom_type": "HEADING", "md_parent_section": "§MH [MH — Examples]", "md_verbatim": "# MH — Examples", "score": 0.66, "match_basis": "verbatim_token+domain_route:MH"}, {"md_atom_id": "md_dmMH_ex_a090", "md_file": "knowledge_base/domains/MH/examples.md", "md_atom_type": "SENTENCE", "md_parent_section": "§MH.5 [Example 5]", "md_verbatim": "The example shows data for 2 subjects.", "score": 0.5667, "match_basis": "verbatim_token+domain_route:MH"}, {"md_atom_id": "md_dmMH_ex_a025", "md_file": "knowledge_base/domains/MH/examples.md", "md_atom_type": "SENTENCE", "md_parent_section": "§MH.2 [Example 2]", "md_verbatim": "In this example, data from 3 CRF modules related to medical history were collected:", "score": 0.4769, "match_basis": "verbatim_token+domain_route:MH"}, {"md_atom_id": "md_dmMH_ex_a054", "md_file": "knowledge_base/domains/MH/examples.md", "md_atom_type": "SENTENCE", "md_parent_section": "§MH.3 [Example 3]", "md_verbatim": "This is an example of a medical history CRF where the history of specific (prespecified) conditions is solicited.", "score": 0.4638, "match_basis": "verbatim_token+domain_route:MH"}, {"md_atom_id": "md_dmMH_ex_a089", "md_file": "knowledge_base/domains/MH/examples.md", "md_atom_type": "SENTENCE", "md_parent_section": "§MH.5 [Example 5]", "md_verbatim": "This example shows data from a study in which data were collected about whether subjects had had any respiratory infections in the prior 6 months and, if they had, collected data on those respiratory infections.", "score": 0.4417, "match_basis": "verbatim_token+domain_route:MH"}], "candidate_count": 10, "zero_candidate": false}
