{"pdf_atom_id": "ig34_p0342_a025", "pdf_atom_type": "TABLE_ROW", "pdf_source": "SDTMIG_v3.4", "pdf_page": 342, "pdf_parent_section": "SS – Specification", "pdf_verbatim": "| DOMAIN | Domain Abbreviation | Char | SS | Identifier | Two-character abbreviation for the domain. | Req |", "figure_ref": null, "candidates": [{"md_atom_id": "md_dmSS_ex_a002", "md_file": "knowledge_base/domains/SS/examples.md", "md_atom_type": "SENTENCE", "md_parent_section": "§SS [SS — Examples]", "md_verbatim": "No dataset examples are provided for the SS domain in the SDTMIG v3.4.", "score": 0.2978, "match_basis": "verbatim_token+domain_route:SS"}, {"md_atom_id": "md_dmSS_assn_a006", "md_file": "knowledge_base/domains/SS/assumptions.md", "md_atom_type": "LIST_ITEM", "md_parent_section": "§SS [SS — Assumptions]", "md_verbatim": "4. Any Identifiers, Timing variables, or Findings general observation class qualifiers may be added to the SS domain, but the following qualifiers would generally not be used: --MODIFY, --POS, --BODSYS, --ORRESU, --ORNRLO, --ORNRHI, --STRESN, --STRESU, --STNRLO, --STNRHI, --STNRC, --NRIND, --RESCAT, --XFN, --NAM, --LOINC, --SPEC, --SPCCND, --LOC, --METHOD, --BLFL, --FAST, --DRVFL, --TOX, --TOXGR, --SEV.", "score": 0.2862, "match_basis": "verbatim_token+domain_route:SS"}, {"md_atom_id": "md_dmSS_assn_a003", "md_file": "knowledge_base/domains/SS/assumptions.md", "md_atom_type": "LIST_ITEM", "md_parent_section": "§SS [SS — Assumptions]", "md_verbatim": "2. RELREC may be used to link assessments in SS with data in other domains that were collected as a result of the subject's status assessment.", "score": 0.2732, "match_basis": "verbatim_token+domain_route:SS"}, {"md_atom_id": "md_dmSS_assn_a002", "md_file": "knowledge_base/domains/SS/assumptions.md", "md_atom_type": "LIST_ITEM", "md_parent_section": "§SS [SS — Assumptions]", "md_verbatim": "1. Details about the circumstances of a subject's status are stored in the appropriate separate domain(s), even when collection is triggered by the response to the status assessment. For example, if a subject's survival status is \"DEAD\", the date of death must be stored in DM and within a final disposition record in DS. Only the status collection date, the status question, and the status response are stored in SS.", "score": 0.2649, "match_basis": "verbatim_token+domain_route:SS"}, {"md_atom_id": "md_dmSS_assn_a005", "md_file": "knowledge_base/domains/SS/assumptions.md", "md_atom_type": "LIST_ITEM", "md_parent_section": "§SS [SS — Assumptions]", "md_verbatim": "   a. Associations between the SS tests and response codelists are described in the SS Codetable, available at https://www.cdisc.org/standards/terminology/controlled-terminology.", "score": 0.2536, "match_basis": "verbatim_token+domain_route:SS"}], "candidate_count": 5, "zero_candidate": false}
{"pdf_atom_id": "ig34_p0343_a001", "pdf_atom_type": "TABLE_ROW", "pdf_source": "SDTMIG_v3.4", "pdf_page": 343, "pdf_parent_section": "SS – Specification", "pdf_verbatim": "| USUBJID | Unique Subject Identifier | Char | | Identifier | Identifier used to uniquely identify a subject across all studies for all applications or submissions involving the product. | Req |", "figure_ref": null, "candidates": [{"md_atom_id": "md_dmSS_assn_a006", "md_file": "knowledge_base/domains/SS/assumptions.md", "md_atom_type": "LIST_ITEM", "md_parent_section": "§SS [SS — Assumptions]", "md_verbatim": "4. Any Identifiers, Timing variables, or Findings general observation class qualifiers may be added to the SS domain, but the following qualifiers would generally not be used: --MODIFY, --POS, --BODSYS, --ORRESU, --ORNRLO, --ORNRHI, --STRESN, --STRESU, --STNRLO, --STNRHI, --STNRC, --NRIND, --RESCAT, --XFN, --NAM, --LOINC, --SPEC, --SPCCND, --LOC, --METHOD, --BLFL, --FAST, --DRVFL, --TOX, --TOXGR, --SEV.", "score": 0.2807, "match_basis": "verbatim_token+domain_route:SS"}, {"md_atom_id": "md_dmSS_assn_a003", "md_file": "knowledge_base/domains/SS/assumptions.md", "md_atom_type": "LIST_ITEM", "md_parent_section": "§SS [SS — Assumptions]", "md_verbatim": "2. RELREC may be used to link assessments in SS with data in other domains that were collected as a result of the subject's status assessment.", "score": 0.2682, "match_basis": "verbatim_token+domain_route:SS"}, {"md_atom_id": "md_dmSS_assn_a002", "md_file": "knowledge_base/domains/SS/assumptions.md", "md_atom_type": "LIST_ITEM", "md_parent_section": "§SS [SS — Assumptions]", "md_verbatim": "1. Details about the circumstances of a subject's status are stored in the appropriate separate domain(s), even when collection is triggered by the response to the status assessment. For example, if a subject's survival status is \"DEAD\", the date of death must be stored in DM and within a final disposition record in DS. Only the status collection date, the status question, and the status response are stored in SS.", "score": 0.2669, "match_basis": "verbatim_token+domain_route:SS"}, {"md_atom_id": "md_dmSS_ex_a002", "md_file": "knowledge_base/domains/SS/examples.md", "md_atom_type": "SENTENCE", "md_parent_section": "§SS [SS — Examples]", "md_verbatim": "No dataset examples are provided for the SS domain in the SDTMIG v3.4.", "score": 0.2461, "match_basis": "verbatim_token+domain_route:SS"}, {"md_atom_id": "md_dmSS_assn_a005", "md_file": "knowledge_base/domains/SS/assumptions.md", "md_atom_type": "LIST_ITEM", "md_parent_section": "§SS [SS — Assumptions]", "md_verbatim": "   a. Associations between the SS tests and response codelists are described in the SS Codetable, available at https://www.cdisc.org/standards/terminology/controlled-terminology.", "score": 0.241, "match_basis": "verbatim_token+domain_route:SS"}], "candidate_count": 5, "zero_candidate": false}
{"pdf_atom_id": "ig34_p0343_a002", "pdf_atom_type": "TABLE_ROW", "pdf_source": "SDTMIG_v3.4", "pdf_page": 343, "pdf_parent_section": "SS – Specification", "pdf_verbatim": "| SSSEQ | Sequence Number | Num | | Identifier | Sequence number given to ensure uniqueness of subject records within a domain. May be any valid number. | Req |", "figure_ref": null, "candidates": [{"md_atom_id": "md_dmSS_assn_a003", "md_file": "knowledge_base/domains/SS/assumptions.md", "md_atom_type": "LIST_ITEM", "md_parent_section": "§SS [SS — Assumptions]", "md_verbatim": "2. RELREC may be used to link assessments in SS with data in other domains that were collected as a result of the subject's status assessment.", "score": 0.3221, "match_basis": "verbatim_token+domain_route:SS"}, {"md_atom_id": "md_dmSS_assn_a002", "md_file": "knowledge_base/domains/SS/assumptions.md", "md_atom_type": "LIST_ITEM", "md_parent_section": "§SS [SS — Assumptions]", "md_verbatim": "1. Details about the circumstances of a subject's status are stored in the appropriate separate domain(s), even when collection is triggered by the response to the status assessment. For example, if a subject's survival status is \"DEAD\", the date of death must be stored in DM and within a final disposition record in DS. Only the status collection date, the status question, and the status response are stored in SS.", "score": 0.3155, "match_basis": "verbatim_token+domain_route:SS"}, {"md_atom_id": "md_dmSS_assn_a006", "md_file": "knowledge_base/domains/SS/assumptions.md", "md_atom_type": "LIST_ITEM", "md_parent_section": "§SS [SS — Assumptions]", "md_verbatim": "4. Any Identifiers, Timing variables, or Findings general observation class qualifiers may be added to the SS domain, but the following qualifiers would generally not be used: --MODIFY, --POS, --BODSYS, --ORRESU, --ORNRLO, --ORNRHI, --STRESN, --STRESU, --STNRLO, --STNRHI, --STNRC, --NRIND, --RESCAT, --XFN, --NAM, --LOINC, --SPEC, --SPCCND, --LOC, --METHOD, --BLFL, --FAST, --DRVFL, --TOX, --TOXGR, --SEV.", "score": 0.2768, "match_basis": "verbatim_token+domain_route:SS"}, {"md_atom_id": "md_dmSS_ex_a002", "md_file": "knowledge_base/domains/SS/examples.md", "md_atom_type": "SENTENCE", "md_parent_section": "§SS [SS — Examples]", "md_verbatim": "No dataset examples are provided for the SS domain in the SDTMIG v3.4.", "score": 0.2575, "match_basis": "verbatim_token+domain_route:SS"}, {"md_atom_id": "md_dmSS_assn_a005", "md_file": "knowledge_base/domains/SS/assumptions.md", "md_atom_type": "LIST_ITEM", "md_parent_section": "§SS [SS — Assumptions]", "md_verbatim": "   a. Associations between the SS tests and response codelists are described in the SS Codetable, available at https://www.cdisc.org/standards/terminology/controlled-terminology.", "score": 0.2244, "match_basis": "verbatim_token+domain_route:SS"}], "candidate_count": 5, "zero_candidate": false}
{"pdf_atom_id": "ig34_p0343_a003", "pdf_atom_type": "TABLE_ROW", "pdf_source": "SDTMIG_v3.4", "pdf_page": 343, "pdf_parent_section": "SS – Specification", "pdf_verbatim": "| SSGRPID | Group ID | Char | | Identifier | Used to tie together a block of related records in a single domain for a subject. | Perm |", "figure_ref": null, "candidates": [{"md_atom_id": "md_dmSS_assn_a003", "md_file": "knowledge_base/domains/SS/assumptions.md", "md_atom_type": "LIST_ITEM", "md_parent_section": "§SS [SS — Assumptions]", "md_verbatim": "2. RELREC may be used to link assessments in SS with data in other domains that were collected as a result of the subject's status assessment.", "score": 0.3309, "match_basis": "verbatim_token+domain_route:SS"}, {"md_atom_id": "md_dmSS_assn_a006", "md_file": "knowledge_base/domains/SS/assumptions.md", "md_atom_type": "LIST_ITEM", "md_parent_section": "§SS [SS — Assumptions]", "md_verbatim": "4. Any Identifiers, Timing variables, or Findings general observation class qualifiers may be added to the SS domain, but the following qualifiers would generally not be used: --MODIFY, --POS, --BODSYS, --ORRESU, --ORNRLO, --ORNRHI, --STRESN, --STRESU, --STNRLO, --STNRHI, --STNRC, --NRIND, --RESCAT, --XFN, --NAM, --LOINC, --SPEC, --SPCCND, --LOC, --METHOD, --BLFL, --FAST, --DRVFL, --TOX, --TOXGR, --SEV.", "score": 0.2851, "match_basis": "verbatim_token+domain_route:SS"}, {"md_atom_id": "md_dmSS_assn_a002", "md_file": "knowledge_base/domains/SS/assumptions.md", "md_atom_type": "LIST_ITEM", "md_parent_section": "§SS [SS — Assumptions]", "md_verbatim": "1. Details about the circumstances of a subject's status are stored in the appropriate separate domain(s), even when collection is triggered by the response to the status assessment. For example, if a subject's survival status is \"DEAD\", the date of death must be stored in DM and within a final disposition record in DS. Only the status collection date, the status question, and the status response are stored in SS.", "score": 0.2822, "match_basis": "verbatim_token+domain_route:SS"}, {"md_atom_id": "md_dmSS_ex_a002", "md_file": "knowledge_base/domains/SS/examples.md", "md_atom_type": "SENTENCE", "md_parent_section": "§SS [SS — Examples]", "md_verbatim": "No dataset examples are provided for the SS domain in the SDTMIG v3.4.", "score": 0.2745, "match_basis": "verbatim_token+domain_route:SS"}, {"md_atom_id": "md_dmSS_assn_a004", "md_file": "knowledge_base/domains/SS/assumptions.md", "md_atom_type": "LIST_ITEM", "md_parent_section": "§SS [SS — Assumptions]", "md_verbatim": "3. There are separate codelists for SS tests and responses.", "score": 0.25, "match_basis": "verbatim_token+domain_route:SS"}], "candidate_count": 5, "zero_candidate": false}
{"pdf_atom_id": "ig34_p0343_a004", "pdf_atom_type": "TABLE_ROW", "pdf_source": "SDTMIG_v3.4", "pdf_page": 343, "pdf_parent_section": "SS – Specification", "pdf_verbatim": "| SSSPID | Sponsor-Defined Identifier | Char | | Identifier | Sponsor-defined reference number. May be preprinted on the CRF as an explicit line identifier or defined in the sponsor's operational database. Example: Line number from the Procedure or Test page. | Perm |", "figure_ref": null, "candidates": [{"md_atom_id": "md_dmSS_assn_a002", "md_file": "knowledge_base/domains/SS/assumptions.md", "md_atom_type": "LIST_ITEM", "md_parent_section": "§SS [SS — Assumptions]", "md_verbatim": "1. Details about the circumstances of a subject's status are stored in the appropriate separate domain(s), even when collection is triggered by the response to the status assessment. For example, if a subject's survival status is \"DEAD\", the date of death must be stored in DM and within a final disposition record in DS. Only the status collection date, the status question, and the status response are stored in SS.", "score": 0.286, "match_basis": "verbatim_token+domain_route:SS"}, {"md_atom_id": "md_dmSS_ex_a002", "md_file": "knowledge_base/domains/SS/examples.md", "md_atom_type": "SENTENCE", "md_parent_section": "§SS [SS — Examples]", "md_verbatim": "No dataset examples are provided for the SS domain in the SDTMIG v3.4.", "score": 0.2835, "match_basis": "verbatim_token+domain_route:SS"}, {"md_atom_id": "md_dmSS_assn_a006", "md_file": "knowledge_base/domains/SS/assumptions.md", "md_atom_type": "LIST_ITEM", "md_parent_section": "§SS [SS — Assumptions]", "md_verbatim": "4. Any Identifiers, Timing variables, or Findings general observation class qualifiers may be added to the SS domain, but the following qualifiers would generally not be used: --MODIFY, --POS, --BODSYS, --ORRESU, --ORNRLO, --ORNRHI, --STRESN, --STRESU, --STNRLO, --STNRHI, --STNRC, --NRIND, --RESCAT, --XFN, --NAM, --LOINC, --SPEC, --SPCCND, --LOC, --METHOD, --BLFL, --FAST, --DRVFL, --TOX, --TOXGR, --SEV.", "score": 0.2682, "match_basis": "verbatim_token+domain_route:SS"}, {"md_atom_id": "md_dmSS_assn_a004", "md_file": "knowledge_base/domains/SS/assumptions.md", "md_atom_type": "LIST_ITEM", "md_parent_section": "§SS [SS — Assumptions]", "md_verbatim": "3. There are separate codelists for SS tests and responses.", "score": 0.2649, "match_basis": "verbatim_token+domain_route:SS"}, {"md_atom_id": "md_dmSS_assn_a005", "md_file": "knowledge_base/domains/SS/assumptions.md", "md_atom_type": "LIST_ITEM", "md_parent_section": "§SS [SS — Assumptions]", "md_verbatim": "   a. Associations between the SS tests and response codelists are described in the SS Codetable, available at https://www.cdisc.org/standards/terminology/controlled-terminology.", "score": 0.2623, "match_basis": "verbatim_token+domain_route:SS"}], "candidate_count": 5, "zero_candidate": false}
{"pdf_atom_id": "ig34_p0343_a005", "pdf_atom_type": "TABLE_ROW", "pdf_source": "SDTMIG_v3.4", "pdf_page": 343, "pdf_parent_section": "SS – Specification", "pdf_verbatim": "| SSTESTCD | Status Short Name | Char | (SSTESTCD) | Topic | Short name of the status assessment described in SSTEST. It can be used as a column name when converting a dataset from a vertical to a horizontal format. The value in SSTESTCD cannot be longer than 8 characters, nor can it start with a number (e.g., \"1TEST\" is not valid). SSTESTCD cannot contain characters other than letters, numbers, or underscores. Example: \"SURVSTAT\". | Req |", "figure_ref": null, "candidates": [{"md_atom_id": "md_dmSS_assn_a003", "md_file": "knowledge_base/domains/SS/assumptions.md", "md_atom_type": "LIST_ITEM", "md_parent_section": "§SS [SS — Assumptions]", "md_verbatim": "2. RELREC may be used to link assessments in SS with data in other domains that were collected as a result of the subject's status assessment.", "score": 0.32, "match_basis": "verbatim_token+domain_route:SS"}, {"md_atom_id": "md_dmSS_assn_a002", "md_file": "knowledge_base/domains/SS/assumptions.md", "md_atom_type": "LIST_ITEM", "md_parent_section": "§SS [SS — Assumptions]", "md_verbatim": "1. Details about the circumstances of a subject's status are stored in the appropriate separate domain(s), even when collection is triggered by the response to the status assessment. For example, if a subject's survival status is \"DEAD\", the date of death must be stored in DM and within a final disposition record in DS. Only the status collection date, the status question, and the status response are stored in SS.", "score": 0.3191, "match_basis": "verbatim_token+domain_route:SS"}, {"md_atom_id": "md_dmSS_ex_a002", "md_file": "knowledge_base/domains/SS/examples.md", "md_atom_type": "SENTENCE", "md_parent_section": "§SS [SS — Examples]", "md_verbatim": "No dataset examples are provided for the SS domain in the SDTMIG v3.4.", "score": 0.2742, "match_basis": "verbatim_token+domain_route:SS"}, {"md_atom_id": "md_dmSS_assn_a005", "md_file": "knowledge_base/domains/SS/assumptions.md", "md_atom_type": "LIST_ITEM", "md_parent_section": "§SS [SS — Assumptions]", "md_verbatim": "   a. Associations between the SS tests and response codelists are described in the SS Codetable, available at https://www.cdisc.org/standards/terminology/controlled-terminology.", "score": 0.2697, "match_basis": "verbatim_token+domain_route:SS"}, {"md_atom_id": "md_dmSS_assn_a004", "md_file": "knowledge_base/domains/SS/assumptions.md", "md_atom_type": "LIST_ITEM", "md_parent_section": "§SS [SS — Assumptions]", "md_verbatim": "3. There are separate codelists for SS tests and responses.", "score": 0.2522, "match_basis": "verbatim_token+domain_route:SS"}], "candidate_count": 5, "zero_candidate": false}
{"pdf_atom_id": "ig34_p0343_a006", "pdf_atom_type": "TABLE_ROW", "pdf_source": "SDTMIG_v3.4", "pdf_page": 343, "pdf_parent_section": "SS – Specification", "pdf_verbatim": "| SSTEST | Status Name | Char | (SSTEST) | Synonym Qualifier | Verbatim name of the status assessment used to obtain the finding. The value in SSTEST cannot be longer than 40 characters. Example: \"Survival Status\". | Req |", "figure_ref": null, "candidates": [{"md_atom_id": "md_dmSS_assn_a002", "md_file": "knowledge_base/domains/SS/assumptions.md", "md_atom_type": "LIST_ITEM", "md_parent_section": "§SS [SS — Assumptions]", "md_verbatim": "1. Details about the circumstances of a subject's status are stored in the appropriate separate domain(s), even when collection is triggered by the response to the status assessment. For example, if a subject's survival status is \"DEAD\", the date of death must be stored in DM and within a final disposition record in DS. Only the status collection date, the status question, and the status response are stored in SS.", "score": 0.3229, "match_basis": "verbatim_token+domain_route:SS"}, {"md_atom_id": "md_dmSS_assn_a003", "md_file": "knowledge_base/domains/SS/assumptions.md", "md_atom_type": "LIST_ITEM", "md_parent_section": "§SS [SS — Assumptions]", "md_verbatim": "2. RELREC may be used to link assessments in SS with data in other domains that were collected as a result of the subject's status assessment.", "score": 0.3139, "match_basis": "verbatim_token+domain_route:SS"}, {"md_atom_id": "md_dmSS_assn_a006", "md_file": "knowledge_base/domains/SS/assumptions.md", "md_atom_type": "LIST_ITEM", "md_parent_section": "§SS [SS — Assumptions]", "md_verbatim": "4. Any Identifiers, Timing variables, or Findings general observation class qualifiers may be added to the SS domain, but the following qualifiers would generally not be used: --MODIFY, --POS, --BODSYS, --ORRESU, --ORNRLO, --ORNRHI, --STRESN, --STRESU, --STNRLO, --STNRHI, --STNRC, --NRIND, --RESCAT, --XFN, --NAM, --LOINC, --SPEC, --SPCCND, --LOC, --METHOD, --BLFL, --FAST, --DRVFL, --TOX, --TOXGR, --SEV.", "score": 0.2946, "match_basis": "verbatim_token+domain_route:SS"}, {"md_atom_id": "md_dmSS_ex_a002", "md_file": "knowledge_base/domains/SS/examples.md", "md_atom_type": "SENTENCE", "md_parent_section": "§SS [SS — Examples]", "md_verbatim": "No dataset examples are provided for the SS domain in the SDTMIG v3.4.", "score": 0.2616, "match_basis": "verbatim_token+domain_route:SS"}, {"md_atom_id": "md_dmSS_assn_a004", "md_file": "knowledge_base/domains/SS/assumptions.md", "md_atom_type": "LIST_ITEM", "md_parent_section": "§SS [SS — Assumptions]", "md_verbatim": "3. There are separate codelists for SS tests and responses.", "score": 0.2491, "match_basis": "verbatim_token+domain_route:SS"}], "candidate_count": 5, "zero_candidate": false}
{"pdf_atom_id": "ig34_p0343_a007", "pdf_atom_type": "TABLE_ROW", "pdf_source": "SDTMIG_v3.4", "pdf_page": 343, "pdf_parent_section": "SS – Specification", "pdf_verbatim": "| SSCAT | Category for Assessment | Char | * | Grouping Qualifier | Used to categorize observations across subjects. | Perm |", "figure_ref": null, "candidates": [{"md_atom_id": "md_dmSS_assn_a003", "md_file": "knowledge_base/domains/SS/assumptions.md", "md_atom_type": "LIST_ITEM", "md_parent_section": "§SS [SS — Assumptions]", "md_verbatim": "2. RELREC may be used to link assessments in SS with data in other domains that were collected as a result of the subject's status assessment.", "score": 0.3128, "match_basis": "verbatim_token+domain_route:SS"}, {"md_atom_id": "md_dmSS_assn_a006", "md_file": "knowledge_base/domains/SS/assumptions.md", "md_atom_type": "LIST_ITEM", "md_parent_section": "§SS [SS — Assumptions]", "md_verbatim": "4. Any Identifiers, Timing variables, or Findings general observation class qualifiers may be added to the SS domain, but the following qualifiers would generally not be used: --MODIFY, --POS, --BODSYS, --ORRESU, --ORNRLO, --ORNRHI, --STRESN, --STRESU, --STNRLO, --STNRHI, --STNRC, --NRIND, --RESCAT, --XFN, --NAM, --LOINC, --SPEC, --SPCCND, --LOC, --METHOD, --BLFL, --FAST, --DRVFL, --TOX, --TOXGR, --SEV.", "score": 0.3041, "match_basis": "verbatim_token+domain_route:SS"}, {"md_atom_id": "md_dmSS_assn_a002", "md_file": "knowledge_base/domains/SS/assumptions.md", "md_atom_type": "LIST_ITEM", "md_parent_section": "§SS [SS — Assumptions]", "md_verbatim": "1. Details about the circumstances of a subject's status are stored in the appropriate separate domain(s), even when collection is triggered by the response to the status assessment. For example, if a subject's survival status is \"DEAD\", the date of death must be stored in DM and within a final disposition record in DS. Only the status collection date, the status question, and the status response are stored in SS.", "score": 0.2851, "match_basis": "verbatim_token+domain_route:SS"}, {"md_atom_id": "md_dmSS_assn_a004", "md_file": "knowledge_base/domains/SS/assumptions.md", "md_atom_type": "LIST_ITEM", "md_parent_section": "§SS [SS — Assumptions]", "md_verbatim": "3. There are separate codelists for SS tests and responses.", "score": 0.2489, "match_basis": "verbatim_token+domain_route:SS"}, {"md_atom_id": "md_dmSS_assn_a005", "md_file": "knowledge_base/domains/SS/assumptions.md", "md_atom_type": "LIST_ITEM", "md_parent_section": "§SS [SS — Assumptions]", "md_verbatim": "   a. Associations between the SS tests and response codelists are described in the SS Codetable, available at https://www.cdisc.org/standards/terminology/controlled-terminology.", "score": 0.2471, "match_basis": "verbatim_token+domain_route:SS"}], "candidate_count": 5, "zero_candidate": false}
{"pdf_atom_id": "ig34_p0343_a008", "pdf_atom_type": "TABLE_ROW", "pdf_source": "SDTMIG_v3.4", "pdf_page": 343, "pdf_parent_section": "SS – Specification", "pdf_verbatim": "| SSSCAT | Subcategory for Assessment | Char | * | Grouping Qualifier | A further categorization. | Perm |", "figure_ref": null, "candidates": [{"md_atom_id": "md_dmSS_assn_a003", "md_file": "knowledge_base/domains/SS/assumptions.md", "md_atom_type": "LIST_ITEM", "md_parent_section": "§SS [SS — Assumptions]", "md_verbatim": "2. RELREC may be used to link assessments in SS with data in other domains that were collected as a result of the subject's status assessment.", "score": 0.2917, "match_basis": "verbatim_token+domain_route:SS"}, {"md_atom_id": "md_dmSS_assn_a006", "md_file": "knowledge_base/domains/SS/assumptions.md", "md_atom_type": "LIST_ITEM", "md_parent_section": "§SS [SS — Assumptions]", "md_verbatim": "4. Any Identifiers, Timing variables, or Findings general observation class qualifiers may be added to the SS domain, but the following qualifiers would generally not be used: --MODIFY, --POS, --BODSYS, --ORRESU, --ORNRLO, --ORNRHI, --STRESN, --STRESU, --STNRLO, --STNRHI, --STNRC, --NRIND, --RESCAT, --XFN, --NAM, --LOINC, --SPEC, --SPCCND, --LOC, --METHOD, --BLFL, --FAST, --DRVFL, --TOX, --TOXGR, --SEV.", "score": 0.2793, "match_basis": "verbatim_token+domain_route:SS"}, {"md_atom_id": "md_dmSS_assn_a002", "md_file": "knowledge_base/domains/SS/assumptions.md", "md_atom_type": "LIST_ITEM", "md_parent_section": "§SS [SS — Assumptions]", "md_verbatim": "1. Details about the circumstances of a subject's status are stored in the appropriate separate domain(s), even when collection is triggered by the response to the status assessment. For example, if a subject's survival status is \"DEAD\", the date of death must be stored in DM and within a final disposition record in DS. Only the status collection date, the status question, and the status response are stored in SS.", "score": 0.2722, "match_basis": "verbatim_token+domain_route:SS"}, {"md_atom_id": "md_dmSS_assn_a004", "md_file": "knowledge_base/domains/SS/assumptions.md", "md_atom_type": "LIST_ITEM", "md_parent_section": "§SS [SS — Assumptions]", "md_verbatim": "3. There are separate codelists for SS tests and responses.", "score": 0.2611, "match_basis": "verbatim_token+domain_route:SS"}, {"md_atom_id": "md_dmSS_assn_a005", "md_file": "knowledge_base/domains/SS/assumptions.md", "md_atom_type": "LIST_ITEM", "md_parent_section": "§SS [SS — Assumptions]", "md_verbatim": "   a. Associations between the SS tests and response codelists are described in the SS Codetable, available at https://www.cdisc.org/standards/terminology/controlled-terminology.", "score": 0.249, "match_basis": "verbatim_token+domain_route:SS"}], "candidate_count": 5, "zero_candidate": false}
{"pdf_atom_id": "ig34_p0343_a009", "pdf_atom_type": "TABLE_ROW", "pdf_source": "SDTMIG_v3.4", "pdf_page": 343, "pdf_parent_section": "SS – Specification", "pdf_verbatim": "| SSORRES | Result or Finding Original Result | Char | | Result Qualifier | Result of the status assessment finding as originally received or collected. | Exp |", "figure_ref": null, "candidates": [{"md_atom_id": "md_dmSS_assn_a003", "md_file": "knowledge_base/domains/SS/assumptions.md", "md_atom_type": "LIST_ITEM", "md_parent_section": "§SS [SS — Assumptions]", "md_verbatim": "2. RELREC may be used to link assessments in SS with data in other domains that were collected as a result of the subject's status assessment.", "score": 0.3965, "match_basis": "verbatim_token+domain_route:SS"}, {"md_atom_id": "md_dmSS_assn_a002", "md_file": "knowledge_base/domains/SS/assumptions.md", "md_atom_type": "LIST_ITEM", "md_parent_section": "§SS [SS — Assumptions]", "md_verbatim": "1. Details about the circumstances of a subject's status are stored in the appropriate separate domain(s), even when collection is triggered by the response to the status assessment. For example, if a subject's survival status is \"DEAD\", the date of death must be stored in DM and within a final disposition record in DS. Only the status collection date, the status question, and the status response are stored in SS.", "score": 0.3111, "match_basis": "verbatim_token+domain_route:SS"}, {"md_atom_id": "md_dmSS_assn_a006", "md_file": "knowledge_base/domains/SS/assumptions.md", "md_atom_type": "LIST_ITEM", "md_parent_section": "§SS [SS — Assumptions]", "md_verbatim": "4. Any Identifiers, Timing variables, or Findings general observation class qualifiers may be added to the SS domain, but the following qualifiers would generally not be used: --MODIFY, --POS, --BODSYS, --ORRESU, --ORNRLO, --ORNRHI, --STRESN, --STRESU, --STNRLO, --STNRHI, --STNRC, --NRIND, --RESCAT, --XFN, --NAM, --LOINC, --SPEC, --SPCCND, --LOC, --METHOD, --BLFL, --FAST, --DRVFL, --TOX, --TOXGR, --SEV.", "score": 0.301, "match_basis": "verbatim_token+domain_route:SS"}, {"md_atom_id": "md_dmSS_assn_a005", "md_file": "knowledge_base/domains/SS/assumptions.md", "md_atom_type": "LIST_ITEM", "md_parent_section": "§SS [SS — Assumptions]", "md_verbatim": "   a. Associations between the SS tests and response codelists are described in the SS Codetable, available at https://www.cdisc.org/standards/terminology/controlled-terminology.", "score": 0.2523, "match_basis": "verbatim_token+domain_route:SS"}, {"md_atom_id": "md_dmSS_assn_a004", "md_file": "knowledge_base/domains/SS/assumptions.md", "md_atom_type": "LIST_ITEM", "md_parent_section": "§SS [SS — Assumptions]", "md_verbatim": "3. There are separate codelists for SS tests and responses.", "score": 0.242, "match_basis": "verbatim_token+domain_route:SS"}], "candidate_count": 5, "zero_candidate": false}
{"pdf_atom_id": "ig34_p0343_a010", "pdf_atom_type": "TABLE_ROW", "pdf_source": "SDTMIG_v3.4", "pdf_page": 343, "pdf_parent_section": "SS – Specification", "pdf_verbatim": "| SSSTRESC | Character Result/Finding in Std Format | Char | (SSTATRS) | Result Qualifier | Contains the result value for all findings copied or derived from SSORRES, in a standard format. | Exp |", "figure_ref": null, "candidates": [{"md_atom_id": "md_dmSS_assn_a006", "md_file": "knowledge_base/domains/SS/assumptions.md", "md_atom_type": "LIST_ITEM", "md_parent_section": "§SS [SS — Assumptions]", "md_verbatim": "4. Any Identifiers, Timing variables, or Findings general observation class qualifiers may be added to the SS domain, but the following qualifiers would generally not be used: --MODIFY, --POS, --BODSYS, --ORRESU, --ORNRLO, --ORNRHI, --STRESN, --STRESU, --STNRLO, --STNRHI, --STNRC, --NRIND, --RESCAT, --XFN, --NAM, --LOINC, --SPEC, --SPCCND, --LOC, --METHOD, --BLFL, --FAST, --DRVFL, --TOX, --TOXGR, --SEV.", "score": 0.2989, "match_basis": "verbatim_token+domain_route:SS"}, {"md_atom_id": "md_dmSS_assn_a005", "md_file": "knowledge_base/domains/SS/assumptions.md", "md_atom_type": "LIST_ITEM", "md_parent_section": "§SS [SS — Assumptions]", "md_verbatim": "   a. Associations between the SS tests and response codelists are described in the SS Codetable, available at https://www.cdisc.org/standards/terminology/controlled-terminology.", "score": 0.2769, "match_basis": "verbatim_token+domain_route:SS"}, {"md_atom_id": "md_dmSS_assn_a003", "md_file": "knowledge_base/domains/SS/assumptions.md", "md_atom_type": "LIST_ITEM", "md_parent_section": "§SS [SS — Assumptions]", "md_verbatim": "2. RELREC may be used to link assessments in SS with data in other domains that were collected as a result of the subject's status assessment.", "score": 0.2731, "match_basis": "verbatim_token+domain_route:SS"}, {"md_atom_id": "md_dmSS_assn_a002", "md_file": "knowledge_base/domains/SS/assumptions.md", "md_atom_type": "LIST_ITEM", "md_parent_section": "§SS [SS — Assumptions]", "md_verbatim": "1. Details about the circumstances of a subject's status are stored in the appropriate separate domain(s), even when collection is triggered by the response to the status assessment. For example, if a subject's survival status is \"DEAD\", the date of death must be stored in DM and within a final disposition record in DS. Only the status collection date, the status question, and the status response are stored in SS.", "score": 0.2593, "match_basis": "verbatim_token+domain_route:SS"}, {"md_atom_id": "md_dmSS_assn_a004", "md_file": "knowledge_base/domains/SS/assumptions.md", "md_atom_type": "LIST_ITEM", "md_parent_section": "§SS [SS — Assumptions]", "md_verbatim": "3. There are separate codelists for SS tests and responses.", "score": 0.2523, "match_basis": "verbatim_token+domain_route:SS"}], "candidate_count": 5, "zero_candidate": false}
{"pdf_atom_id": "ig34_p0343_a011", "pdf_atom_type": "TABLE_ROW", "pdf_source": "SDTMIG_v3.4", "pdf_page": 343, "pdf_parent_section": "SS – Specification", "pdf_verbatim": "| SSSTAT | Completion Status | Char | (ND) | Record Qualifier | Used to indicate a status assessment was not done. Should be null if a result exists in SSORRES. | Perm |", "figure_ref": null, "candidates": [{"md_atom_id": "md_dmSS_assn_a003", "md_file": "knowledge_base/domains/SS/assumptions.md", "md_atom_type": "LIST_ITEM", "md_parent_section": "§SS [SS — Assumptions]", "md_verbatim": "2. RELREC may be used to link assessments in SS with data in other domains that were collected as a result of the subject's status assessment.", "score": 0.3329, "match_basis": "verbatim_token+domain_route:SS"}, {"md_atom_id": "md_dmSS_assn_a006", "md_file": "knowledge_base/domains/SS/assumptions.md", "md_atom_type": "LIST_ITEM", "md_parent_section": "§SS [SS — Assumptions]", "md_verbatim": "4. Any Identifiers, Timing variables, or Findings general observation class qualifiers may be added to the SS domain, but the following qualifiers would generally not be used: --MODIFY, --POS, --BODSYS, --ORRESU, --ORNRLO, --ORNRHI, --STRESN, --STRESU, --STNRLO, --STNRHI, --STNRC, --NRIND, --RESCAT, --XFN, --NAM, --LOINC, --SPEC, --SPCCND, --LOC, --METHOD, --BLFL, --FAST, --DRVFL, --TOX, --TOXGR, --SEV.", "score": 0.3002, "match_basis": "verbatim_token+domain_route:SS"}, {"md_atom_id": "md_dmSS_assn_a002", "md_file": "knowledge_base/domains/SS/assumptions.md", "md_atom_type": "LIST_ITEM", "md_parent_section": "§SS [SS — Assumptions]", "md_verbatim": "1. Details about the circumstances of a subject's status are stored in the appropriate separate domain(s), even when collection is triggered by the response to the status assessment. For example, if a subject's survival status is \"DEAD\", the date of death must be stored in DM and within a final disposition record in DS. Only the status collection date, the status question, and the status response are stored in SS.", "score": 0.2976, "match_basis": "verbatim_token+domain_route:SS"}, {"md_atom_id": "md_dmSS_assn_a005", "md_file": "knowledge_base/domains/SS/assumptions.md", "md_atom_type": "LIST_ITEM", "md_parent_section": "§SS [SS — Assumptions]", "md_verbatim": "   a. Associations between the SS tests and response codelists are described in the SS Codetable, available at https://www.cdisc.org/standards/terminology/controlled-terminology.", "score": 0.2591, "match_basis": "verbatim_token+domain_route:SS"}, {"md_atom_id": "md_dmSS_assn_a004", "md_file": "knowledge_base/domains/SS/assumptions.md", "md_atom_type": "LIST_ITEM", "md_parent_section": "§SS [SS — Assumptions]", "md_verbatim": "3. There are separate codelists for SS tests and responses.", "score": 0.2533, "match_basis": "verbatim_token+domain_route:SS"}], "candidate_count": 5, "zero_candidate": false}
{"pdf_atom_id": "ig34_p0343_a012", "pdf_atom_type": "TABLE_ROW", "pdf_source": "SDTMIG_v3.4", "pdf_page": 343, "pdf_parent_section": "SS – Specification", "pdf_verbatim": "| SSREASND | Reason Assessment Not Performed | Char | | Record Qualifier | Describes why an assessment was not performed. Example: \"Subject refused\". Used in conjunction with SSSTAT when value is \"NOT DONE\". | Perm |", "figure_ref": null, "candidates": [{"md_atom_id": "md_dmSS_assn_a002", "md_file": "knowledge_base/domains/SS/assumptions.md", "md_atom_type": "LIST_ITEM", "md_parent_section": "§SS [SS — Assumptions]", "md_verbatim": "1. Details about the circumstances of a subject's status are stored in the appropriate separate domain(s), even when collection is triggered by the response to the status assessment. For example, if a subject's survival status is \"DEAD\", the date of death must be stored in DM and within a final disposition record in DS. Only the status collection date, the status question, and the status response are stored in SS.", "score": 0.3325, "match_basis": "verbatim_token+domain_route:SS"}, {"md_atom_id": "md_dmSS_assn_a003", "md_file": "knowledge_base/domains/SS/assumptions.md", "md_atom_type": "LIST_ITEM", "md_parent_section": "§SS [SS — Assumptions]", "md_verbatim": "2. RELREC may be used to link assessments in SS with data in other domains that were collected as a result of the subject's status assessment.", "score": 0.3226, "match_basis": "verbatim_token+domain_route:SS"}, {"md_atom_id": "md_dmSS_assn_a005", "md_file": "knowledge_base/domains/SS/assumptions.md", "md_atom_type": "LIST_ITEM", "md_parent_section": "§SS [SS — Assumptions]", "md_verbatim": "   a. Associations between the SS tests and response codelists are described in the SS Codetable, available at https://www.cdisc.org/standards/terminology/controlled-terminology.", "score": 0.2674, "match_basis": "verbatim_token+domain_route:SS"}, {"md_atom_id": "md_dmSS_assn_a006", "md_file": "knowledge_base/domains/SS/assumptions.md", "md_atom_type": "LIST_ITEM", "md_parent_section": "§SS [SS — Assumptions]", "md_verbatim": "4. Any Identifiers, Timing variables, or Findings general observation class qualifiers may be added to the SS domain, but the following qualifiers would generally not be used: --MODIFY, --POS, --BODSYS, --ORRESU, --ORNRLO, --ORNRHI, --STRESN, --STRESU, --STNRLO, --STNRHI, --STNRC, --NRIND, --RESCAT, --XFN, --NAM, --LOINC, --SPEC, --SPCCND, --LOC, --METHOD, --BLFL, --FAST, --DRVFL, --TOX, --TOXGR, --SEV.", "score": 0.2657, "match_basis": "verbatim_token+domain_route:SS"}, {"md_atom_id": "md_dmSS_ex_a002", "md_file": "knowledge_base/domains/SS/examples.md", "md_atom_type": "SENTENCE", "md_parent_section": "§SS [SS — Examples]", "md_verbatim": "No dataset examples are provided for the SS domain in the SDTMIG v3.4.", "score": 0.254, "match_basis": "verbatim_token+domain_route:SS"}], "candidate_count": 5, "zero_candidate": false}
{"pdf_atom_id": "ig34_p0343_a013", "pdf_atom_type": "TABLE_ROW", "pdf_source": "SDTMIG_v3.4", "pdf_page": 343, "pdf_parent_section": "SS – Specification", "pdf_verbatim": "| SSEVAL | Evaluator | Char | (EVAL) | Record Qualifier | Role of the person who provided the evaluation. Used only for results that are subjective (e.g., assigned by a person or a group). Should be null for records that contain collected or derived data. Examples: \"CAREGIVER\", \"ADJUDICATION COMMITTEE\", \"FRIEND\". | Perm |", "figure_ref": null, "candidates": [{"md_atom_id": "md_dmSS_assn_a003", "md_file": "knowledge_base/domains/SS/assumptions.md", "md_atom_type": "LIST_ITEM", "md_parent_section": "§SS [SS — Assumptions]", "md_verbatim": "2. RELREC may be used to link assessments in SS with data in other domains that were collected as a result of the subject's status assessment.", "score": 0.324, "match_basis": "verbatim_token+domain_route:SS"}, {"md_atom_id": "md_dmSS_assn_a002", "md_file": "knowledge_base/domains/SS/assumptions.md", "md_atom_type": "LIST_ITEM", "md_parent_section": "§SS [SS — Assumptions]", "md_verbatim": "1. Details about the circumstances of a subject's status are stored in the appropriate separate domain(s), even when collection is triggered by the response to the status assessment. For example, if a subject's survival status is \"DEAD\", the date of death must be stored in DM and within a final disposition record in DS. Only the status collection date, the status question, and the status response are stored in SS.", "score": 0.3186, "match_basis": "verbatim_token+domain_route:SS"}, {"md_atom_id": "md_dmSS_ex_a002", "md_file": "knowledge_base/domains/SS/examples.md", "md_atom_type": "SENTENCE", "md_parent_section": "§SS [SS — Examples]", "md_verbatim": "No dataset examples are provided for the SS domain in the SDTMIG v3.4.", "score": 0.3012, "match_basis": "verbatim_token+domain_route:SS"}, {"md_atom_id": "md_dmSS_assn_a006", "md_file": "knowledge_base/domains/SS/assumptions.md", "md_atom_type": "LIST_ITEM", "md_parent_section": "§SS [SS — Assumptions]", "md_verbatim": "4. Any Identifiers, Timing variables, or Findings general observation class qualifiers may be added to the SS domain, but the following qualifiers would generally not be used: --MODIFY, --POS, --BODSYS, --ORRESU, --ORNRLO, --ORNRHI, --STRESN, --STRESU, --STNRLO, --STNRHI, --STNRC, --NRIND, --RESCAT, --XFN, --NAM, --LOINC, --SPEC, --SPCCND, --LOC, --METHOD, --BLFL, --FAST, --DRVFL, --TOX, --TOXGR, --SEV.", "score": 0.2893, "match_basis": "verbatim_token+domain_route:SS"}, {"md_atom_id": "md_dmSS_assn_a005", "md_file": "knowledge_base/domains/SS/assumptions.md", "md_atom_type": "LIST_ITEM", "md_parent_section": "§SS [SS — Assumptions]", "md_verbatim": "   a. Associations between the SS tests and response codelists are described in the SS Codetable, available at https://www.cdisc.org/standards/terminology/controlled-terminology.", "score": 0.2644, "match_basis": "verbatim_token+domain_route:SS"}], "candidate_count": 5, "zero_candidate": false}
{"pdf_atom_id": "ig34_p0343_a014", "pdf_atom_type": "TABLE_ROW", "pdf_source": "SDTMIG_v3.4", "pdf_page": 343, "pdf_parent_section": "SS – Specification", "pdf_verbatim": "| VISITNUM | Visit Number | Num | | Timing | Clinical encounter number. Numeric version of VISIT, used for sorting. | Exp |", "figure_ref": null, "candidates": [{"md_atom_id": "md_dmSS_assn_a006", "md_file": "knowledge_base/domains/SS/assumptions.md", "md_atom_type": "LIST_ITEM", "md_parent_section": "§SS [SS — Assumptions]", "md_verbatim": "4. Any Identifiers, Timing variables, or Findings general observation class qualifiers may be added to the SS domain, but the following qualifiers would generally not be used: --MODIFY, --POS, --BODSYS, --ORRESU, --ORNRLO, --ORNRHI, --STRESN, --STRESU, --STNRLO, --STNRHI, --STNRC, --NRIND, --RESCAT, --XFN, --NAM, --LOINC, --SPEC, --SPCCND, --LOC, --METHOD, --BLFL, --FAST, --DRVFL, --TOX, --TOXGR, --SEV.", "score": 0.2494, "match_basis": "verbatim_token+domain_route:SS"}, {"md_atom_id": "md_dmSS_assn_a003", "md_file": "knowledge_base/domains/SS/assumptions.md", "md_atom_type": "LIST_ITEM", "md_parent_section": "§SS [SS — Assumptions]", "md_verbatim": "2. RELREC may be used to link assessments in SS with data in other domains that were collected as a result of the subject's status assessment.", "score": 0.2394, "match_basis": "verbatim_token+domain_route:SS"}, {"md_atom_id": "md_dmSS_assn_a005", "md_file": "knowledge_base/domains/SS/assumptions.md", "md_atom_type": "LIST_ITEM", "md_parent_section": "§SS [SS — Assumptions]", "md_verbatim": "   a. Associations between the SS tests and response codelists are described in the SS Codetable, available at https://www.cdisc.org/standards/terminology/controlled-terminology.", "score": 0.235, "match_basis": "verbatim_token+domain_route:SS"}, {"md_atom_id": "md_dmSS_assn_a002", "md_file": "knowledge_base/domains/SS/assumptions.md", "md_atom_type": "LIST_ITEM", "md_parent_section": "§SS [SS — Assumptions]", "md_verbatim": "1. Details about the circumstances of a subject's status are stored in the appropriate separate domain(s), even when collection is triggered by the response to the status assessment. For example, if a subject's survival status is \"DEAD\", the date of death must be stored in DM and within a final disposition record in DS. Only the status collection date, the status question, and the status response are stored in SS.", "score": 0.2309, "match_basis": "verbatim_token+domain_route:SS"}, {"md_atom_id": "md_dmSS_assn_a004", "md_file": "knowledge_base/domains/SS/assumptions.md", "md_atom_type": "LIST_ITEM", "md_parent_section": "§SS [SS — Assumptions]", "md_verbatim": "3. There are separate codelists for SS tests and responses.", "score": 0.2286, "match_basis": "verbatim_token+domain_route:SS"}], "candidate_count": 5, "zero_candidate": false}
{"pdf_atom_id": "ig34_p0343_a015", "pdf_atom_type": "TABLE_ROW", "pdf_source": "SDTMIG_v3.4", "pdf_page": 343, "pdf_parent_section": "SS – Specification", "pdf_verbatim": "| VISIT | Visit Name | Char | | Timing | Protocol-defined description of clinical encounter. May be used in addition to VISITNUM and/or VISITDY. | Perm |", "figure_ref": null, "candidates": [{"md_atom_id": "md_dmSS_assn_a005", "md_file": "knowledge_base/domains/SS/assumptions.md", "md_atom_type": "LIST_ITEM", "md_parent_section": "§SS [SS — Assumptions]", "md_verbatim": "   a. Associations between the SS tests and response codelists are described in the SS Codetable, available at https://www.cdisc.org/standards/terminology/controlled-terminology.", "score": 0.2665, "match_basis": "verbatim_token+domain_route:SS"}, {"md_atom_id": "md_dmSS_assn_a006", "md_file": "knowledge_base/domains/SS/assumptions.md", "md_atom_type": "LIST_ITEM", "md_parent_section": "§SS [SS — Assumptions]", "md_verbatim": "4. Any Identifiers, Timing variables, or Findings general observation class qualifiers may be added to the SS domain, but the following qualifiers would generally not be used: --MODIFY, --POS, --BODSYS, --ORRESU, --ORNRLO, --ORNRHI, --STRESN, --STRESU, --STNRLO, --STNRHI, --STNRC, --NRIND, --RESCAT, --XFN, --NAM, --LOINC, --SPEC, --SPCCND, --LOC, --METHOD, --BLFL, --FAST, --DRVFL, --TOX, --TOXGR, --SEV.", "score": 0.2648, "match_basis": "verbatim_token+domain_route:SS"}, {"md_atom_id": "md_dmSS_assn_a003", "md_file": "knowledge_base/domains/SS/assumptions.md", "md_atom_type": "LIST_ITEM", "md_parent_section": "§SS [SS — Assumptions]", "md_verbatim": "2. RELREC may be used to link assessments in SS with data in other domains that were collected as a result of the subject's status assessment.", "score": 0.248, "match_basis": "verbatim_token+domain_route:SS"}, {"md_atom_id": "md_dmSS_assn_a002", "md_file": "knowledge_base/domains/SS/assumptions.md", "md_atom_type": "LIST_ITEM", "md_parent_section": "§SS [SS — Assumptions]", "md_verbatim": "1. Details about the circumstances of a subject's status are stored in the appropriate separate domain(s), even when collection is triggered by the response to the status assessment. For example, if a subject's survival status is \"DEAD\", the date of death must be stored in DM and within a final disposition record in DS. Only the status collection date, the status question, and the status response are stored in SS.", "score": 0.2473, "match_basis": "verbatim_token+domain_route:SS"}, {"md_atom_id": "md_dmSS_assn_a004", "md_file": "knowledge_base/domains/SS/assumptions.md", "md_atom_type": "LIST_ITEM", "md_parent_section": "§SS [SS — Assumptions]", "md_verbatim": "3. There are separate codelists for SS tests and responses.", "score": 0.227, "match_basis": "verbatim_token+domain_route:SS"}], "candidate_count": 5, "zero_candidate": false}
{"pdf_atom_id": "ig34_p0343_a016", "pdf_atom_type": "TABLE_ROW", "pdf_source": "SDTMIG_v3.4", "pdf_page": 343, "pdf_parent_section": "SS – Specification", "pdf_verbatim": "| VISITDY | Planned Study Day of Visit | Num | | Timing | Planned study day of the visit based upon RFSTDTC in Demographics. | Perm |", "figure_ref": null, "candidates": [{"md_atom_id": "md_dmSS_assn_a006", "md_file": "knowledge_base/domains/SS/assumptions.md", "md_atom_type": "LIST_ITEM", "md_parent_section": "§SS [SS — Assumptions]", "md_verbatim": "4. Any Identifiers, Timing variables, or Findings general observation class qualifiers may be added to the SS domain, but the following qualifiers would generally not be used: --MODIFY, --POS, --BODSYS, --ORRESU, --ORNRLO, --ORNRHI, --STRESN, --STRESU, --STNRLO, --STNRHI, --STNRC, --NRIND, --RESCAT, --XFN, --NAM, --LOINC, --SPEC, --SPCCND, --LOC, --METHOD, --BLFL, --FAST, --DRVFL, --TOX, --TOXGR, --SEV.", "score": 0.242, "match_basis": "verbatim_token+domain_route:SS"}, {"md_atom_id": "md_dmSS_assn_a005", "md_file": "knowledge_base/domains/SS/assumptions.md", "md_atom_type": "LIST_ITEM", "md_parent_section": "§SS [SS — Assumptions]", "md_verbatim": "   a. Associations between the SS tests and response codelists are described in the SS Codetable, available at https://www.cdisc.org/standards/terminology/controlled-terminology.", "score": 0.2403, "match_basis": "verbatim_token+domain_route:SS"}, {"md_atom_id": "md_dmSS_assn_a004", "md_file": "knowledge_base/domains/SS/assumptions.md", "md_atom_type": "LIST_ITEM", "md_parent_section": "§SS [SS — Assumptions]", "md_verbatim": "3. There are separate codelists for SS tests and responses.", "score": 0.2376, "match_basis": "verbatim_token+domain_route:SS"}, {"md_atom_id": "md_dmSS_ex_a002", "md_file": "knowledge_base/domains/SS/examples.md", "md_atom_type": "SENTENCE", "md_parent_section": "§SS [SS — Examples]", "md_verbatim": "No dataset examples are provided for the SS domain in the SDTMIG v3.4.", "score": 0.2376, "match_basis": "verbatim_token+domain_route:SS"}, {"md_atom_id": "md_dmSS_assn_a003", "md_file": "knowledge_base/domains/SS/assumptions.md", "md_atom_type": "LIST_ITEM", "md_parent_section": "§SS [SS — Assumptions]", "md_verbatim": "2. RELREC may be used to link assessments in SS with data in other domains that were collected as a result of the subject's status assessment.", "score": 0.2329, "match_basis": "verbatim_token+domain_route:SS"}], "candidate_count": 5, "zero_candidate": false}
{"pdf_atom_id": "ig34_p0343_a017", "pdf_atom_type": "TABLE_ROW", "pdf_source": "SDTMIG_v3.4", "pdf_page": 343, "pdf_parent_section": "SS – Specification", "pdf_verbatim": "| TAETORD | Planned Order of Element within Arm | Num | | Timing | Number that gives the planned order of the element within the arm. | Perm |", "figure_ref": null, "candidates": [{"md_atom_id": "md_dmSS_assn_a003", "md_file": "knowledge_base/domains/SS/assumptions.md", "md_atom_type": "LIST_ITEM", "md_parent_section": "§SS [SS — Assumptions]", "md_verbatim": "2. RELREC may be used to link assessments in SS with data in other domains that were collected as a result of the subject's status assessment.", "score": 0.27, "match_basis": "verbatim_token+domain_route:SS"}, {"md_atom_id": "md_dmSS_assn_a002", "md_file": "knowledge_base/domains/SS/assumptions.md", "md_atom_type": "LIST_ITEM", "md_parent_section": "§SS [SS — Assumptions]", "md_verbatim": "1. Details about the circumstances of a subject's status are stored in the appropriate separate domain(s), even when collection is triggered by the response to the status assessment. For example, if a subject's survival status is \"DEAD\", the date of death must be stored in DM and within a final disposition record in DS. Only the status collection date, the status question, and the status response are stored in SS.", "score": 0.2551, "match_basis": "verbatim_token+domain_route:SS"}, {"md_atom_id": "md_dmSS_assn_a006", "md_file": "knowledge_base/domains/SS/assumptions.md", "md_atom_type": "LIST_ITEM", "md_parent_section": "§SS [SS — Assumptions]", "md_verbatim": "4. Any Identifiers, Timing variables, or Findings general observation class qualifiers may be added to the SS domain, but the following qualifiers would generally not be used: --MODIFY, --POS, --BODSYS, --ORRESU, --ORNRLO, --ORNRHI, --STRESN, --STRESU, --STNRLO, --STNRHI, --STNRC, --NRIND, --RESCAT, --XFN, --NAM, --LOINC, --SPEC, --SPCCND, --LOC, --METHOD, --BLFL, --FAST, --DRVFL, --TOX, --TOXGR, --SEV.", "score": 0.2425, "match_basis": "verbatim_token+domain_route:SS"}, {"md_atom_id": "md_dmSS_assn_a005", "md_file": "knowledge_base/domains/SS/assumptions.md", "md_atom_type": "LIST_ITEM", "md_parent_section": "§SS [SS — Assumptions]", "md_verbatim": "   a. Associations between the SS tests and response codelists are described in the SS Codetable, available at https://www.cdisc.org/standards/terminology/controlled-terminology.", "score": 0.2357, "match_basis": "verbatim_token+domain_route:SS"}, {"md_atom_id": "md_dmSS_assn_a004", "md_file": "knowledge_base/domains/SS/assumptions.md", "md_atom_type": "LIST_ITEM", "md_parent_section": "§SS [SS — Assumptions]", "md_verbatim": "3. There are separate codelists for SS tests and responses.", "score": 0.2292, "match_basis": "verbatim_token+domain_route:SS"}], "candidate_count": 5, "zero_candidate": false}
{"pdf_atom_id": "ig34_p0343_a018", "pdf_atom_type": "TABLE_ROW", "pdf_source": "SDTMIG_v3.4", "pdf_page": 343, "pdf_parent_section": "SS – Specification", "pdf_verbatim": "| EPOCH | Epoch | Char | (EPOCH) | Timing | Epoch associated with the start date/time of the subject status assessment. | Perm |", "figure_ref": null, "candidates": [{"md_atom_id": "md_dmSS_assn_a003", "md_file": "knowledge_base/domains/SS/assumptions.md", "md_atom_type": "LIST_ITEM", "md_parent_section": "§SS [SS — Assumptions]", "md_verbatim": "2. RELREC may be used to link assessments in SS with data in other domains that were collected as a result of the subject's status assessment.", "score": 0.4008, "match_basis": "verbatim_token+domain_route:SS"}, {"md_atom_id": "md_dmSS_assn_a002", "md_file": "knowledge_base/domains/SS/assumptions.md", "md_atom_type": "LIST_ITEM", "md_parent_section": "§SS [SS — Assumptions]", "md_verbatim": "1. Details about the circumstances of a subject's status are stored in the appropriate separate domain(s), even when collection is triggered by the response to the status assessment. For example, if a subject's survival status is \"DEAD\", the date of death must be stored in DM and within a final disposition record in DS. Only the status collection date, the status question, and the status response are stored in SS.", "score": 0.3158, "match_basis": "verbatim_token+domain_route:SS"}, {"md_atom_id": "md_dmSS_assn_a005", "md_file": "knowledge_base/domains/SS/assumptions.md", "md_atom_type": "LIST_ITEM", "md_parent_section": "§SS [SS — Assumptions]", "md_verbatim": "   a. Associations between the SS tests and response codelists are described in the SS Codetable, available at https://www.cdisc.org/standards/terminology/controlled-terminology.", "score": 0.2736, "match_basis": "verbatim_token+domain_route:SS"}, {"md_atom_id": "md_dmSS_assn_a004", "md_file": "knowledge_base/domains/SS/assumptions.md", "md_atom_type": "LIST_ITEM", "md_parent_section": "§SS [SS — Assumptions]", "md_verbatim": "3. There are separate codelists for SS tests and responses.", "score": 0.2469, "match_basis": "verbatim_token+domain_route:SS"}, {"md_atom_id": "md_dmSS_assn_a006", "md_file": "knowledge_base/domains/SS/assumptions.md", "md_atom_type": "LIST_ITEM", "md_parent_section": "§SS [SS — Assumptions]", "md_verbatim": "4. Any Identifiers, Timing variables, or Findings general observation class qualifiers may be added to the SS domain, but the following qualifiers would generally not be used: --MODIFY, --POS, --BODSYS, --ORRESU, --ORNRLO, --ORNRHI, --STRESN, --STRESU, --STNRLO, --STNRHI, --STNRC, --NRIND, --RESCAT, --XFN, --NAM, --LOINC, --SPEC, --SPCCND, --LOC, --METHOD, --BLFL, --FAST, --DRVFL, --TOX, --TOXGR, --SEV.", "score": 0.2458, "match_basis": "verbatim_token+domain_route:SS"}], "candidate_count": 5, "zero_candidate": false}
{"pdf_atom_id": "ig34_p0343_a019", "pdf_atom_type": "TABLE_ROW", "pdf_source": "SDTMIG_v3.4", "pdf_page": 343, "pdf_parent_section": "SS – Specification", "pdf_verbatim": "| SSDTC | Date/Time of Assessment | Char | ISO 8601 datetime or interval | Timing | Date and time of the subject status assessment represented in ISO 8601 character format. | Exp |", "figure_ref": null, "candidates": [{"md_atom_id": "md_dmSS_assn_a003", "md_file": "knowledge_base/domains/SS/assumptions.md", "md_atom_type": "LIST_ITEM", "md_parent_section": "§SS [SS — Assumptions]", "md_verbatim": "2. RELREC may be used to link assessments in SS with data in other domains that were collected as a result of the subject's status assessment.", "score": 0.3683, "match_basis": "verbatim_token+domain_route:SS"}, {"md_atom_id": "md_dmSS_assn_a002", "md_file": "knowledge_base/domains/SS/assumptions.md", "md_atom_type": "LIST_ITEM", "md_parent_section": "§SS [SS — Assumptions]", "md_verbatim": "1. Details about the circumstances of a subject's status are stored in the appropriate separate domain(s), even when collection is triggered by the response to the status assessment. For example, if a subject's survival status is \"DEAD\", the date of death must be stored in DM and within a final disposition record in DS. Only the status collection date, the status question, and the status response are stored in SS.", "score": 0.3149, "match_basis": "verbatim_token+domain_route:SS"}, {"md_atom_id": "md_dmSS_assn_a004", "md_file": "knowledge_base/domains/SS/assumptions.md", "md_atom_type": "LIST_ITEM", "md_parent_section": "§SS [SS — Assumptions]", "md_verbatim": "3. There are separate codelists for SS tests and responses.", "score": 0.2732, "match_basis": "verbatim_token+domain_route:SS"}, {"md_atom_id": "md_dmSS_assn_a006", "md_file": "knowledge_base/domains/SS/assumptions.md", "md_atom_type": "LIST_ITEM", "md_parent_section": "§SS [SS — Assumptions]", "md_verbatim": "4. Any Identifiers, Timing variables, or Findings general observation class qualifiers may be added to the SS domain, but the following qualifiers would generally not be used: --MODIFY, --POS, --BODSYS, --ORRESU, --ORNRLO, --ORNRHI, --STRESN, --STRESU, --STNRLO, --STNRHI, --STNRC, --NRIND, --RESCAT, --XFN, --NAM, --LOINC, --SPEC, --SPCCND, --LOC, --METHOD, --BLFL, --FAST, --DRVFL, --TOX, --TOXGR, --SEV.", "score": 0.2541, "match_basis": "verbatim_token+domain_route:SS"}, {"md_atom_id": "md_dmSS_assn_a005", "md_file": "knowledge_base/domains/SS/assumptions.md", "md_atom_type": "LIST_ITEM", "md_parent_section": "§SS [SS — Assumptions]", "md_verbatim": "   a. Associations between the SS tests and response codelists are described in the SS Codetable, available at https://www.cdisc.org/standards/terminology/controlled-terminology.", "score": 0.2521, "match_basis": "verbatim_token+domain_route:SS"}], "candidate_count": 5, "zero_candidate": false}
{"pdf_atom_id": "ig34_p0343_a020", "pdf_atom_type": "TABLE_ROW", "pdf_source": "SDTMIG_v3.4", "pdf_page": 343, "pdf_parent_section": "SS – Specification", "pdf_verbatim": "| SSDY | Study Day of Assessment | Num | | Timing | Study day of the subject status assessment, measured as integer days. Algorithm for calculations must be relative to the sponsor-defined RFSTDTC variable in Demographics. | Perm |", "figure_ref": null, "candidates": [{"md_atom_id": "md_dmSS_assn_a002", "md_file": "knowledge_base/domains/SS/assumptions.md", "md_atom_type": "LIST_ITEM", "md_parent_section": "§SS [SS — Assumptions]", "md_verbatim": "1. Details about the circumstances of a subject's status are stored in the appropriate separate domain(s), even when collection is triggered by the response to the status assessment. For example, if a subject's survival status is \"DEAD\", the date of death must be stored in DM and within a final disposition record in DS. Only the status collection date, the status question, and the status response are stored in SS.", "score": 0.3211, "match_basis": "verbatim_token+domain_route:SS"}, {"md_atom_id": "md_dmSS_assn_a003", "md_file": "knowledge_base/domains/SS/assumptions.md", "md_atom_type": "LIST_ITEM", "md_parent_section": "§SS [SS — Assumptions]", "md_verbatim": "2. RELREC may be used to link assessments in SS with data in other domains that were collected as a result of the subject's status assessment.", "score": 0.3123, "match_basis": "verbatim_token+domain_route:SS"}, {"md_atom_id": "md_dmSS_assn_a006", "md_file": "knowledge_base/domains/SS/assumptions.md", "md_atom_type": "LIST_ITEM", "md_parent_section": "§SS [SS — Assumptions]", "md_verbatim": "4. Any Identifiers, Timing variables, or Findings general observation class qualifiers may be added to the SS domain, but the following qualifiers would generally not be used: --MODIFY, --POS, --BODSYS, --ORRESU, --ORNRLO, --ORNRHI, --STRESN, --STRESU, --STNRLO, --STNRHI, --STNRC, --NRIND, --RESCAT, --XFN, --NAM, --LOINC, --SPEC, --SPCCND, --LOC, --METHOD, --BLFL, --FAST, --DRVFL, --TOX, --TOXGR, --SEV.", "score": 0.269, "match_basis": "verbatim_token+domain_route:SS"}, {"md_atom_id": "md_dmSS_assn_a005", "md_file": "knowledge_base/domains/SS/assumptions.md", "md_atom_type": "LIST_ITEM", "md_parent_section": "§SS [SS — Assumptions]", "md_verbatim": "   a. Associations between the SS tests and response codelists are described in the SS Codetable, available at https://www.cdisc.org/standards/terminology/controlled-terminology.", "score": 0.2676, "match_basis": "verbatim_token+domain_route:SS"}, {"md_atom_id": "md_dmSS_assn_a004", "md_file": "knowledge_base/domains/SS/assumptions.md", "md_atom_type": "LIST_ITEM", "md_parent_section": "§SS [SS — Assumptions]", "md_verbatim": "3. There are separate codelists for SS tests and responses.", "score": 0.2503, "match_basis": "verbatim_token+domain_route:SS"}], "candidate_count": 5, "zero_candidate": false}
{"pdf_atom_id": "ig34_p0343_a021", "pdf_atom_type": "NOTE", "pdf_source": "SDTMIG_v3.4", "pdf_page": 343, "pdf_parent_section": "SS – Specification", "pdf_verbatim": "1In this column, an asterisk (*) indicates that the variable may be subject to controlled terminology. CDISC/NCI codelist values are enclosed in parentheses.", "figure_ref": null, "candidates": [{"md_atom_id": "md_dmSS_assn_a005", "md_file": "knowledge_base/domains/SS/assumptions.md", "md_atom_type": "LIST_ITEM", "md_parent_section": "§SS [SS — Assumptions]", "md_verbatim": "   a. Associations between the SS tests and response codelists are described in the SS Codetable, available at https://www.cdisc.org/standards/terminology/controlled-terminology.", "score": 0.3953, "match_basis": "verbatim_token+domain_route:SS"}, {"md_atom_id": "md_dmSS_assn_a003", "md_file": "knowledge_base/domains/SS/assumptions.md", "md_atom_type": "LIST_ITEM", "md_parent_section": "§SS [SS — Assumptions]", "md_verbatim": "2. RELREC may be used to link assessments in SS with data in other domains that were collected as a result of the subject's status assessment.", "score": 0.3269, "match_basis": "verbatim_token+domain_route:SS"}, {"md_atom_id": "md_dmSS_assn_a004", "md_file": "knowledge_base/domains/SS/assumptions.md", "md_atom_type": "LIST_ITEM", "md_parent_section": "§SS [SS — Assumptions]", "md_verbatim": "3. There are separate codelists for SS tests and responses.", "score": 0.3258, "match_basis": "verbatim_token+domain_route:SS"}, {"md_atom_id": "md_dmSS_ex_a002", "md_file": "knowledge_base/domains/SS/examples.md", "md_atom_type": "SENTENCE", "md_parent_section": "§SS [SS — Examples]", "md_verbatim": "No dataset examples are provided for the SS domain in the SDTMIG v3.4.", "score": 0.3214, "match_basis": "verbatim_token+domain_route:SS"}, {"md_atom_id": "md_dmSS_assn_a002", "md_file": "knowledge_base/domains/SS/assumptions.md", "md_atom_type": "LIST_ITEM", "md_parent_section": "§SS [SS — Assumptions]", "md_verbatim": "1. Details about the circumstances of a subject's status are stored in the appropriate separate domain(s), even when collection is triggered by the response to the status assessment. For example, if a subject's survival status is \"DEAD\", the date of death must be stored in DM and within a final disposition record in DS. Only the status collection date, the status question, and the status response are stored in SS.", "score": 0.3116, "match_basis": "verbatim_token+domain_route:SS"}], "candidate_count": 5, "zero_candidate": false}
{"pdf_atom_id": "ig34_p0343_a022", "pdf_atom_type": "HEADING", "pdf_source": "SDTMIG_v3.4", "pdf_page": 343, "pdf_parent_section": "§6.3.11 Subject Status (SS)", "pdf_verbatim": "SS – Assumptions", "figure_ref": null, "candidates": [{"md_atom_id": "md_dmSS_assn_a001", "md_file": "knowledge_base/domains/SS/assumptions.md", "md_atom_type": "HEADING", "md_parent_section": "§SS [SS — Assumptions]", "md_verbatim": "# SS — Assumptions", "score": 1.0, "match_basis": "verbatim_token+domain_route:SS"}, {"md_atom_id": "md_dmSS_ex_a001", "md_file": "knowledge_base/domains/SS/examples.md", "md_atom_type": "HEADING", "md_parent_section": "§SS [SS — Examples]", "md_verbatim": "# SS — Examples", "score": 0.4, "match_basis": "verbatim_token+domain_route:SS"}], "candidate_count": 2, "zero_candidate": false}
{"pdf_atom_id": "ig34_p0343_a023", "pdf_atom_type": "LIST_ITEM", "pdf_source": "SDTMIG_v3.4", "pdf_page": 343, "pdf_parent_section": "SS – Assumptions", "pdf_verbatim": "Details about the circumstances of a subject's status are stored in the appropriate separate domain(s), even when collection is triggered by the response to the status assessment. For example, if a subject's survival status is \"DEAD\", the date of death must be stored in DM and within a final disposition record in DS. Only the status collection date, the status question, and the status response are stored in SS.", "figure_ref": null, "candidates": [{"md_atom_id": "md_dmSS_assn_a002", "md_file": "knowledge_base/domains/SS/assumptions.md", "md_atom_type": "LIST_ITEM", "md_parent_section": "§SS [SS — Assumptions]", "md_verbatim": "1. Details about the circumstances of a subject's status are stored in the appropriate separate domain(s), even when collection is triggered by the response to the status assessment. For example, if a subject's survival status is \"DEAD\", the date of death must be stored in DM and within a final disposition record in DS. Only the status collection date, the status question, and the status response are stored in SS.", "score": 1.0, "match_basis": "verbatim_token+domain_route:SS"}, {"md_atom_id": "md_dmSS_assn_a003", "md_file": "knowledge_base/domains/SS/assumptions.md", "md_atom_type": "LIST_ITEM", "md_parent_section": "§SS [SS — Assumptions]", "md_verbatim": "2. RELREC may be used to link assessments in SS with data in other domains that were collected as a result of the subject's status assessment.", "score": 0.5315, "match_basis": "verbatim_token+domain_route:SS"}, {"md_atom_id": "md_dmSS_assn_a004", "md_file": "knowledge_base/domains/SS/assumptions.md", "md_atom_type": "LIST_ITEM", "md_parent_section": "§SS [SS — Assumptions]", "md_verbatim": "3. There are separate codelists for SS tests and responses.", "score": 0.4851, "match_basis": "verbatim_token+domain_route:SS"}, {"md_atom_id": "md_dmSS_assn_a005", "md_file": "knowledge_base/domains/SS/assumptions.md", "md_atom_type": "LIST_ITEM", "md_parent_section": "§SS [SS — Assumptions]", "md_verbatim": "   a. Associations between the SS tests and response codelists are described in the SS Codetable, available at https://www.cdisc.org/standards/terminology/controlled-terminology.", "score": 0.4721, "match_basis": "verbatim_token+domain_route:SS"}, {"md_atom_id": "md_dmSS_assn_a006", "md_file": "knowledge_base/domains/SS/assumptions.md", "md_atom_type": "LIST_ITEM", "md_parent_section": "§SS [SS — Assumptions]", "md_verbatim": "4. Any Identifiers, Timing variables, or Findings general observation class qualifiers may be added to the SS domain, but the following qualifiers would generally not be used: --MODIFY, --POS, --BODSYS, --ORRESU, --ORNRLO, --ORNRHI, --STRESN, --STRESU, --STNRLO, --STNRHI, --STNRC, --NRIND, --RESCAT, --XFN, --NAM, --LOINC, --SPEC, --SPCCND, --LOC, --METHOD, --BLFL, --FAST, --DRVFL, --TOX, --TOXGR, --SEV.", "score": 0.4351, "match_basis": "verbatim_token+domain_route:SS"}], "candidate_count": 5, "zero_candidate": false}
{"pdf_atom_id": "ig34_p0344_a001", "pdf_atom_type": "LIST_ITEM", "pdf_source": "SDTMIG_v3.4", "pdf_page": 344, "pdf_parent_section": "SS – Assumptions", "pdf_verbatim": "RELREC may be used to link assessments in SS with data in other domains that were collected as a result of the subject's status assessment.", "figure_ref": null, "candidates": [{"md_atom_id": "md_dmSS_assn_a003", "md_file": "knowledge_base/domains/SS/assumptions.md", "md_atom_type": "LIST_ITEM", "md_parent_section": "§SS [SS — Assumptions]", "md_verbatim": "2. RELREC may be used to link assessments in SS with data in other domains that were collected as a result of the subject's status assessment.", "score": 1.0, "match_basis": "verbatim_token+domain_route:SS"}, {"md_atom_id": "md_dmSS_assn_a002", "md_file": "knowledge_base/domains/SS/assumptions.md", "md_atom_type": "LIST_ITEM", "md_parent_section": "§SS [SS — Assumptions]", "md_verbatim": "1. Details about the circumstances of a subject's status are stored in the appropriate separate domain(s), even when collection is triggered by the response to the status assessment. For example, if a subject's survival status is \"DEAD\", the date of death must be stored in DM and within a final disposition record in DS. Only the status collection date, the status question, and the status response are stored in SS.", "score": 0.5315, "match_basis": "verbatim_token+domain_route:SS"}, {"md_atom_id": "md_dmSS_assn_a006", "md_file": "knowledge_base/domains/SS/assumptions.md", "md_atom_type": "LIST_ITEM", "md_parent_section": "§SS [SS — Assumptions]", "md_verbatim": "4. Any Identifiers, Timing variables, or Findings general observation class qualifiers may be added to the SS domain, but the following qualifiers would generally not be used: --MODIFY, --POS, --BODSYS, --ORRESU, --ORNRLO, --ORNRHI, --STRESN, --STRESU, --STNRLO, --STNRHI, --STNRC, --NRIND, --RESCAT, --XFN, --NAM, --LOINC, --SPEC, --SPCCND, --LOC, --METHOD, --BLFL, --FAST, --DRVFL, --TOX, --TOXGR, --SEV.", "score": 0.4464, "match_basis": "verbatim_token+domain_route:SS"}, {"md_atom_id": "md_dmSS_assn_a004", "md_file": "knowledge_base/domains/SS/assumptions.md", "md_atom_type": "LIST_ITEM", "md_parent_section": "§SS [SS — Assumptions]", "md_verbatim": "3. There are separate codelists for SS tests and responses.", "score": 0.4395, "match_basis": "verbatim_token+domain_route:SS"}, {"md_atom_id": "md_dmSS_assn_a005", "md_file": "knowledge_base/domains/SS/assumptions.md", "md_atom_type": "LIST_ITEM", "md_parent_section": "§SS [SS — Assumptions]", "md_verbatim": "   a. Associations between the SS tests and response codelists are described in the SS Codetable, available at https://www.cdisc.org/standards/terminology/controlled-terminology.", "score": 0.4283, "match_basis": "verbatim_token+domain_route:SS"}], "candidate_count": 5, "zero_candidate": false}
{"pdf_atom_id": "ig34_p0344_a002", "pdf_atom_type": "LIST_ITEM", "pdf_source": "SDTMIG_v3.4", "pdf_page": 344, "pdf_parent_section": "SS – Assumptions", "pdf_verbatim": "There are separate codelists for SS tests and responses.", "figure_ref": null, "candidates": [{"md_atom_id": "md_dmSS_assn_a004", "md_file": "knowledge_base/domains/SS/assumptions.md", "md_atom_type": "LIST_ITEM", "md_parent_section": "§SS [SS — Assumptions]", "md_verbatim": "3. There are separate codelists for SS tests and responses.", "score": 1.0, "match_basis": "verbatim_token+domain_route:SS"}, {"md_atom_id": "md_dmSS_assn_a005", "md_file": "knowledge_base/domains/SS/assumptions.md", "md_atom_type": "LIST_ITEM", "md_parent_section": "§SS [SS — Assumptions]", "md_verbatim": "   a. Associations between the SS tests and response codelists are described in the SS Codetable, available at https://www.cdisc.org/standards/terminology/controlled-terminology.", "score": 0.52, "match_basis": "verbatim_token+domain_route:SS"}, {"md_atom_id": "md_dmSS_assn_a002", "md_file": "knowledge_base/domains/SS/assumptions.md", "md_atom_type": "LIST_ITEM", "md_parent_section": "§SS [SS — Assumptions]", "md_verbatim": "1. Details about the circumstances of a subject's status are stored in the appropriate separate domain(s), even when collection is triggered by the response to the status assessment. For example, if a subject's survival status is \"DEAD\", the date of death must be stored in DM and within a final disposition record in DS. Only the status collection date, the status question, and the status response are stored in SS.", "score": 0.4851, "match_basis": "verbatim_token+domain_route:SS"}, {"md_atom_id": "md_dmSS_assn_a003", "md_file": "knowledge_base/domains/SS/assumptions.md", "md_atom_type": "LIST_ITEM", "md_parent_section": "§SS [SS — Assumptions]", "md_verbatim": "2. RELREC may be used to link assessments in SS with data in other domains that were collected as a result of the subject's status assessment.", "score": 0.4395, "match_basis": "verbatim_token+domain_route:SS"}, {"md_atom_id": "md_dmSS_assn_a006", "md_file": "knowledge_base/domains/SS/assumptions.md", "md_atom_type": "LIST_ITEM", "md_parent_section": "§SS [SS — Assumptions]", "md_verbatim": "4. Any Identifiers, Timing variables, or Findings general observation class qualifiers may be added to the SS domain, but the following qualifiers would generally not be used: --MODIFY, --POS, --BODSYS, --ORRESU, --ORNRLO, --ORNRHI, --STRESN, --STRESU, --STNRLO, --STNRHI, --STNRC, --NRIND, --RESCAT, --XFN, --NAM, --LOINC, --SPEC, --SPCCND, --LOC, --METHOD, --BLFL, --FAST, --DRVFL, --TOX, --TOXGR, --SEV.", "score": 0.4078, "match_basis": "verbatim_token+domain_route:SS"}], "candidate_count": 5, "zero_candidate": false}
{"pdf_atom_id": "ig34_p0344_a003", "pdf_atom_type": "LIST_ITEM", "pdf_source": "SDTMIG_v3.4", "pdf_page": 344, "pdf_parent_section": "SS – Assumptions", "pdf_verbatim": "Associations between the SS tests and response codelists are described in the SS Codetable, available at https://www.cdisc.org/standards/terminology/controlled-terminology.", "figure_ref": null, "candidates": [{"md_atom_id": "md_dmSS_assn_a005", "md_file": "knowledge_base/domains/SS/assumptions.md", "md_atom_type": "LIST_ITEM", "md_parent_section": "§SS [SS — Assumptions]", "md_verbatim": "   a. Associations between the SS tests and response codelists are described in the SS Codetable, available at https://www.cdisc.org/standards/terminology/controlled-terminology.", "score": 1.0, "match_basis": "verbatim_token+domain_route:SS"}, {"md_atom_id": "md_dmSS_assn_a004", "md_file": "knowledge_base/domains/SS/assumptions.md", "md_atom_type": "LIST_ITEM", "md_parent_section": "§SS [SS — Assumptions]", "md_verbatim": "3. There are separate codelists for SS tests and responses.", "score": 0.52, "match_basis": "verbatim_token+domain_route:SS"}, {"md_atom_id": "md_dmSS_assn_a002", "md_file": "knowledge_base/domains/SS/assumptions.md", "md_atom_type": "LIST_ITEM", "md_parent_section": "§SS [SS — Assumptions]", "md_verbatim": "1. Details about the circumstances of a subject's status are stored in the appropriate separate domain(s), even when collection is triggered by the response to the status assessment. For example, if a subject's survival status is \"DEAD\", the date of death must be stored in DM and within a final disposition record in DS. Only the status collection date, the status question, and the status response are stored in SS.", "score": 0.4721, "match_basis": "verbatim_token+domain_route:SS"}, {"md_atom_id": "md_dmSS_assn_a006", "md_file": "knowledge_base/domains/SS/assumptions.md", "md_atom_type": "LIST_ITEM", "md_parent_section": "§SS [SS — Assumptions]", "md_verbatim": "4. Any Identifiers, Timing variables, or Findings general observation class qualifiers may be added to the SS domain, but the following qualifiers would generally not be used: --MODIFY, --POS, --BODSYS, --ORRESU, --ORNRLO, --ORNRHI, --STRESN, --STRESU, --STNRLO, --STNRHI, --STNRC, --NRIND, --RESCAT, --XFN, --NAM, --LOINC, --SPEC, --SPCCND, --LOC, --METHOD, --BLFL, --FAST, --DRVFL, --TOX, --TOXGR, --SEV.", "score": 0.4335, "match_basis": "verbatim_token+domain_route:SS"}, {"md_atom_id": "md_dmSS_assn_a003", "md_file": "knowledge_base/domains/SS/assumptions.md", "md_atom_type": "LIST_ITEM", "md_parent_section": "§SS [SS — Assumptions]", "md_verbatim": "2. RELREC may be used to link assessments in SS with data in other domains that were collected as a result of the subject's status assessment.", "score": 0.4283, "match_basis": "verbatim_token+domain_route:SS"}], "candidate_count": 5, "zero_candidate": false}
{"pdf_atom_id": "ig34_p0344_a004", "pdf_atom_type": "LIST_ITEM", "pdf_source": "SDTMIG_v3.4", "pdf_page": 344, "pdf_parent_section": "SS – Assumptions", "pdf_verbatim": "Any Identifiers, Timing variables, or Findings general observation class qualifiers may be added to the SS domain, but the following qualifiers would generally not be used: --MODIFY, --POS, --BODSYS, --ORRESU, --ORNRLO, --ORNRHI, --STRESN, --STRESU, --STNRLO, --STNRHI, --STNRC, --NRIND, --RESCAT, --XFN, --NAM, --LOINC, --SPEC, --SPCCND, --LOC, --METHOD, --BLFL, --FAST, --DRVFL, --TOX, --TOXGR, --SEV.", "figure_ref": null, "candidates": [{"md_atom_id": "md_dmSS_assn_a006", "md_file": "knowledge_base/domains/SS/assumptions.md", "md_atom_type": "LIST_ITEM", "md_parent_section": "§SS [SS — Assumptions]", "md_verbatim": "4. Any Identifiers, Timing variables, or Findings general observation class qualifiers may be added to the SS domain, but the following qualifiers would generally not be used: --MODIFY, --POS, --BODSYS, --ORRESU, --ORNRLO, --ORNRHI, --STRESN, --STRESU, --STNRLO, --STNRHI, --STNRC, --NRIND, --RESCAT, --XFN, --NAM, --LOINC, --SPEC, --SPCCND, --LOC, --METHOD, --BLFL, --FAST, --DRVFL, --TOX, --TOXGR, --SEV.", "score": 1.0, "match_basis": "verbatim_token+domain_route:SS"}, {"md_atom_id": "md_dmSS_assn_a003", "md_file": "knowledge_base/domains/SS/assumptions.md", "md_atom_type": "LIST_ITEM", "md_parent_section": "§SS [SS — Assumptions]", "md_verbatim": "2. RELREC may be used to link assessments in SS with data in other domains that were collected as a result of the subject's status assessment.", "score": 0.4464, "match_basis": "verbatim_token+domain_route:SS"}, {"md_atom_id": "md_dmSS_assn_a002", "md_file": "knowledge_base/domains/SS/assumptions.md", "md_atom_type": "LIST_ITEM", "md_parent_section": "§SS [SS — Assumptions]", "md_verbatim": "1. Details about the circumstances of a subject's status are stored in the appropriate separate domain(s), even when collection is triggered by the response to the status assessment. For example, if a subject's survival status is \"DEAD\", the date of death must be stored in DM and within a final disposition record in DS. Only the status collection date, the status question, and the status response are stored in SS.", "score": 0.4351, "match_basis": "verbatim_token+domain_route:SS"}, {"md_atom_id": "md_dmSS_assn_a005", "md_file": "knowledge_base/domains/SS/assumptions.md", "md_atom_type": "LIST_ITEM", "md_parent_section": "§SS [SS — Assumptions]", "md_verbatim": "   a. Associations between the SS tests and response codelists are described in the SS Codetable, available at https://www.cdisc.org/standards/terminology/controlled-terminology.", "score": 0.4335, "match_basis": "verbatim_token+domain_route:SS"}, {"md_atom_id": "md_dmSS_assn_a004", "md_file": "knowledge_base/domains/SS/assumptions.md", "md_atom_type": "LIST_ITEM", "md_parent_section": "§SS [SS — Assumptions]", "md_verbatim": "3. There are separate codelists for SS tests and responses.", "score": 0.4078, "match_basis": "verbatim_token+domain_route:SS"}], "candidate_count": 5, "zero_candidate": false}
{"pdf_atom_id": "ig34_p0344_a005", "pdf_atom_type": "HEADING", "pdf_source": "SDTMIG_v3.4", "pdf_page": 344, "pdf_parent_section": "§6.3.11 Subject Status (SS)", "pdf_verbatim": "SS – Examples", "figure_ref": null, "candidates": [{"md_atom_id": "md_dmSS_ex_a001", "md_file": "knowledge_base/domains/SS/examples.md", "md_atom_type": "HEADING", "md_parent_section": "§SS [SS — Examples]", "md_verbatim": "# SS — Examples", "score": 1.0, "match_basis": "verbatim_token+domain_route:SS"}, {"md_atom_id": "md_dmSS_assn_a001", "md_file": "knowledge_base/domains/SS/assumptions.md", "md_atom_type": "HEADING", "md_parent_section": "§SS [SS — Assumptions]", "md_verbatim": "# SS — Assumptions", "score": 0.4, "match_basis": "verbatim_token+domain_route:SS"}], "candidate_count": 2, "zero_candidate": false}
{"pdf_atom_id": "ig34_p0344_a006", "pdf_atom_type": "HEADING", "pdf_source": "SDTMIG_v3.4", "pdf_page": 344, "pdf_parent_section": "SS – Examples", "pdf_verbatim": "Example 1", "figure_ref": null, "candidates": [{"md_atom_id": "md_dmSS_ex_a001", "md_file": "knowledge_base/domains/SS/examples.md", "md_atom_type": "HEADING", "md_parent_section": "§SS [SS — Examples]", "md_verbatim": "# SS — Examples", "score": 0.9, "match_basis": "verbatim_token+domain_route:SS"}, {"md_atom_id": "md_dmSS_assn_a001", "md_file": "knowledge_base/domains/SS/assumptions.md", "md_atom_type": "HEADING", "md_parent_section": "§SS [SS — Assumptions]", "md_verbatim": "# SS — Assumptions", "score": 0.4, "match_basis": "verbatim_token+domain_route:SS"}], "candidate_count": 2, "zero_candidate": false}
{"pdf_atom_id": "ig34_p0344_a007", "pdf_atom_type": "SENTENCE", "pdf_source": "SDTMIG_v3.4", "pdf_page": 344, "pdf_parent_section": "SS – Examples", "pdf_verbatim": "In this example, subjects complete a 10-week treatment regimen and are then contacted by phone every month for 3 months. The phone contact assesses the subject's survival status. If the survival status is \"DEAD\", additional information is collected in order to complete the subject's final disposition record in DS and to record the date of death in DM (DS and DM records are not shown here).", "figure_ref": null, "candidates": [{"md_atom_id": "md_dmSS_assn_a002", "md_file": "knowledge_base/domains/SS/assumptions.md", "md_atom_type": "LIST_ITEM", "md_parent_section": "§SS [SS — Assumptions]", "md_verbatim": "1. Details about the circumstances of a subject's status are stored in the appropriate separate domain(s), even when collection is triggered by the response to the status assessment. For example, if a subject's survival status is \"DEAD\", the date of death must be stored in DM and within a final disposition record in DS. Only the status collection date, the status question, and the status response are stored in SS.", "score": 0.5169, "match_basis": "verbatim_token+domain_route:SS"}, {"md_atom_id": "md_dmSS_ex_a002", "md_file": "knowledge_base/domains/SS/examples.md", "md_atom_type": "SENTENCE", "md_parent_section": "§SS [SS — Examples]", "md_verbatim": "No dataset examples are provided for the SS domain in the SDTMIG v3.4.", "score": 0.4422, "match_basis": "verbatim_token+domain_route:SS"}, {"md_atom_id": "md_dmSS_assn_a003", "md_file": "knowledge_base/domains/SS/assumptions.md", "md_atom_type": "LIST_ITEM", "md_parent_section": "§SS [SS — Assumptions]", "md_verbatim": "2. RELREC may be used to link assessments in SS with data in other domains that were collected as a result of the subject's status assessment.", "score": 0.4247, "match_basis": "verbatim_token+domain_route:SS"}, {"md_atom_id": "md_dmSS_assn_a005", "md_file": "knowledge_base/domains/SS/assumptions.md", "md_atom_type": "LIST_ITEM", "md_parent_section": "§SS [SS — Assumptions]", "md_verbatim": "   a. Associations between the SS tests and response codelists are described in the SS Codetable, available at https://www.cdisc.org/standards/terminology/controlled-terminology.", "score": 0.3655, "match_basis": "verbatim_token+domain_route:SS"}, {"md_atom_id": "md_dmSS_assn_a004", "md_file": "knowledge_base/domains/SS/assumptions.md", "md_atom_type": "LIST_ITEM", "md_parent_section": "§SS [SS — Assumptions]", "md_verbatim": "3. There are separate codelists for SS tests and responses.", "score": 0.3522, "match_basis": "verbatim_token+domain_route:SS"}], "candidate_count": 5, "zero_candidate": false}
{"pdf_atom_id": "ig34_p0344_a008", "pdf_atom_type": "CODE_LITERAL", "pdf_source": "SDTMIG_v3.4", "pdf_page": 344, "pdf_parent_section": "SS – Examples", "pdf_verbatim": "ss.xpt", "figure_ref": null, "candidates": [{"md_atom_id": "md_dmSS_assn_a001", "md_file": "knowledge_base/domains/SS/assumptions.md", "md_atom_type": "HEADING", "md_parent_section": "§SS [SS — Assumptions]", "md_verbatim": "# SS — Assumptions", "score": 0.19, "match_basis": "verbatim_token+domain_route:SS"}, {"md_atom_id": "md_dmSS_assn_a002", "md_file": "knowledge_base/domains/SS/assumptions.md", "md_atom_type": "LIST_ITEM", "md_parent_section": "§SS [SS — Assumptions]", "md_verbatim": "1. Details about the circumstances of a subject's status are stored in the appropriate separate domain(s), even when collection is triggered by the response to the status assessment. For example, if a subject's survival status is \"DEAD\", the date of death must be stored in DM and within a final disposition record in DS. Only the status collection date, the status question, and the status response are stored in SS.", "score": 0.19, "match_basis": "verbatim_token+domain_route:SS"}, {"md_atom_id": "md_dmSS_assn_a003", "md_file": "knowledge_base/domains/SS/assumptions.md", "md_atom_type": "LIST_ITEM", "md_parent_section": "§SS [SS — Assumptions]", "md_verbatim": "2. RELREC may be used to link assessments in SS with data in other domains that were collected as a result of the subject's status assessment.", "score": 0.19, "match_basis": "verbatim_token+domain_route:SS"}, {"md_atom_id": "md_dmSS_assn_a004", "md_file": "knowledge_base/domains/SS/assumptions.md", "md_atom_type": "LIST_ITEM", "md_parent_section": "§SS [SS — Assumptions]", "md_verbatim": "3. There are separate codelists for SS tests and responses.", "score": 0.19, "match_basis": "verbatim_token+domain_route:SS"}, {"md_atom_id": "md_dmSS_assn_a005", "md_file": "knowledge_base/domains/SS/assumptions.md", "md_atom_type": "LIST_ITEM", "md_parent_section": "§SS [SS — Assumptions]", "md_verbatim": "   a. Associations between the SS tests and response codelists are described in the SS Codetable, available at https://www.cdisc.org/standards/terminology/controlled-terminology.", "score": 0.19, "match_basis": "verbatim_token+domain_route:SS"}, {"md_atom_id": "md_dmSS_assn_a006", "md_file": "knowledge_base/domains/SS/assumptions.md", "md_atom_type": "LIST_ITEM", "md_parent_section": "§SS [SS — Assumptions]", "md_verbatim": "4. Any Identifiers, Timing variables, or Findings general observation class qualifiers may be added to the SS domain, but the following qualifiers would generally not be used: --MODIFY, --POS, --BODSYS, --ORRESU, --ORNRLO, --ORNRHI, --STRESN, --STRESU, --STNRLO, --STNRHI, --STNRC, --NRIND, --RESCAT, --XFN, --NAM, --LOINC, --SPEC, --SPCCND, --LOC, --METHOD, --BLFL, --FAST, --DRVFL, --TOX, --TOXGR, --SEV.", "score": 0.19, "match_basis": "verbatim_token+domain_route:SS"}, {"md_atom_id": "md_dmSS_ex_a001", "md_file": "knowledge_base/domains/SS/examples.md", "md_atom_type": "HEADING", "md_parent_section": "§SS [SS — Examples]", "md_verbatim": "# SS — Examples", "score": 0.19, "match_basis": "verbatim_token+domain_route:SS"}, {"md_atom_id": "md_dmSS_ex_a002", "md_file": "knowledge_base/domains/SS/examples.md", "md_atom_type": "SENTENCE", "md_parent_section": "§SS [SS — Examples]", "md_verbatim": "No dataset examples are provided for the SS domain in the SDTMIG v3.4.", "score": 0.19, "match_basis": "verbatim_token+domain_route:SS"}], "candidate_count": 8, "zero_candidate": false}
{"pdf_atom_id": "ig34_p0344_a009", "pdf_atom_type": "TABLE_HEADER", "pdf_source": "SDTMIG_v3.4", "pdf_page": 344, "pdf_parent_section": "SS – Examples", "pdf_verbatim": "| Row | STUDYID | DOMAIN | USUBJID | SSSEQ | SSTESTCD | SSTEST | SSORRES | SSSTRESC | VISITNUM | VISIT | SSDTC |", "figure_ref": null, "candidates": [{"md_atom_id": "md_dmSS_assn_a003", "md_file": "knowledge_base/domains/SS/assumptions.md", "md_atom_type": "LIST_ITEM", "md_parent_section": "§SS [SS — Assumptions]", "md_verbatim": "2. RELREC may be used to link assessments in SS with data in other domains that were collected as a result of the subject's status assessment.", "score": 0.2458, "match_basis": "verbatim_token+domain_route:SS"}, {"md_atom_id": "md_dmSS_ex_a002", "md_file": "knowledge_base/domains/SS/examples.md", "md_atom_type": "SENTENCE", "md_parent_section": "§SS [SS — Examples]", "md_verbatim": "No dataset examples are provided for the SS domain in the SDTMIG v3.4.", "score": 0.2369, "match_basis": "verbatim_token+domain_route:SS"}, {"md_atom_id": "md_dmSS_assn_a002", "md_file": "knowledge_base/domains/SS/assumptions.md", "md_atom_type": "LIST_ITEM", "md_parent_section": "§SS [SS — Assumptions]", "md_verbatim": "1. Details about the circumstances of a subject's status are stored in the appropriate separate domain(s), even when collection is triggered by the response to the status assessment. For example, if a subject's survival status is \"DEAD\", the date of death must be stored in DM and within a final disposition record in DS. Only the status collection date, the status question, and the status response are stored in SS.", "score": 0.2285, "match_basis": "verbatim_token+domain_route:SS"}, {"md_atom_id": "md_dmSS_assn_a006", "md_file": "knowledge_base/domains/SS/assumptions.md", "md_atom_type": "LIST_ITEM", "md_parent_section": "§SS [SS — Assumptions]", "md_verbatim": "4. Any Identifiers, Timing variables, or Findings general observation class qualifiers may be added to the SS domain, but the following qualifiers would generally not be used: --MODIFY, --POS, --BODSYS, --ORRESU, --ORNRLO, --ORNRHI, --STRESN, --STRESU, --STNRLO, --STNRHI, --STNRC, --NRIND, --RESCAT, --XFN, --NAM, --LOINC, --SPEC, --SPCCND, --LOC, --METHOD, --BLFL, --FAST, --DRVFL, --TOX, --TOXGR, --SEV.", "score": 0.2277, "match_basis": "verbatim_token+domain_route:SS"}, {"md_atom_id": "md_dmSS_assn_a001", "md_file": "knowledge_base/domains/SS/assumptions.md", "md_atom_type": "HEADING", "md_parent_section": "§SS [SS — Assumptions]", "md_verbatim": "# SS — Assumptions", "score": 0.22, "match_basis": "verbatim_token+domain_route:SS"}], "candidate_count": 5, "zero_candidate": false}
{"pdf_atom_id": "ig34_p0344_a010", "pdf_atom_type": "TABLE_ROW", "pdf_source": "SDTMIG_v3.4", "pdf_page": 344, "pdf_parent_section": "SS – Examples", "pdf_verbatim": "| 1 | XYZ | SS | XYZ-333-009 | 1 | SURVSTAT | Survival Status | ALIVE | ALIVE | 10 | MONTH 1 | 2010-04-15 |", "figure_ref": null, "candidates": [{"md_atom_id": "md_dmSS_assn_a002", "md_file": "knowledge_base/domains/SS/assumptions.md", "md_atom_type": "LIST_ITEM", "md_parent_section": "§SS [SS — Assumptions]", "md_verbatim": "1. Details about the circumstances of a subject's status are stored in the appropriate separate domain(s), even when collection is triggered by the response to the status assessment. For example, if a subject's survival status is \"DEAD\", the date of death must be stored in DM and within a final disposition record in DS. Only the status collection date, the status question, and the status response are stored in SS.", "score": 0.2635, "match_basis": "verbatim_token+domain_route:SS"}, {"md_atom_id": "md_dmSS_assn_a003", "md_file": "knowledge_base/domains/SS/assumptions.md", "md_atom_type": "LIST_ITEM", "md_parent_section": "§SS [SS — Assumptions]", "md_verbatim": "2. RELREC may be used to link assessments in SS with data in other domains that were collected as a result of the subject's status assessment.", "score": 0.2533, "match_basis": "verbatim_token+domain_route:SS"}, {"md_atom_id": "md_dmSS_assn_a005", "md_file": "knowledge_base/domains/SS/assumptions.md", "md_atom_type": "LIST_ITEM", "md_parent_section": "§SS [SS — Assumptions]", "md_verbatim": "   a. Associations between the SS tests and response codelists are described in the SS Codetable, available at https://www.cdisc.org/standards/terminology/controlled-terminology.", "score": 0.2319, "match_basis": "verbatim_token+domain_route:SS"}, {"md_atom_id": "md_dmSS_assn_a006", "md_file": "knowledge_base/domains/SS/assumptions.md", "md_atom_type": "LIST_ITEM", "md_parent_section": "§SS [SS — Assumptions]", "md_verbatim": "4. Any Identifiers, Timing variables, or Findings general observation class qualifiers may be added to the SS domain, but the following qualifiers would generally not be used: --MODIFY, --POS, --BODSYS, --ORRESU, --ORNRLO, --ORNRHI, --STRESN, --STRESU, --STNRLO, --STNRHI, --STNRC, --NRIND, --RESCAT, --XFN, --NAM, --LOINC, --SPEC, --SPCCND, --LOC, --METHOD, --BLFL, --FAST, --DRVFL, --TOX, --TOXGR, --SEV.", "score": 0.224, "match_basis": "verbatim_token+domain_route:SS"}, {"md_atom_id": "md_dmSS_assn_a004", "md_file": "knowledge_base/domains/SS/assumptions.md", "md_atom_type": "LIST_ITEM", "md_parent_section": "§SS [SS — Assumptions]", "md_verbatim": "3. There are separate codelists for SS tests and responses.", "score": 0.22, "match_basis": "verbatim_token+domain_route:SS"}], "candidate_count": 5, "zero_candidate": false}
{"pdf_atom_id": "ig34_p0344_a011", "pdf_atom_type": "TABLE_ROW", "pdf_source": "SDTMIG_v3.4", "pdf_page": 344, "pdf_parent_section": "SS – Examples", "pdf_verbatim": "| 2 | XYZ | SS | XYZ-333-009 | 2 | SURVSTAT | Survival Status | ALIVE | ALIVE | 20 | MONTH 2 | 2010-05-12 |", "figure_ref": null, "candidates": [{"md_atom_id": "md_dmSS_assn_a002", "md_file": "knowledge_base/domains/SS/assumptions.md", "md_atom_type": "LIST_ITEM", "md_parent_section": "§SS [SS — Assumptions]", "md_verbatim": "1. Details about the circumstances of a subject's status are stored in the appropriate separate domain(s), even when collection is triggered by the response to the status assessment. For example, if a subject's survival status is \"DEAD\", the date of death must be stored in DM and within a final disposition record in DS. Only the status collection date, the status question, and the status response are stored in SS.", "score": 0.2635, "match_basis": "verbatim_token+domain_route:SS"}, {"md_atom_id": "md_dmSS_assn_a003", "md_file": "knowledge_base/domains/SS/assumptions.md", "md_atom_type": "LIST_ITEM", "md_parent_section": "§SS [SS — Assumptions]", "md_verbatim": "2. RELREC may be used to link assessments in SS with data in other domains that were collected as a result of the subject's status assessment.", "score": 0.2533, "match_basis": "verbatim_token+domain_route:SS"}, {"md_atom_id": "md_dmSS_assn_a005", "md_file": "knowledge_base/domains/SS/assumptions.md", "md_atom_type": "LIST_ITEM", "md_parent_section": "§SS [SS — Assumptions]", "md_verbatim": "   a. Associations between the SS tests and response codelists are described in the SS Codetable, available at https://www.cdisc.org/standards/terminology/controlled-terminology.", "score": 0.2319, "match_basis": "verbatim_token+domain_route:SS"}, {"md_atom_id": "md_dmSS_assn_a006", "md_file": "knowledge_base/domains/SS/assumptions.md", "md_atom_type": "LIST_ITEM", "md_parent_section": "§SS [SS — Assumptions]", "md_verbatim": "4. Any Identifiers, Timing variables, or Findings general observation class qualifiers may be added to the SS domain, but the following qualifiers would generally not be used: --MODIFY, --POS, --BODSYS, --ORRESU, --ORNRLO, --ORNRHI, --STRESN, --STRESU, --STNRLO, --STNRHI, --STNRC, --NRIND, --RESCAT, --XFN, --NAM, --LOINC, --SPEC, --SPCCND, --LOC, --METHOD, --BLFL, --FAST, --DRVFL, --TOX, --TOXGR, --SEV.", "score": 0.224, "match_basis": "verbatim_token+domain_route:SS"}, {"md_atom_id": "md_dmSS_assn_a004", "md_file": "knowledge_base/domains/SS/assumptions.md", "md_atom_type": "LIST_ITEM", "md_parent_section": "§SS [SS — Assumptions]", "md_verbatim": "3. There are separate codelists for SS tests and responses.", "score": 0.22, "match_basis": "verbatim_token+domain_route:SS"}], "candidate_count": 5, "zero_candidate": false}
{"pdf_atom_id": "ig34_p0344_a012", "pdf_atom_type": "TABLE_ROW", "pdf_source": "SDTMIG_v3.4", "pdf_page": 344, "pdf_parent_section": "SS – Examples", "pdf_verbatim": "| 3 | XYZ | SS | XYZ-333-009 | 3 | SURVSTAT | Survival Status | ALIVE | ALIVE | 30 | MONTH 3 | 2010-06-15 |", "figure_ref": null, "candidates": [{"md_atom_id": "md_dmSS_assn_a002", "md_file": "knowledge_base/domains/SS/assumptions.md", "md_atom_type": "LIST_ITEM", "md_parent_section": "§SS [SS — Assumptions]", "md_verbatim": "1. Details about the circumstances of a subject's status are stored in the appropriate separate domain(s), even when collection is triggered by the response to the status assessment. For example, if a subject's survival status is \"DEAD\", the date of death must be stored in DM and within a final disposition record in DS. Only the status collection date, the status question, and the status response are stored in SS.", "score": 0.2635, "match_basis": "verbatim_token+domain_route:SS"}, {"md_atom_id": "md_dmSS_assn_a003", "md_file": "knowledge_base/domains/SS/assumptions.md", "md_atom_type": "LIST_ITEM", "md_parent_section": "§SS [SS — Assumptions]", "md_verbatim": "2. RELREC may be used to link assessments in SS with data in other domains that were collected as a result of the subject's status assessment.", "score": 0.2533, "match_basis": "verbatim_token+domain_route:SS"}, {"md_atom_id": "md_dmSS_assn_a005", "md_file": "knowledge_base/domains/SS/assumptions.md", "md_atom_type": "LIST_ITEM", "md_parent_section": "§SS [SS — Assumptions]", "md_verbatim": "   a. Associations between the SS tests and response codelists are described in the SS Codetable, available at https://www.cdisc.org/standards/terminology/controlled-terminology.", "score": 0.2319, "match_basis": "verbatim_token+domain_route:SS"}, {"md_atom_id": "md_dmSS_assn_a006", "md_file": "knowledge_base/domains/SS/assumptions.md", "md_atom_type": "LIST_ITEM", "md_parent_section": "§SS [SS — Assumptions]", "md_verbatim": "4. Any Identifiers, Timing variables, or Findings general observation class qualifiers may be added to the SS domain, but the following qualifiers would generally not be used: --MODIFY, --POS, --BODSYS, --ORRESU, --ORNRLO, --ORNRHI, --STRESN, --STRESU, --STNRLO, --STNRHI, --STNRC, --NRIND, --RESCAT, --XFN, --NAM, --LOINC, --SPEC, --SPCCND, --LOC, --METHOD, --BLFL, --FAST, --DRVFL, --TOX, --TOXGR, --SEV.", "score": 0.224, "match_basis": "verbatim_token+domain_route:SS"}, {"md_atom_id": "md_dmSS_assn_a004", "md_file": "knowledge_base/domains/SS/assumptions.md", "md_atom_type": "LIST_ITEM", "md_parent_section": "§SS [SS — Assumptions]", "md_verbatim": "3. There are separate codelists for SS tests and responses.", "score": 0.22, "match_basis": "verbatim_token+domain_route:SS"}], "candidate_count": 5, "zero_candidate": false}
{"pdf_atom_id": "ig34_p0344_a013", "pdf_atom_type": "TABLE_ROW", "pdf_source": "SDTMIG_v3.4", "pdf_page": 344, "pdf_parent_section": "SS – Examples", "pdf_verbatim": "| 4 | XYZ | SS | XYZ-428-021 | 1 | SURVSTAT | Survival Status | ALIVE | ALIVE | 10 | MONTH 1 | 2010-08-03 |", "figure_ref": null, "candidates": [{"md_atom_id": "md_dmSS_assn_a002", "md_file": "knowledge_base/domains/SS/assumptions.md", "md_atom_type": "LIST_ITEM", "md_parent_section": "§SS [SS — Assumptions]", "md_verbatim": "1. Details about the circumstances of a subject's status are stored in the appropriate separate domain(s), even when collection is triggered by the response to the status assessment. For example, if a subject's survival status is \"DEAD\", the date of death must be stored in DM and within a final disposition record in DS. Only the status collection date, the status question, and the status response are stored in SS.", "score": 0.2635, "match_basis": "verbatim_token+domain_route:SS"}, {"md_atom_id": "md_dmSS_assn_a003", "md_file": "knowledge_base/domains/SS/assumptions.md", "md_atom_type": "LIST_ITEM", "md_parent_section": "§SS [SS — Assumptions]", "md_verbatim": "2. RELREC may be used to link assessments in SS with data in other domains that were collected as a result of the subject's status assessment.", "score": 0.2533, "match_basis": "verbatim_token+domain_route:SS"}, {"md_atom_id": "md_dmSS_assn_a005", "md_file": "knowledge_base/domains/SS/assumptions.md", "md_atom_type": "LIST_ITEM", "md_parent_section": "§SS [SS — Assumptions]", "md_verbatim": "   a. Associations between the SS tests and response codelists are described in the SS Codetable, available at https://www.cdisc.org/standards/terminology/controlled-terminology.", "score": 0.2319, "match_basis": "verbatim_token+domain_route:SS"}, {"md_atom_id": "md_dmSS_assn_a006", "md_file": "knowledge_base/domains/SS/assumptions.md", "md_atom_type": "LIST_ITEM", "md_parent_section": "§SS [SS — Assumptions]", "md_verbatim": "4. Any Identifiers, Timing variables, or Findings general observation class qualifiers may be added to the SS domain, but the following qualifiers would generally not be used: --MODIFY, --POS, --BODSYS, --ORRESU, --ORNRLO, --ORNRHI, --STRESN, --STRESU, --STNRLO, --STNRHI, --STNRC, --NRIND, --RESCAT, --XFN, --NAM, --LOINC, --SPEC, --SPCCND, --LOC, --METHOD, --BLFL, --FAST, --DRVFL, --TOX, --TOXGR, --SEV.", "score": 0.224, "match_basis": "verbatim_token+domain_route:SS"}, {"md_atom_id": "md_dmSS_assn_a004", "md_file": "knowledge_base/domains/SS/assumptions.md", "md_atom_type": "LIST_ITEM", "md_parent_section": "§SS [SS — Assumptions]", "md_verbatim": "3. There are separate codelists for SS tests and responses.", "score": 0.22, "match_basis": "verbatim_token+domain_route:SS"}], "candidate_count": 5, "zero_candidate": false}
{"pdf_atom_id": "ig34_p0344_a014", "pdf_atom_type": "TABLE_ROW", "pdf_source": "SDTMIG_v3.4", "pdf_page": 344, "pdf_parent_section": "SS – Examples", "pdf_verbatim": "| 5 | XYZ | SS | XYZ-428-021 | 2 | SURVSTAT | Survival Status | DEAD | DEAD | 20 | MONTH 2 | 2010-09-06 |", "figure_ref": null, "candidates": [{"md_atom_id": "md_dmSS_assn_a002", "md_file": "knowledge_base/domains/SS/assumptions.md", "md_atom_type": "LIST_ITEM", "md_parent_section": "§SS [SS — Assumptions]", "md_verbatim": "1. Details about the circumstances of a subject's status are stored in the appropriate separate domain(s), even when collection is triggered by the response to the status assessment. For example, if a subject's survival status is \"DEAD\", the date of death must be stored in DM and within a final disposition record in DS. Only the status collection date, the status question, and the status response are stored in SS.", "score": 0.2733, "match_basis": "verbatim_token+domain_route:SS"}, {"md_atom_id": "md_dmSS_assn_a003", "md_file": "knowledge_base/domains/SS/assumptions.md", "md_atom_type": "LIST_ITEM", "md_parent_section": "§SS [SS — Assumptions]", "md_verbatim": "2. RELREC may be used to link assessments in SS with data in other domains that were collected as a result of the subject's status assessment.", "score": 0.2538, "match_basis": "verbatim_token+domain_route:SS"}, {"md_atom_id": "md_dmSS_assn_a005", "md_file": "knowledge_base/domains/SS/assumptions.md", "md_atom_type": "LIST_ITEM", "md_parent_section": "§SS [SS — Assumptions]", "md_verbatim": "   a. Associations between the SS tests and response codelists are described in the SS Codetable, available at https://www.cdisc.org/standards/terminology/controlled-terminology.", "score": 0.232, "match_basis": "verbatim_token+domain_route:SS"}, {"md_atom_id": "md_dmSS_assn_a004", "md_file": "knowledge_base/domains/SS/assumptions.md", "md_atom_type": "LIST_ITEM", "md_parent_section": "§SS [SS — Assumptions]", "md_verbatim": "3. There are separate codelists for SS tests and responses.", "score": 0.22, "match_basis": "verbatim_token+domain_route:SS"}, {"md_atom_id": "md_dmSS_assn_a006", "md_file": "knowledge_base/domains/SS/assumptions.md", "md_atom_type": "LIST_ITEM", "md_parent_section": "§SS [SS — Assumptions]", "md_verbatim": "4. Any Identifiers, Timing variables, or Findings general observation class qualifiers may be added to the SS domain, but the following qualifiers would generally not be used: --MODIFY, --POS, --BODSYS, --ORRESU, --ORNRLO, --ORNRHI, --STRESN, --STRESU, --STNRLO, --STNRHI, --STNRC, --NRIND, --RESCAT, --XFN, --NAM, --LOINC, --SPEC, --SPCCND, --LOC, --METHOD, --BLFL, --FAST, --DRVFL, --TOX, --TOXGR, --SEV.", "score": 0.22, "match_basis": "verbatim_token+domain_route:SS"}], "candidate_count": 5, "zero_candidate": false}
{"pdf_atom_id": "ig34_p0344_a015", "pdf_atom_type": "HEADING", "pdf_source": "SDTMIG_v3.4", "pdf_page": 344, "pdf_parent_section": "§6.3 [MODELS FOR FINDINGS DOMAINS]", "pdf_verbatim": "6.3.12 Tumor/Lesion Domains", "figure_ref": null, "candidates": [{"md_atom_id": "md_index_a023", "md_file": "knowledge_base/INDEX.md", "md_atom_type": "HEADING", "md_parent_section": "§ SDTM Knowledge Base — Index", "md_verbatim": "## Domains (63 domains)", "score": 0.55, "match_basis": "verbatim_token+global_search"}, {"md_atom_id": "md_model04_a007", "md_file": "knowledge_base/model/04_associated_persons.md", "md_atom_type": "HEADING", "md_parent_section": "§4 [SDTM v2.0 — Chapter 4: Associated Persons Data]", "md_verbatim": "### AP Domain Rules", "score": 0.5143, "match_basis": "verbatim_token+global_search"}, {"md_atom_id": "md_index_a087", "md_file": "knowledge_base/INDEX.md", "md_atom_type": "HEADING", "md_parent_section": "§ Domains (63 domains)", "md_verbatim": "### Trial Design Domains", "score": 0.5, "match_basis": "verbatim_token+global_search"}, {"md_atom_id": "md_index_a044", "md_file": "knowledge_base/INDEX.md", "md_atom_type": "HEADING", "md_parent_section": "§ Domains (63 domains)", "md_verbatim": "### Events Domains", "score": 0.4875, "match_basis": "verbatim_token+global_search"}, {"md_atom_id": "md_varindex_a1527", "md_file": "knowledge_base/VARIABLE_INDEX.md", "md_atom_type": "HEADING", "md_parent_section": "§ 二、领域专属变量（仅 1 个域，共 1499 个），按域分组", "md_verbatim": "### TR — Tumor/Lesion Results (Findings)", "score": 0.4826, "match_basis": "verbatim_token+global_search"}], "candidate_count": 5, "zero_candidate": false}
{"pdf_atom_id": "ig34_p0344_a016", "pdf_atom_type": "SENTENCE", "pdf_source": "SDTMIG_v3.4", "pdf_page": 344, "pdf_parent_section": "§6.3.12 Tumor/Lesion Domains", "pdf_verbatim": "The Tumor/Lesion domains (TU, TR) represent data collected in clinical trials where sites of disease (e.g., tumors/lesions/locations of interest, lymph nodes, organs of interest in the assessment of the disease) are identified and then repeatedly measured/assessed at subsequent time points and often used in an evaluation of disease response(s). As such, these domains would be applicable for representing data to support disease response criteria. These 2 domains each have a distinct purpose and are related to each other, and may also be related to assessments in the RS domain (see Section 6.3.9.3, Disease Response and Clin Classification).", "figure_ref": null, "candidates": [{"md_atom_id": "md_dmTR_assn_a003", "md_file": "knowledge_base/domains/TR/assumptions.md", "md_atom_type": "SENTENCE", "md_parent_section": "§TR [TR — Assumptions]", "md_verbatim": "The TR domain represents quantitative measurements and/or qualitative assessments of the tumors, lesions, or locations of interest (e.g., tumors, cardiovascular culprit lesions, organs, bone marrow, other sites of disease such as lymph nodes) identified in the Tumor/Lesion Identification (TU) domain.", "score": 0.5171, "match_basis": "verbatim_token+global_search"}, {"md_atom_id": "md_dmTR_assn_a006", "md_file": "knowledge_base/domains/TR/assumptions.md", "md_atom_type": "SENTENCE", "md_parent_section": "§TR [TR — Assumptions]", "md_verbatim": "Clinically accepted evaluation criteria expect that a tumor/lesion/location of interest identified by the ID is the same tumor/lesion/location of interest at each subsequent assessment.", "score": 0.4926, "match_basis": "verbatim_token+global_search"}, {"md_atom_id": "md_dmTU_assn_a003", "md_file": "knowledge_base/domains/TU/assumptions.md", "md_atom_type": "SENTENCE", "md_parent_section": "§TU [TU — Assumptions]", "md_verbatim": "The TU domain represents data that uniquely identifies tumors, lesions, or locations of interest (e.g., tumors, cardiovascular culprit lesions, organs, bone marrow, other sites of disease such as lymph nodes).", "score": 0.4873, "match_basis": "verbatim_token+global_search"}, {"md_atom_id": "md_dmTR_assn_a002", "md_file": "knowledge_base/domains/TR/assumptions.md", "md_atom_type": "SENTENCE", "md_parent_section": "§TR [TR — Assumptions]", "md_verbatim": "A findings domain that represents quantitative measurements and/or qualitative assessments of the tumors, lesions, or locations of interest identified in the Tumor/Lesion Identification (TU) domain.", "score": 0.4684, "match_basis": "verbatim_token+global_search"}, {"md_atom_id": "md_dmTU_assn_a004", "md_file": "knowledge_base/domains/TU/assumptions.md", "md_atom_type": "SENTENCE", "md_parent_section": "§TU [TU — Assumptions]", "md_verbatim": "Commonly, tumors/lesions/locations of interest are identified by an investigator and/or independent assessor and classified according to the disease assessment criteria.", "score": 0.4626, "match_basis": "verbatim_token+global_search"}], "candidate_count": 5, "zero_candidate": false}
{"pdf_atom_id": "ig34_p0344_a017", "pdf_atom_type": "HEADING", "pdf_source": "SDTMIG_v3.4", "pdf_page": 344, "pdf_parent_section": "§6.3.12 Tumor/Lesion Domains", "pdf_verbatim": "6.3.12.1 Tumor/Lesion Identification (TU)", "figure_ref": null, "candidates": [{"md_atom_id": "md_varindex_a1564", "md_file": "knowledge_base/VARIABLE_INDEX.md", "md_atom_type": "HEADING", "md_parent_section": "§ 二、领域专属变量（仅 1 个域，共 1499 个），按域分组", "md_verbatim": "### TU — Tumor/Lesion Identification (Findings)", "score": 0.75, "match_basis": "verbatim_token+global_search"}, {"md_atom_id": "md_ch08_a276", "md_file": "knowledge_base/chapters/ch08_relationships.md", "md_atom_type": "HEADING", "md_parent_section": "§8.7 [Related Subjects (RELSUB)]", "md_verbatim": "### Specification", "score": 0.4909, "match_basis": "verbatim_token+global_search"}, {"md_atom_id": "md_ch08_a318", "md_file": "knowledge_base/chapters/ch08_relationships.md", "md_atom_type": "HEADING", "md_parent_section": "§8.8 [Related Specimens (RELSPEC)]", "md_verbatim": "### Specification", "score": 0.4909, "match_basis": "verbatim_token+global_search"}, {"md_atom_id": "md_ch01_a066", "md_file": "knowledge_base/chapters/ch01_introduction.md", "md_atom_type": "HEADING", "md_parent_section": "§1.4 [How to Read this Implementation Guide]", "md_verbatim": "### 1.4.1 How to Read a Domain Specification", "score": 0.4448, "match_basis": "verbatim_token+global_search"}, {"md_atom_id": "md_varindex_a1527", "md_file": "knowledge_base/VARIABLE_INDEX.md", "md_atom_type": "HEADING", "md_parent_section": "§ 二、领域专属变量（仅 1 个域，共 1499 个），按域分组", "md_verbatim": "### TR — Tumor/Lesion Results (Findings)", "score": 0.4448, "match_basis": "verbatim_token+global_search"}], "candidate_count": 5, "zero_candidate": false}
{"pdf_atom_id": "ig34_p0344_a018", "pdf_atom_type": "HEADING", "pdf_source": "SDTMIG_v3.4", "pdf_page": 344, "pdf_parent_section": "§6.3.12.1 Tumor/Lesion Identification (TU)", "pdf_verbatim": "TU – Description/Overview", "figure_ref": null, "candidates": [{"md_atom_id": "md_dmTU_assn_a001", "md_file": "knowledge_base/domains/TU/assumptions.md", "md_atom_type": "HEADING", "md_parent_section": "§TU [TU — Assumptions]", "md_verbatim": "# TU — Assumptions", "score": 0.4857, "match_basis": "verbatim_token+domain_route:TU"}, {"md_atom_id": "md_dmTU_ex_a001", "md_file": "knowledge_base/domains/TU/examples.md", "md_atom_type": "HEADING", "md_parent_section": "§TU [TU — Examples]", "md_verbatim": "# TU — Examples", "score": 0.4, "match_basis": "verbatim_token+domain_route:TU"}, {"md_atom_id": "md_dmTU_ex_a003", "md_file": "knowledge_base/domains/TU/examples.md", "md_atom_type": "HEADING", "md_parent_section": "§TU [TU — Examples]", "md_verbatim": "## Example 1", "score": 0.4, "match_basis": "verbatim_token+domain_route:TU"}, {"md_atom_id": "md_dmTU_ex_a027", "md_file": "knowledge_base/domains/TU/examples.md", "md_atom_type": "HEADING", "md_parent_section": "§TU [TU — Examples]", "md_verbatim": "## Example 2", "score": 0.4, "match_basis": "verbatim_token+domain_route:TU"}, {"md_atom_id": "md_dmTU_ex_a050", "md_file": "knowledge_base/domains/TU/examples.md", "md_atom_type": "HEADING", "md_parent_section": "§TU [TU — Examples]", "md_verbatim": "## Example 3", "score": 0.4, "match_basis": "verbatim_token+domain_route:TU"}], "candidate_count": 5, "zero_candidate": false}
{"pdf_atom_id": "ig34_p0344_a019", "pdf_atom_type": "SENTENCE", "pdf_source": "SDTMIG_v3.4", "pdf_page": 344, "pdf_parent_section": "TU – Description/Overview", "pdf_verbatim": "A findings domain that represents data that uniquely identifies tumors, lesions, or locations of interest under study.", "figure_ref": null, "candidates": [{"md_atom_id": "md_dmTU_assn_a002", "md_file": "knowledge_base/domains/TU/assumptions.md", "md_atom_type": "SENTENCE", "md_parent_section": "§TU [TU — Assumptions]", "md_verbatim": "A findings domain that represents data that uniquely identifies tumors, lesions, or locations of interest under study.", "score": 1.0, "match_basis": "verbatim_token+domain_route:TU"}, {"md_atom_id": "md_dmTU_assn_a003", "md_file": "knowledge_base/domains/TU/assumptions.md", "md_atom_type": "SENTENCE", "md_parent_section": "§TU [TU — Assumptions]", "md_verbatim": "The TU domain represents data that uniquely identifies tumors, lesions, or locations of interest (e.g., tumors, cardiovascular culprit lesions, organs, bone marrow, other sites of disease such as lymph nodes).", "score": 0.6743, "match_basis": "verbatim_token+domain_route:TU"}, {"md_atom_id": "md_dmTU_ex_a004", "md_file": "knowledge_base/domains/TU/examples.md", "md_atom_type": "SENTENCE", "md_parent_section": "§TU.1 [Example 1]", "md_verbatim": "This is an example of using the TU domain to represent non-cancerous lesions identified in the heart.", "score": 0.5683, "match_basis": "verbatim_token+domain_route:TU"}, {"md_atom_id": "md_dmTU_assn_a004", "md_file": "knowledge_base/domains/TU/assumptions.md", "md_atom_type": "SENTENCE", "md_parent_section": "§TU [TU — Assumptions]", "md_verbatim": "Commonly, tumors/lesions/locations of interest are identified by an investigator and/or independent assessor and classified according to the disease assessment criteria.", "score": 0.5676, "match_basis": "verbatim_token+domain_route:TU"}, {"md_atom_id": "md_dmTU_assn_a031", "md_file": "knowledge_base/domains/TU/assumptions.md", "md_atom_type": "SENTENCE", "md_parent_section": "§TU [TU — Assumptions]", "md_verbatim": "In this situation, the assessments of split and merge tumors/lesions would be represented only in the TR domain.", "score": 0.5655, "match_basis": "verbatim_token+domain_route:TU"}], "candidate_count": 5, "zero_candidate": false}
{"pdf_atom_id": "ig34_p0344_a020", "pdf_atom_type": "SENTENCE", "pdf_source": "SDTMIG_v3.4", "pdf_page": 344, "pdf_parent_section": "TU – Description/Overview", "pdf_verbatim": "The TU domain represents data that uniquely identifies tumors, lesions, or locations of interest (e.g., tumors, cardiovascular culprit lesions, organs, bone marrow, other sites of disease such as lymph nodes). Commonly, tumors/lesions/locations of interest are identified by an investigator and/or independent assessor and classified according to the disease assessment criteria. For example, an oncology study using RECIST criteria would identify target, non-target, and new tumors. A record in the TU domain contains the following information:", "figure_ref": null, "candidates": [{"md_atom_id": "md_dmTU_assn_a003", "md_file": "knowledge_base/domains/TU/assumptions.md", "md_atom_type": "SENTENCE", "md_parent_section": "§TU [TU — Assumptions]", "md_verbatim": "The TU domain represents data that uniquely identifies tumors, lesions, or locations of interest (e.g., tumors, cardiovascular culprit lesions, organs, bone marrow, other sites of disease such as lymph nodes).", "score": 0.6984, "match_basis": "verbatim_token+domain_route:TU"}, {"md_atom_id": "md_dmTU_assn_a004", "md_file": "knowledge_base/domains/TU/assumptions.md", "md_atom_type": "SENTENCE", "md_parent_section": "§TU [TU — Assumptions]", "md_verbatim": "Commonly, tumors/lesions/locations of interest are identified by an investigator and/or independent assessor and classified according to the disease assessment criteria.", "score": 0.6631, "match_basis": "verbatim_token+domain_route:TU"}, {"md_atom_id": "md_dmTU_assn_a002", "md_file": "knowledge_base/domains/TU/assumptions.md", "md_atom_type": "SENTENCE", "md_parent_section": "§TU [TU — Assumptions]", "md_verbatim": "A findings domain that represents data that uniquely identifies tumors, lesions, or locations of interest under study.", "score": 0.5719, "match_basis": "verbatim_token+domain_route:TU"}, {"md_atom_id": "md_dmTU_assn_a005", "md_file": "knowledge_base/domains/TU/assumptions.md", "md_atom_type": "SENTENCE", "md_parent_section": "§TU [TU — Assumptions]", "md_verbatim": "For example, an oncology study using RECIST criteria would identify target, non-target, and new tumors.", "score": 0.554, "match_basis": "verbatim_token+domain_route:TU"}, {"md_atom_id": "md_dmTU_ex_a051", "md_file": "knowledge_base/domains/TU/examples.md", "md_atom_type": "SENTENCE", "md_parent_section": "§TU.3 [Example 3]", "md_verbatim": "This is an example of tumors identified and tracked following RECIST 1.1 criteria, with an additional opinion provided by an independent assessor.", "score": 0.5393, "match_basis": "verbatim_token+domain_route:TU"}], "candidate_count": 5, "zero_candidate": false}
{"pdf_atom_id": "ig34_p0344_a021", "pdf_atom_type": "LIST_ITEM", "pdf_source": "SDTMIG_v3.4", "pdf_page": 344, "pdf_parent_section": "TU – Description/Overview", "pdf_verbatim": "a unique tumor ID value", "figure_ref": null, "candidates": [{"md_atom_id": "md_dmTU_assn_a008", "md_file": "knowledge_base/domains/TU/assumptions.md", "md_atom_type": "LIST_ITEM", "md_parent_section": "§TU [TU — Assumptions]", "md_verbatim": "b. If a tumor/lesion identified at baseline subsequently splits into separate distinct tumors/lesions, then additional post-baseline records can be included to distinctly identify the split tumors/lesions.", "score": 0.43, "match_basis": "verbatim_token+domain_route:TU"}, {"md_atom_id": "md_dmTU_assn_a010", "md_file": "knowledge_base/domains/TU/assumptions.md", "md_atom_type": "LIST_ITEM", "md_parent_section": "§TU [TU — Assumptions]", "md_verbatim": "2. TRLNKID is used to relate an identification record in the TU domain to assessment records in the Tumor/Lesion Results (TR) domain. The organization of data across the TU and TR domains requires a linking mechanism. The TULNKID variable is used to provide a unique code for each identified tumor/lesion. The values of TULNKID are compound values that may carry the following information: an indication of the role (or assessor) providing the data record, when it is someone other than the principal investigator; an indication of whether the data record is for a target or non-target tumor/lesion; a tracking identifier or number; and an indication of whether the tumor/lesion has split (see assumption 3 for details on splitting). A RELREC relationship record can be created to describe the link, probably as a dataset-to-dataset link.", "score": 0.4267, "match_basis": "verbatim_token+domain_route:TU"}, {"md_atom_id": "md_dmTU_assn_a006", "md_file": "knowledge_base/domains/TU/assumptions.md", "md_atom_type": "LIST_ITEM", "md_parent_section": "§TU [TU — Assumptions]", "md_verbatim": "1. The TU domain should contain only 1 record for each unique tumor/lesion/location of interest identified by an assessor (e.g., investigator, independent assessor) per medical evaluator. The initial identification of a tumor/lesion/location of interest is done once, usually at baseline (e.g., identification of target and non-target tumors/lesions) or first appearance of new tumor/lesion. The identification information, including the location description, must not be repeated for every visit. A record is required in TU to identify and create the TULNKID when there are associated records in TR with matching TRLNKID. The following are examples of when post-baseline records might be included in the TU domain:", "score": 0.4262, "match_basis": "verbatim_token+domain_route:TU"}, {"md_atom_id": "md_dmTU_assn_a007", "md_file": "knowledge_base/domains/TU/assumptions.md", "md_atom_type": "LIST_ITEM", "md_parent_section": "§TU [TU — Assumptions]", "md_verbatim": "a. A new tumor/lesion may emerge at any time during a study; therefore, a new post-baseline record would represent the identification of the new tumor/lesion.", "score": 0.4261, "match_basis": "verbatim_token+domain_route:TU"}, {"md_atom_id": "md_dmTU_assn_a039", "md_file": "knowledge_base/domains/TU/assumptions.md", "md_atom_type": "LIST_ITEM", "md_parent_section": "§TU [TU — Assumptions]", "md_verbatim": "5. The additional anatomical location variables --LAT, --DIR, --PORTOT were added from the SDTM. These extra variables allow for more detailed information to be collected that further clarifies the value of the TULOC variable.", "score": 0.4255, "match_basis": "verbatim_token+domain_route:TU"}], "candidate_count": 5, "zero_candidate": false}
{"pdf_atom_id": "ig34_p0345_a001", "pdf_atom_type": "LIST_ITEM", "pdf_source": "SDTMIG_v3.4", "pdf_page": 345, "pdf_parent_section": "TU – Description/Overview", "pdf_verbatim": "anatomical location of the tumor", "figure_ref": null, "candidates": [{"md_atom_id": "md_dmTU_assn_a039", "md_file": "knowledge_base/domains/TU/assumptions.md", "md_atom_type": "LIST_ITEM", "md_parent_section": "§TU [TU — Assumptions]", "md_verbatim": "5. The additional anatomical location variables --LAT, --DIR, --PORTOT were added from the SDTM. These extra variables allow for more detailed information to be collected that further clarifies the value of the TULOC variable.", "score": 0.5067, "match_basis": "verbatim_token+domain_route:TU"}, {"md_atom_id": "md_dmTU_assn_a038", "md_file": "knowledge_base/domains/TU/assumptions.md", "md_atom_type": "LIST_ITEM", "md_parent_section": "§TU [TU — Assumptions]", "md_verbatim": "4. During the course of a trial, when a new tumor/lesion is identified, information about that new tumor/lesion may be collected to different levels of detail. For example, if anatomical location of a new tumor/lesion is not collected, TULOC will be blank. All new tumors/lesions are to be represented in TU and TR domains.", "score": 0.5019, "match_basis": "verbatim_token+domain_route:TU"}, {"md_atom_id": "md_dmTU_assn_a007", "md_file": "knowledge_base/domains/TU/assumptions.md", "md_atom_type": "LIST_ITEM", "md_parent_section": "§TU [TU — Assumptions]", "md_verbatim": "a. A new tumor/lesion may emerge at any time during a study; therefore, a new post-baseline record would represent the identification of the new tumor/lesion.", "score": 0.4761, "match_basis": "verbatim_token+domain_route:TU"}, {"md_atom_id": "md_dmTU_assn_a042", "md_file": "knowledge_base/domains/TU/assumptions.md", "md_atom_type": "LIST_ITEM", "md_parent_section": "§TU [TU — Assumptions]", "md_verbatim": "b. The occurrence of a new tumor/lesion and the anatomical location of that newly identified tumor/lesion are the only collected pieces of information. In this case, it is expected that a record would be created where TUTEST = \"Tumor Identification\" and TUORRES = \"NEW\"; the TULOC variable would be populated with the anatomical location information (the additional location variables may be populated depending on the level of detail collected), and the identifier, TULNKID, would be populated in order to link to the associated information in the TR domain.", "score": 0.473, "match_basis": "verbatim_token+domain_route:TU"}, {"md_atom_id": "md_dmTU_assn_a043", "md_file": "knowledge_base/domains/TU/assumptions.md", "md_atom_type": "LIST_ITEM", "md_parent_section": "§TU [TU — Assumptions]", "md_verbatim": "c. The sponsor records the occurrence of a new tumor/lesion to the same level of detail as target tumors/lesions. For example, with the occurrence of a new tumor, its anatomical location and its measurement might be recorded. In this case, it is expected that a record would be created where TUTEST = \"Tumor Identification\" and TUORRES = \"NEW\". The TULOC variable would be populated with the anatomical location information (the additional location variables may be populated depending on the level of detail collected) and the identifier, TULNKID, would be populated in order to link to the associated information in the TR domain. In this scenario, measurements/assessments would also be recorded in the TR domain.", "score": 0.4593, "match_basis": "verbatim_token+domain_route:TU"}], "candidate_count": 5, "zero_candidate": false}
{"pdf_atom_id": "ig34_p0345_a002", "pdf_atom_type": "LIST_ITEM", "pdf_source": "SDTMIG_v3.4", "pdf_page": 345, "pdf_parent_section": "TU – Description/Overview", "pdf_verbatim": "method used to identify the tumor", "figure_ref": null, "candidates": [{"md_atom_id": "md_dmTU_assn_a007", "md_file": "knowledge_base/domains/TU/assumptions.md", "md_atom_type": "LIST_ITEM", "md_parent_section": "§TU [TU — Assumptions]", "md_verbatim": "a. A new tumor/lesion may emerge at any time during a study; therefore, a new post-baseline record would represent the identification of the new tumor/lesion.", "score": 0.4783, "match_basis": "verbatim_token+domain_route:TU"}, {"md_atom_id": "md_dmTU_assn_a074", "md_file": "knowledge_base/domains/TU/assumptions.md", "md_atom_type": "LIST_ITEM", "md_parent_section": "§TU [TU — Assumptions]", "md_verbatim": "12. When additional data are collected about a procedure used for tumor/lesion identification, the data about the procedure are stored in the PR domain; the link between the tumor/lesion identification and the procedure should be recorded using RELREC.", "score": 0.4759, "match_basis": "verbatim_token+domain_route:TU"}, {"md_atom_id": "md_dmTU_assn_a008", "md_file": "knowledge_base/domains/TU/assumptions.md", "md_atom_type": "LIST_ITEM", "md_parent_section": "§TU [TU — Assumptions]", "md_verbatim": "b. If a tumor/lesion identified at baseline subsequently splits into separate distinct tumors/lesions, then additional post-baseline records can be included to distinctly identify the split tumors/lesions.", "score": 0.475, "match_basis": "verbatim_token+domain_route:TU"}, {"md_atom_id": "md_dmTU_assn_a009", "md_file": "knowledge_base/domains/TU/assumptions.md", "md_atom_type": "LIST_ITEM", "md_parent_section": "§TU [TU — Assumptions]", "md_verbatim": "c. In situations where a re-baseline of targets and non-targets is required (e.g., a cross-over study), then a separate set of target and non-target tumors/lesions might be identified and those identification records would be represented.", "score": 0.4645, "match_basis": "verbatim_token+domain_route:TU"}, {"md_atom_id": "md_dmTU_assn_a045", "md_file": "knowledge_base/domains/TU/assumptions.md", "md_atom_type": "LIST_ITEM", "md_parent_section": "§TU [TU — Assumptions]", "md_verbatim": "8. The evaluator-specified variable TUEVALID is used in conjunction with TUEVAL to provide additional detail regarding who is providing tumor identification information (e.g., TUEVAL = \"INDEPENDENT ASSESSOR\", TUEVALID = \"RADIOLOGIST 1\"). The TUEVALID variable is subject to controlled terminology.", "score": 0.4532, "match_basis": "verbatim_token+domain_route:TU"}], "candidate_count": 5, "zero_candidate": false}
{"pdf_atom_id": "ig34_p0345_a003", "pdf_atom_type": "LIST_ITEM", "pdf_source": "SDTMIG_v3.4", "pdf_page": 345, "pdf_parent_section": "TU – Description/Overview", "pdf_verbatim": "role of the individual identifying the tumor", "figure_ref": null, "candidates": [{"md_atom_id": "md_dmTU_assn_a007", "md_file": "knowledge_base/domains/TU/assumptions.md", "md_atom_type": "LIST_ITEM", "md_parent_section": "§TU [TU — Assumptions]", "md_verbatim": "a. A new tumor/lesion may emerge at any time during a study; therefore, a new post-baseline record would represent the identification of the new tumor/lesion.", "score": 0.48, "match_basis": "verbatim_token+domain_route:TU"}, {"md_atom_id": "md_dmTU_assn_a008", "md_file": "knowledge_base/domains/TU/assumptions.md", "md_atom_type": "LIST_ITEM", "md_parent_section": "§TU [TU — Assumptions]", "md_verbatim": "b. If a tumor/lesion identified at baseline subsequently splits into separate distinct tumors/lesions, then additional post-baseline records can be included to distinctly identify the split tumors/lesions.", "score": 0.469, "match_basis": "verbatim_token+domain_route:TU"}, {"md_atom_id": "md_dmTU_assn_a074", "md_file": "knowledge_base/domains/TU/assumptions.md", "md_atom_type": "LIST_ITEM", "md_parent_section": "§TU [TU — Assumptions]", "md_verbatim": "12. When additional data are collected about a procedure used for tumor/lesion identification, the data about the procedure are stored in the PR domain; the link between the tumor/lesion identification and the procedure should be recorded using RELREC.", "score": 0.4632, "match_basis": "verbatim_token+domain_route:TU"}, {"md_atom_id": "md_dmTU_assn_a045", "md_file": "knowledge_base/domains/TU/assumptions.md", "md_atom_type": "LIST_ITEM", "md_parent_section": "§TU [TU — Assumptions]", "md_verbatim": "8. The evaluator-specified variable TUEVALID is used in conjunction with TUEVAL to provide additional detail regarding who is providing tumor identification information (e.g., TUEVAL = \"INDEPENDENT ASSESSOR\", TUEVALID = \"RADIOLOGIST 1\"). The TUEVALID variable is subject to controlled terminology.", "score": 0.4605, "match_basis": "verbatim_token+domain_route:TU"}, {"md_atom_id": "md_dmTU_assn_a075", "md_file": "knowledge_base/domains/TU/assumptions.md", "md_atom_type": "LIST_ITEM", "md_parent_section": "§TU [TU — Assumptions]", "md_verbatim": "13. Any Identifiers, Timing variables, or Findings general observation class qualifiers may be added to the TU domain, but the following qualifiers would not generally be used: --MODIFY, --POS, --BODSYS, --ORNRLO, --ORNRHI, --STNRLO, --STNRHI, --STNRC, --NRIND, --XFN, --LOINC, --SPEC, --SPCCND, --FAST, --TOX, --TOXGR, --SEV.", "score": 0.4555, "match_basis": "verbatim_token+domain_route:TU"}], "candidate_count": 5, "zero_candidate": false}
{"pdf_atom_id": "ig34_p0345_a004", "pdf_atom_type": "LIST_ITEM", "pdf_source": "SDTMIG_v3.4", "pdf_page": 345, "pdf_parent_section": "TU – Description/Overview", "pdf_verbatim": "timing information.", "figure_ref": null, "candidates": [{"md_atom_id": "md_dmTU_assn_a039", "md_file": "knowledge_base/domains/TU/assumptions.md", "md_atom_type": "LIST_ITEM", "md_parent_section": "§TU [TU — Assumptions]", "md_verbatim": "5. The additional anatomical location variables --LAT, --DIR, --PORTOT were added from the SDTM. These extra variables allow for more detailed information to be collected that further clarifies the value of the TULOC variable.", "score": 0.4587, "match_basis": "verbatim_token+domain_route:TU"}, {"md_atom_id": "md_dmTU_assn_a070", "md_file": "knowledge_base/domains/TU/assumptions.md", "md_atom_type": "LIST_ITEM", "md_parent_section": "§TU [TU — Assumptions]", "md_verbatim": "11. The following proposed supplemental qualifiers would be used for oncology studies to represent information regarding previous irradiation of a tumor when that information is captured in association with a specific tumor.", "score": 0.4561, "match_basis": "verbatim_token+domain_route:TU"}, {"md_atom_id": "md_dmTU_assn_a038", "md_file": "knowledge_base/domains/TU/assumptions.md", "md_atom_type": "LIST_ITEM", "md_parent_section": "§TU [TU — Assumptions]", "md_verbatim": "4. During the course of a trial, when a new tumor/lesion is identified, information about that new tumor/lesion may be collected to different levels of detail. For example, if anatomical location of a new tumor/lesion is not collected, TULOC will be blank. All new tumors/lesions are to be represented in TU and TR domains.", "score": 0.455, "match_basis": "verbatim_token+domain_route:TU"}, {"md_atom_id": "md_dmTU_assn_a045", "md_file": "knowledge_base/domains/TU/assumptions.md", "md_atom_type": "LIST_ITEM", "md_parent_section": "§TU [TU — Assumptions]", "md_verbatim": "8. The evaluator-specified variable TUEVALID is used in conjunction with TUEVAL to provide additional detail regarding who is providing tumor identification information (e.g., TUEVAL = \"INDEPENDENT ASSESSOR\", TUEVALID = \"RADIOLOGIST 1\"). The TUEVALID variable is subject to controlled terminology.", "score": 0.4545, "match_basis": "verbatim_token+domain_route:TU"}, {"md_atom_id": "md_dmTU_assn_a007", "md_file": "knowledge_base/domains/TU/assumptions.md", "md_atom_type": "LIST_ITEM", "md_parent_section": "§TU [TU — Assumptions]", "md_verbatim": "a. A new tumor/lesion may emerge at any time during a study; therefore, a new post-baseline record would represent the identification of the new tumor/lesion.", "score": 0.4522, "match_basis": "verbatim_token+domain_route:TU"}], "candidate_count": 5, "zero_candidate": false}
{"pdf_atom_id": "ig34_p0345_a005", "pdf_atom_type": "HEADING", "pdf_source": "SDTMIG_v3.4", "pdf_page": 345, "pdf_parent_section": "§6.3.12.1 Tumor/Lesion Identification (TU)", "pdf_verbatim": "TU – Specification", "figure_ref": null, "candidates": [{"md_atom_id": "md_dmTU_assn_a001", "md_file": "knowledge_base/domains/TU/assumptions.md", "md_atom_type": "HEADING", "md_parent_section": "§TU [TU — Assumptions]", "md_verbatim": "# TU — Assumptions", "score": 0.4667, "match_basis": "verbatim_token+domain_route:TU"}, {"md_atom_id": "md_dmTU_ex_a001", "md_file": "knowledge_base/domains/TU/examples.md", "md_atom_type": "HEADING", "md_parent_section": "§TU [TU — Examples]", "md_verbatim": "# TU — Examples", "score": 0.4, "match_basis": "verbatim_token+domain_route:TU"}, {"md_atom_id": "md_dmTU_ex_a003", "md_file": "knowledge_base/domains/TU/examples.md", "md_atom_type": "HEADING", "md_parent_section": "§TU [TU — Examples]", "md_verbatim": "## Example 1", "score": 0.4, "match_basis": "verbatim_token+domain_route:TU"}, {"md_atom_id": "md_dmTU_ex_a027", "md_file": "knowledge_base/domains/TU/examples.md", "md_atom_type": "HEADING", "md_parent_section": "§TU [TU — Examples]", "md_verbatim": "## Example 2", "score": 0.4, "match_basis": "verbatim_token+domain_route:TU"}, {"md_atom_id": "md_dmTU_ex_a050", "md_file": "knowledge_base/domains/TU/examples.md", "md_atom_type": "HEADING", "md_parent_section": "§TU [TU — Examples]", "md_verbatim": "## Example 3", "score": 0.4, "match_basis": "verbatim_token+domain_route:TU"}], "candidate_count": 5, "zero_candidate": false}
{"pdf_atom_id": "ig34_p0345_a006", "pdf_atom_type": "SENTENCE", "pdf_source": "SDTMIG_v3.4", "pdf_page": 345, "pdf_parent_section": "TU – Specification", "pdf_verbatim": "tu.xpt, Tumor/Lesion Identification — Findings. One record per identified tumor per subject per assessor, Tabulation.", "figure_ref": null, "candidates": [{"md_atom_id": "md_dmTU_assn_a004", "md_file": "knowledge_base/domains/TU/assumptions.md", "md_atom_type": "SENTENCE", "md_parent_section": "§TU [TU — Assumptions]", "md_verbatim": "Commonly, tumors/lesions/locations of interest are identified by an investigator and/or independent assessor and classified according to the disease assessment criteria.", "score": 0.5706, "match_basis": "verbatim_token+domain_route:TU"}, {"md_atom_id": "md_dmTU_assn_a002", "md_file": "knowledge_base/domains/TU/assumptions.md", "md_atom_type": "SENTENCE", "md_parent_section": "§TU [TU — Assumptions]", "md_verbatim": "A findings domain that represents data that uniquely identifies tumors, lesions, or locations of interest under study.", "score": 0.5605, "match_basis": "verbatim_token+domain_route:TU"}, {"md_atom_id": "md_dmTU_ex_a007", "md_file": "knowledge_base/domains/TU/examples.md", "md_atom_type": "SENTENCE", "md_parent_section": "§TU.1 [Example 1]", "md_verbatim": "During the same PVI procedure, the subject also had a target graft lesion (L01-G) identified in the left femoro-popliteal graft (L01-G1).", "score": 0.5341, "match_basis": "verbatim_token+domain_route:TU"}, {"md_atom_id": "md_dmTU_ex_a051", "md_file": "knowledge_base/domains/TU/examples.md", "md_atom_type": "SENTENCE", "md_parent_section": "§TU.3 [Example 3]", "md_verbatim": "This is an example of tumors identified and tracked following RECIST 1.1 criteria, with an additional opinion provided by an independent assessor.", "score": 0.532, "match_basis": "verbatim_token+domain_route:TU"}, {"md_atom_id": "md_dmTU_assn_a014", "md_file": "knowledge_base/domains/TU/assumptions.md", "md_atom_type": "SENTENCE", "md_parent_section": "§TU [TU — Assumptions]", "md_verbatim": "During the course of a trial, a tumor/lesion identified at baseline might split into one or more distinct tumors/lesions, or 2 or more tumors/lesions might merge to form a single tumor/lesion.", "score": 0.5121, "match_basis": "verbatim_token+domain_route:TU"}], "candidate_count": 5, "zero_candidate": false}
{"pdf_atom_id": "ig34_p0345_a007", "pdf_atom_type": "TABLE_HEADER", "pdf_source": "SDTMIG_v3.4", "pdf_page": 345, "pdf_parent_section": "TU – Specification", "pdf_verbatim": "| Variable Name | Variable Label | Type | Controlled Terms, Codelist or Format1 | Role | CDISC Notes | Core |", "figure_ref": null, "candidates": [{"md_atom_id": "md_dmTU_assn_a071", "md_file": "knowledge_base/domains/TU/assumptions.md", "md_atom_type": "TABLE_HEADER", "md_parent_section": "§TU [TU — Assumptions]", "md_verbatim": "| QNAM | QLABEL | Definition |", "score": 0.4444, "match_basis": "verbatim_token+domain_route:TU"}, {"md_atom_id": "md_dmTU_ex_a044", "md_file": "knowledge_base/domains/TU/examples.md", "md_atom_type": "TABLE_HEADER", "md_parent_section": "§TU.2 [Example 2]", "md_verbatim": "| Row | STUDYID | RDOMAIN | USUBJID | IDVAR | IDVARVAL | QNAM | QLABEL | QVAL |", "score": 0.4441, "match_basis": "verbatim_token+domain_route:TU"}, {"md_atom_id": "md_dmTU_ex_a021", "md_file": "knowledge_base/domains/TU/examples.md", "md_atom_type": "TABLE_HEADER", "md_parent_section": "§TU.1 [Example 1]", "md_verbatim": "| Row | STUDYID | RDOMAIN | USUBJID | IDVAR | IDVARVAL | QNAM | QLABEL | QVAL | QORIG | QEVAL |", "score": 0.4411, "match_basis": "verbatim_token+domain_route:TU"}, {"md_atom_id": "md_dmTU_ex_a058", "md_file": "knowledge_base/domains/TU/examples.md", "md_atom_type": "TABLE_HEADER", "md_parent_section": "§TU.3 [Example 3]", "md_verbatim": "| Row | STUDYID | DOMAIN | USUBJID | TUSEQ | TULNKID | TUTESTCD | TUTEST | TUORRES | TUSTRESC | TULOC | TULAT | TUMETHOD | TUNAM | TUEVAL | TUEVALID | VISITNUM | VISIT | TUDTC |", "score": 0.4112, "match_basis": "verbatim_token+domain_route:TU"}, {"md_atom_id": "md_dmTU_assn_a020", "md_file": "knowledge_base/domains/TU/assumptions.md", "md_atom_type": "TABLE_HEADER", "md_parent_section": "§TU [TU — Assumptions]", "md_verbatim": "| TULNKID | TUTESTCD | TUTEST | TUORRES | VISIT |", "score": 0.4097, "match_basis": "verbatim_token+domain_route:TU"}], "candidate_count": 5, "zero_candidate": false}
{"pdf_atom_id": "ig34_p0345_a008", "pdf_atom_type": "TABLE_ROW", "pdf_source": "SDTMIG_v3.4", "pdf_page": 345, "pdf_parent_section": "TU – Specification", "pdf_verbatim": "| STUDYID | Study Identifier | Char | | Identifier | Unique identifier for a study. | Req |", "figure_ref": null, "candidates": [{"md_atom_id": "md_dmTU_assn_a029", "md_file": "knowledge_base/domains/TU/assumptions.md", "md_atom_type": "TABLE_ROW", "md_parent_section": "§TU [TU — Assumptions]", "md_verbatim": "| NEW01 | TUMIDENT | Tumor Identification | NEW | WEEK 32 |", "score": 0.4973, "match_basis": "verbatim_token+domain_route:TU"}, {"md_atom_id": "md_dmTU_assn_a021", "md_file": "knowledge_base/domains/TU/assumptions.md", "md_atom_type": "TABLE_ROW", "md_parent_section": "§TU [TU — Assumptions]", "md_verbatim": "| T01 | TUMIDENT | Tumor Identification | TARGET | SCREEN |", "score": 0.4878, "match_basis": "verbatim_token+domain_route:TU"}, {"md_atom_id": "md_dmTU_assn_a022", "md_file": "knowledge_base/domains/TU/assumptions.md", "md_atom_type": "TABLE_ROW", "md_parent_section": "§TU [TU — Assumptions]", "md_verbatim": "| T02 | TUMIDENT | Tumor Identification | TARGET | SCREEN |", "score": 0.4878, "match_basis": "verbatim_token+domain_route:TU"}, {"md_atom_id": "md_dmTU_assn_a023", "md_file": "knowledge_base/domains/TU/assumptions.md", "md_atom_type": "TABLE_ROW", "md_parent_section": "§TU [TU — Assumptions]", "md_verbatim": "| T03 | TUMIDENT | Tumor Identification | TARGET | SCREEN |", "score": 0.4878, "match_basis": "verbatim_token+domain_route:TU"}, {"md_atom_id": "md_dmTU_assn_a024", "md_file": "knowledge_base/domains/TU/assumptions.md", "md_atom_type": "TABLE_ROW", "md_parent_section": "§TU [TU — Assumptions]", "md_verbatim": "| T04 | TUMIDENT | Tumor Identification | TARGET | SCREEN |", "score": 0.4878, "match_basis": "verbatim_token+domain_route:TU"}], "candidate_count": 5, "zero_candidate": false}
{"pdf_atom_id": "ig34_p0345_a009", "pdf_atom_type": "TABLE_ROW", "pdf_source": "SDTMIG_v3.4", "pdf_page": 345, "pdf_parent_section": "TU – Specification", "pdf_verbatim": "| DOMAIN | Domain Abbreviation | Char | TU | Identifier | Two-character abbreviation for the domain. | Req |", "figure_ref": null, "candidates": [{"md_atom_id": "md_dmTU_assn_a029", "md_file": "knowledge_base/domains/TU/assumptions.md", "md_atom_type": "TABLE_ROW", "md_parent_section": "§TU [TU — Assumptions]", "md_verbatim": "| NEW01 | TUMIDENT | Tumor Identification | NEW | WEEK 32 |", "score": 0.5174, "match_basis": "verbatim_token+domain_route:TU"}, {"md_atom_id": "md_dmTU_assn_a035", "md_file": "knowledge_base/domains/TU/assumptions.md", "md_atom_type": "TABLE_ROW", "md_parent_section": "§TU [TU — Assumptions]", "md_verbatim": "| L02 | TUMIDENT | Tumor Identification | LOCATION OF INTEREST | LIVER | CT SCAN |", "score": 0.5111, "match_basis": "verbatim_token+domain_route:TU"}, {"md_atom_id": "md_dmTU_assn_a037", "md_file": "knowledge_base/domains/TU/assumptions.md", "md_atom_type": "TABLE_ROW", "md_parent_section": "§TU [TU — Assumptions]", "md_verbatim": "| L04 | TUMIDENT | Tumor Identification | LOCATION OF INTEREST | BODY | PET SCAN |", "score": 0.5111, "match_basis": "verbatim_token+domain_route:TU"}, {"md_atom_id": "md_dmTU_assn_a034", "md_file": "knowledge_base/domains/TU/assumptions.md", "md_atom_type": "TABLE_ROW", "md_parent_section": "§TU [TU — Assumptions]", "md_verbatim": "| L01 | TUMIDENT | Tumor Identification | LOCATION OF INTEREST | SPLEEN | CT SCAN |", "score": 0.5091, "match_basis": "verbatim_token+domain_route:TU"}, {"md_atom_id": "md_dmTU_assn_a021", "md_file": "knowledge_base/domains/TU/assumptions.md", "md_atom_type": "TABLE_ROW", "md_parent_section": "§TU [TU — Assumptions]", "md_verbatim": "| T01 | TUMIDENT | Tumor Identification | TARGET | SCREEN |", "score": 0.508, "match_basis": "verbatim_token+domain_route:TU"}], "candidate_count": 5, "zero_candidate": false}
{"pdf_atom_id": "ig34_p0345_a010", "pdf_atom_type": "TABLE_ROW", "pdf_source": "SDTMIG_v3.4", "pdf_page": 345, "pdf_parent_section": "TU – Specification", "pdf_verbatim": "| USUBJID | Unique Subject Identifier | Char | | Identifier | Identifier used to uniquely identify a subject across all studies for all applications or submissions involving the product. | Req |", "figure_ref": null, "candidates": [{"md_atom_id": "md_dmTU_assn_a029", "md_file": "knowledge_base/domains/TU/assumptions.md", "md_atom_type": "TABLE_ROW", "md_parent_section": "§TU [TU — Assumptions]", "md_verbatim": "| NEW01 | TUMIDENT | Tumor Identification | NEW | WEEK 32 |", "score": 0.4835, "match_basis": "verbatim_token+domain_route:TU"}, {"md_atom_id": "md_dmTU_assn_a021", "md_file": "knowledge_base/domains/TU/assumptions.md", "md_atom_type": "TABLE_ROW", "md_parent_section": "§TU [TU — Assumptions]", "md_verbatim": "| T01 | TUMIDENT | Tumor Identification | TARGET | SCREEN |", "score": 0.4795, "match_basis": "verbatim_token+domain_route:TU"}, {"md_atom_id": "md_dmTU_assn_a022", "md_file": "knowledge_base/domains/TU/assumptions.md", "md_atom_type": "TABLE_ROW", "md_parent_section": "§TU [TU — Assumptions]", "md_verbatim": "| T02 | TUMIDENT | Tumor Identification | TARGET | SCREEN |", "score": 0.4795, "match_basis": "verbatim_token+domain_route:TU"}, {"md_atom_id": "md_dmTU_assn_a023", "md_file": "knowledge_base/domains/TU/assumptions.md", "md_atom_type": "TABLE_ROW", "md_parent_section": "§TU [TU — Assumptions]", "md_verbatim": "| T03 | TUMIDENT | Tumor Identification | TARGET | SCREEN |", "score": 0.4795, "match_basis": "verbatim_token+domain_route:TU"}, {"md_atom_id": "md_dmTU_assn_a024", "md_file": "knowledge_base/domains/TU/assumptions.md", "md_atom_type": "TABLE_ROW", "md_parent_section": "§TU [TU — Assumptions]", "md_verbatim": "| T04 | TUMIDENT | Tumor Identification | TARGET | SCREEN |", "score": 0.4795, "match_basis": "verbatim_token+domain_route:TU"}], "candidate_count": 5, "zero_candidate": false}
{"pdf_atom_id": "ig34_p0345_a011", "pdf_atom_type": "TABLE_ROW", "pdf_source": "SDTMIG_v3.4", "pdf_page": 345, "pdf_parent_section": "TU – Specification", "pdf_verbatim": "| TUSEQ | Sequence Number | Num | | Identifier | Sequence number given to ensure uniqueness within a dataset for a subject. May be any valid number. | Req |", "figure_ref": null, "candidates": [{"md_atom_id": "md_dmTU_assn_a035", "md_file": "knowledge_base/domains/TU/assumptions.md", "md_atom_type": "TABLE_ROW", "md_parent_section": "§TU [TU — Assumptions]", "md_verbatim": "| L02 | TUMIDENT | Tumor Identification | LOCATION OF INTEREST | LIVER | CT SCAN |", "score": 0.4538, "match_basis": "verbatim_token+domain_route:TU"}, {"md_atom_id": "md_dmTU_assn_a029", "md_file": "knowledge_base/domains/TU/assumptions.md", "md_atom_type": "TABLE_ROW", "md_parent_section": "§TU [TU — Assumptions]", "md_verbatim": "| NEW01 | TUMIDENT | Tumor Identification | NEW | WEEK 32 |", "score": 0.4514, "match_basis": "verbatim_token+domain_route:TU"}, {"md_atom_id": "md_dmTU_assn_a021", "md_file": "knowledge_base/domains/TU/assumptions.md", "md_atom_type": "TABLE_ROW", "md_parent_section": "§TU [TU — Assumptions]", "md_verbatim": "| T01 | TUMIDENT | Tumor Identification | TARGET | SCREEN |", "score": 0.4486, "match_basis": "verbatim_token+domain_route:TU"}, {"md_atom_id": "md_dmTU_assn_a022", "md_file": "knowledge_base/domains/TU/assumptions.md", "md_atom_type": "TABLE_ROW", "md_parent_section": "§TU [TU — Assumptions]", "md_verbatim": "| T02 | TUMIDENT | Tumor Identification | TARGET | SCREEN |", "score": 0.4486, "match_basis": "verbatim_token+domain_route:TU"}, {"md_atom_id": "md_dmTU_assn_a023", "md_file": "knowledge_base/domains/TU/assumptions.md", "md_atom_type": "TABLE_ROW", "md_parent_section": "§TU [TU — Assumptions]", "md_verbatim": "| T03 | TUMIDENT | Tumor Identification | TARGET | SCREEN |", "score": 0.4486, "match_basis": "verbatim_token+domain_route:TU"}], "candidate_count": 5, "zero_candidate": false}
{"pdf_atom_id": "ig34_p0345_a012", "pdf_atom_type": "TABLE_ROW", "pdf_source": "SDTMIG_v3.4", "pdf_page": 345, "pdf_parent_section": "TU – Specification", "pdf_verbatim": "| TUGRPID | Group ID | Char | | Identifier | Used to link together a block of subject in a domain. Can be used to group split or merged tumors/lesions which have been identified. | Perm |", "figure_ref": null, "candidates": [{"md_atom_id": "md_dmTU_assn_a034", "md_file": "knowledge_base/domains/TU/assumptions.md", "md_atom_type": "TABLE_ROW", "md_parent_section": "§TU [TU — Assumptions]", "md_verbatim": "| L01 | TUMIDENT | Tumor Identification | LOCATION OF INTEREST | SPLEEN | CT SCAN |", "score": 0.4988, "match_basis": "verbatim_token+domain_route:TU"}, {"md_atom_id": "md_dmTU_assn_a021", "md_file": "knowledge_base/domains/TU/assumptions.md", "md_atom_type": "TABLE_ROW", "md_parent_section": "§TU [TU — Assumptions]", "md_verbatim": "| T01 | TUMIDENT | Tumor Identification | TARGET | SCREEN |", "score": 0.4975, "match_basis": "verbatim_token+domain_route:TU"}, {"md_atom_id": "md_dmTU_assn_a022", "md_file": "knowledge_base/domains/TU/assumptions.md", "md_atom_type": "TABLE_ROW", "md_parent_section": "§TU [TU — Assumptions]", "md_verbatim": "| T02 | TUMIDENT | Tumor Identification | TARGET | SCREEN |", "score": 0.4975, "match_basis": "verbatim_token+domain_route:TU"}, {"md_atom_id": "md_dmTU_assn_a023", "md_file": "knowledge_base/domains/TU/assumptions.md", "md_atom_type": "TABLE_ROW", "md_parent_section": "§TU [TU — Assumptions]", "md_verbatim": "| T03 | TUMIDENT | Tumor Identification | TARGET | SCREEN |", "score": 0.4975, "match_basis": "verbatim_token+domain_route:TU"}, {"md_atom_id": "md_dmTU_assn_a024", "md_file": "knowledge_base/domains/TU/assumptions.md", "md_atom_type": "TABLE_ROW", "md_parent_section": "§TU [TU — Assumptions]", "md_verbatim": "| T04 | TUMIDENT | Tumor Identification | TARGET | SCREEN |", "score": 0.4975, "match_basis": "verbatim_token+domain_route:TU"}], "candidate_count": 5, "zero_candidate": false}
{"pdf_atom_id": "ig34_p0345_a013", "pdf_atom_type": "TABLE_ROW", "pdf_source": "SDTMIG_v3.4", "pdf_page": 345, "pdf_parent_section": "TU – Specification", "pdf_verbatim": "| TUREFID | Reference ID | Char | | Identifier | Internal or external identifier (e.g., medical image ID number). | Perm |", "figure_ref": null, "candidates": [{"md_atom_id": "md_dmTU_assn_a035", "md_file": "knowledge_base/domains/TU/assumptions.md", "md_atom_type": "TABLE_ROW", "md_parent_section": "§TU [TU — Assumptions]", "md_verbatim": "| L02 | TUMIDENT | Tumor Identification | LOCATION OF INTEREST | LIVER | CT SCAN |", "score": 0.5048, "match_basis": "verbatim_token+domain_route:TU"}, {"md_atom_id": "md_dmTU_assn_a037", "md_file": "knowledge_base/domains/TU/assumptions.md", "md_atom_type": "TABLE_ROW", "md_parent_section": "§TU [TU — Assumptions]", "md_verbatim": "| L04 | TUMIDENT | Tumor Identification | LOCATION OF INTEREST | BODY | PET SCAN |", "score": 0.5048, "match_basis": "verbatim_token+domain_route:TU"}, {"md_atom_id": "md_dmTU_assn_a034", "md_file": "knowledge_base/domains/TU/assumptions.md", "md_atom_type": "TABLE_ROW", "md_parent_section": "§TU [TU — Assumptions]", "md_verbatim": "| L01 | TUMIDENT | Tumor Identification | LOCATION OF INTEREST | SPLEEN | CT SCAN |", "score": 0.5031, "match_basis": "verbatim_token+domain_route:TU"}, {"md_atom_id": "md_dmTU_assn_a036", "md_file": "knowledge_base/domains/TU/assumptions.md", "md_atom_type": "TABLE_ROW", "md_parent_section": "§TU [TU — Assumptions]", "md_verbatim": "| L03 | TUMIDENT | Tumor Identification | LOCATION OF INTEREST | BONE MARROW | PET SCAN |", "score": 0.4985, "match_basis": "verbatim_token+domain_route:TU"}, {"md_atom_id": "md_dmTU_assn_a029", "md_file": "knowledge_base/domains/TU/assumptions.md", "md_atom_type": "TABLE_ROW", "md_parent_section": "§TU [TU — Assumptions]", "md_verbatim": "| NEW01 | TUMIDENT | Tumor Identification | NEW | WEEK 32 |", "score": 0.4724, "match_basis": "verbatim_token+domain_route:TU"}], "candidate_count": 5, "zero_candidate": false}
{"pdf_atom_id": "ig34_p0345_a014", "pdf_atom_type": "TABLE_ROW", "pdf_source": "SDTMIG_v3.4", "pdf_page": 345, "pdf_parent_section": "TU – Specification", "pdf_verbatim": "| TUSPID | Sponsor-Defined Identifier | Char | | Identifier | Sponsor-defined identifier. | Perm |", "figure_ref": null, "candidates": [{"md_atom_id": "md_dmTU_assn_a029", "md_file": "knowledge_base/domains/TU/assumptions.md", "md_atom_type": "TABLE_ROW", "md_parent_section": "§TU [TU — Assumptions]", "md_verbatim": "| NEW01 | TUMIDENT | Tumor Identification | NEW | WEEK 32 |", "score": 0.4857, "match_basis": "verbatim_token+domain_route:TU"}, {"md_atom_id": "md_dmTU_assn_a021", "md_file": "knowledge_base/domains/TU/assumptions.md", "md_atom_type": "TABLE_ROW", "md_parent_section": "§TU [TU — Assumptions]", "md_verbatim": "| T01 | TUMIDENT | Tumor Identification | TARGET | SCREEN |", "score": 0.4783, "match_basis": "verbatim_token+domain_route:TU"}, {"md_atom_id": "md_dmTU_assn_a022", "md_file": "knowledge_base/domains/TU/assumptions.md", "md_atom_type": "TABLE_ROW", "md_parent_section": "§TU [TU — Assumptions]", "md_verbatim": "| T02 | TUMIDENT | Tumor Identification | TARGET | SCREEN |", "score": 0.4783, "match_basis": "verbatim_token+domain_route:TU"}, {"md_atom_id": "md_dmTU_assn_a023", "md_file": "knowledge_base/domains/TU/assumptions.md", "md_atom_type": "TABLE_ROW", "md_parent_section": "§TU [TU — Assumptions]", "md_verbatim": "| T03 | TUMIDENT | Tumor Identification | TARGET | SCREEN |", "score": 0.4783, "match_basis": "verbatim_token+domain_route:TU"}, {"md_atom_id": "md_dmTU_assn_a024", "md_file": "knowledge_base/domains/TU/assumptions.md", "md_atom_type": "TABLE_ROW", "md_parent_section": "§TU [TU — Assumptions]", "md_verbatim": "| T04 | TUMIDENT | Tumor Identification | TARGET | SCREEN |", "score": 0.4783, "match_basis": "verbatim_token+domain_route:TU"}], "candidate_count": 5, "zero_candidate": false}
{"pdf_atom_id": "ig34_p0345_a015", "pdf_atom_type": "TABLE_ROW", "pdf_source": "SDTMIG_v3.4", "pdf_page": 345, "pdf_parent_section": "TU – Specification", "pdf_verbatim": "| TULNKID | Link ID | Char | | Identifier | Identifier used to link identified tumor/lesion/location of interest to the assessment results (in TR domain) over the course of the study. | Exp |", "figure_ref": null, "candidates": [{"md_atom_id": "md_dmTU_assn_a035", "md_file": "knowledge_base/domains/TU/assumptions.md", "md_atom_type": "TABLE_ROW", "md_parent_section": "§TU [TU — Assumptions]", "md_verbatim": "| L02 | TUMIDENT | Tumor Identification | LOCATION OF INTEREST | LIVER | CT SCAN |", "score": 0.5808, "match_basis": "verbatim_token+domain_route:TU"}, {"md_atom_id": "md_dmTU_assn_a037", "md_file": "knowledge_base/domains/TU/assumptions.md", "md_atom_type": "TABLE_ROW", "md_parent_section": "§TU [TU — Assumptions]", "md_verbatim": "| L04 | TUMIDENT | Tumor Identification | LOCATION OF INTEREST | BODY | PET SCAN |", "score": 0.5703, "match_basis": "verbatim_token+domain_route:TU"}, {"md_atom_id": "md_dmTU_assn_a034", "md_file": "knowledge_base/domains/TU/assumptions.md", "md_atom_type": "TABLE_ROW", "md_parent_section": "§TU [TU — Assumptions]", "md_verbatim": "| L01 | TUMIDENT | Tumor Identification | LOCATION OF INTEREST | SPLEEN | CT SCAN |", "score": 0.568, "match_basis": "verbatim_token+domain_route:TU"}, {"md_atom_id": "md_dmTU_assn_a036", "md_file": "knowledge_base/domains/TU/assumptions.md", "md_atom_type": "TABLE_ROW", "md_parent_section": "§TU [TU — Assumptions]", "md_verbatim": "| L03 | TUMIDENT | Tumor Identification | LOCATION OF INTEREST | BONE MARROW | PET SCAN |", "score": 0.5615, "match_basis": "verbatim_token+domain_route:TU"}, {"md_atom_id": "md_dmTU_assn_a029", "md_file": "knowledge_base/domains/TU/assumptions.md", "md_atom_type": "TABLE_ROW", "md_parent_section": "§TU [TU — Assumptions]", "md_verbatim": "| NEW01 | TUMIDENT | Tumor Identification | NEW | WEEK 32 |", "score": 0.5068, "match_basis": "verbatim_token+domain_route:TU"}], "candidate_count": 5, "zero_candidate": false}
{"pdf_atom_id": "ig34_p0345_a016", "pdf_atom_type": "TABLE_ROW", "pdf_source": "SDTMIG_v3.4", "pdf_page": 345, "pdf_parent_section": "TU – Specification", "pdf_verbatim": "| TULNKGRP | Link Group ID | Char | | Identifier | Identifier used to link related records across domains. This will usually be a many-to-one relationship. | Perm |", "figure_ref": null, "candidates": [{"md_atom_id": "md_dmTU_assn_a029", "md_file": "knowledge_base/domains/TU/assumptions.md", "md_atom_type": "TABLE_ROW", "md_parent_section": "§TU [TU — Assumptions]", "md_verbatim": "| NEW01 | TUMIDENT | Tumor Identification | NEW | WEEK 32 |", "score": 0.4711, "match_basis": "verbatim_token+domain_route:TU"}, {"md_atom_id": "md_dmTU_assn_a036", "md_file": "knowledge_base/domains/TU/assumptions.md", "md_atom_type": "TABLE_ROW", "md_parent_section": "§TU [TU — Assumptions]", "md_verbatim": "| L03 | TUMIDENT | Tumor Identification | LOCATION OF INTEREST | BONE MARROW | PET SCAN |", "score": 0.4682, "match_basis": "verbatim_token+domain_route:TU"}, {"md_atom_id": "md_dmTU_assn_a021", "md_file": "knowledge_base/domains/TU/assumptions.md", "md_atom_type": "TABLE_ROW", "md_parent_section": "§TU [TU — Assumptions]", "md_verbatim": "| T01 | TUMIDENT | Tumor Identification | TARGET | SCREEN |", "score": 0.4675, "match_basis": "verbatim_token+domain_route:TU"}, {"md_atom_id": "md_dmTU_assn_a022", "md_file": "knowledge_base/domains/TU/assumptions.md", "md_atom_type": "TABLE_ROW", "md_parent_section": "§TU [TU — Assumptions]", "md_verbatim": "| T02 | TUMIDENT | Tumor Identification | TARGET | SCREEN |", "score": 0.4675, "match_basis": "verbatim_token+domain_route:TU"}, {"md_atom_id": "md_dmTU_assn_a023", "md_file": "knowledge_base/domains/TU/assumptions.md", "md_atom_type": "TABLE_ROW", "md_parent_section": "§TU [TU — Assumptions]", "md_verbatim": "| T03 | TUMIDENT | Tumor Identification | TARGET | SCREEN |", "score": 0.4675, "match_basis": "verbatim_token+domain_route:TU"}], "candidate_count": 5, "zero_candidate": false}
{"pdf_atom_id": "ig34_p0345_a017", "pdf_atom_type": "TABLE_ROW", "pdf_source": "SDTMIG_v3.4", "pdf_page": 345, "pdf_parent_section": "TU – Specification", "pdf_verbatim": "| TUTESTCD | Tumor/Lesion ID Short Name | Char | (TUTESTCD) | Topic | Short name of the test in TUTEST. TUTESTCD cannot be longer than 8 characters nor can start with a number. TUTESTCD cannot contain characters other than letters, numbers, or underscores. Example: \"TUMIDENT\". See assumption 3. | Req |", "figure_ref": null, "candidates": [{"md_atom_id": "md_dmTU_assn_a034", "md_file": "knowledge_base/domains/TU/assumptions.md", "md_atom_type": "TABLE_ROW", "md_parent_section": "§TU [TU — Assumptions]", "md_verbatim": "| L01 | TUMIDENT | Tumor Identification | LOCATION OF INTEREST | SPLEEN | CT SCAN |", "score": 0.4865, "match_basis": "verbatim_token+domain_route:TU"}, {"md_atom_id": "md_dmTU_assn_a035", "md_file": "knowledge_base/domains/TU/assumptions.md", "md_atom_type": "TABLE_ROW", "md_parent_section": "§TU [TU — Assumptions]", "md_verbatim": "| L02 | TUMIDENT | Tumor Identification | LOCATION OF INTEREST | LIVER | CT SCAN |", "score": 0.4808, "match_basis": "verbatim_token+domain_route:TU"}, {"md_atom_id": "md_dmTU_assn_a037", "md_file": "knowledge_base/domains/TU/assumptions.md", "md_atom_type": "TABLE_ROW", "md_parent_section": "§TU [TU — Assumptions]", "md_verbatim": "| L04 | TUMIDENT | Tumor Identification | LOCATION OF INTEREST | BODY | PET SCAN |", "score": 0.4808, "match_basis": "verbatim_token+domain_route:TU"}, {"md_atom_id": "md_dmTU_assn_a036", "md_file": "knowledge_base/domains/TU/assumptions.md", "md_atom_type": "TABLE_ROW", "md_parent_section": "§TU [TU — Assumptions]", "md_verbatim": "| L03 | TUMIDENT | Tumor Identification | LOCATION OF INTEREST | BONE MARROW | PET SCAN |", "score": 0.4778, "match_basis": "verbatim_token+domain_route:TU"}, {"md_atom_id": "md_dmTU_assn_a052", "md_file": "knowledge_base/domains/TU/assumptions.md", "md_atom_type": "TABLE_ROW", "md_parent_section": "§TU [TU — Assumptions]", "md_verbatim": "| NT01 | TUMIDENT | Tumor Identification | NON-TARGET | LUNG | CT SCAN |", "score": 0.4699, "match_basis": "verbatim_token+domain_route:TU"}], "candidate_count": 5, "zero_candidate": false}
{"pdf_atom_id": "ig34_p0345_a018", "pdf_atom_type": "TABLE_ROW", "pdf_source": "SDTMIG_v3.4", "pdf_page": 345, "pdf_parent_section": "TU – Specification", "pdf_verbatim": "| TUTEST | Tumor/Lesion ID Test Name | Char | (TUTEST) | Synonym Qualifier | Verbatim name of the test for the tumor/lesion identification. The value in TUTEST cannot be longer than 40 characters. Example: \"Tumor identification\". See assumption 3. | Req |", "figure_ref": null, "candidates": [{"md_atom_id": "md_dmTU_assn_a035", "md_file": "knowledge_base/domains/TU/assumptions.md", "md_atom_type": "TABLE_ROW", "md_parent_section": "§TU [TU — Assumptions]", "md_verbatim": "| L02 | TUMIDENT | Tumor Identification | LOCATION OF INTEREST | LIVER | CT SCAN |", "score": 0.5295, "match_basis": "verbatim_token+domain_route:TU"}, {"md_atom_id": "md_dmTU_assn_a034", "md_file": "knowledge_base/domains/TU/assumptions.md", "md_atom_type": "TABLE_ROW", "md_parent_section": "§TU [TU — Assumptions]", "md_verbatim": "| L01 | TUMIDENT | Tumor Identification | LOCATION OF INTEREST | SPLEEN | CT SCAN |", "score": 0.5281, "match_basis": "verbatim_token+domain_route:TU"}, {"md_atom_id": "md_dmTU_assn_a037", "md_file": "knowledge_base/domains/TU/assumptions.md", "md_atom_type": "TABLE_ROW", "md_parent_section": "§TU [TU — Assumptions]", "md_verbatim": "| L04 | TUMIDENT | Tumor Identification | LOCATION OF INTEREST | BODY | PET SCAN |", "score": 0.5213, "match_basis": "verbatim_token+domain_route:TU"}, {"md_atom_id": "md_dmTU_assn_a052", "md_file": "knowledge_base/domains/TU/assumptions.md", "md_atom_type": "TABLE_ROW", "md_parent_section": "§TU [TU — Assumptions]", "md_verbatim": "| NT01 | TUMIDENT | Tumor Identification | NON-TARGET | LUNG | CT SCAN |", "score": 0.5172, "match_basis": "verbatim_token+domain_route:TU"}, {"md_atom_id": "md_dmTU_assn_a036", "md_file": "knowledge_base/domains/TU/assumptions.md", "md_atom_type": "TABLE_ROW", "md_parent_section": "§TU [TU — Assumptions]", "md_verbatim": "| L03 | TUMIDENT | Tumor Identification | LOCATION OF INTEREST | BONE MARROW | PET SCAN |", "score": 0.5161, "match_basis": "verbatim_token+domain_route:TU"}], "candidate_count": 5, "zero_candidate": false}
{"pdf_atom_id": "ig34_p0345_a019", "pdf_atom_type": "TABLE_ROW", "pdf_source": "SDTMIG_v3.4", "pdf_page": 345, "pdf_parent_section": "TU – Specification", "pdf_verbatim": "| TUORRES | Tumor/Lesion ID Result | Char | | Result Qualifier | Result of the tumor/lesion identification. The result of tumor/lesion identification is a classification of the identified tumor/lesion. Example: When TUTESTCD = \"TUMIDENT\", values of TUORRES might be \"TARGET\", \"NON-TARGET\", \"NEW\", or \"BENIGN ABNORMALITY\". | Exp |", "figure_ref": null, "candidates": [{"md_atom_id": "md_dmTU_assn_a025", "md_file": "knowledge_base/domains/TU/assumptions.md", "md_atom_type": "TABLE_ROW", "md_parent_section": "§TU [TU — Assumptions]", "md_verbatim": "| NT01 | TUMIDENT | Tumor Identification | NON-TARGET | SCREEN |", "score": 0.55, "match_basis": "verbatim_token+domain_route:TU"}, {"md_atom_id": "md_dmTU_assn_a026", "md_file": "knowledge_base/domains/TU/assumptions.md", "md_atom_type": "TABLE_ROW", "md_parent_section": "§TU [TU — Assumptions]", "md_verbatim": "| NT02 | TUMIDENT | Tumor Identification | NON-TARGET | SCREEN |", "score": 0.55, "match_basis": "verbatim_token+domain_route:TU"}, {"md_atom_id": "md_dmTU_assn_a052", "md_file": "knowledge_base/domains/TU/assumptions.md", "md_atom_type": "TABLE_ROW", "md_parent_section": "§TU [TU — Assumptions]", "md_verbatim": "| NT01 | TUMIDENT | Tumor Identification | NON-TARGET | LUNG | CT SCAN |", "score": 0.55, "match_basis": "verbatim_token+domain_route:TU"}, {"md_atom_id": "md_dmTU_assn_a021", "md_file": "knowledge_base/domains/TU/assumptions.md", "md_atom_type": "TABLE_ROW", "md_parent_section": "§TU [TU — Assumptions]", "md_verbatim": "| T01 | TUMIDENT | Tumor Identification | TARGET | SCREEN |", "score": 0.5448, "match_basis": "verbatim_token+domain_route:TU"}, {"md_atom_id": "md_dmTU_assn_a022", "md_file": "knowledge_base/domains/TU/assumptions.md", "md_atom_type": "TABLE_ROW", "md_parent_section": "§TU [TU — Assumptions]", "md_verbatim": "| T02 | TUMIDENT | Tumor Identification | TARGET | SCREEN |", "score": 0.5448, "match_basis": "verbatim_token+domain_route:TU"}], "candidate_count": 5, "zero_candidate": false}
{"pdf_atom_id": "ig34_p0345_a020", "pdf_atom_type": "TABLE_ROW", "pdf_source": "SDTMIG_v3.4", "pdf_page": 345, "pdf_parent_section": "TU – Specification", "pdf_verbatim": "| TUSTRESC | Tumor/Lesion ID Result Std. Format | Char | (TUIDRS) | Result Qualifier | Contains the result value for all findings copied or derived from TUORRES in a standard format. | Exp |", "figure_ref": null, "candidates": [{"md_atom_id": "md_dmTU_ex_a024", "md_file": "knowledge_base/domains/TU/examples.md", "md_atom_type": "TABLE_ROW", "md_parent_section": "§TU.1 [Example 1]", "md_verbatim": "| 3 | STUDY01 | TU | 40913 | TUSEQ | 4 | TUOTHLDS | Other Lesion Description | LESION IS 5MM FROM THE ORIGIN OF THE GRAFT | CRF | |", "score": 0.4571, "match_basis": "verbatim_token+domain_route:TU"}, {"md_atom_id": "md_dmTU_assn_a035", "md_file": "knowledge_base/domains/TU/assumptions.md", "md_atom_type": "TABLE_ROW", "md_parent_section": "§TU [TU — Assumptions]", "md_verbatim": "| L02 | TUMIDENT | Tumor Identification | LOCATION OF INTEREST | LIVER | CT SCAN |", "score": 0.4433, "match_basis": "verbatim_token+domain_route:TU"}, {"md_atom_id": "md_dmTU_assn_a056", "md_file": "knowledge_base/domains/TU/assumptions.md", "md_atom_type": "TABLE_ROW", "md_parent_section": "§TU [TU — Assumptions]", "md_verbatim": "| | METIND | Metastatic Tumor Site Indicator | N | | BRAIN | MRI | BASELINE |", "score": 0.4429, "match_basis": "verbatim_token+domain_route:TU"}, {"md_atom_id": "md_dmTU_assn_a055", "md_file": "knowledge_base/domains/TU/assumptions.md", "md_atom_type": "TABLE_ROW", "md_parent_section": "§TU [TU — Assumptions]", "md_verbatim": "| | METIND | Metastatic Tumor Site Indicator | Y | | LIVER | CT SCAN | BASELINE |", "score": 0.4424, "match_basis": "verbatim_token+domain_route:TU"}, {"md_atom_id": "md_dmTU_ex_a060", "md_file": "knowledge_base/domains/TU/examples.md", "md_atom_type": "TABLE_ROW", "md_parent_section": "§TU.3 [Example 3]", "md_verbatim": "| 2 | ABC | TU | 55555 | 2 | R1-T02 | TUMIDENT | Tumor Identification | TARGET | TARGET | LIVER | | CT SCAN | ACE IMAGING | INDEPENDENT ASSESSOR | RADIOLOGIST 1 | 10 | SCREEN | 2010-01-01 |", "score": 0.4378, "match_basis": "verbatim_token+domain_route:TU"}], "candidate_count": 5, "zero_candidate": false}
{"pdf_atom_id": "ig34_p0345_a021", "pdf_atom_type": "TABLE_ROW", "pdf_source": "SDTMIG_v3.4", "pdf_page": 345, "pdf_parent_section": "TU – Specification", "pdf_verbatim": "| TUNAM | Laboratory/Vendor Name | Char | | Record Qualifier | The name or identifier of the vendor that performed the tumor/lesion Identification. This column can be left null when the investigator provides the complete set of data in the domain. | Perm |", "figure_ref": null, "candidates": [{"md_atom_id": "md_dmTU_ex_a034", "md_file": "knowledge_base/domains/TU/examples.md", "md_atom_type": "TABLE_ROW", "md_parent_section": "§TU.2 [Example 2]", "md_verbatim": "| 1 | ABC | TU | 44444 | 1 | | T01 | TUMIDENT | Tumor Identification | TARGET | TARGET | LIVER | | CT SCAN | INVESTIGATOR | 10 | SCREEN | 2010-01-01 | -3 |", "score": 0.5357, "match_basis": "verbatim_token+domain_route:TU"}, {"md_atom_id": "md_dmTU_ex_a036", "md_file": "knowledge_base/domains/TU/examples.md", "md_atom_type": "TABLE_ROW", "md_parent_section": "§TU.2 [Example 2]", "md_verbatim": "| 3 | ABC | TU | 44444 | 3 | | T03 | TUMIDENT | Tumor Identification | TARGET | TARGET | CERVICAL LYMPH NODE | LEFT | MRI | INVESTIGATOR | 10 | SCREEN | 2010-01-02 | -2 |", "score": 0.5328, "match_basis": "verbatim_token+domain_route:TU"}, {"md_atom_id": "md_dmTU_ex_a035", "md_file": "knowledge_base/domains/TU/examples.md", "md_atom_type": "TABLE_ROW", "md_parent_section": "§TU.2 [Example 2]", "md_verbatim": "| 2 | ABC | TU | 44444 | 2 | | T02 | TUMIDENT | Tumor Identification | TARGET | TARGET | KIDNEY | RIGHT | CT SCAN | INVESTIGATOR | 10 | SCREEN | 2010-01-01 | -3 |", "score": 0.5311, "match_basis": "verbatim_token+domain_route:TU"}, {"md_atom_id": "md_dmTU_ex_a039", "md_file": "knowledge_base/domains/TU/examples.md", "md_atom_type": "TABLE_ROW", "md_parent_section": "§TU.2 [Example 2]", "md_verbatim": "| 6 | ABC | TU | 44444 | 6 | | NT02 | TUMIDENT | Tumor Identification | NON-TARGET | NON-TARGET | CEREBELLUM | RIGHT | MRI | INVESTIGATOR | 10 | SCREEN | 2010-01-02 | -2 |", "score": 0.5258, "match_basis": "verbatim_token+domain_route:TU"}, {"md_atom_id": "md_dmTU_ex_a037", "md_file": "knowledge_base/domains/TU/examples.md", "md_atom_type": "TABLE_ROW", "md_parent_section": "§TU.2 [Example 2]", "md_verbatim": "| 4 | ABC | TU | 44444 | 4 | | T04 | TUMIDENT | Tumor Identification | TARGET | TARGET | SKIN OF THE TRUNK | | PHOTOGRAPHY | INVESTIGATOR | 10 | SCREEN | 2010-01-03 | -1 |", "score": 0.5248, "match_basis": "verbatim_token+domain_route:TU"}], "candidate_count": 5, "zero_candidate": false}
{"pdf_atom_id": "ig34_p0345_a022", "pdf_atom_type": "TABLE_ROW", "pdf_source": "SDTMIG_v3.4", "pdf_page": 345, "pdf_parent_section": "TU – Specification", "pdf_verbatim": "| TULOC | Location of the Tumor/Lesion | Char | (LOC) | Record Qualifier | Used to specify the anatomical location of the identified tumor/lesion (e.g., \"LIVER\"). Note: When anatomical location is broken down and collected as distinct pieces of data that when combined provide the overall location information (e.g., a laterality/directionality/distribution), then additional anatomical location qualifiers should be used. See assumption 3. | Exp |", "figure_ref": null, "candidates": [{"md_atom_id": "md_dmTU_assn_a035", "md_file": "knowledge_base/domains/TU/assumptions.md", "md_atom_type": "TABLE_ROW", "md_parent_section": "§TU [TU — Assumptions]", "md_verbatim": "| L02 | TUMIDENT | Tumor Identification | LOCATION OF INTEREST | LIVER | CT SCAN |", "score": 0.4811, "match_basis": "verbatim_token+domain_route:TU"}, {"md_atom_id": "md_dmTU_ex_a034", "md_file": "knowledge_base/domains/TU/examples.md", "md_atom_type": "TABLE_ROW", "md_parent_section": "§TU.2 [Example 2]", "md_verbatim": "| 1 | ABC | TU | 44444 | 1 | | T01 | TUMIDENT | Tumor Identification | TARGET | TARGET | LIVER | | CT SCAN | INVESTIGATOR | 10 | SCREEN | 2010-01-01 | -3 |", "score": 0.4699, "match_basis": "verbatim_token+domain_route:TU"}, {"md_atom_id": "md_dmTU_assn_a037", "md_file": "knowledge_base/domains/TU/assumptions.md", "md_atom_type": "TABLE_ROW", "md_parent_section": "§TU [TU — Assumptions]", "md_verbatim": "| L04 | TUMIDENT | Tumor Identification | LOCATION OF INTEREST | BODY | PET SCAN |", "score": 0.4675, "match_basis": "verbatim_token+domain_route:TU"}, {"md_atom_id": "md_dmTU_assn_a034", "md_file": "knowledge_base/domains/TU/assumptions.md", "md_atom_type": "TABLE_ROW", "md_parent_section": "§TU [TU — Assumptions]", "md_verbatim": "| L01 | TUMIDENT | Tumor Identification | LOCATION OF INTEREST | SPLEEN | CT SCAN |", "score": 0.4671, "match_basis": "verbatim_token+domain_route:TU"}, {"md_atom_id": "md_dmTU_assn_a036", "md_file": "knowledge_base/domains/TU/assumptions.md", "md_atom_type": "TABLE_ROW", "md_parent_section": "§TU [TU — Assumptions]", "md_verbatim": "| L03 | TUMIDENT | Tumor Identification | LOCATION OF INTEREST | BONE MARROW | PET SCAN |", "score": 0.4658, "match_basis": "verbatim_token+domain_route:TU"}], "candidate_count": 5, "zero_candidate": false}
{"pdf_atom_id": "ig34_p0345_a023", "pdf_atom_type": "TABLE_ROW", "pdf_source": "SDTMIG_v3.4", "pdf_page": 345, "pdf_parent_section": "TU – Specification", "pdf_verbatim": "| TULAT | Laterality | Char | (LAT) | Variable Qualifier | Qualifier for anatomical location or specimen further detailing laterality (e.g., \"LEFT\", \"RIGHT\", \"BILATERAL\"). | Perm |", "figure_ref": null, "candidates": [{"md_atom_id": "md_dmTU_ex_a015", "md_file": "knowledge_base/domains/TU/examples.md", "md_atom_type": "TABLE_ROW", "md_parent_section": "§TU.1 [Example 1]", "md_verbatim": "| 2 | STUDY01 | TU | 40913 | 2 | L01-1 | VSIDENT | Vessel Lesion Identification | TARGET | TARGET | AORTO-ILIAC PERIPHERAL ARTERY | LEFT | ANGIOGRAPHY | INVESTIGATOR | 1 | SCREEN | 2007-02-01 |", "score": 0.4698, "match_basis": "verbatim_token+domain_route:TU"}, {"md_atom_id": "md_dmTU_assn_a069", "md_file": "knowledge_base/domains/TU/assumptions.md", "md_atom_type": "TABLE_ROW", "md_parent_section": "§TU [TU — Assumptions]", "md_verbatim": "| IMG-00007 | CON01 | DRCRLLTC | Disease Recurrence Relative Location | CONTRALATE RAL | BREAST | RIGHT | CT SCAN |", "score": 0.4692, "match_basis": "verbatim_token+domain_route:TU"}, {"md_atom_id": "md_dmTU_ex_a022", "md_file": "knowledge_base/domains/TU/examples.md", "md_atom_type": "TABLE_ROW", "md_parent_section": "§TU.1 [Example 1]", "md_verbatim": "| 1 | STUDY01 | TU | 40913 | TUSEQ | 4 | TUPAGLL | Peripheral Graft Lesion Location | GRAFT ANASTOMOSIS PROXIMAL | CRF | |", "score": 0.4679, "match_basis": "verbatim_token+domain_route:TU"}, {"md_atom_id": "md_dmTU_ex_a017", "md_file": "knowledge_base/domains/TU/examples.md", "md_atom_type": "TABLE_ROW", "md_parent_section": "§TU.1 [Example 1]", "md_verbatim": "| 4 | STUDY01 | TU | 40913 | 4 | L01-G | GRLIDENT | Graft Lesion Identification | TARGET | TARGET | FEMORO-POPLITEAL PERIPHERAL ARTERY | LEFT | ANGIOGRAPHY | INVESTIGATOR | 1 | SCREEN | 2007-02-01 |", "score": 0.4672, "match_basis": "verbatim_token+domain_route:TU"}, {"md_atom_id": "md_dmTU_ex_a018", "md_file": "knowledge_base/domains/TU/examples.md", "md_atom_type": "TABLE_ROW", "md_parent_section": "§TU.1 [Example 1]", "md_verbatim": "| 5 | STUDY01 | TU | 40913 | 5 | L01-G1 | VSIDENT | Vessel Lesion Identification | TARGET | TARGET | FEMORO-POPLITEAL PERIPHERAL ARTERY | LEFT | ANGIOGRAPHY | INVESTIGATOR | 1 | SCREEN | 2007-02-01 |", "score": 0.4672, "match_basis": "verbatim_token+domain_route:TU"}], "candidate_count": 5, "zero_candidate": false}
{"pdf_atom_id": "ig34_p0345_a024", "pdf_atom_type": "TABLE_ROW", "pdf_source": "SDTMIG_v3.4", "pdf_page": 345, "pdf_parent_section": "TU – Specification", "pdf_verbatim": "| TUDIR | Directionality | Char | (DIR) | Variable Qualifier | Qualifier for anatomical location or specimen further detailing directionality (e.g., \"UPPER\", \"INTERIOR\"). | Perm |", "figure_ref": null, "candidates": [{"md_atom_id": "md_dmTU_assn_a035", "md_file": "knowledge_base/domains/TU/assumptions.md", "md_atom_type": "TABLE_ROW", "md_parent_section": "§TU [TU — Assumptions]", "md_verbatim": "| L02 | TUMIDENT | Tumor Identification | LOCATION OF INTEREST | LIVER | CT SCAN |", "score": 0.4742, "match_basis": "verbatim_token+domain_route:TU"}, {"md_atom_id": "md_dmTU_assn_a037", "md_file": "knowledge_base/domains/TU/assumptions.md", "md_atom_type": "TABLE_ROW", "md_parent_section": "§TU [TU — Assumptions]", "md_verbatim": "| L04 | TUMIDENT | Tumor Identification | LOCATION OF INTEREST | BODY | PET SCAN |", "score": 0.4742, "match_basis": "verbatim_token+domain_route:TU"}, {"md_atom_id": "md_dmTU_assn_a034", "md_file": "knowledge_base/domains/TU/assumptions.md", "md_atom_type": "TABLE_ROW", "md_parent_section": "§TU [TU — Assumptions]", "md_verbatim": "| L01 | TUMIDENT | Tumor Identification | LOCATION OF INTEREST | SPLEEN | CT SCAN |", "score": 0.4733, "match_basis": "verbatim_token+domain_route:TU"}, {"md_atom_id": "md_dmTU_assn_a036", "md_file": "knowledge_base/domains/TU/assumptions.md", "md_atom_type": "TABLE_ROW", "md_parent_section": "§TU [TU — Assumptions]", "md_verbatim": "| L03 | TUMIDENT | Tumor Identification | LOCATION OF INTEREST | BONE MARROW | PET SCAN |", "score": 0.471, "match_basis": "verbatim_token+domain_route:TU"}, {"md_atom_id": "md_dmTU_ex_a022", "md_file": "knowledge_base/domains/TU/examples.md", "md_atom_type": "TABLE_ROW", "md_parent_section": "§TU.1 [Example 1]", "md_verbatim": "| 1 | STUDY01 | TU | 40913 | TUSEQ | 4 | TUPAGLL | Peripheral Graft Lesion Location | GRAFT ANASTOMOSIS PROXIMAL | CRF | |", "score": 0.4661, "match_basis": "verbatim_token+domain_route:TU"}], "candidate_count": 5, "zero_candidate": false}
{"pdf_atom_id": "ig34_p0345_a025", "pdf_atom_type": "TABLE_ROW", "pdf_source": "SDTMIG_v3.4", "pdf_page": 345, "pdf_parent_section": "TU – Specification", "pdf_verbatim": "| TUPORTOT | Portion or Totality | Char | (PORTOT) | Variable Qualifier | Qualifier for anatomical location or specimen further detailing the distribution, which means arrangement of, or apportioning of. Examples: \"ENTIRE\", \"SINGLE\", \"SEGMENT\", \"MULTIPLE\". | Perm |", "figure_ref": null, "candidates": [{"md_atom_id": "md_dmTU_ex_a015", "md_file": "knowledge_base/domains/TU/examples.md", "md_atom_type": "TABLE_ROW", "md_parent_section": "§TU.1 [Example 1]", "md_verbatim": "| 2 | STUDY01 | TU | 40913 | 2 | L01-1 | VSIDENT | Vessel Lesion Identification | TARGET | TARGET | AORTO-ILIAC PERIPHERAL ARTERY | LEFT | ANGIOGRAPHY | INVESTIGATOR | 1 | SCREEN | 2007-02-01 |", "score": 0.4568, "match_basis": "verbatim_token+domain_route:TU"}, {"md_atom_id": "md_dmTU_assn_a034", "md_file": "knowledge_base/domains/TU/assumptions.md", "md_atom_type": "TABLE_ROW", "md_parent_section": "§TU [TU — Assumptions]", "md_verbatim": "| L01 | TUMIDENT | Tumor Identification | LOCATION OF INTEREST | SPLEEN | CT SCAN |", "score": 0.4516, "match_basis": "verbatim_token+domain_route:TU"}, {"md_atom_id": "md_dmTU_assn_a036", "md_file": "knowledge_base/domains/TU/assumptions.md", "md_atom_type": "TABLE_ROW", "md_parent_section": "§TU [TU — Assumptions]", "md_verbatim": "| L03 | TUMIDENT | Tumor Identification | LOCATION OF INTEREST | BONE MARROW | PET SCAN |", "score": 0.4504, "match_basis": "verbatim_token+domain_route:TU"}, {"md_atom_id": "md_dmTU_ex_a022", "md_file": "knowledge_base/domains/TU/examples.md", "md_atom_type": "TABLE_ROW", "md_parent_section": "§TU.1 [Example 1]", "md_verbatim": "| 1 | STUDY01 | TU | 40913 | TUSEQ | 4 | TUPAGLL | Peripheral Graft Lesion Location | GRAFT ANASTOMOSIS PROXIMAL | CRF | |", "score": 0.449, "match_basis": "verbatim_token+domain_route:TU"}, {"md_atom_id": "md_dmTU_ex_a017", "md_file": "knowledge_base/domains/TU/examples.md", "md_atom_type": "TABLE_ROW", "md_parent_section": "§TU.1 [Example 1]", "md_verbatim": "| 4 | STUDY01 | TU | 40913 | 4 | L01-G | GRLIDENT | Graft Lesion Identification | TARGET | TARGET | FEMORO-POPLITEAL PERIPHERAL ARTERY | LEFT | ANGIOGRAPHY | INVESTIGATOR | 1 | SCREEN | 2007-02-01 |", "score": 0.4477, "match_basis": "verbatim_token+domain_route:TU"}], "candidate_count": 5, "zero_candidate": false}
{"pdf_atom_id": "ig34_p0346_a001", "pdf_atom_type": "TABLE_HEADER", "pdf_source": "SDTMIG_v3.4", "pdf_page": 346, "pdf_parent_section": "TU – Specification", "pdf_verbatim": "| Variable Name | Variable Label | Type | Controlled Terms, Codelist or Format¹ | Role | CDISC Notes | Core |", "figure_ref": null, "candidates": [{"md_atom_id": "md_dmTU_assn_a071", "md_file": "knowledge_base/domains/TU/assumptions.md", "md_atom_type": "TABLE_HEADER", "md_parent_section": "§TU [TU — Assumptions]", "md_verbatim": "| QNAM | QLABEL | Definition |", "score": 0.4453, "match_basis": "verbatim_token+domain_route:TU"}, {"md_atom_id": "md_dmTU_ex_a044", "md_file": "knowledge_base/domains/TU/examples.md", "md_atom_type": "TABLE_HEADER", "md_parent_section": "§TU.2 [Example 2]", "md_verbatim": "| Row | STUDYID | RDOMAIN | USUBJID | IDVAR | IDVARVAL | QNAM | QLABEL | QVAL |", "score": 0.4448, "match_basis": "verbatim_token+domain_route:TU"}, {"md_atom_id": "md_dmTU_ex_a021", "md_file": "knowledge_base/domains/TU/examples.md", "md_atom_type": "TABLE_HEADER", "md_parent_section": "§TU.1 [Example 1]", "md_verbatim": "| Row | STUDYID | RDOMAIN | USUBJID | IDVAR | IDVARVAL | QNAM | QLABEL | QVAL | QORIG | QEVAL |", "score": 0.4417, "match_basis": "verbatim_token+domain_route:TU"}, {"md_atom_id": "md_dmTU_ex_a058", "md_file": "knowledge_base/domains/TU/examples.md", "md_atom_type": "TABLE_HEADER", "md_parent_section": "§TU.3 [Example 3]", "md_verbatim": "| Row | STUDYID | DOMAIN | USUBJID | TUSEQ | TULNKID | TUTESTCD | TUTEST | TUORRES | TUSTRESC | TULOC | TULAT | TUMETHOD | TUNAM | TUEVAL | TUEVALID | VISITNUM | VISIT | TUDTC |", "score": 0.4113, "match_basis": "verbatim_token+domain_route:TU"}, {"md_atom_id": "md_dmTU_assn_a020", "md_file": "knowledge_base/domains/TU/assumptions.md", "md_atom_type": "TABLE_HEADER", "md_parent_section": "§TU [TU — Assumptions]", "md_verbatim": "| TULNKID | TUTESTCD | TUTEST | TUORRES | VISIT |", "score": 0.4098, "match_basis": "verbatim_token+domain_route:TU"}], "candidate_count": 5, "zero_candidate": false}
{"pdf_atom_id": "ig34_p0346_a002", "pdf_atom_type": "TABLE_ROW", "pdf_source": "SDTMIG_v3.4", "pdf_page": 346, "pdf_parent_section": "TU – Specification", "pdf_verbatim": "| TUMETHOD | Method of Identification | Char | (METHOD) | Record Qualifier | Method used to identify the tumor/lesion. Examples: \"MRI\", \"CT SCAN\". | Exp |", "figure_ref": null, "candidates": [{"md_atom_id": "md_dmTU_assn_a034", "md_file": "knowledge_base/domains/TU/assumptions.md", "md_atom_type": "TABLE_ROW", "md_parent_section": "§TU [TU — Assumptions]", "md_verbatim": "| L01 | TUMIDENT | Tumor Identification | LOCATION OF INTEREST | SPLEEN | CT SCAN |", "score": 0.5742, "match_basis": "verbatim_token+domain_route:TU"}, {"md_atom_id": "md_dmTU_assn_a052", "md_file": "knowledge_base/domains/TU/assumptions.md", "md_atom_type": "TABLE_ROW", "md_parent_section": "§TU [TU — Assumptions]", "md_verbatim": "| NT01 | TUMIDENT | Tumor Identification | NON-TARGET | LUNG | CT SCAN |", "score": 0.5729, "match_basis": "verbatim_token+domain_route:TU"}, {"md_atom_id": "md_dmTU_assn_a035", "md_file": "knowledge_base/domains/TU/assumptions.md", "md_atom_type": "TABLE_ROW", "md_parent_section": "§TU [TU — Assumptions]", "md_verbatim": "| L02 | TUMIDENT | Tumor Identification | LOCATION OF INTEREST | LIVER | CT SCAN |", "score": 0.5645, "match_basis": "verbatim_token+domain_route:TU"}, {"md_atom_id": "md_dmTU_assn_a037", "md_file": "knowledge_base/domains/TU/assumptions.md", "md_atom_type": "TABLE_ROW", "md_parent_section": "§TU [TU — Assumptions]", "md_verbatim": "| L04 | TUMIDENT | Tumor Identification | LOCATION OF INTEREST | BODY | PET SCAN |", "score": 0.5645, "match_basis": "verbatim_token+domain_route:TU"}, {"md_atom_id": "md_dmTU_assn_a029", "md_file": "knowledge_base/domains/TU/assumptions.md", "md_atom_type": "TABLE_ROW", "md_parent_section": "§TU [TU — Assumptions]", "md_verbatim": "| NEW01 | TUMIDENT | Tumor Identification | NEW | WEEK 32 |", "score": 0.5636, "match_basis": "verbatim_token+domain_route:TU"}], "candidate_count": 5, "zero_candidate": false}
{"pdf_atom_id": "ig34_p0346_a003", "pdf_atom_type": "TABLE_ROW", "pdf_source": "SDTMIG_v3.4", "pdf_page": 346, "pdf_parent_section": "TU – Specification", "pdf_verbatim": "| TULOBXFL | Last Observation Before Exposure Flag | Char | (NY) | Record Qualifier | Operationally derived indicator used to identify the last non-missing value prior to RFXSTDTC. Should be \"Y\" or null. | Exp |", "figure_ref": null, "candidates": [{"md_atom_id": "md_dmTU_ex_a034", "md_file": "knowledge_base/domains/TU/examples.md", "md_atom_type": "TABLE_ROW", "md_parent_section": "§TU.2 [Example 2]", "md_verbatim": "| 1 | ABC | TU | 44444 | 1 | | T01 | TUMIDENT | Tumor Identification | TARGET | TARGET | LIVER | | CT SCAN | INVESTIGATOR | 10 | SCREEN | 2010-01-01 | -3 |", "score": 0.4667, "match_basis": "verbatim_token+domain_route:TU"}, {"md_atom_id": "md_dmTU_assn_a025", "md_file": "knowledge_base/domains/TU/assumptions.md", "md_atom_type": "TABLE_ROW", "md_parent_section": "§TU [TU — Assumptions]", "md_verbatim": "| NT01 | TUMIDENT | Tumor Identification | NON-TARGET | SCREEN |", "score": 0.4649, "match_basis": "verbatim_token+domain_route:TU"}, {"md_atom_id": "md_dmTU_assn_a026", "md_file": "knowledge_base/domains/TU/assumptions.md", "md_atom_type": "TABLE_ROW", "md_parent_section": "§TU [TU — Assumptions]", "md_verbatim": "| NT02 | TUMIDENT | Tumor Identification | NON-TARGET | SCREEN |", "score": 0.4649, "match_basis": "verbatim_token+domain_route:TU"}, {"md_atom_id": "md_dmTU_assn_a052", "md_file": "knowledge_base/domains/TU/assumptions.md", "md_atom_type": "TABLE_ROW", "md_parent_section": "§TU [TU — Assumptions]", "md_verbatim": "| NT01 | TUMIDENT | Tumor Identification | NON-TARGET | LUNG | CT SCAN |", "score": 0.4649, "match_basis": "verbatim_token+domain_route:TU"}, {"md_atom_id": "md_dmTU_assn_a035", "md_file": "knowledge_base/domains/TU/assumptions.md", "md_atom_type": "TABLE_ROW", "md_parent_section": "§TU [TU — Assumptions]", "md_verbatim": "| L02 | TUMIDENT | Tumor Identification | LOCATION OF INTEREST | LIVER | CT SCAN |", "score": 0.4632, "match_basis": "verbatim_token+domain_route:TU"}], "candidate_count": 5, "zero_candidate": false}
{"pdf_atom_id": "ig34_p0346_a004", "pdf_atom_type": "TABLE_ROW", "pdf_source": "SDTMIG_v3.4", "pdf_page": 346, "pdf_parent_section": "TU – Specification", "pdf_verbatim": "| TUBLFL | Baseline Flag | Char | (NY) | Record Qualifier | Operationally derived indicator used to identify a baseline value. Should be \"Y\" or null. Note that TUBLFL is required for TU. | Perm |", "figure_ref": null, "candidates": [{"md_atom_id": "md_dmTU_assn_a055", "md_file": "knowledge_base/domains/TU/assumptions.md", "md_atom_type": "TABLE_ROW", "md_parent_section": "§TU [TU — Assumptions]", "md_verbatim": "| | METIND | Metastatic Tumor Site Indicator | Y | | LIVER | CT SCAN | BASELINE |", "score": 0.4947, "match_basis": "verbatim_token+domain_route:TU"}, {"md_atom_id": "md_dmTU_assn_a056", "md_file": "knowledge_base/domains/TU/assumptions.md", "md_atom_type": "TABLE_ROW", "md_parent_section": "§TU [TU — Assumptions]", "md_verbatim": "| | METIND | Metastatic Tumor Site Indicator | N | | BRAIN | MRI | BASELINE |", "score": 0.4884, "match_basis": "verbatim_token+domain_route:TU"}, {"md_atom_id": "md_dmTU_assn_a057", "md_file": "knowledge_base/domains/TU/assumptions.md", "md_atom_type": "TABLE_ROW", "md_parent_section": "§TU [TU — Assumptions]", "md_verbatim": "| | METIND | Metastatic Tumor Site Indicator | NOT DONE | | PLEURAL CAVITY | | BASELINE |", "score": 0.4882, "match_basis": "verbatim_token+domain_route:TU"}, {"md_atom_id": "md_dmTU_ex_a034", "md_file": "knowledge_base/domains/TU/examples.md", "md_atom_type": "TABLE_ROW", "md_parent_section": "§TU.2 [Example 2]", "md_verbatim": "| 1 | ABC | TU | 44444 | 1 | | T01 | TUMIDENT | Tumor Identification | TARGET | TARGET | LIVER | | CT SCAN | INVESTIGATOR | 10 | SCREEN | 2010-01-01 | -3 |", "score": 0.4778, "match_basis": "verbatim_token+domain_route:TU"}, {"md_atom_id": "md_dmTU_assn_a029", "md_file": "knowledge_base/domains/TU/assumptions.md", "md_atom_type": "TABLE_ROW", "md_parent_section": "§TU [TU — Assumptions]", "md_verbatim": "| NEW01 | TUMIDENT | Tumor Identification | NEW | WEEK 32 |", "score": 0.475, "match_basis": "verbatim_token+domain_route:TU"}], "candidate_count": 5, "zero_candidate": false}
{"pdf_atom_id": "ig34_p0346_a005", "pdf_atom_type": "TABLE_ROW", "pdf_source": "SDTMIG_v3.4", "pdf_page": 346, "pdf_parent_section": "TU – Specification", "pdf_verbatim": "| TUEVAL | Evaluator | Char | (EVAL) | Record Qualifier | Role of the person who provided the evaluation. Examples: \"ADJUDICATION COMMITTEE\", \"(INDEPENDENT ASSESSOR)\". This column can be left null when the investigator provides the complete set of data in the domain. However, the column should contain no null values when data from 1 or more independent assessors is included. For example, the rows attributed to the investigator can be left null, but all rows from an independent assessor must be populated. | Exp |", "figure_ref": null, "candidates": [{"md_atom_id": "md_dmTU_ex_a065", "md_file": "knowledge_base/domains/TU/examples.md", "md_atom_type": "TABLE_ROW", "md_parent_section": "§TU.3 [Example 3]", "md_verbatim": "| 7 | ABC | TU | 55555 | 7 | R1-NEW02 | TUMIDENT | Tumor Identification | NEW | NEW | CEREBELLUM | LEFT | MRI | ACE IMAGING | INDEPENDENT ASSESSOR | RADIOLOGIST 1 | 60 | WEEK 12 | 2010-04-02 |", "score": 0.4789, "match_basis": "verbatim_token+domain_route:TU"}, {"md_atom_id": "md_dmTU_ex_a018", "md_file": "knowledge_base/domains/TU/examples.md", "md_atom_type": "TABLE_ROW", "md_parent_section": "§TU.1 [Example 1]", "md_verbatim": "| 5 | STUDY01 | TU | 40913 | 5 | L01-G1 | VSIDENT | Vessel Lesion Identification | TARGET | TARGET | FEMORO-POPLITEAL PERIPHERAL ARTERY | LEFT | ANGIOGRAPHY | INVESTIGATOR | 1 | SCREEN | 2007-02-01 |", "score": 0.4783, "match_basis": "verbatim_token+domain_route:TU"}, {"md_atom_id": "md_dmTU_ex_a063", "md_file": "knowledge_base/domains/TU/examples.md", "md_atom_type": "TABLE_ROW", "md_parent_section": "§TU.3 [Example 3]", "md_verbatim": "| 5 | ABC | TU | 55555 | 5 | R1-NT02 | TUMIDENT | Tumor Identification | NON-TARGET | NON-TARGET | CEREBELLUM | LEFT | MRI | ACE IMAGING | INDEPENDENT ASSESSOR | RADIOLOGIST 1 | 10 | SCREEN | 2010-01-02 |", "score": 0.4765, "match_basis": "verbatim_token+domain_route:TU"}, {"md_atom_id": "md_dmTU_ex_a060", "md_file": "knowledge_base/domains/TU/examples.md", "md_atom_type": "TABLE_ROW", "md_parent_section": "§TU.3 [Example 3]", "md_verbatim": "| 2 | ABC | TU | 55555 | 2 | R1-T02 | TUMIDENT | Tumor Identification | TARGET | TARGET | LIVER | | CT SCAN | ACE IMAGING | INDEPENDENT ASSESSOR | RADIOLOGIST 1 | 10 | SCREEN | 2010-01-01 |", "score": 0.4762, "match_basis": "verbatim_token+domain_route:TU"}, {"md_atom_id": "md_dmTU_ex_a034", "md_file": "knowledge_base/domains/TU/examples.md", "md_atom_type": "TABLE_ROW", "md_parent_section": "§TU.2 [Example 2]", "md_verbatim": "| 1 | ABC | TU | 44444 | 1 | | T01 | TUMIDENT | Tumor Identification | TARGET | TARGET | LIVER | | CT SCAN | INVESTIGATOR | 10 | SCREEN | 2010-01-01 | -3 |", "score": 0.4759, "match_basis": "verbatim_token+domain_route:TU"}], "candidate_count": 5, "zero_candidate": false}
{"pdf_atom_id": "ig34_p0346_a006", "pdf_atom_type": "TABLE_ROW", "pdf_source": "SDTMIG_v3.4", "pdf_page": 346, "pdf_parent_section": "TU – Specification", "pdf_verbatim": "| TUEVALID | Evaluator Identifier | Char | (MEDEVAL) | Variable Qualifier | Used to distinguish multiple evaluators with the same role recorded in ~EVAL. Examples: \"RADIOLOGIST1\", \"RADIOLOGIST2\". See assumption 9. | Perm |", "figure_ref": null, "candidates": [{"md_atom_id": "md_dmTU_ex_a064", "md_file": "knowledge_base/domains/TU/examples.md", "md_atom_type": "TABLE_ROW", "md_parent_section": "§TU.3 [Example 3]", "md_verbatim": "| 6 | ABC | TU | 55555 | 6 | R1-NEW01 | TUMIDENT | Tumor Identification | NEW | NEW | LUNG | | CT SCAN | ACE IMAGING | INDEPENDENT ASSESSOR | RADIOLOGIST 1 | 40 | WEEK 6 | 2010-02-20 |", "score": 0.4891, "match_basis": "verbatim_token+domain_route:TU"}, {"md_atom_id": "md_dmTU_ex_a060", "md_file": "knowledge_base/domains/TU/examples.md", "md_atom_type": "TABLE_ROW", "md_parent_section": "§TU.3 [Example 3]", "md_verbatim": "| 2 | ABC | TU | 55555 | 2 | R1-T02 | TUMIDENT | Tumor Identification | TARGET | TARGET | LIVER | | CT SCAN | ACE IMAGING | INDEPENDENT ASSESSOR | RADIOLOGIST 1 | 10 | SCREEN | 2010-01-01 |", "score": 0.4857, "match_basis": "verbatim_token+domain_route:TU"}, {"md_atom_id": "md_dmTU_ex_a065", "md_file": "knowledge_base/domains/TU/examples.md", "md_atom_type": "TABLE_ROW", "md_parent_section": "§TU.3 [Example 3]", "md_verbatim": "| 7 | ABC | TU | 55555 | 7 | R1-NEW02 | TUMIDENT | Tumor Identification | NEW | NEW | CEREBELLUM | LEFT | MRI | ACE IMAGING | INDEPENDENT ASSESSOR | RADIOLOGIST 1 | 60 | WEEK 12 | 2010-04-02 |", "score": 0.4844, "match_basis": "verbatim_token+domain_route:TU"}, {"md_atom_id": "md_dmTU_ex_a062", "md_file": "knowledge_base/domains/TU/examples.md", "md_atom_type": "TABLE_ROW", "md_parent_section": "§TU.3 [Example 3]", "md_verbatim": "| 4 | ABC | TU | 55555 | 4 | R1-NT01 | TUMIDENT | Tumor Identification | NON-TARGET | NON-TARGET | KIDNEY | RIGHT | CT SCAN | ACE IMAGING | INDEPENDENT ASSESSOR | RADIOLOGIST 1 | 10 | SCREEN | 2010-01-01 | ", "score": 0.482, "match_basis": "verbatim_token+domain_route:TU"}, {"md_atom_id": "md_dmTU_ex_a059", "md_file": "knowledge_base/domains/TU/examples.md", "md_atom_type": "TABLE_ROW", "md_parent_section": "§TU.3 [Example 3]", "md_verbatim": "| 1 | ABC | TU | 55555 | 1 | R1-T01 | TUMIDENT | Tumor Identification | TARGET | TARGET | CERVICAL LYMPH NODE | LEFT | MRI | ACE IMAGING | INDEPENDENT ASSESSOR | RADIOLOGIST 1 | 10 | SCREEN | 2010-01-02 |", "score": 0.4809, "match_basis": "verbatim_token+domain_route:TU"}], "candidate_count": 5, "zero_candidate": false}
{"pdf_atom_id": "ig34_p0346_a007", "pdf_atom_type": "TABLE_ROW", "pdf_source": "SDTMIG_v3.4", "pdf_page": 346, "pdf_parent_section": "TU – Specification", "pdf_verbatim": "| TUACPTFL | Accepted Record Flag | Char | (NY) | Record Qualifier | In cases where more than 1 independent assessor (e.g., \"RADIOLOGIST 1\", \"RADIOLOGIST 2\", \"ADJUDICATION COMMITTEE\") provide independent assessments at the same time point, this flag identifies the record that is considered to be the accepted assessment. | Perm |", "figure_ref": null, "candidates": [{"md_atom_id": "md_dmTU_ex_a064", "md_file": "knowledge_base/domains/TU/examples.md", "md_atom_type": "TABLE_ROW", "md_parent_section": "§TU.3 [Example 3]", "md_verbatim": "| 6 | ABC | TU | 55555 | 6 | R1-NEW01 | TUMIDENT | Tumor Identification | NEW | NEW | LUNG | | CT SCAN | ACE IMAGING | INDEPENDENT ASSESSOR | RADIOLOGIST 1 | 40 | WEEK 6 | 2010-02-20 |", "score": 0.5511, "match_basis": "verbatim_token+domain_route:TU"}, {"md_atom_id": "md_dmTU_ex_a065", "md_file": "knowledge_base/domains/TU/examples.md", "md_atom_type": "TABLE_ROW", "md_parent_section": "§TU.3 [Example 3]", "md_verbatim": "| 7 | ABC | TU | 55555 | 7 | R1-NEW02 | TUMIDENT | Tumor Identification | NEW | NEW | CEREBELLUM | LEFT | MRI | ACE IMAGING | INDEPENDENT ASSESSOR | RADIOLOGIST 1 | 60 | WEEK 12 | 2010-04-02 |", "score": 0.5489, "match_basis": "verbatim_token+domain_route:TU"}, {"md_atom_id": "md_dmTU_ex_a060", "md_file": "knowledge_base/domains/TU/examples.md", "md_atom_type": "TABLE_ROW", "md_parent_section": "§TU.3 [Example 3]", "md_verbatim": "| 2 | ABC | TU | 55555 | 2 | R1-T02 | TUMIDENT | Tumor Identification | TARGET | TARGET | LIVER | | CT SCAN | ACE IMAGING | INDEPENDENT ASSESSOR | RADIOLOGIST 1 | 10 | SCREEN | 2010-01-01 |", "score": 0.5456, "match_basis": "verbatim_token+domain_route:TU"}, {"md_atom_id": "md_dmTU_ex_a063", "md_file": "knowledge_base/domains/TU/examples.md", "md_atom_type": "TABLE_ROW", "md_parent_section": "§TU.3 [Example 3]", "md_verbatim": "| 5 | ABC | TU | 55555 | 5 | R1-NT02 | TUMIDENT | Tumor Identification | NON-TARGET | NON-TARGET | CEREBELLUM | LEFT | MRI | ACE IMAGING | INDEPENDENT ASSESSOR | RADIOLOGIST 1 | 10 | SCREEN | 2010-01-02 |", "score": 0.5427, "match_basis": "verbatim_token+domain_route:TU"}, {"md_atom_id": "md_dmTU_ex_a062", "md_file": "knowledge_base/domains/TU/examples.md", "md_atom_type": "TABLE_ROW", "md_parent_section": "§TU.3 [Example 3]", "md_verbatim": "| 4 | ABC | TU | 55555 | 4 | R1-NT01 | TUMIDENT | Tumor Identification | NON-TARGET | NON-TARGET | KIDNEY | RIGHT | CT SCAN | ACE IMAGING | INDEPENDENT ASSESSOR | RADIOLOGIST 1 | 10 | SCREEN | 2010-01-01 | ", "score": 0.5394, "match_basis": "verbatim_token+domain_route:TU"}], "candidate_count": 5, "zero_candidate": false}
{"pdf_atom_id": "ig34_p0346_a008", "pdf_atom_type": "TABLE_ROW", "pdf_source": "SDTMIG_v3.4", "pdf_page": 346, "pdf_parent_section": "TU – Specification", "pdf_verbatim": "| VISITNUM | Visit Number | Num | | Timing | Identifies the record that is considered to be the accepted assessment. | Exp |", "figure_ref": null, "candidates": [{"md_atom_id": "md_dmTU_ex_a065", "md_file": "knowledge_base/domains/TU/examples.md", "md_atom_type": "TABLE_ROW", "md_parent_section": "§TU.3 [Example 3]", "md_verbatim": "| 7 | ABC | TU | 55555 | 7 | R1-NEW02 | TUMIDENT | Tumor Identification | NEW | NEW | CEREBELLUM | LEFT | MRI | ACE IMAGING | INDEPENDENT ASSESSOR | RADIOLOGIST 1 | 60 | WEEK 12 | 2010-04-02 |", "score": 0.4713, "match_basis": "verbatim_token+domain_route:TU"}, {"md_atom_id": "md_dmTU_ex_a064", "md_file": "knowledge_base/domains/TU/examples.md", "md_atom_type": "TABLE_ROW", "md_parent_section": "§TU.3 [Example 3]", "md_verbatim": "| 6 | ABC | TU | 55555 | 6 | R1-NEW01 | TUMIDENT | Tumor Identification | NEW | NEW | LUNG | | CT SCAN | ACE IMAGING | INDEPENDENT ASSESSOR | RADIOLOGIST 1 | 40 | WEEK 6 | 2010-02-20 |", "score": 0.4695, "match_basis": "verbatim_token+domain_route:TU"}, {"md_atom_id": "md_dmTU_ex_a063", "md_file": "knowledge_base/domains/TU/examples.md", "md_atom_type": "TABLE_ROW", "md_parent_section": "§TU.3 [Example 3]", "md_verbatim": "| 5 | ABC | TU | 55555 | 5 | R1-NT02 | TUMIDENT | Tumor Identification | NON-TARGET | NON-TARGET | CEREBELLUM | LEFT | MRI | ACE IMAGING | INDEPENDENT ASSESSOR | RADIOLOGIST 1 | 10 | SCREEN | 2010-01-02 |", "score": 0.4673, "match_basis": "verbatim_token+domain_route:TU"}, {"md_atom_id": "md_dmTU_ex_a060", "md_file": "knowledge_base/domains/TU/examples.md", "md_atom_type": "TABLE_ROW", "md_parent_section": "§TU.3 [Example 3]", "md_verbatim": "| 2 | ABC | TU | 55555 | 2 | R1-T02 | TUMIDENT | Tumor Identification | TARGET | TARGET | LIVER | | CT SCAN | ACE IMAGING | INDEPENDENT ASSESSOR | RADIOLOGIST 1 | 10 | SCREEN | 2010-01-01 |", "score": 0.466, "match_basis": "verbatim_token+domain_route:TU"}, {"md_atom_id": "md_dmTU_ex_a062", "md_file": "knowledge_base/domains/TU/examples.md", "md_atom_type": "TABLE_ROW", "md_parent_section": "§TU.3 [Example 3]", "md_verbatim": "| 4 | ABC | TU | 55555 | 4 | R1-NT01 | TUMIDENT | Tumor Identification | NON-TARGET | NON-TARGET | KIDNEY | RIGHT | CT SCAN | ACE IMAGING | INDEPENDENT ASSESSOR | RADIOLOGIST 1 | 10 | SCREEN | 2010-01-01 | ", "score": 0.4623, "match_basis": "verbatim_token+domain_route:TU"}], "candidate_count": 5, "zero_candidate": false}
{"pdf_atom_id": "ig34_p0346_a009", "pdf_atom_type": "TABLE_ROW", "pdf_source": "SDTMIG_v3.4", "pdf_page": 346, "pdf_parent_section": "TU – Specification", "pdf_verbatim": "| VISIT | Visit Name | Char | | Timing | Clinical encounter number. Numeric version of VISIT, used for sorting. | Perm |", "figure_ref": null, "candidates": [{"md_atom_id": "md_dmTU_assn_a035", "md_file": "knowledge_base/domains/TU/assumptions.md", "md_atom_type": "TABLE_ROW", "md_parent_section": "§TU [TU — Assumptions]", "md_verbatim": "| L02 | TUMIDENT | Tumor Identification | LOCATION OF INTEREST | LIVER | CT SCAN |", "score": 0.4417, "match_basis": "verbatim_token+domain_route:TU"}, {"md_atom_id": "md_dmTU_assn_a055", "md_file": "knowledge_base/domains/TU/assumptions.md", "md_atom_type": "TABLE_ROW", "md_parent_section": "§TU [TU — Assumptions]", "md_verbatim": "| | METIND | Metastatic Tumor Site Indicator | Y | | LIVER | CT SCAN | BASELINE |", "score": 0.4405, "match_basis": "verbatim_token+domain_route:TU"}, {"md_atom_id": "md_dmTU_ex_a015", "md_file": "knowledge_base/domains/TU/examples.md", "md_atom_type": "TABLE_ROW", "md_parent_section": "§TU.1 [Example 1]", "md_verbatim": "| 2 | STUDY01 | TU | 40913 | 2 | L01-1 | VSIDENT | Vessel Lesion Identification | TARGET | TARGET | AORTO-ILIAC PERIPHERAL ARTERY | LEFT | ANGIOGRAPHY | INVESTIGATOR | 1 | SCREEN | 2007-02-01 |", "score": 0.4359, "match_basis": "verbatim_token+domain_route:TU"}, {"md_atom_id": "md_dmTU_assn_a073", "md_file": "knowledge_base/domains/TU/assumptions.md", "md_atom_type": "TABLE_ROW", "md_parent_section": "§TU [TU — Assumptions]", "md_verbatim": "| TUPREISP | Irradiated then Subsequent Progression | Indication of documented progression subsequent to irradiation |", "score": 0.4345, "match_basis": "verbatim_token+domain_route:TU"}, {"md_atom_id": "md_dmTU_assn_a037", "md_file": "knowledge_base/domains/TU/assumptions.md", "md_atom_type": "TABLE_ROW", "md_parent_section": "§TU [TU — Assumptions]", "md_verbatim": "| L04 | TUMIDENT | Tumor Identification | LOCATION OF INTEREST | BODY | PET SCAN |", "score": 0.4329, "match_basis": "verbatim_token+domain_route:TU"}], "candidate_count": 5, "zero_candidate": false}
