{"pdf_atom_id": "sv20_p0041_a004", "pdf_atom_type": "TABLE_ROW", "pdf_source": "SDTM_v2.0", "pdf_page": 41, "pdf_parent_section": "§3.2.1 [Demographics]", "pdf_verbatim": "10 | RFCENDTC | Date/Time of Last Challenge Agent Admin | Char | ISO 8601 datetime or interval | Record Qualifier | | | | | The end date or date and time of the last exposure to any protocol-specified challenge agent that induces the disease or condition that the investigational treatment is intended to cure, mitigate, treat, or prevent, represented in a standardized character format. Equal to the latest value of AGENDTC for the challenge agent. | ", "figure_ref": null, "candidates": [{"md_atom_id": "md_ch03_a033", "md_file": "knowledge_base/chapters/ch03_submitting_data.md", "md_atom_type": "TABLE_ROW", "md_parent_section": "§3.2.1 [Dataset-level Metadata]", "md_verbatim": "| EX | Exposure | Interventions | One record per protocol-specified study treatment, constant-dosing interval, per subject | Tabulation | STUDYID, USUBJID, EXTRT, EXSTDTC | ex.xpt |", "score": 0.4525, "match_basis": "verbatim_token+chapter_route:ch03"}, {"md_atom_id": "md_ch03_a032", "md_file": "knowledge_base/chapters/ch03_submitting_data.md", "md_atom_type": "TABLE_ROW", "md_parent_section": "§3.2.1 [Dataset-level Metadata]", "md_verbatim": "| EC | Exposure as Collected | Interventions | One record per protocol-specified study treatment, collected-dosing interval, per subject, per mood | Tabulation | STUDYID, USUBJID, ECTRT, ECSTDTC, ECMOOD | ec.xpt |", "score": 0.45, "match_basis": "verbatim_token+chapter_route:ch03"}, {"md_atom_id": "md_ch03_a061", "md_file": "knowledge_base/chapters/ch03_submitting_data.md", "md_atom_type": "TABLE_ROW", "md_parent_section": "§3.2.1 [Dataset-level Metadata]", "md_verbatim": "| PC | Pharmacokinetics Concentrations | Findings | One record per sample characteristic or time-point concentration per reference time point or per analyte per subject | Tabulation | STUDYID, USUBJID, PCTESTCD, VISITNUM, PCTPTREF, PCTPTNUM | pc.xpt |", "score": 0.3841, "match_basis": "verbatim_token+chapter_route:ch03"}, {"md_atom_id": "md_ch03_a067", "md_file": "knowledge_base/chapters/ch03_submitting_data.md", "md_atom_type": "TABLE_ROW", "md_parent_section": "§3.2.1 [Dataset-level Metadata]", "md_verbatim": "| RS | Disease Response and Clin Classification | Findings | One record per response assessment or clinical classification assessment per time point per visit per subject per assessor per medical evaluator | Tabulation | STUDYID, USUBJID, RSTESTCD, VISITNUM, RSTPTREF, RSEVAL, RSPTPNUM, RSEVALID | rs.xpt |", "score": 0.3814, "match_basis": "verbatim_token+chapter_route:ch03"}, {"md_atom_id": "md_ch03_a038", "md_file": "knowledge_base/chapters/ch03_submitting_data.md", "md_atom_type": "TABLE_ROW", "md_parent_section": "§3.2.1 [Dataset-level Metadata]", "md_verbatim": "| BE | Biospecimen Events | Events | One record per instance per biospecimen event per biospecimen identifier per subject | Tabulation | STUDYID, USUBJID, BEREFID, BETERM, BESTDTC | be.xpt |", "score": 0.3778, "match_basis": "verbatim_token+chapter_route:ch03"}], "candidate_count": 5, "zero_candidate": false}
{"pdf_atom_id": "sv20_p0041_a005", "pdf_atom_type": "TABLE_ROW", "pdf_source": "SDTM_v2.0", "pdf_page": 41, "pdf_parent_section": "§3.2.1 [Demographics]", "pdf_verbatim": "11 | RFICDTC | Date/Time of Informed Consent | Char | ISO 8601 datetime or interval | Record Qualifier | | Not in nonclinical trials | C117452 | The date or date and time of informed consent, represented in a standardized character format. | | ", "figure_ref": null, "candidates": [{"md_atom_id": "md_ch03_a067", "md_file": "knowledge_base/chapters/ch03_submitting_data.md", "md_atom_type": "TABLE_ROW", "md_parent_section": "§3.2.1 [Dataset-level Metadata]", "md_verbatim": "| RS | Disease Response and Clin Classification | Findings | One record per response assessment or clinical classification assessment per time point per visit per subject per assessor per medical evaluator | Tabulation | STUDYID, USUBJID, RSTESTCD, VISITNUM, RSTPTREF, RSEVAL, RSPTPNUM, RSEVALID | rs.xpt |", "score": 0.3798, "match_basis": "verbatim_token+chapter_route:ch03"}, {"md_atom_id": "md_ch03_a086", "md_file": "knowledge_base/chapters/ch03_submitting_data.md", "md_atom_type": "TABLE_ROW", "md_parent_section": "§3.2.1 [Dataset-level Metadata]", "md_verbatim": "| SUPP-- | Supplemental Qualifiers for [domain name] | Relationship | One record per supplemental qualifier per related parent domain record(s) | Tabulation | STUDYID, RDOMAIN, USUBJID, IDVAR, IDVARVAL, QNAM | supp--.xpt |", "score": 0.3788, "match_basis": "verbatim_token+chapter_route:ch03"}, {"md_atom_id": "md_ch03_a031", "md_file": "knowledge_base/chapters/ch03_submitting_data.md", "md_atom_type": "TABLE_ROW", "md_parent_section": "§3.2.1 [Dataset-level Metadata]", "md_verbatim": "| CM | Concomitant/Prior Medications | Interventions | One record per recorded intervention occurrence or constant-dosing interval per subject | Tabulation | STUDYID, USUBJID, CMTRT, CMSTDTC | cm.xpt |", "score": 0.3776, "match_basis": "verbatim_token+chapter_route:ch03"}, {"md_atom_id": "md_ch03_a033", "md_file": "knowledge_base/chapters/ch03_submitting_data.md", "md_atom_type": "TABLE_ROW", "md_parent_section": "§3.2.1 [Dataset-level Metadata]", "md_verbatim": "| EX | Exposure | Interventions | One record per protocol-specified study treatment, constant-dosing interval, per subject | Tabulation | STUDYID, USUBJID, EXTRT, EXSTDTC | ex.xpt |", "score": 0.3725, "match_basis": "verbatim_token+chapter_route:ch03"}, {"md_atom_id": "md_ch03_a034", "md_file": "knowledge_base/chapters/ch03_submitting_data.md", "md_atom_type": "TABLE_ROW", "md_parent_section": "§3.2.1 [Dataset-level Metadata]", "md_verbatim": "| ML | Meal Data | Interventions | One record per food product occurrence or constant intake interval per subject | Tabulation | STUDYID, USUBJID, MLTRT, MLSTDTC | ml.xpt |", "score": 0.3713, "match_basis": "verbatim_token+chapter_route:ch03"}], "candidate_count": 5, "zero_candidate": false}
{"pdf_atom_id": "sv20_p0041_a006", "pdf_atom_type": "TABLE_ROW", "pdf_source": "SDTM_v2.0", "pdf_page": 41, "pdf_parent_section": "§3.2.1 [Demographics]", "pdf_verbatim": "12 | RFPENDTC | Date/Time of End of Participation | Char | ISO 8601 datetime or interval | Record Qualifier | | Not in nonclinical trials | C117453 | The date or date and time of last contact with or information about a subject in a trial, represented in a standardized character format. | Should correspond to the last known date of contact. | ", "figure_ref": null, "candidates": [{"md_atom_id": "md_ch03_a067", "md_file": "knowledge_base/chapters/ch03_submitting_data.md", "md_atom_type": "TABLE_ROW", "md_parent_section": "§3.2.1 [Dataset-level Metadata]", "md_verbatim": "| RS | Disease Response and Clin Classification | Findings | One record per response assessment or clinical classification assessment per time point per visit per subject per assessor per medical evaluator | Tabulation | STUDYID, USUBJID, RSTESTCD, VISITNUM, RSTPTREF, RSEVAL, RSPTPNUM, RSEVALID | rs.xpt |", "score": 0.3925, "match_basis": "verbatim_token+chapter_route:ch03"}, {"md_atom_id": "md_ch03_a034", "md_file": "knowledge_base/chapters/ch03_submitting_data.md", "md_atom_type": "TABLE_ROW", "md_parent_section": "§3.2.1 [Dataset-level Metadata]", "md_verbatim": "| ML | Meal Data | Interventions | One record per food product occurrence or constant intake interval per subject | Tabulation | STUDYID, USUBJID, MLTRT, MLSTDTC | ml.xpt |", "score": 0.3918, "match_basis": "verbatim_token+chapter_route:ch03"}, {"md_atom_id": "md_ch03_a031", "md_file": "knowledge_base/chapters/ch03_submitting_data.md", "md_atom_type": "TABLE_ROW", "md_parent_section": "§3.2.1 [Dataset-level Metadata]", "md_verbatim": "| CM | Concomitant/Prior Medications | Interventions | One record per recorded intervention occurrence or constant-dosing interval per subject | Tabulation | STUDYID, USUBJID, CMTRT, CMSTDTC | cm.xpt |", "score": 0.3886, "match_basis": "verbatim_token+chapter_route:ch03"}, {"md_atom_id": "md_ch03_a086", "md_file": "knowledge_base/chapters/ch03_submitting_data.md", "md_atom_type": "TABLE_ROW", "md_parent_section": "§3.2.1 [Dataset-level Metadata]", "md_verbatim": "| SUPP-- | Supplemental Qualifiers for [domain name] | Relationship | One record per supplemental qualifier per related parent domain record(s) | Tabulation | STUDYID, RDOMAIN, USUBJID, IDVAR, IDVARVAL, QNAM | supp--.xpt |", "score": 0.3862, "match_basis": "verbatim_token+chapter_route:ch03"}, {"md_atom_id": "md_ch03_a061", "md_file": "knowledge_base/chapters/ch03_submitting_data.md", "md_atom_type": "TABLE_ROW", "md_parent_section": "§3.2.1 [Dataset-level Metadata]", "md_verbatim": "| PC | Pharmacokinetics Concentrations | Findings | One record per sample characteristic or time-point concentration per reference time point or per analyte per subject | Tabulation | STUDYID, USUBJID, PCTESTCD, VISITNUM, PCTPTREF, PCTPTNUM | pc.xpt |", "score": 0.3853, "match_basis": "verbatim_token+chapter_route:ch03"}], "candidate_count": 5, "zero_candidate": false}
{"pdf_atom_id": "sv20_p0041_a007", "pdf_atom_type": "TABLE_ROW", "pdf_source": "SDTM_v2.0", "pdf_page": 41, "pdf_parent_section": "§3.2.1 [Demographics]", "pdf_verbatim": "13 | DTHDTC | Date/Time of Death | Char | ISO 8601 datetime or interval | Record Qualifier | | Not in nonclinical trials | C117450 | The date or date and time of death, represented in a standardized character format. | Should represent the date/time that is captured in the clinical-trial database. | ", "figure_ref": null, "candidates": [{"md_atom_id": "md_ch03_a086", "md_file": "knowledge_base/chapters/ch03_submitting_data.md", "md_atom_type": "TABLE_ROW", "md_parent_section": "§3.2.1 [Dataset-level Metadata]", "md_verbatim": "| SUPP-- | Supplemental Qualifiers for [domain name] | Relationship | One record per supplemental qualifier per related parent domain record(s) | Tabulation | STUDYID, RDOMAIN, USUBJID, IDVAR, IDVARVAL, QNAM | supp--.xpt |", "score": 0.3725, "match_basis": "verbatim_token+chapter_route:ch03"}, {"md_atom_id": "md_ch03_a033", "md_file": "knowledge_base/chapters/ch03_submitting_data.md", "md_atom_type": "TABLE_ROW", "md_parent_section": "§3.2.1 [Dataset-level Metadata]", "md_verbatim": "| EX | Exposure | Interventions | One record per protocol-specified study treatment, constant-dosing interval, per subject | Tabulation | STUDYID, USUBJID, EXTRT, EXSTDTC | ex.xpt |", "score": 0.3712, "match_basis": "verbatim_token+chapter_route:ch03"}, {"md_atom_id": "md_ch03_a032", "md_file": "knowledge_base/chapters/ch03_submitting_data.md", "md_atom_type": "TABLE_ROW", "md_parent_section": "§3.2.1 [Dataset-level Metadata]", "md_verbatim": "| EC | Exposure as Collected | Interventions | One record per protocol-specified study treatment, collected-dosing interval, per subject, per mood | Tabulation | STUDYID, USUBJID, ECTRT, ECSTDTC, ECMOOD | ec.xpt |", "score": 0.3699, "match_basis": "verbatim_token+chapter_route:ch03"}, {"md_atom_id": "md_ch03_a067", "md_file": "knowledge_base/chapters/ch03_submitting_data.md", "md_atom_type": "TABLE_ROW", "md_parent_section": "§3.2.1 [Dataset-level Metadata]", "md_verbatim": "| RS | Disease Response and Clin Classification | Findings | One record per response assessment or clinical classification assessment per time point per visit per subject per assessor per medical evaluator | Tabulation | STUDYID, USUBJID, RSTESTCD, VISITNUM, RSTPTREF, RSEVAL, RSPTPNUM, RSEVALID | rs.xpt |", "score": 0.3674, "match_basis": "verbatim_token+chapter_route:ch03"}, {"md_atom_id": "md_ch03_a034", "md_file": "knowledge_base/chapters/ch03_submitting_data.md", "md_atom_type": "TABLE_ROW", "md_parent_section": "§3.2.1 [Dataset-level Metadata]", "md_verbatim": "| ML | Meal Data | Interventions | One record per food product occurrence or constant intake interval per subject | Tabulation | STUDYID, USUBJID, MLTRT, MLSTDTC | ml.xpt |", "score": 0.3658, "match_basis": "verbatim_token+chapter_route:ch03"}], "candidate_count": 5, "zero_candidate": false}
{"pdf_atom_id": "sv20_p0042_a001", "pdf_atom_type": "TABLE_ROW", "pdf_source": "SDTM_v2.0", "pdf_page": 42, "pdf_parent_section": "§3.2.1 [Demographics]", "pdf_verbatim": "14 | DTHFL | Subject Death Flag | Char | | Record Qualifier | | Not in nonclinical trials | C117451 | An indication that the subject died. | A value of \"Y\" indicates the subject died. Should be \"Y\" or null. Should be populated even when the death date is unknown. | ", "figure_ref": null, "candidates": [{"md_atom_id": "md_ch03_a039", "md_file": "knowledge_base/chapters/ch03_submitting_data.md", "md_atom_type": "TABLE_ROW", "md_parent_section": "§3.2.1 [Dataset-level Metadata]", "md_verbatim": "| CE | Clinical Events | Events | One record per event per subject | Tabulation | STUDYID, USUBJID, CETERM, CESTDTC | ce.xpt |", "score": 0.4211, "match_basis": "verbatim_token+chapter_route:ch03"}, {"md_atom_id": "md_ch03_a071", "md_file": "knowledge_base/chapters/ch03_submitting_data.md", "md_atom_type": "TABLE_ROW", "md_parent_section": "§3.2.1 [Dataset-level Metadata]", "md_verbatim": "| TU | Tumor/Lesion Identification | Findings | One record per identified tumor per subject per assessor | Tabulation | STUDYID, USUBJID, TUEVALID, TULNKID | tu.xpt |", "score": 0.407, "match_basis": "verbatim_token+chapter_route:ch03"}, {"md_atom_id": "md_ch03_a067", "md_file": "knowledge_base/chapters/ch03_submitting_data.md", "md_atom_type": "TABLE_ROW", "md_parent_section": "§3.2.1 [Dataset-level Metadata]", "md_verbatim": "| RS | Disease Response and Clin Classification | Findings | One record per response assessment or clinical classification assessment per time point per visit per subject per assessor per medical evaluator | Tabulation | STUDYID, USUBJID, RSTESTCD, VISITNUM, RSTPTREF, RSEVAL, RSPTPNUM, RSEVALID | rs.xpt |", "score": 0.4055, "match_basis": "verbatim_token+chapter_route:ch03"}, {"md_atom_id": "md_ch03_a048", "md_file": "knowledge_base/chapters/ch03_submitting_data.md", "md_atom_type": "TABLE_ROW", "md_parent_section": "§3.2.1 [Dataset-level Metadata]", "md_verbatim": "| DD | Death Details | Findings | One record per finding per subject | Tabulation | STUDYID, USUBJID, DDTESTCD, DDDTC | dd.xpt |", "score": 0.4053, "match_basis": "verbatim_token+chapter_route:ch03"}, {"md_atom_id": "md_ch03_a043", "md_file": "knowledge_base/chapters/ch03_submitting_data.md", "md_atom_type": "TABLE_ROW", "md_parent_section": "§3.2.1 [Dataset-level Metadata]", "md_verbatim": "| MH | Medical History | Events | One record per medical history event per subject | Tabulation | STUDYID, USUBJID, MHDECOD | mh.xpt |", "score": 0.4027, "match_basis": "verbatim_token+chapter_route:ch03"}], "candidate_count": 5, "zero_candidate": false}
{"pdf_atom_id": "sv20_p0042_a002", "pdf_atom_type": "TABLE_ROW", "pdf_source": "SDTM_v2.0", "pdf_page": 42, "pdf_parent_section": "§3.2.1 [Demographics]", "pdf_verbatim": "15 | SITEID | Study Site Identifier | Char | | Record Qualifier | | | C83081 | A sequence of characters used to uniquely identify the facility associated with study-specific activities. | | ", "figure_ref": null, "candidates": [{"md_atom_id": "md_ch03_a084", "md_file": "knowledge_base/chapters/ch03_submitting_data.md", "md_atom_type": "TABLE_ROW", "md_parent_section": "§3.2.1 [Dataset-level Metadata]", "md_verbatim": "| RELSPEC | Related Specimens | Relationship | One record per specimen identifier per subject | Tabulation | STUDYID, USUBJID, REFID | relspec.xpt |", "score": 0.4053, "match_basis": "verbatim_token+chapter_route:ch03"}, {"md_atom_id": "md_ch03_a087", "md_file": "knowledge_base/chapters/ch03_submitting_data.md", "md_atom_type": "TABLE_ROW", "md_parent_section": "§3.2.1 [Dataset-level Metadata]", "md_verbatim": "| OI | Non-host Organism Identifiers | Study Reference | One record per taxon per non-host organism | Tabulation | NHOID, OISEQ | oi.xpt |", "score": 0.4027, "match_basis": "verbatim_token+chapter_route:ch03"}, {"md_atom_id": "md_ch03_a038", "md_file": "knowledge_base/chapters/ch03_submitting_data.md", "md_atom_type": "TABLE_ROW", "md_parent_section": "§3.2.1 [Dataset-level Metadata]", "md_verbatim": "| BE | Biospecimen Events | Events | One record per instance per biospecimen event per biospecimen identifier per subject | Tabulation | STUDYID, USUBJID, BEREFID, BETERM, BESTDTC | be.xpt |", "score": 0.3952, "match_basis": "verbatim_token+chapter_route:ch03"}, {"md_atom_id": "md_ch03_a071", "md_file": "knowledge_base/chapters/ch03_submitting_data.md", "md_atom_type": "TABLE_ROW", "md_parent_section": "§3.2.1 [Dataset-level Metadata]", "md_verbatim": "| TU | Tumor/Lesion Identification | Findings | One record per identified tumor per subject per assessor | Tabulation | STUDYID, USUBJID, TUEVALID, TULNKID | tu.xpt |", "score": 0.3844, "match_basis": "verbatim_token+chapter_route:ch03"}, {"md_atom_id": "md_ch03_a044", "md_file": "knowledge_base/chapters/ch03_submitting_data.md", "md_atom_type": "TABLE_ROW", "md_parent_section": "§3.2.1 [Dataset-level Metadata]", "md_verbatim": "| BS | Biospecimen Findings | Findings | One record per measurement per biospecimen identifier per subject | Tabulation | STUDYID, USUBJID, BSREFID, BSTESTCD | bs.xpt |", "score": 0.3837, "match_basis": "verbatim_token+chapter_route:ch03"}], "candidate_count": 5, "zero_candidate": false}
{"pdf_atom_id": "sv20_p0042_a003", "pdf_atom_type": "TABLE_ROW", "pdf_source": "SDTM_v2.0", "pdf_page": 42, "pdf_parent_section": "§3.2.1 [Demographics]", "pdf_verbatim": "16 | INVID | Investigator Identifier | Char | | Record Qualifier | | Not in nonclinical trials | | | An identifier to describe the Investigator for the study. May be used in addition to the SITEID. Not needed if SITEID is equivalent to INVID. | ", "figure_ref": null, "candidates": [{"md_atom_id": "md_ch03_a087", "md_file": "knowledge_base/chapters/ch03_submitting_data.md", "md_atom_type": "TABLE_ROW", "md_parent_section": "§3.2.1 [Dataset-level Metadata]", "md_verbatim": "| OI | Non-host Organism Identifiers | Study Reference | One record per taxon per non-host organism | Tabulation | NHOID, OISEQ | oi.xpt |", "score": 0.3956, "match_basis": "verbatim_token+chapter_route:ch03"}, {"md_atom_id": "md_ch03_a039", "md_file": "knowledge_base/chapters/ch03_submitting_data.md", "md_atom_type": "TABLE_ROW", "md_parent_section": "§3.2.1 [Dataset-level Metadata]", "md_verbatim": "| CE | Clinical Events | Events | One record per event per subject | Tabulation | STUDYID, USUBJID, CETERM, CESTDTC | ce.xpt |", "score": 0.3936, "match_basis": "verbatim_token+chapter_route:ch03"}, {"md_atom_id": "md_ch03_a079", "md_file": "knowledge_base/chapters/ch03_submitting_data.md", "md_atom_type": "TABLE_ROW", "md_parent_section": "§3.2.1 [Dataset-level Metadata]", "md_verbatim": "| TI | Trial Inclusion/Exclusion Criteria | Trial Design | One record per I/E criterion | Tabulation | STUDYID, IETESTCD | ti.xpt |", "score": 0.3936, "match_basis": "verbatim_token+chapter_route:ch03"}, {"md_atom_id": "md_ch03_a071", "md_file": "knowledge_base/chapters/ch03_submitting_data.md", "md_atom_type": "TABLE_ROW", "md_parent_section": "§3.2.1 [Dataset-level Metadata]", "md_verbatim": "| TU | Tumor/Lesion Identification | Findings | One record per identified tumor per subject per assessor | Tabulation | STUDYID, USUBJID, TUEVALID, TULNKID | tu.xpt |", "score": 0.3891, "match_basis": "verbatim_token+chapter_route:ch03"}, {"md_atom_id": "md_ch03_a086", "md_file": "knowledge_base/chapters/ch03_submitting_data.md", "md_atom_type": "TABLE_ROW", "md_parent_section": "§3.2.1 [Dataset-level Metadata]", "md_verbatim": "| SUPP-- | Supplemental Qualifiers for [domain name] | Relationship | One record per supplemental qualifier per related parent domain record(s) | Tabulation | STUDYID, RDOMAIN, USUBJID, IDVAR, IDVARVAL, QNAM | supp--.xpt |", "score": 0.3884, "match_basis": "verbatim_token+chapter_route:ch03"}], "candidate_count": 5, "zero_candidate": false}
{"pdf_atom_id": "sv20_p0042_a004", "pdf_atom_type": "TABLE_ROW", "pdf_source": "SDTM_v2.0", "pdf_page": 42, "pdf_parent_section": "§3.2.1 [Demographics]", "pdf_verbatim": "17 | INVNAM | Investigator Name | Char | | Synonym Qualifier | INVID | Not in nonclinical trials | | | Name of the investigator for a site. | ", "figure_ref": null, "candidates": [{"md_atom_id": "md_ch03_a086", "md_file": "knowledge_base/chapters/ch03_submitting_data.md", "md_atom_type": "TABLE_ROW", "md_parent_section": "§3.2.1 [Dataset-level Metadata]", "md_verbatim": "| SUPP-- | Supplemental Qualifiers for [domain name] | Relationship | One record per supplemental qualifier per related parent domain record(s) | Tabulation | STUDYID, RDOMAIN, USUBJID, IDVAR, IDVARVAL, QNAM | supp--.xpt |", "score": 0.3566, "match_basis": "verbatim_token+chapter_route:ch03"}, {"md_atom_id": "md_ch03_a067", "md_file": "knowledge_base/chapters/ch03_submitting_data.md", "md_atom_type": "TABLE_ROW", "md_parent_section": "§3.2.1 [Dataset-level Metadata]", "md_verbatim": "| RS | Disease Response and Clin Classification | Findings | One record per response assessment or clinical classification assessment per time point per visit per subject per assessor per medical evaluator | Tabulation | STUDYID, USUBJID, RSTESTCD, VISITNUM, RSTPTREF, RSEVAL, RSPTPNUM, RSEVALID | rs.xpt |", "score": 0.3497, "match_basis": "verbatim_token+chapter_route:ch03"}, {"md_atom_id": "md_ch03_a039", "md_file": "knowledge_base/chapters/ch03_submitting_data.md", "md_atom_type": "TABLE_ROW", "md_parent_section": "§3.2.1 [Dataset-level Metadata]", "md_verbatim": "| CE | Clinical Events | Events | One record per event per subject | Tabulation | STUDYID, USUBJID, CETERM, CESTDTC | ce.xpt |", "score": 0.3483, "match_basis": "verbatim_token+chapter_route:ch03"}, {"md_atom_id": "md_ch03_a079", "md_file": "knowledge_base/chapters/ch03_submitting_data.md", "md_atom_type": "TABLE_ROW", "md_parent_section": "§3.2.1 [Dataset-level Metadata]", "md_verbatim": "| TI | Trial Inclusion/Exclusion Criteria | Trial Design | One record per I/E criterion | Tabulation | STUDYID, IETESTCD | ti.xpt |", "score": 0.3409, "match_basis": "verbatim_token+chapter_route:ch03"}, {"md_atom_id": "md_ch03_a052", "md_file": "knowledge_base/chapters/ch03_submitting_data.md", "md_atom_type": "TABLE_ROW", "md_parent_section": "§3.2.1 [Dataset-level Metadata]", "md_verbatim": "| IE | Inclusion/Exclusion Criteria Not Met | Findings | One record per inclusion/exclusion criterion not met per subject | Tabulation | STUDYID, USUBJID, IETESTCD | ie.xpt |", "score": 0.3303, "match_basis": "verbatim_token+chapter_route:ch03"}], "candidate_count": 5, "zero_candidate": false}
{"pdf_atom_id": "sv20_p0042_a005", "pdf_atom_type": "TABLE_ROW", "pdf_source": "SDTM_v2.0", "pdf_page": 42, "pdf_parent_section": "§3.2.1 [Demographics]", "pdf_verbatim": "18 | BRTHDTC | Date/Time of Birth | Char | ISO 8601 datetime or interval | Record Qualifier | | | C83217 | The date or date and time of birth, represented in a standardized character format. | | ", "figure_ref": null, "candidates": [{"md_atom_id": "md_ch03_a086", "md_file": "knowledge_base/chapters/ch03_submitting_data.md", "md_atom_type": "TABLE_ROW", "md_parent_section": "§3.2.1 [Dataset-level Metadata]", "md_verbatim": "| SUPP-- | Supplemental Qualifiers for [domain name] | Relationship | One record per supplemental qualifier per related parent domain record(s) | Tabulation | STUDYID, RDOMAIN, USUBJID, IDVAR, IDVARVAL, QNAM | supp--.xpt |", "score": 0.3864, "match_basis": "verbatim_token+chapter_route:ch03"}, {"md_atom_id": "md_ch03_a033", "md_file": "knowledge_base/chapters/ch03_submitting_data.md", "md_atom_type": "TABLE_ROW", "md_parent_section": "§3.2.1 [Dataset-level Metadata]", "md_verbatim": "| EX | Exposure | Interventions | One record per protocol-specified study treatment, constant-dosing interval, per subject | Tabulation | STUDYID, USUBJID, EXTRT, EXSTDTC | ex.xpt |", "score": 0.3733, "match_basis": "verbatim_token+chapter_route:ch03"}, {"md_atom_id": "md_ch03_a034", "md_file": "knowledge_base/chapters/ch03_submitting_data.md", "md_atom_type": "TABLE_ROW", "md_parent_section": "§3.2.1 [Dataset-level Metadata]", "md_verbatim": "| ML | Meal Data | Interventions | One record per food product occurrence or constant intake interval per subject | Tabulation | STUDYID, USUBJID, MLTRT, MLSTDTC | ml.xpt |", "score": 0.372, "match_basis": "verbatim_token+chapter_route:ch03"}, {"md_atom_id": "md_ch03_a032", "md_file": "knowledge_base/chapters/ch03_submitting_data.md", "md_atom_type": "TABLE_ROW", "md_parent_section": "§3.2.1 [Dataset-level Metadata]", "md_verbatim": "| EC | Exposure as Collected | Interventions | One record per protocol-specified study treatment, collected-dosing interval, per subject, per mood | Tabulation | STUDYID, USUBJID, ECTRT, ECSTDTC, ECMOOD | ec.xpt |", "score": 0.3716, "match_basis": "verbatim_token+chapter_route:ch03"}, {"md_atom_id": "md_ch03_a036", "md_file": "knowledge_base/chapters/ch03_submitting_data.md", "md_atom_type": "TABLE_ROW", "md_parent_section": "§3.2.1 [Dataset-level Metadata]", "md_verbatim": "| SU | Substance Use | Interventions | One record per substance type per reported occurrence per subject | Tabulation | STUDYID, USUBJID, SUTRT, SUSTDTC | su.xpt |", "score": 0.3706, "match_basis": "verbatim_token+chapter_route:ch03"}], "candidate_count": 5, "zero_candidate": false}
{"pdf_atom_id": "sv20_p0042_a006", "pdf_atom_type": "TABLE_ROW", "pdf_source": "SDTM_v2.0", "pdf_page": 42, "pdf_parent_section": "§3.2.1 [Demographics]", "pdf_verbatim": "19 | AGE | Age | Num | | Record Qualifier | | | C170981 | A numeric representation of the elapsed time since birth at a specific point in time defined for the trial, used for study data tabulation. | May be derived as (RFSTDTC-BRTHDTC), but BRTHDTC may not be available in all cases (due to subject privacy concerns). | ", "figure_ref": null, "candidates": [{"md_atom_id": "md_ch03_a038", "md_file": "knowledge_base/chapters/ch03_submitting_data.md", "md_atom_type": "TABLE_ROW", "md_parent_section": "§3.2.1 [Dataset-level Metadata]", "md_verbatim": "| BE | Biospecimen Events | Events | One record per instance per biospecimen event per biospecimen identifier per subject | Tabulation | STUDYID, USUBJID, BEREFID, BETERM, BESTDTC | be.xpt |", "score": 0.4303, "match_basis": "verbatim_token+chapter_route:ch03"}, {"md_atom_id": "md_ch03_a027", "md_file": "knowledge_base/chapters/ch03_submitting_data.md", "md_atom_type": "TABLE_ROW", "md_parent_section": "§3.2.1 [Dataset-level Metadata]", "md_verbatim": "| SE | Subject Elements | Special Purpose | One record per actual Element per subject | Tabulation | STUDYID, USUBJID, ETCD, SESTDTC | se.xpt |", "score": 0.4268, "match_basis": "verbatim_token+chapter_route:ch03"}, {"md_atom_id": "md_ch03_a084", "md_file": "knowledge_base/chapters/ch03_submitting_data.md", "md_atom_type": "TABLE_ROW", "md_parent_section": "§3.2.1 [Dataset-level Metadata]", "md_verbatim": "| RELSPEC | Related Specimens | Relationship | One record per specimen identifier per subject | Tabulation | STUDYID, USUBJID, REFID | relspec.xpt |", "score": 0.4259, "match_basis": "verbatim_token+chapter_route:ch03"}, {"md_atom_id": "md_ch03_a033", "md_file": "knowledge_base/chapters/ch03_submitting_data.md", "md_atom_type": "TABLE_ROW", "md_parent_section": "§3.2.1 [Dataset-level Metadata]", "md_verbatim": "| EX | Exposure | Interventions | One record per protocol-specified study treatment, constant-dosing interval, per subject | Tabulation | STUDYID, USUBJID, EXTRT, EXSTDTC | ex.xpt |", "score": 0.42, "match_basis": "verbatim_token+chapter_route:ch03"}, {"md_atom_id": "md_ch03_a066", "md_file": "knowledge_base/chapters/ch03_submitting_data.md", "md_atom_type": "TABLE_ROW", "md_parent_section": "§3.2.1 [Dataset-level Metadata]", "md_verbatim": "| RP | Reproductive System Findings | Findings | One record per finding or result per time point per visit per subject | Tabulation | STUDYID, DOMAIN, USUBJID, RPTESTCD, VISITNUM | rp.xpt |", "score": 0.417, "match_basis": "verbatim_token+chapter_route:ch03"}], "candidate_count": 5, "zero_candidate": false}
{"pdf_atom_id": "sv20_p0042_a007", "pdf_atom_type": "TABLE_ROW", "pdf_source": "SDTM_v2.0", "pdf_page": 42, "pdf_parent_section": "§3.2.1 [Demographics]", "pdf_verbatim": "20 | AGETXT | Age Text | Char | number-number | Record Qualifier | | | C170982 | The age at a specific point in time defined for the trial, expressed as a range. | The age of the subject at study start, as planned, expressed as a range. If an age integer value is available, then populate the age variable instead. Either the AGE or AGETXT variable should be populated, but not both. | ", "figure_ref": null, "candidates": [{"md_atom_id": "md_ch03_a038", "md_file": "knowledge_base/chapters/ch03_submitting_data.md", "md_atom_type": "TABLE_ROW", "md_parent_section": "§3.2.1 [Dataset-level Metadata]", "md_verbatim": "| BE | Biospecimen Events | Events | One record per instance per biospecimen event per biospecimen identifier per subject | Tabulation | STUDYID, USUBJID, BEREFID, BETERM, BESTDTC | be.xpt |", "score": 0.4, "match_basis": "verbatim_token+chapter_route:ch03"}, {"md_atom_id": "md_ch03_a029", "md_file": "knowledge_base/chapters/ch03_submitting_data.md", "md_atom_type": "TABLE_ROW", "md_parent_section": "§3.2.1 [Dataset-level Metadata]", "md_verbatim": "| SV | Subject Visits | Special Purpose | One record per actual or planned visit per subject | Tabulation | STUDYID, USUBJID, SVTERM | sv.xpt |", "score": 0.3993, "match_basis": "verbatim_token+chapter_route:ch03"}, {"md_atom_id": "md_ch03_a084", "md_file": "knowledge_base/chapters/ch03_submitting_data.md", "md_atom_type": "TABLE_ROW", "md_parent_section": "§3.2.1 [Dataset-level Metadata]", "md_verbatim": "| RELSPEC | Related Specimens | Relationship | One record per specimen identifier per subject | Tabulation | STUDYID, USUBJID, REFID | relspec.xpt |", "score": 0.3986, "match_basis": "verbatim_token+chapter_route:ch03"}, {"md_atom_id": "md_ch03_a033", "md_file": "knowledge_base/chapters/ch03_submitting_data.md", "md_atom_type": "TABLE_ROW", "md_parent_section": "§3.2.1 [Dataset-level Metadata]", "md_verbatim": "| EX | Exposure | Interventions | One record per protocol-specified study treatment, constant-dosing interval, per subject | Tabulation | STUDYID, USUBJID, EXTRT, EXSTDTC | ex.xpt |", "score": 0.3964, "match_basis": "verbatim_token+chapter_route:ch03"}, {"md_atom_id": "md_ch03_a045", "md_file": "knowledge_base/chapters/ch03_submitting_data.md", "md_atom_type": "TABLE_ROW", "md_parent_section": "§3.2.1 [Dataset-level Metadata]", "md_verbatim": "| CP | Cell Phenotype Findings | Findings | One record per test per specimen per timepoint per visit per subject | Tabulation | STUDYID, USUBJID, CPTESTCD, CPSPEC, VISITNUM, CPTPTREF, CPTPTNUM | cp.xpt |", "score": 0.3957, "match_basis": "verbatim_token+chapter_route:ch03"}], "candidate_count": 5, "zero_candidate": false}
{"pdf_atom_id": "sv20_p0042_a008", "pdf_atom_type": "TABLE_ROW", "pdf_source": "SDTM_v2.0", "pdf_page": 42, "pdf_parent_section": "§3.2.1 [Demographics]", "pdf_verbatim": "21 | AGEU | Age Units | Char | | Variable Qualifier | AGE; AGETXT | | C50400 | The unit of time used to express the age, using standardized values. | | ", "figure_ref": null, "candidates": [{"md_atom_id": "md_ch03_a086", "md_file": "knowledge_base/chapters/ch03_submitting_data.md", "md_atom_type": "TABLE_ROW", "md_parent_section": "§3.2.1 [Dataset-level Metadata]", "md_verbatim": "| SUPP-- | Supplemental Qualifiers for [domain name] | Relationship | One record per supplemental qualifier per related parent domain record(s) | Tabulation | STUDYID, RDOMAIN, USUBJID, IDVAR, IDVARVAL, QNAM | supp--.xpt |", "score": 0.3474, "match_basis": "verbatim_token+chapter_route:ch03"}, {"md_atom_id": "md_ch03_a067", "md_file": "knowledge_base/chapters/ch03_submitting_data.md", "md_atom_type": "TABLE_ROW", "md_parent_section": "§3.2.1 [Dataset-level Metadata]", "md_verbatim": "| RS | Disease Response and Clin Classification | Findings | One record per response assessment or clinical classification assessment per time point per visit per subject per assessor per medical evaluator | Tabulation | STUDYID, USUBJID, RSTESTCD, VISITNUM, RSTPTREF, RSEVAL, RSPTPNUM, RSEVALID | rs.xpt |", "score": 0.339, "match_basis": "verbatim_token+chapter_route:ch03"}, {"md_atom_id": "md_ch03_a033", "md_file": "knowledge_base/chapters/ch03_submitting_data.md", "md_atom_type": "TABLE_ROW", "md_parent_section": "§3.2.1 [Dataset-level Metadata]", "md_verbatim": "| EX | Exposure | Interventions | One record per protocol-specified study treatment, constant-dosing interval, per subject | Tabulation | STUDYID, USUBJID, EXTRT, EXSTDTC | ex.xpt |", "score": 0.3378, "match_basis": "verbatim_token+chapter_route:ch03"}, {"md_atom_id": "md_ch03_a038", "md_file": "knowledge_base/chapters/ch03_submitting_data.md", "md_atom_type": "TABLE_ROW", "md_parent_section": "§3.2.1 [Dataset-level Metadata]", "md_verbatim": "| BE | Biospecimen Events | Events | One record per instance per biospecimen event per biospecimen identifier per subject | Tabulation | STUDYID, USUBJID, BEREFID, BETERM, BESTDTC | be.xpt |", "score": 0.331, "match_basis": "verbatim_token+chapter_route:ch03"}, {"md_atom_id": "md_ch03_a071", "md_file": "knowledge_base/chapters/ch03_submitting_data.md", "md_atom_type": "TABLE_ROW", "md_parent_section": "§3.2.1 [Dataset-level Metadata]", "md_verbatim": "| TU | Tumor/Lesion Identification | Findings | One record per identified tumor per subject per assessor | Tabulation | STUDYID, USUBJID, TUEVALID, TULNKID | tu.xpt |", "score": 0.331, "match_basis": "verbatim_token+chapter_route:ch03"}], "candidate_count": 5, "zero_candidate": false}
{"pdf_atom_id": "sv20_p0042_a009", "pdf_atom_type": "TABLE_ROW", "pdf_source": "SDTM_v2.0", "pdf_page": 42, "pdf_parent_section": "§3.2.1 [Demographics]", "pdf_verbatim": "22 | SEX | Sex | Char | | Record Qualifier | | | | | | Sex of the subject.", "figure_ref": null, "candidates": [{"md_atom_id": "md_ch03_a084", "md_file": "knowledge_base/chapters/ch03_submitting_data.md", "md_atom_type": "TABLE_ROW", "md_parent_section": "§3.2.1 [Dataset-level Metadata]", "md_verbatim": "| RELSPEC | Related Specimens | Relationship | One record per specimen identifier per subject | Tabulation | STUDYID, USUBJID, REFID | relspec.xpt |", "score": 0.4125, "match_basis": "verbatim_token+chapter_route:ch03"}, {"md_atom_id": "md_ch03_a085", "md_file": "knowledge_base/chapters/ch03_submitting_data.md", "md_atom_type": "TABLE_ROW", "md_parent_section": "§3.2.1 [Dataset-level Metadata]", "md_verbatim": "| RELSUB | Related Subjects | Relationship | One record per relationship per related subject per subject | Tabulation | STUDYID, USUBJID, RSUBJID, SREL | relsub.xpt |", "score": 0.4038, "match_basis": "verbatim_token+chapter_route:ch03"}, {"md_atom_id": "md_ch03_a086", "md_file": "knowledge_base/chapters/ch03_submitting_data.md", "md_atom_type": "TABLE_ROW", "md_parent_section": "§3.2.1 [Dataset-level Metadata]", "md_verbatim": "| SUPP-- | Supplemental Qualifiers for [domain name] | Relationship | One record per supplemental qualifier per related parent domain record(s) | Tabulation | STUDYID, RDOMAIN, USUBJID, IDVAR, IDVARVAL, QNAM | supp--.xpt |", "score": 0.4026, "match_basis": "verbatim_token+chapter_route:ch03"}, {"md_atom_id": "md_ch03_a068", "md_file": "knowledge_base/chapters/ch03_submitting_data.md", "md_atom_type": "TABLE_ROW", "md_parent_section": "§3.2.1 [Dataset-level Metadata]", "md_verbatim": "| SC | Subject Characteristics | Findings | One record per characteristic per visit per subject. | Tabulation | STUDYID, USUBJID, SCTESTCD, VISITNUM | sc.xpt |", "score": 0.3985, "match_basis": "verbatim_token+chapter_route:ch03"}, {"md_atom_id": "md_ch03_a037", "md_file": "knowledge_base/chapters/ch03_submitting_data.md", "md_atom_type": "TABLE_ROW", "md_parent_section": "§3.2.1 [Dataset-level Metadata]", "md_verbatim": "| AE | Adverse Events | Events | One record per adverse event per subject | Tabulation | STUDYID, USUBJID, AEDECOD, AESTDTC | ae.xpt |", "score": 0.3947, "match_basis": "verbatim_token+chapter_route:ch03"}], "candidate_count": 5, "zero_candidate": false}
{"pdf_atom_id": "sv20_p0042_a010", "pdf_atom_type": "TABLE_ROW", "pdf_source": "SDTM_v2.0", "pdf_page": 42, "pdf_parent_section": "§3.2.1 [Demographics]", "pdf_verbatim": "23 | RACE | Race | Char | | Record Qualifier | | Not in nonclinical trials | | | | Race of the subject. Sponsors should refer to FDA guidance regarding the collection of race data.", "figure_ref": null, "candidates": [{"md_atom_id": "md_ch03_a039", "md_file": "knowledge_base/chapters/ch03_submitting_data.md", "md_atom_type": "TABLE_ROW", "md_parent_section": "§3.2.1 [Dataset-level Metadata]", "md_verbatim": "| CE | Clinical Events | Events | One record per event per subject | Tabulation | STUDYID, USUBJID, CETERM, CESTDTC | ce.xpt |", "score": 0.401, "match_basis": "verbatim_token+chapter_route:ch03"}, {"md_atom_id": "md_ch03_a067", "md_file": "knowledge_base/chapters/ch03_submitting_data.md", "md_atom_type": "TABLE_ROW", "md_parent_section": "§3.2.1 [Dataset-level Metadata]", "md_verbatim": "| RS | Disease Response and Clin Classification | Findings | One record per response assessment or clinical classification assessment per time point per visit per subject per assessor per medical evaluator | Tabulation | STUDYID, USUBJID, RSTESTCD, VISITNUM, RSTPTREF, RSEVAL, RSPTPNUM, RSEVALID | rs.xpt |", "score": 0.4006, "match_basis": "verbatim_token+chapter_route:ch03"}, {"md_atom_id": "md_ch03_a071", "md_file": "knowledge_base/chapters/ch03_submitting_data.md", "md_atom_type": "TABLE_ROW", "md_parent_section": "§3.2.1 [Dataset-level Metadata]", "md_verbatim": "| TU | Tumor/Lesion Identification | Findings | One record per identified tumor per subject per assessor | Tabulation | STUDYID, USUBJID, TUEVALID, TULNKID | tu.xpt |", "score": 0.3893, "match_basis": "verbatim_token+chapter_route:ch03"}, {"md_atom_id": "md_ch03_a061", "md_file": "knowledge_base/chapters/ch03_submitting_data.md", "md_atom_type": "TABLE_ROW", "md_parent_section": "§3.2.1 [Dataset-level Metadata]", "md_verbatim": "| PC | Pharmacokinetics Concentrations | Findings | One record per sample characteristic or time-point concentration per reference time point or per analyte per subject | Tabulation | STUDYID, USUBJID, PCTESTCD, VISITNUM, PCTPTREF, PCTPTNUM | pc.xpt |", "score": 0.3868, "match_basis": "verbatim_token+chapter_route:ch03"}, {"md_atom_id": "md_ch03_a084", "md_file": "knowledge_base/chapters/ch03_submitting_data.md", "md_atom_type": "TABLE_ROW", "md_parent_section": "§3.2.1 [Dataset-level Metadata]", "md_verbatim": "| RELSPEC | Related Specimens | Relationship | One record per specimen identifier per subject | Tabulation | STUDYID, USUBJID, REFID | relspec.xpt |", "score": 0.3865, "match_basis": "verbatim_token+chapter_route:ch03"}], "candidate_count": 5, "zero_candidate": false}
{"pdf_atom_id": "sv20_p0042_a011", "pdf_atom_type": "TABLE_ROW", "pdf_source": "SDTM_v2.0", "pdf_page": 42, "pdf_parent_section": "§3.2.1 [Demographics]", "pdf_verbatim": "24 | ETHNIC | Ethnicity | Char | | Record Qualifier | | Not in nonclinical trials | | | | The ethnicity of the subject. Sponsors should refer to FDA guidance regarding the collection of ethnicity data.", "figure_ref": null, "candidates": [{"md_atom_id": "md_ch03_a067", "md_file": "knowledge_base/chapters/ch03_submitting_data.md", "md_atom_type": "TABLE_ROW", "md_parent_section": "§3.2.1 [Dataset-level Metadata]", "md_verbatim": "| RS | Disease Response and Clin Classification | Findings | One record per response assessment or clinical classification assessment per time point per visit per subject per assessor per medical evaluator | Tabulation | STUDYID, USUBJID, RSTESTCD, VISITNUM, RSTPTREF, RSEVAL, RSPTPNUM, RSEVALID | rs.xpt |", "score": 0.3981, "match_basis": "verbatim_token+chapter_route:ch03"}, {"md_atom_id": "md_ch03_a039", "md_file": "knowledge_base/chapters/ch03_submitting_data.md", "md_atom_type": "TABLE_ROW", "md_parent_section": "§3.2.1 [Dataset-level Metadata]", "md_verbatim": "| CE | Clinical Events | Events | One record per event per subject | Tabulation | STUDYID, USUBJID, CETERM, CESTDTC | ce.xpt |", "score": 0.3971, "match_basis": "verbatim_token+chapter_route:ch03"}, {"md_atom_id": "md_ch03_a071", "md_file": "knowledge_base/chapters/ch03_submitting_data.md", "md_atom_type": "TABLE_ROW", "md_parent_section": "§3.2.1 [Dataset-level Metadata]", "md_verbatim": "| TU | Tumor/Lesion Identification | Findings | One record per identified tumor per subject per assessor | Tabulation | STUDYID, USUBJID, TUEVALID, TULNKID | tu.xpt |", "score": 0.3864, "match_basis": "verbatim_token+chapter_route:ch03"}, {"md_atom_id": "md_ch03_a084", "md_file": "knowledge_base/chapters/ch03_submitting_data.md", "md_atom_type": "TABLE_ROW", "md_parent_section": "§3.2.1 [Dataset-level Metadata]", "md_verbatim": "| RELSPEC | Related Specimens | Relationship | One record per specimen identifier per subject | Tabulation | STUDYID, USUBJID, REFID | relspec.xpt |", "score": 0.3835, "match_basis": "verbatim_token+chapter_route:ch03"}, {"md_atom_id": "md_ch03_a052", "md_file": "knowledge_base/chapters/ch03_submitting_data.md", "md_atom_type": "TABLE_ROW", "md_parent_section": "§3.2.1 [Dataset-level Metadata]", "md_verbatim": "| IE | Inclusion/Exclusion Criteria Not Met | Findings | One record per inclusion/exclusion criterion not met per subject | Tabulation | STUDYID, USUBJID, IETESTCD | ie.xpt |", "score": 0.3828, "match_basis": "verbatim_token+chapter_route:ch03"}], "candidate_count": 5, "zero_candidate": false}
{"pdf_atom_id": "sv20_p0042_a012", "pdf_atom_type": "TABLE_ROW", "pdf_source": "SDTM_v2.0", "pdf_page": 42, "pdf_parent_section": "§3.2.1 [Demographics]", "pdf_verbatim": "25 | SPECIES | Species | Char | | Record Qualifier | | Not in human clinical trials | C96433 | The common (non-taxonomic) name for an animal used as the test system in a study. | | \"MOUSE\", \"RAT\", \"DOG\", \"MONKEY\"", "figure_ref": null, "candidates": [{"md_atom_id": "md_ch03_a087", "md_file": "knowledge_base/chapters/ch03_submitting_data.md", "md_atom_type": "TABLE_ROW", "md_parent_section": "§3.2.1 [Dataset-level Metadata]", "md_verbatim": "| OI | Non-host Organism Identifiers | Study Reference | One record per taxon per non-host organism | Tabulation | NHOID, OISEQ | oi.xpt |", "score": 0.3811, "match_basis": "verbatim_token+chapter_route:ch03"}, {"md_atom_id": "md_ch03_a086", "md_file": "knowledge_base/chapters/ch03_submitting_data.md", "md_atom_type": "TABLE_ROW", "md_parent_section": "§3.2.1 [Dataset-level Metadata]", "md_verbatim": "| SUPP-- | Supplemental Qualifiers for [domain name] | Relationship | One record per supplemental qualifier per related parent domain record(s) | Tabulation | STUDYID, RDOMAIN, USUBJID, IDVAR, IDVARVAL, QNAM | supp--.xpt |", "score": 0.381, "match_basis": "verbatim_token+chapter_route:ch03"}, {"md_atom_id": "md_ch03_a039", "md_file": "knowledge_base/chapters/ch03_submitting_data.md", "md_atom_type": "TABLE_ROW", "md_parent_section": "§3.2.1 [Dataset-level Metadata]", "md_verbatim": "| CE | Clinical Events | Events | One record per event per subject | Tabulation | STUDYID, USUBJID, CETERM, CESTDTC | ce.xpt |", "score": 0.3785, "match_basis": "verbatim_token+chapter_route:ch03"}, {"md_atom_id": "md_ch03_a062", "md_file": "knowledge_base/chapters/ch03_submitting_data.md", "md_atom_type": "TABLE_ROW", "md_parent_section": "§3.2.1 [Dataset-level Metadata]", "md_verbatim": "| PE | Physical Examination | Findings | One record per body system or abnormality per visit per subject | Tabulation | STUDYID, USUBJID, PETESTCD, VISITNUM | pe.xpt |", "score": 0.3785, "match_basis": "verbatim_token+chapter_route:ch03"}, {"md_atom_id": "md_ch03_a044", "md_file": "knowledge_base/chapters/ch03_submitting_data.md", "md_atom_type": "TABLE_ROW", "md_parent_section": "§3.2.1 [Dataset-level Metadata]", "md_verbatim": "| BS | Biospecimen Findings | Findings | One record per measurement per biospecimen identifier per subject | Tabulation | STUDYID, USUBJID, BSREFID, BSTESTCD | bs.xpt |", "score": 0.3756, "match_basis": "verbatim_token+chapter_route:ch03"}], "candidate_count": 5, "zero_candidate": false}
{"pdf_atom_id": "sv20_p0042_a013", "pdf_atom_type": "TABLE_ROW", "pdf_source": "SDTM_v2.0", "pdf_page": 42, "pdf_parent_section": "§3.2.1 [Demographics]", "pdf_verbatim": "26 | STRAIN | Strain/Substrain | Char | | Record Qualifier | | Not in human clinical trials | C14419 | The vendor-supplied species/strain/substrain designation for the test system under study. It may combine the species, background strain, substrain, and associated genetic modifications as supplied by the vendor (e.g. FISCHER 344, SPRAGUE-DAWLEY IGS, WISTAR Kyoto, BEAGLE, CYNOMOLGUS, RHESUS, CHIMPANZEE). | | \"C57BL/6\", \"A/J\", \"B6.129-Pparg<tm2Rev>/J\", \"FISCHER 344\", \"SPRAGUE DAWLEY IGS\", \"WISTAR Kyoto\", \"BEAGLE\", \"CYNOMOLGUS\", \"CHIMPANZEE\"", "figure_ref": null, "candidates": [{"md_atom_id": "md_ch03_a086", "md_file": "knowledge_base/chapters/ch03_submitting_data.md", "md_atom_type": "TABLE_ROW", "md_parent_section": "§3.2.1 [Dataset-level Metadata]", "md_verbatim": "| SUPP-- | Supplemental Qualifiers for [domain name] | Relationship | One record per supplemental qualifier per related parent domain record(s) | Tabulation | STUDYID, RDOMAIN, USUBJID, IDVAR, IDVARVAL, QNAM | supp--.xpt |", "score": 0.3775, "match_basis": "verbatim_token+chapter_route:ch03"}, {"md_atom_id": "md_ch03_a067", "md_file": "knowledge_base/chapters/ch03_submitting_data.md", "md_atom_type": "TABLE_ROW", "md_parent_section": "§3.2.1 [Dataset-level Metadata]", "md_verbatim": "| RS | Disease Response and Clin Classification | Findings | One record per response assessment or clinical classification assessment per time point per visit per subject per assessor per medical evaluator | Tabulation | STUDYID, USUBJID, RSTESTCD, VISITNUM, RSTPTREF, RSEVAL, RSPTPNUM, RSEVALID | rs.xpt |", "score": 0.3675, "match_basis": "verbatim_token+chapter_route:ch03"}, {"md_atom_id": "md_ch03_a077", "md_file": "knowledge_base/chapters/ch03_submitting_data.md", "md_atom_type": "TABLE_ROW", "md_parent_section": "§3.2.1 [Dataset-level Metadata]", "md_verbatim": "| TD | Trial Disease Assessments | Trial Design | One record per planned constant assessment period | Tabulation | STUDYID, TDORDER | td.xpt |", "score": 0.3647, "match_basis": "verbatim_token+chapter_route:ch03"}, {"md_atom_id": "md_ch03_a084", "md_file": "knowledge_base/chapters/ch03_submitting_data.md", "md_atom_type": "TABLE_ROW", "md_parent_section": "§3.2.1 [Dataset-level Metadata]", "md_verbatim": "| RELSPEC | Related Specimens | Relationship | One record per specimen identifier per subject | Tabulation | STUDYID, USUBJID, REFID | relspec.xpt |", "score": 0.3591, "match_basis": "verbatim_token+chapter_route:ch03"}, {"md_atom_id": "md_ch03_a071", "md_file": "knowledge_base/chapters/ch03_submitting_data.md", "md_atom_type": "TABLE_ROW", "md_parent_section": "§3.2.1 [Dataset-level Metadata]", "md_verbatim": "| TU | Tumor/Lesion Identification | Findings | One record per identified tumor per subject per assessor | Tabulation | STUDYID, USUBJID, TUEVALID, TULNKID | tu.xpt |", "score": 0.3589, "match_basis": "verbatim_token+chapter_route:ch03"}], "candidate_count": 5, "zero_candidate": false}
{"pdf_atom_id": "sv20_p0043_a001", "pdf_atom_type": "TABLE_ROW", "pdf_source": "SDTM_v2.0", "pdf_page": 43, "pdf_parent_section": "§3.2.1 [Demographics]", "pdf_verbatim": "27 | SBSTRAIN | Strain/Substrain Details | Char | | Variable Qualifier | STRAIN | Not in human clinical trials | C90460 | Additional clarifying details regarding the test system under study, such as a description of a phenotypic alteration associated with the specific genetic modification captured or collected in the Strain/Substrain variable. | | ", "figure_ref": null, "candidates": [{"md_atom_id": "md_ch03_a067", "md_file": "knowledge_base/chapters/ch03_submitting_data.md", "md_atom_type": "TABLE_ROW", "md_parent_section": "§3.2.1 [Dataset-level Metadata]", "md_verbatim": "| RS | Disease Response and Clin Classification | Findings | One record per response assessment or clinical classification assessment per time point per visit per subject per assessor per medical evaluator | Tabulation | STUDYID, USUBJID, RSTESTCD, VISITNUM, RSTPTREF, RSEVAL, RSPTPNUM, RSEVALID | rs.xpt |", "score": 0.3706, "match_basis": "verbatim_token+chapter_route:ch03"}, {"md_atom_id": "md_ch03_a032", "md_file": "knowledge_base/chapters/ch03_submitting_data.md", "md_atom_type": "TABLE_ROW", "md_parent_section": "§3.2.1 [Dataset-level Metadata]", "md_verbatim": "| EC | Exposure as Collected | Interventions | One record per protocol-specified study treatment, collected-dosing interval, per subject, per mood | Tabulation | STUDYID, USUBJID, ECTRT, ECSTDTC, ECMOOD | ec.xpt |", "score": 0.3697, "match_basis": "verbatim_token+chapter_route:ch03"}, {"md_atom_id": "md_ch03_a044", "md_file": "knowledge_base/chapters/ch03_submitting_data.md", "md_atom_type": "TABLE_ROW", "md_parent_section": "§3.2.1 [Dataset-level Metadata]", "md_verbatim": "| BS | Biospecimen Findings | Findings | One record per measurement per biospecimen identifier per subject | Tabulation | STUDYID, USUBJID, BSREFID, BSTESTCD | bs.xpt |", "score": 0.3681, "match_basis": "verbatim_token+chapter_route:ch03"}, {"md_atom_id": "md_ch03_a045", "md_file": "knowledge_base/chapters/ch03_submitting_data.md", "md_atom_type": "TABLE_ROW", "md_parent_section": "§3.2.1 [Dataset-level Metadata]", "md_verbatim": "| CP | Cell Phenotype Findings | Findings | One record per test per specimen per timepoint per visit per subject | Tabulation | STUDYID, USUBJID, CPTESTCD, CPSPEC, VISITNUM, CPTPTREF, CPTPTNUM | cp.xpt |", "score": 0.366, "match_basis": "verbatim_token+chapter_route:ch03"}, {"md_atom_id": "md_ch03_a063", "md_file": "knowledge_base/chapters/ch03_submitting_data.md", "md_atom_type": "TABLE_ROW", "md_parent_section": "§3.2.1 [Dataset-level Metadata]", "md_verbatim": "| PP | Pharmacokinetics Parameters | Findings | One record per PK parameter per time-concentration profile per modeling method per subject | Tabulation | STUDYID, USUBJID, PPTESTCD, PPCAT, VISITNUM, PPRFTDTC | pp.xpt |", "score": 0.3614, "match_basis": "verbatim_token+chapter_route:ch03"}], "candidate_count": 5, "zero_candidate": false}
{"pdf_atom_id": "sv20_p0043_a002", "pdf_atom_type": "TABLE_ROW", "pdf_source": "SDTM_v2.0", "pdf_page": 43, "pdf_parent_section": "§3.2.1 [Demographics]", "pdf_verbatim": "28 | ARMCD | Planned Arm Code | Char | | Record Qualifier | | | C83216 | A short sequence of characters that represents the planned arm to which the subject was assigned. | Limited to 20 characters. | ", "figure_ref": null, "candidates": [{"md_atom_id": "md_ch03_a029", "md_file": "knowledge_base/chapters/ch03_submitting_data.md", "md_atom_type": "TABLE_ROW", "md_parent_section": "§3.2.1 [Dataset-level Metadata]", "md_verbatim": "| SV | Subject Visits | Special Purpose | One record per actual or planned visit per subject | Tabulation | STUDYID, USUBJID, SVTERM | sv.xpt |", "score": 0.3927, "match_basis": "verbatim_token+chapter_route:ch03"}, {"md_atom_id": "md_ch03_a076", "md_file": "knowledge_base/chapters/ch03_submitting_data.md", "md_atom_type": "TABLE_ROW", "md_parent_section": "§3.2.1 [Dataset-level Metadata]", "md_verbatim": "| TA | Trial Arms | Trial Design | One record per planned Element per Arm | Tabulation | STUDYID, ARMCD, TAETORD | ta.xpt |", "score": 0.3882, "match_basis": "verbatim_token+chapter_route:ch03"}, {"md_atom_id": "md_ch03_a068", "md_file": "knowledge_base/chapters/ch03_submitting_data.md", "md_atom_type": "TABLE_ROW", "md_parent_section": "§3.2.1 [Dataset-level Metadata]", "md_verbatim": "| SC | Subject Characteristics | Findings | One record per characteristic per visit per subject. | Tabulation | STUDYID, USUBJID, SCTESTCD, VISITNUM | sc.xpt |", "score": 0.3842, "match_basis": "verbatim_token+chapter_route:ch03"}, {"md_atom_id": "md_ch03_a078", "md_file": "knowledge_base/chapters/ch03_submitting_data.md", "md_atom_type": "TABLE_ROW", "md_parent_section": "§3.2.1 [Dataset-level Metadata]", "md_verbatim": "| TE | Trial Elements | Trial Design | One record per planned Element | Tabulation | STUDYID, ETCD | te.xpt |", "score": 0.3788, "match_basis": "verbatim_token+chapter_route:ch03"}, {"md_atom_id": "md_ch03_a036", "md_file": "knowledge_base/chapters/ch03_submitting_data.md", "md_atom_type": "TABLE_ROW", "md_parent_section": "§3.2.1 [Dataset-level Metadata]", "md_verbatim": "| SU | Substance Use | Interventions | One record per substance type per reported occurrence per subject | Tabulation | STUDYID, USUBJID, SUTRT, SUSTDTC | su.xpt |", "score": 0.378, "match_basis": "verbatim_token+chapter_route:ch03"}], "candidate_count": 5, "zero_candidate": false}
{"pdf_atom_id": "sv20_p0043_a003", "pdf_atom_type": "TABLE_ROW", "pdf_source": "SDTM_v2.0", "pdf_page": 43, "pdf_parent_section": "§3.2.1 [Demographics]", "pdf_verbatim": "29 | ARM | Description of Planned Arm | Char | | Synonym Qualifier | ARMCD | | C170984 | The name of the planned arm to which the subject was assigned. | | ", "figure_ref": null, "candidates": [{"md_atom_id": "md_ch03_a076", "md_file": "knowledge_base/chapters/ch03_submitting_data.md", "md_atom_type": "TABLE_ROW", "md_parent_section": "§3.2.1 [Dataset-level Metadata]", "md_verbatim": "| TA | Trial Arms | Trial Design | One record per planned Element per Arm | Tabulation | STUDYID, ARMCD, TAETORD | ta.xpt |", "score": 0.3918, "match_basis": "verbatim_token+chapter_route:ch03"}, {"md_atom_id": "md_ch03_a082", "md_file": "knowledge_base/chapters/ch03_submitting_data.md", "md_atom_type": "TABLE_ROW", "md_parent_section": "§3.2.1 [Dataset-level Metadata]", "md_verbatim": "| TV | Trial Visits | Trial Design | One record per planned Visit per Arm | Tabulation | STUDYID, ARM, VISIT | tv.xpt |", "score": 0.3835, "match_basis": "verbatim_token+chapter_route:ch03"}, {"md_atom_id": "md_ch03_a029", "md_file": "knowledge_base/chapters/ch03_submitting_data.md", "md_atom_type": "TABLE_ROW", "md_parent_section": "§3.2.1 [Dataset-level Metadata]", "md_verbatim": "| SV | Subject Visits | Special Purpose | One record per actual or planned visit per subject | Tabulation | STUDYID, USUBJID, SVTERM | sv.xpt |", "score": 0.3821, "match_basis": "verbatim_token+chapter_route:ch03"}, {"md_atom_id": "md_ch03_a078", "md_file": "knowledge_base/chapters/ch03_submitting_data.md", "md_atom_type": "TABLE_ROW", "md_parent_section": "§3.2.1 [Dataset-level Metadata]", "md_verbatim": "| TE | Trial Elements | Trial Design | One record per planned Element | Tabulation | STUDYID, ETCD | te.xpt |", "score": 0.3723, "match_basis": "verbatim_token+chapter_route:ch03"}, {"md_atom_id": "md_ch03_a086", "md_file": "knowledge_base/chapters/ch03_submitting_data.md", "md_atom_type": "TABLE_ROW", "md_parent_section": "§3.2.1 [Dataset-level Metadata]", "md_verbatim": "| SUPP-- | Supplemental Qualifiers for [domain name] | Relationship | One record per supplemental qualifier per related parent domain record(s) | Tabulation | STUDYID, RDOMAIN, USUBJID, IDVAR, IDVARVAL, QNAM | supp--.xpt |", "score": 0.3716, "match_basis": "verbatim_token+chapter_route:ch03"}], "candidate_count": 5, "zero_candidate": false}
{"pdf_atom_id": "sv20_p0043_a004", "pdf_atom_type": "TABLE_ROW", "pdf_source": "SDTM_v2.0", "pdf_page": 43, "pdf_parent_section": "§3.2.1 [Demographics]", "pdf_verbatim": "30 | ACTARMCD | Actual Arm Code | Char | | Record Qualifier | | Not in nonclinical trials | C117449 | A short sequence of characters that represents the arm in which the subject actually participated. | Limited to 20 characters. | ", "figure_ref": null, "candidates": [{"md_atom_id": "md_ch03_a039", "md_file": "knowledge_base/chapters/ch03_submitting_data.md", "md_atom_type": "TABLE_ROW", "md_parent_section": "§3.2.1 [Dataset-level Metadata]", "md_verbatim": "| CE | Clinical Events | Events | One record per event per subject | Tabulation | STUDYID, USUBJID, CETERM, CESTDTC | ce.xpt |", "score": 0.39, "match_basis": "verbatim_token+chapter_route:ch03"}, {"md_atom_id": "md_ch03_a068", "md_file": "knowledge_base/chapters/ch03_submitting_data.md", "md_atom_type": "TABLE_ROW", "md_parent_section": "§3.2.1 [Dataset-level Metadata]", "md_verbatim": "| SC | Subject Characteristics | Findings | One record per characteristic per visit per subject. | Tabulation | STUDYID, USUBJID, SCTESTCD, VISITNUM | sc.xpt |", "score": 0.3773, "match_basis": "verbatim_token+chapter_route:ch03"}, {"md_atom_id": "md_ch03_a061", "md_file": "knowledge_base/chapters/ch03_submitting_data.md", "md_atom_type": "TABLE_ROW", "md_parent_section": "§3.2.1 [Dataset-level Metadata]", "md_verbatim": "| PC | Pharmacokinetics Concentrations | Findings | One record per sample characteristic or time-point concentration per reference time point or per analyte per subject | Tabulation | STUDYID, USUBJID, PCTESTCD, VISITNUM, PCTPTREF, PCTPTNUM | pc.xpt |", "score": 0.3767, "match_basis": "verbatim_token+chapter_route:ch03"}, {"md_atom_id": "md_ch03_a086", "md_file": "knowledge_base/chapters/ch03_submitting_data.md", "md_atom_type": "TABLE_ROW", "md_parent_section": "§3.2.1 [Dataset-level Metadata]", "md_verbatim": "| SUPP-- | Supplemental Qualifiers for [domain name] | Relationship | One record per supplemental qualifier per related parent domain record(s) | Tabulation | STUDYID, RDOMAIN, USUBJID, IDVAR, IDVARVAL, QNAM | supp--.xpt |", "score": 0.3761, "match_basis": "verbatim_token+chapter_route:ch03"}, {"md_atom_id": "md_ch03_a063", "md_file": "knowledge_base/chapters/ch03_submitting_data.md", "md_atom_type": "TABLE_ROW", "md_parent_section": "§3.2.1 [Dataset-level Metadata]", "md_verbatim": "| PP | Pharmacokinetics Parameters | Findings | One record per PK parameter per time-concentration profile per modeling method per subject | Tabulation | STUDYID, USUBJID, PPTESTCD, PPCAT, VISITNUM, PPRFTDTC | pp.xpt |", "score": 0.3741, "match_basis": "verbatim_token+chapter_route:ch03"}], "candidate_count": 5, "zero_candidate": false}
{"pdf_atom_id": "sv20_p0043_a005", "pdf_atom_type": "TABLE_ROW", "pdf_source": "SDTM_v2.0", "pdf_page": 43, "pdf_parent_section": "§3.2.1 [Demographics]", "pdf_verbatim": "31 | ACTARM | Description of Actual Arm | Char | | Synonym Qualifier | ACTARMCD | Not in nonclinical trials | C117448 | The name of the arm in which the subject actually participated. | | ", "figure_ref": null, "candidates": [{"md_atom_id": "md_ch03_a086", "md_file": "knowledge_base/chapters/ch03_submitting_data.md", "md_atom_type": "TABLE_ROW", "md_parent_section": "§3.2.1 [Dataset-level Metadata]", "md_verbatim": "| SUPP-- | Supplemental Qualifiers for [domain name] | Relationship | One record per supplemental qualifier per related parent domain record(s) | Tabulation | STUDYID, RDOMAIN, USUBJID, IDVAR, IDVARVAL, QNAM | supp--.xpt |", "score": 0.3768, "match_basis": "verbatim_token+chapter_route:ch03"}, {"md_atom_id": "md_ch03_a039", "md_file": "knowledge_base/chapters/ch03_submitting_data.md", "md_atom_type": "TABLE_ROW", "md_parent_section": "§3.2.1 [Dataset-level Metadata]", "md_verbatim": "| CE | Clinical Events | Events | One record per event per subject | Tabulation | STUDYID, USUBJID, CETERM, CESTDTC | ce.xpt |", "score": 0.3736, "match_basis": "verbatim_token+chapter_route:ch03"}, {"md_atom_id": "md_ch03_a027", "md_file": "knowledge_base/chapters/ch03_submitting_data.md", "md_atom_type": "TABLE_ROW", "md_parent_section": "§3.2.1 [Dataset-level Metadata]", "md_verbatim": "| SE | Subject Elements | Special Purpose | One record per actual Element per subject | Tabulation | STUDYID, USUBJID, ETCD, SESTDTC | se.xpt |", "score": 0.3626, "match_basis": "verbatim_token+chapter_route:ch03"}, {"md_atom_id": "md_ch03_a029", "md_file": "knowledge_base/chapters/ch03_submitting_data.md", "md_atom_type": "TABLE_ROW", "md_parent_section": "§3.2.1 [Dataset-level Metadata]", "md_verbatim": "| SV | Subject Visits | Special Purpose | One record per actual or planned visit per subject | Tabulation | STUDYID, USUBJID, SVTERM | sv.xpt |", "score": 0.3626, "match_basis": "verbatim_token+chapter_route:ch03"}, {"md_atom_id": "md_ch03_a084", "md_file": "knowledge_base/chapters/ch03_submitting_data.md", "md_atom_type": "TABLE_ROW", "md_parent_section": "§3.2.1 [Dataset-level Metadata]", "md_verbatim": "| RELSPEC | Related Specimens | Relationship | One record per specimen identifier per subject | Tabulation | STUDYID, USUBJID, REFID | relspec.xpt |", "score": 0.3621, "match_basis": "verbatim_token+chapter_route:ch03"}], "candidate_count": 5, "zero_candidate": false}
{"pdf_atom_id": "sv20_p0043_a006", "pdf_atom_type": "TABLE_ROW", "pdf_source": "SDTM_v2.0", "pdf_page": 43, "pdf_parent_section": "§3.2.1 [Demographics]", "pdf_verbatim": "32 | ARMNRS | Reason Arm and/or Actual Arm is Null | Char | | Record Qualifier | | | | | | The reason why the actual arm variables are null or why both the planned and actual arm variables are null. It is assumed that if the arm and actual arm variables are null, the same reason applies to both. | \"SCREEN FAILURE\", \"NOT ASSIGNED\", \"NOT TREATED\", \"UNPLANNED TREATMENT\"", "figure_ref": null, "candidates": [{"md_atom_id": "md_ch03_a086", "md_file": "knowledge_base/chapters/ch03_submitting_data.md", "md_atom_type": "TABLE_ROW", "md_parent_section": "§3.2.1 [Dataset-level Metadata]", "md_verbatim": "| SUPP-- | Supplemental Qualifiers for [domain name] | Relationship | One record per supplemental qualifier per related parent domain record(s) | Tabulation | STUDYID, RDOMAIN, USUBJID, IDVAR, IDVARVAL, QNAM | supp--.xpt |", "score": 0.3864, "match_basis": "verbatim_token+chapter_route:ch03"}, {"md_atom_id": "md_ch03_a076", "md_file": "knowledge_base/chapters/ch03_submitting_data.md", "md_atom_type": "TABLE_ROW", "md_parent_section": "§3.2.1 [Dataset-level Metadata]", "md_verbatim": "| TA | Trial Arms | Trial Design | One record per planned Element per Arm | Tabulation | STUDYID, ARMCD, TAETORD | ta.xpt |", "score": 0.3804, "match_basis": "verbatim_token+chapter_route:ch03"}, {"md_atom_id": "md_ch03_a078", "md_file": "knowledge_base/chapters/ch03_submitting_data.md", "md_atom_type": "TABLE_ROW", "md_parent_section": "§3.2.1 [Dataset-level Metadata]", "md_verbatim": "| TE | Trial Elements | Trial Design | One record per planned Element | Tabulation | STUDYID, ETCD | te.xpt |", "score": 0.3778, "match_basis": "verbatim_token+chapter_route:ch03"}, {"md_atom_id": "md_ch03_a077", "md_file": "knowledge_base/chapters/ch03_submitting_data.md", "md_atom_type": "TABLE_ROW", "md_parent_section": "§3.2.1 [Dataset-level Metadata]", "md_verbatim": "| TD | Trial Disease Assessments | Trial Design | One record per planned constant assessment period | Tabulation | STUDYID, TDORDER | td.xpt |", "score": 0.3768, "match_basis": "verbatim_token+chapter_route:ch03"}, {"md_atom_id": "md_ch03_a082", "md_file": "knowledge_base/chapters/ch03_submitting_data.md", "md_atom_type": "TABLE_ROW", "md_parent_section": "§3.2.1 [Dataset-level Metadata]", "md_verbatim": "| TV | Trial Visits | Trial Design | One record per planned Visit per Arm | Tabulation | STUDYID, ARM, VISIT | tv.xpt |", "score": 0.3736, "match_basis": "verbatim_token+chapter_route:ch03"}], "candidate_count": 5, "zero_candidate": false}
{"pdf_atom_id": "sv20_p0043_a007", "pdf_atom_type": "TABLE_ROW", "pdf_source": "SDTM_v2.0", "pdf_page": 43, "pdf_parent_section": "§3.2.1 [Demographics]", "pdf_verbatim": "33 | ACTARMUD | Description of Unplanned Actual Arm | Char | | Record Qualifier | | | | | | A description of actual treatment for a subject who did not receive treatment described in one of the planned trial arms. | ", "figure_ref": null, "candidates": [{"md_atom_id": "md_ch03_a029", "md_file": "knowledge_base/chapters/ch03_submitting_data.md", "md_atom_type": "TABLE_ROW", "md_parent_section": "§3.2.1 [Dataset-level Metadata]", "md_verbatim": "| SV | Subject Visits | Special Purpose | One record per actual or planned visit per subject | Tabulation | STUDYID, USUBJID, SVTERM | sv.xpt |", "score": 0.4333, "match_basis": "verbatim_token+chapter_route:ch03"}, {"md_atom_id": "md_ch03_a076", "md_file": "knowledge_base/chapters/ch03_submitting_data.md", "md_atom_type": "TABLE_ROW", "md_parent_section": "§3.2.1 [Dataset-level Metadata]", "md_verbatim": "| TA | Trial Arms | Trial Design | One record per planned Element per Arm | Tabulation | STUDYID, ARMCD, TAETORD | ta.xpt |", "score": 0.4319, "match_basis": "verbatim_token+chapter_route:ch03"}, {"md_atom_id": "md_ch03_a078", "md_file": "knowledge_base/chapters/ch03_submitting_data.md", "md_atom_type": "TABLE_ROW", "md_parent_section": "§3.2.1 [Dataset-level Metadata]", "md_verbatim": "| TE | Trial Elements | Trial Design | One record per planned Element | Tabulation | STUDYID, ETCD | te.xpt |", "score": 0.4227, "match_basis": "verbatim_token+chapter_route:ch03"}, {"md_atom_id": "md_ch03_a082", "md_file": "knowledge_base/chapters/ch03_submitting_data.md", "md_atom_type": "TABLE_ROW", "md_parent_section": "§3.2.1 [Dataset-level Metadata]", "md_verbatim": "| TV | Trial Visits | Trial Design | One record per planned Visit per Arm | Tabulation | STUDYID, ARM, VISIT | tv.xpt |", "score": 0.4186, "match_basis": "verbatim_token+chapter_route:ch03"}, {"md_atom_id": "md_ch03_a027", "md_file": "knowledge_base/chapters/ch03_submitting_data.md", "md_atom_type": "TABLE_ROW", "md_parent_section": "§3.2.1 [Dataset-level Metadata]", "md_verbatim": "| SE | Subject Elements | Special Purpose | One record per actual Element per subject | Tabulation | STUDYID, USUBJID, ETCD, SESTDTC | se.xpt |", "score": 0.4118, "match_basis": "verbatim_token+chapter_route:ch03"}], "candidate_count": 5, "zero_candidate": false}
{"pdf_atom_id": "sv20_p0043_a008", "pdf_atom_type": "TABLE_ROW", "pdf_source": "SDTM_v2.0", "pdf_page": 43, "pdf_parent_section": "§3.2.1 [Demographics]", "pdf_verbatim": "34 | SETCD | Set Code | Char | | Record Qualifier | | | C117457 | The standardized or dictionary-derived short sequence of characters used to represent the trial set. | Defined by the sponsor (see Section 5.1.2, Trial Sets). Maximum of 8 characters. This represents the code for the trial set for which parameters are being submitted. | ", "figure_ref": null, "candidates": [{"md_atom_id": "md_ch03_a086", "md_file": "knowledge_base/chapters/ch03_submitting_data.md", "md_atom_type": "TABLE_ROW", "md_parent_section": "§3.2.1 [Dataset-level Metadata]", "md_verbatim": "| SUPP-- | Supplemental Qualifiers for [domain name] | Relationship | One record per supplemental qualifier per related parent domain record(s) | Tabulation | STUDYID, RDOMAIN, USUBJID, IDVAR, IDVARVAL, QNAM | supp--.xpt |", "score": 0.381, "match_basis": "verbatim_token+chapter_route:ch03"}, {"md_atom_id": "md_ch03_a063", "md_file": "knowledge_base/chapters/ch03_submitting_data.md", "md_atom_type": "TABLE_ROW", "md_parent_section": "§3.2.1 [Dataset-level Metadata]", "md_verbatim": "| PP | Pharmacokinetics Parameters | Findings | One record per PK parameter per time-concentration profile per modeling method per subject | Tabulation | STUDYID, USUBJID, PPTESTCD, PPCAT, VISITNUM, PPRFTDTC | pp.xpt |", "score": 0.375, "match_basis": "verbatim_token+chapter_route:ch03"}, {"md_atom_id": "md_ch03_a061", "md_file": "knowledge_base/chapters/ch03_submitting_data.md", "md_atom_type": "TABLE_ROW", "md_parent_section": "§3.2.1 [Dataset-level Metadata]", "md_verbatim": "| PC | Pharmacokinetics Concentrations | Findings | One record per sample characteristic or time-point concentration per reference time point or per analyte per subject | Tabulation | STUDYID, USUBJID, PCTESTCD, VISITNUM, PCTPTREF, PCTPTNUM | pc.xpt |", "score": 0.3738, "match_basis": "verbatim_token+chapter_route:ch03"}, {"md_atom_id": "md_ch03_a068", "md_file": "knowledge_base/chapters/ch03_submitting_data.md", "md_atom_type": "TABLE_ROW", "md_parent_section": "§3.2.1 [Dataset-level Metadata]", "md_verbatim": "| SC | Subject Characteristics | Findings | One record per characteristic per visit per subject. | Tabulation | STUDYID, USUBJID, SCTESTCD, VISITNUM | sc.xpt |", "score": 0.3735, "match_basis": "verbatim_token+chapter_route:ch03"}, {"md_atom_id": "md_ch03_a081", "md_file": "knowledge_base/chapters/ch03_submitting_data.md", "md_atom_type": "TABLE_ROW", "md_parent_section": "§3.2.1 [Dataset-level Metadata]", "md_verbatim": "| TS | Trial Summary | Trial Design | One record per trial summary parameter value | Tabulation | STUDYID, TSPARMCD, TSSEQ | ts.xpt |", "score": 0.373, "match_basis": "verbatim_token+chapter_route:ch03"}], "candidate_count": 5, "zero_candidate": false}
{"pdf_atom_id": "sv20_p0043_a009", "pdf_atom_type": "TABLE_ROW", "pdf_source": "SDTM_v2.0", "pdf_page": 43, "pdf_parent_section": "§3.2.1 [Demographics]", "pdf_verbatim": "35 | RPATHCD | Planned Repro Path Code | Char | | Record Qualifier | | Not in human clinical trials | C170503 | A short sequence of characters that represents the planned reproductive path to which the subject was assigned. | Limited to 20 characters. | ", "figure_ref": null, "candidates": [{"md_atom_id": "md_ch03_a039", "md_file": "knowledge_base/chapters/ch03_submitting_data.md", "md_atom_type": "TABLE_ROW", "md_parent_section": "§3.2.1 [Dataset-level Metadata]", "md_verbatim": "| CE | Clinical Events | Events | One record per event per subject | Tabulation | STUDYID, USUBJID, CETERM, CESTDTC | ce.xpt |", "score": 0.3857, "match_basis": "verbatim_token+chapter_route:ch03"}, {"md_atom_id": "md_ch03_a029", "md_file": "knowledge_base/chapters/ch03_submitting_data.md", "md_atom_type": "TABLE_ROW", "md_parent_section": "§3.2.1 [Dataset-level Metadata]", "md_verbatim": "| SV | Subject Visits | Special Purpose | One record per actual or planned visit per subject | Tabulation | STUDYID, USUBJID, SVTERM | sv.xpt |", "score": 0.3806, "match_basis": "verbatim_token+chapter_route:ch03"}, {"md_atom_id": "md_ch03_a066", "md_file": "knowledge_base/chapters/ch03_submitting_data.md", "md_atom_type": "TABLE_ROW", "md_parent_section": "§3.2.1 [Dataset-level Metadata]", "md_verbatim": "| RP | Reproductive System Findings | Findings | One record per finding or result per time point per visit per subject | Tabulation | STUDYID, DOMAIN, USUBJID, RPTESTCD, VISITNUM | rp.xpt |", "score": 0.38, "match_basis": "verbatim_token+chapter_route:ch03"}, {"md_atom_id": "md_ch03_a078", "md_file": "knowledge_base/chapters/ch03_submitting_data.md", "md_atom_type": "TABLE_ROW", "md_parent_section": "§3.2.1 [Dataset-level Metadata]", "md_verbatim": "| TE | Trial Elements | Trial Design | One record per planned Element | Tabulation | STUDYID, ETCD | te.xpt |", "score": 0.3793, "match_basis": "verbatim_token+chapter_route:ch03"}, {"md_atom_id": "md_ch03_a077", "md_file": "knowledge_base/chapters/ch03_submitting_data.md", "md_atom_type": "TABLE_ROW", "md_parent_section": "§3.2.1 [Dataset-level Metadata]", "md_verbatim": "| TD | Trial Disease Assessments | Trial Design | One record per planned constant assessment period | Tabulation | STUDYID, TDORDER | td.xpt |", "score": 0.3734, "match_basis": "verbatim_token+chapter_route:ch03"}], "candidate_count": 5, "zero_candidate": false}
{"pdf_atom_id": "sv20_p0043_a010", "pdf_atom_type": "TABLE_ROW", "pdf_source": "SDTM_v2.0", "pdf_page": 43, "pdf_parent_section": "§3.2.1 [Demographics]", "pdf_verbatim": "36 | COUNTRY | Country | Char | ISO 3166-1 Alpha-3 | Record Qualifier | | Not in nonclinical trials | C170990 | The country in which the investigational site is located. | | ", "figure_ref": null, "candidates": [{"md_atom_id": "md_ch03_a039", "md_file": "knowledge_base/chapters/ch03_submitting_data.md", "md_atom_type": "TABLE_ROW", "md_parent_section": "§3.2.1 [Dataset-level Metadata]", "md_verbatim": "| CE | Clinical Events | Events | One record per event per subject | Tabulation | STUDYID, USUBJID, CETERM, CESTDTC | ce.xpt |", "score": 0.384, "match_basis": "verbatim_token+chapter_route:ch03"}, {"md_atom_id": "md_ch03_a086", "md_file": "knowledge_base/chapters/ch03_submitting_data.md", "md_atom_type": "TABLE_ROW", "md_parent_section": "§3.2.1 [Dataset-level Metadata]", "md_verbatim": "| SUPP-- | Supplemental Qualifiers for [domain name] | Relationship | One record per supplemental qualifier per related parent domain record(s) | Tabulation | STUDYID, RDOMAIN, USUBJID, IDVAR, IDVARVAL, QNAM | supp--.xpt |", "score": 0.38, "match_basis": "verbatim_token+chapter_route:ch03"}, {"md_atom_id": "md_ch03_a079", "md_file": "knowledge_base/chapters/ch03_submitting_data.md", "md_atom_type": "TABLE_ROW", "md_parent_section": "§3.2.1 [Dataset-level Metadata]", "md_verbatim": "| TI | Trial Inclusion/Exclusion Criteria | Trial Design | One record per I/E criterion | Tabulation | STUDYID, IETESTCD | ti.xpt |", "score": 0.3772, "match_basis": "verbatim_token+chapter_route:ch03"}, {"md_atom_id": "md_ch03_a082", "md_file": "knowledge_base/chapters/ch03_submitting_data.md", "md_atom_type": "TABLE_ROW", "md_parent_section": "§3.2.1 [Dataset-level Metadata]", "md_verbatim": "| TV | Trial Visits | Trial Design | One record per planned Visit per Arm | Tabulation | STUDYID, ARM, VISIT | tv.xpt |", "score": 0.371, "match_basis": "verbatim_token+chapter_route:ch03"}, {"md_atom_id": "md_ch03_a067", "md_file": "knowledge_base/chapters/ch03_submitting_data.md", "md_atom_type": "TABLE_ROW", "md_parent_section": "§3.2.1 [Dataset-level Metadata]", "md_verbatim": "| RS | Disease Response and Clin Classification | Findings | One record per response assessment or clinical classification assessment per time point per visit per subject per assessor per medical evaluator | Tabulation | STUDYID, USUBJID, RSTESTCD, VISITNUM, RSTPTREF, RSEVAL, RSPTPNUM, RSEVALID | rs.xpt |", "score": 0.3679, "match_basis": "verbatim_token+chapter_route:ch03"}], "candidate_count": 5, "zero_candidate": false}
{"pdf_atom_id": "sv20_p0043_a011", "pdf_atom_type": "TABLE_ROW", "pdf_source": "SDTM_v2.0", "pdf_page": 43, "pdf_parent_section": "§3.2.1 [Demographics]", "pdf_verbatim": "37 | DMDTC | Date/Time of Collection | Char | ISO 8601 datetime or interval | Timing | | | C83243 | The date or date and time of demographic data collection, represented in a standardized character format. | | ", "figure_ref": null, "candidates": [{"md_atom_id": "md_ch03_a032", "md_file": "knowledge_base/chapters/ch03_submitting_data.md", "md_atom_type": "TABLE_ROW", "md_parent_section": "§3.2.1 [Dataset-level Metadata]", "md_verbatim": "| EC | Exposure as Collected | Interventions | One record per protocol-specified study treatment, collected-dosing interval, per subject, per mood | Tabulation | STUDYID, USUBJID, ECTRT, ECSTDTC, ECMOOD | ec.xpt |", "score": 0.3783, "match_basis": "verbatim_token+chapter_route:ch03"}, {"md_atom_id": "md_ch03_a034", "md_file": "knowledge_base/chapters/ch03_submitting_data.md", "md_atom_type": "TABLE_ROW", "md_parent_section": "§3.2.1 [Dataset-level Metadata]", "md_verbatim": "| ML | Meal Data | Interventions | One record per food product occurrence or constant intake interval per subject | Tabulation | STUDYID, USUBJID, MLTRT, MLSTDTC | ml.xpt |", "score": 0.3687, "match_basis": "verbatim_token+chapter_route:ch03"}, {"md_atom_id": "md_ch03_a026", "md_file": "knowledge_base/chapters/ch03_submitting_data.md", "md_atom_type": "TABLE_ROW", "md_parent_section": "§3.2.1 [Dataset-level Metadata]", "md_verbatim": "| DM | Demographics | Special Purpose | One record per subject | Tabulation | STUDYID, USUBJID | dm.xpt |", "score": 0.3667, "match_basis": "verbatim_token+chapter_route:ch03"}, {"md_atom_id": "md_ch03_a033", "md_file": "knowledge_base/chapters/ch03_submitting_data.md", "md_atom_type": "TABLE_ROW", "md_parent_section": "§3.2.1 [Dataset-level Metadata]", "md_verbatim": "| EX | Exposure | Interventions | One record per protocol-specified study treatment, constant-dosing interval, per subject | Tabulation | STUDYID, USUBJID, EXTRT, EXSTDTC | ex.xpt |", "score": 0.3652, "match_basis": "verbatim_token+chapter_route:ch03"}, {"md_atom_id": "md_ch03_a061", "md_file": "knowledge_base/chapters/ch03_submitting_data.md", "md_atom_type": "TABLE_ROW", "md_parent_section": "§3.2.1 [Dataset-level Metadata]", "md_verbatim": "| PC | Pharmacokinetics Concentrations | Findings | One record per sample characteristic or time-point concentration per reference time point or per analyte per subject | Tabulation | STUDYID, USUBJID, PCTESTCD, VISITNUM, PCTPTREF, PCTPTNUM | pc.xpt |", "score": 0.3646, "match_basis": "verbatim_token+chapter_route:ch03"}], "candidate_count": 5, "zero_candidate": false}
{"pdf_atom_id": "sv20_p0044_a001", "pdf_atom_type": "TABLE_ROW", "pdf_source": "SDTM_v2.0", "pdf_page": 44, "pdf_parent_section": "§3.2.1 [Demographics]", "pdf_verbatim": "38 | DMDY | Study Day of Collection | Num | | Timing | | | C83244 | The actual study day of demographic data collection derived relative to the sponsor-defined reference start date. | The sponsor-defined reference start date is RFSTDTC. | ", "figure_ref": null, "candidates": [{"md_atom_id": "md_ch03_a026", "md_file": "knowledge_base/chapters/ch03_submitting_data.md", "md_atom_type": "TABLE_ROW", "md_parent_section": "§3.2.1 [Dataset-level Metadata]", "md_verbatim": "| DM | Demographics | Special Purpose | One record per subject | Tabulation | STUDYID, USUBJID | dm.xpt |", "score": 0.3962, "match_basis": "verbatim_token+chapter_route:ch03"}, {"md_atom_id": "md_ch03_a061", "md_file": "knowledge_base/chapters/ch03_submitting_data.md", "md_atom_type": "TABLE_ROW", "md_parent_section": "§3.2.1 [Dataset-level Metadata]", "md_verbatim": "| PC | Pharmacokinetics Concentrations | Findings | One record per sample characteristic or time-point concentration per reference time point or per analyte per subject | Tabulation | STUDYID, USUBJID, PCTESTCD, VISITNUM, PCTPTREF, PCTPTNUM | pc.xpt |", "score": 0.389, "match_basis": "verbatim_token+chapter_route:ch03"}, {"md_atom_id": "md_ch03_a034", "md_file": "knowledge_base/chapters/ch03_submitting_data.md", "md_atom_type": "TABLE_ROW", "md_parent_section": "§3.2.1 [Dataset-level Metadata]", "md_verbatim": "| ML | Meal Data | Interventions | One record per food product occurrence or constant intake interval per subject | Tabulation | STUDYID, USUBJID, MLTRT, MLSTDTC | ml.xpt |", "score": 0.3824, "match_basis": "verbatim_token+chapter_route:ch03"}, {"md_atom_id": "md_ch03_a027", "md_file": "knowledge_base/chapters/ch03_submitting_data.md", "md_atom_type": "TABLE_ROW", "md_parent_section": "§3.2.1 [Dataset-level Metadata]", "md_verbatim": "| SE | Subject Elements | Special Purpose | One record per actual Element per subject | Tabulation | STUDYID, USUBJID, ETCD, SESTDTC | se.xpt |", "score": 0.3783, "match_basis": "verbatim_token+chapter_route:ch03"}, {"md_atom_id": "md_ch03_a060", "md_file": "knowledge_base/chapters/ch03_submitting_data.md", "md_atom_type": "TABLE_ROW", "md_parent_section": "§3.2.1 [Dataset-level Metadata]", "md_verbatim": "| OE | Ophthalmic Examinations | Findings | One record per ophthalmic finding per method per location, per time point per visit per subject | Tabulation | STUDYID, USUBJID, FOCID, OETESTCD, OETSTDTL, OEMETHOD, OELOC, OELAT, OEDIR, VISITNUM, OEDTC, OETPTREF, OETPTNUM, OEREPNUM | oe.xpt |", "score": 0.3764, "match_basis": "verbatim_token+chapter_route:ch03"}], "candidate_count": 5, "zero_candidate": false}
{"pdf_atom_id": "sv20_p0044_a002", "pdf_atom_type": "HEADING", "pdf_source": "SDTM_v2.0", "pdf_page": 44, "pdf_parent_section": "§3.2 [Special-Purpose Domains]", "pdf_verbatim": "3.2.2 Comments", "figure_ref": null, "candidates": [{"md_atom_id": "md_ch03_a003", "md_file": "knowledge_base/chapters/ch03_submitting_data.md", "md_atom_type": "HEADING", "md_parent_section": "§3 [Submitting Data in Standard Format]", "md_verbatim": "## 3.1 Standard Metadata for Dataset Contents and Attributes", "score": 0.3353, "match_basis": "verbatim_token+chapter_route:ch03"}, {"md_atom_id": "md_ch03_a001", "md_file": "knowledge_base/chapters/ch03_submitting_data.md", "md_atom_type": "HEADING", "md_parent_section": "§3 [Submitting Data in Standard Format]", "md_verbatim": "# SDTMIG v3.4 — Chapter 3: Submitting Data in Standard Format", "score": 0.3, "match_basis": "verbatim_token+chapter_route:ch03"}, {"md_atom_id": "md_ch03_a013", "md_file": "knowledge_base/chapters/ch03_submitting_data.md", "md_atom_type": "HEADING", "md_parent_section": "§3 [Submitting Data in Standard Format]", "md_verbatim": "## 3.2 Using the CDISC Domain Models in Regulatory Submissions — Dataset Metadata", "score": 0.3, "match_basis": "verbatim_token+chapter_route:ch03"}, {"md_atom_id": "md_ch03_a021", "md_file": "knowledge_base/chapters/ch03_submitting_data.md", "md_atom_type": "HEADING", "md_parent_section": "§3.2 [Using the CDISC Domain Models in Regulatory Submissions — Dataset Metadata]", "md_verbatim": "### 3.2.1 Dataset-level Metadata", "score": 0.3, "match_basis": "verbatim_token+chapter_route:ch03"}, {"md_atom_id": "md_ch03_a090", "md_file": "knowledge_base/chapters/ch03_submitting_data.md", "md_atom_type": "HEADING", "md_parent_section": "§3.2.1 [Dataset-level Metadata]", "md_verbatim": "### 3.2.1.1 Primary Keys", "score": 0.3, "match_basis": "verbatim_token+chapter_route:ch03"}], "candidate_count": 5, "zero_candidate": false}
{"pdf_atom_id": "sv20_p0044_a003", "pdf_atom_type": "SENTENCE", "pdf_source": "SDTM_v2.0", "pdf_page": 44, "pdf_parent_section": "§3.2.2 [Comments]", "pdf_verbatim": "Comments are collected during the conduct of many studies.", "figure_ref": null, "candidates": [{"md_atom_id": "md_ch03_a015", "md_file": "knowledge_base/chapters/ch03_submitting_data.md", "md_atom_type": "SENTENCE", "md_parent_section": "§3.2 [Using the CDISC Domain Models in Regulatory Submissions — Dataset Metadata]", "md_verbatim": "In addition, comments can also be provided where needed.", "score": 0.3692, "match_basis": "verbatim_token+chapter_route:ch03"}, {"md_atom_id": "md_ch03_a016", "md_file": "knowledge_base/chapters/ch03_submitting_data.md", "md_atom_type": "SENTENCE", "md_parent_section": "§3.2 [Using the CDISC Domain Models in Regulatory Submissions — Dataset Metadata]", "md_verbatim": "Most studies will include Demographics (DM) and a set of safety domains based on the 3 general observation classes — typically including Exposure (EX), Concomitant and Prior Medications (CM), Adverse Events (AE), Disposition (DS), Medical History (MH), Laboratory Test Results (LB), and Vital Signs (VS).", "score": 0.3446, "match_basis": "verbatim_token+chapter_route:ch03"}, {"md_atom_id": "md_ch03_a105", "md_file": "knowledge_base/chapters/ch03_submitting_data.md", "md_atom_type": "SENTENCE", "md_parent_section": "§3.2.1.2 [CDISC Submission Value-level Metadata]", "md_verbatim": "Because many different types of observations are all presented in the same structure, there is a need to provide additional metadata to describe expected properties that differentiate (e.g., hematology lab results from serum chemistry lab results in terms of data type, standard units, and other attributes).", "score": 0.3395, "match_basis": "verbatim_token+chapter_route:ch03"}, {"md_atom_id": "md_ch03_a014", "md_file": "knowledge_base/chapters/ch03_submitting_data.md", "md_atom_type": "SENTENCE", "md_parent_section": "§3.2 [Using the CDISC Domain Models in Regulatory Submissions — Dataset Metadata]", "md_verbatim": "The Define-XML document that accompanies a submission should also describe each dataset that is included in the submission and describe the natural key structure of each dataset.", "score": 0.3383, "match_basis": "verbatim_token+chapter_route:ch03"}, {"md_atom_id": "md_ch03_a089", "md_file": "knowledge_base/chapters/ch03_submitting_data.md", "md_atom_type": "SENTENCE", "md_parent_section": "§3.2.1 [Dataset-level Metadata]", "md_verbatim": "See Section 8.4, Relating Non-standard Variable Values to a Parent Domain.", "score": 0.3375, "match_basis": "verbatim_token+chapter_route:ch03"}], "candidate_count": 5, "zero_candidate": false}
{"pdf_atom_id": "sv20_p0044_a004", "pdf_atom_type": "SENTENCE", "pdf_source": "SDTM_v2.0", "pdf_page": 44, "pdf_parent_section": "§3.2.2 [Comments]", "pdf_verbatim": "These are normally supplied by a principal investigator, but might also be collected from other sources such as central reviewers.", "figure_ref": null, "candidates": [{"md_atom_id": "md_ch03_a097", "md_file": "knowledge_base/chapters/ch03_submitting_data.md", "md_atom_type": "SENTENCE", "md_parent_section": "§3.2.1.1 [Primary Keys]", "md_verbatim": "In certain instances, a supplemental qualifier (SUPP--) variable might also contribute to the natural key of a record for a particular domain.", "score": 0.3667, "match_basis": "verbatim_token+chapter_route:ch03"}, {"md_atom_id": "md_ch03_a012", "md_file": "knowledge_base/chapters/ch03_submitting_data.md", "md_atom_type": "SENTENCE", "md_parent_section": "§3.1 [Standard Metadata for Dataset Contents and Attributes]", "md_verbatim": "Thus, the domain models not only demonstrate how to apply the model for the most common domains but also give insight on how to apply general model concepts to other domains not yet defined by CDISC.", "score": 0.3537, "match_basis": "verbatim_token+chapter_route:ch03"}, {"md_atom_id": "md_ch03_a092", "md_file": "knowledge_base/chapters/ch03_submitting_data.md", "md_atom_type": "SENTENCE", "md_parent_section": "§3.2.1.1 [Primary Keys]", "md_verbatim": "Because the purpose of the Keys column is to aid reviewers in understanding the structure of a dataset, sponsors should list all of the natural keys for the dataset.", "score": 0.3537, "match_basis": "verbatim_token+chapter_route:ch03"}, {"md_atom_id": "md_ch03_a110", "md_file": "knowledge_base/chapters/ch03_submitting_data.md", "md_atom_type": "SENTENCE", "md_parent_section": "§3.2.2 [Conformance]", "md_verbatim": "Conformance with the SDTMIG domain models is minimally indicated by:", "score": 0.3485, "match_basis": "verbatim_token+chapter_route:ch03"}, {"md_atom_id": "md_ch03_a104", "md_file": "knowledge_base/chapters/ch03_submitting_data.md", "md_atom_type": "SENTENCE", "md_parent_section": "§3.2.1.2 [CDISC Submission Value-level Metadata]", "md_verbatim": "Because general observation class data structures are fixed, sometimes information that might appear as columns in a more horizontal (denormalized) structure in presentations and reports will instead be represented as rows in an SDTM Findings structure.", "score": 0.3462, "match_basis": "verbatim_token+chapter_route:ch03"}], "candidate_count": 5, "zero_candidate": false}
{"pdf_atom_id": "sv20_p0044_a005", "pdf_atom_type": "SENTENCE", "pdf_source": "SDTM_v2.0", "pdf_page": 44, "pdf_parent_section": "§3.2.2 [Comments]", "pdf_verbatim": "When collected, comments should be submitted in a single Comments domain, defined here.", "figure_ref": null, "candidates": [{"md_atom_id": "md_ch03_a015", "md_file": "knowledge_base/chapters/ch03_submitting_data.md", "md_atom_type": "SENTENCE", "md_parent_section": "§3.2 [Using the CDISC Domain Models in Regulatory Submissions — Dataset Metadata]", "md_verbatim": "In addition, comments can also be provided where needed.", "score": 0.3931, "match_basis": "verbatim_token+chapter_route:ch03"}, {"md_atom_id": "md_ch03_a107", "md_file": "knowledge_base/chapters/ch03_submitting_data.md", "md_atom_type": "SENTENCE", "md_parent_section": "§3.2.1.2 [CDISC Submission Value-level Metadata]", "md_verbatim": "The value-level metadata should be provided as a separate section of the Define-XML document.", "score": 0.3892, "match_basis": "verbatim_token+chapter_route:ch03"}, {"md_atom_id": "md_ch03_a014", "md_file": "knowledge_base/chapters/ch03_submitting_data.md", "md_atom_type": "SENTENCE", "md_parent_section": "§3.2 [Using the CDISC Domain Models in Regulatory Submissions — Dataset Metadata]", "md_verbatim": "The Define-XML document that accompanies a submission should also describe each dataset that is included in the submission and describe the natural key structure of each dataset.", "score": 0.3884, "match_basis": "verbatim_token+chapter_route:ch03"}, {"md_atom_id": "md_ch03_a012", "md_file": "knowledge_base/chapters/ch03_submitting_data.md", "md_atom_type": "SENTENCE", "md_parent_section": "§3.1 [Standard Metadata for Dataset Contents and Attributes]", "md_verbatim": "Thus, the domain models not only demonstrate how to apply the model for the most common domains but also give insight on how to apply general model concepts to other domains not yet defined by CDISC.", "score": 0.3774, "match_basis": "verbatim_token+chapter_route:ch03"}, {"md_atom_id": "md_ch03_a005", "md_file": "knowledge_base/chapters/ch03_submitting_data.md", "md_atom_type": "SENTENCE", "md_parent_section": "§3.1 [Standard Metadata for Dataset Contents and Attributes]", "md_verbatim": "These include descriptive metadata attributes that should be included in a Define-XML document.", "score": 0.3759, "match_basis": "verbatim_token+chapter_route:ch03"}], "candidate_count": 5, "zero_candidate": false}
{"pdf_atom_id": "sv20_p0044_a006", "pdf_atom_type": "SENTENCE", "pdf_source": "SDTM_v2.0", "pdf_page": 44, "pdf_parent_section": "§3.2.2 [Comments]", "pdf_verbatim": "See the implementation guides for further guidance regarding use of additional identifier and timing variables.", "figure_ref": null, "candidates": [{"md_atom_id": "md_ch03_a089", "md_file": "knowledge_base/chapters/ch03_submitting_data.md", "md_atom_type": "SENTENCE", "md_parent_section": "§3.2.1 [Dataset-level Metadata]", "md_verbatim": "See Section 8.4, Relating Non-standard Variable Values to a Parent Domain.", "score": 0.4037, "match_basis": "verbatim_token+chapter_route:ch03"}, {"md_atom_id": "md_ch03_a097", "md_file": "knowledge_base/chapters/ch03_submitting_data.md", "md_atom_type": "SENTENCE", "md_parent_section": "§3.2.1.1 [Primary Keys]", "md_verbatim": "In certain instances, a supplemental qualifier (SUPP--) variable might also contribute to the natural key of a record for a particular domain.", "score": 0.4036, "match_basis": "verbatim_token+chapter_route:ch03"}, {"md_atom_id": "md_ch03_a098", "md_file": "knowledge_base/chapters/ch03_submitting_data.md", "md_atom_type": "SENTENCE", "md_parent_section": "§3.2.1.1 [Primary Keys]", "md_verbatim": "See Section 4.1.9, Assigning Natural Keys in the Metadata, for how this should be represented, and for additional information on keys.", "score": 0.39, "match_basis": "verbatim_token+chapter_route:ch03"}, {"md_atom_id": "md_ch03_a095", "md_file": "knowledge_base/chapters/ch03_submitting_data.md", "md_atom_type": "SENTENCE", "md_parent_section": "§3.2.1.1 [Primary Keys]", "md_verbatim": "For all the general observation-class domains (and for some special-purpose domains), the --SEQ variable was created so that a unique record could be identified consistently across all of these domains via its use, along with STUDYID, USUBJID, and DOMAIN.", "score": 0.3839, "match_basis": "verbatim_token+chapter_route:ch03"}, {"md_atom_id": "md_ch03_a015", "md_file": "knowledge_base/chapters/ch03_submitting_data.md", "md_atom_type": "SENTENCE", "md_parent_section": "§3.2 [Using the CDISC Domain Models in Regulatory Submissions — Dataset Metadata]", "md_verbatim": "In addition, comments can also be provided where needed.", "score": 0.38, "match_basis": "verbatim_token+chapter_route:ch03"}], "candidate_count": 5, "zero_candidate": false}
{"pdf_atom_id": "sv20_p0044_a007", "pdf_atom_type": "HEADING", "pdf_source": "SDTM_v2.0", "pdf_page": 44, "pdf_parent_section": "§3.2.2 [Comments]", "pdf_verbatim": "Comments Domain Variables", "figure_ref": null, "candidates": [{"md_atom_id": "md_ch03_a013", "md_file": "knowledge_base/chapters/ch03_submitting_data.md", "md_atom_type": "HEADING", "md_parent_section": "§3 [Submitting Data in Standard Format]", "md_verbatim": "## 3.2 Using the CDISC Domain Models in Regulatory Submissions — Dataset Metadata", "score": 0.3444, "match_basis": "verbatim_token+chapter_route:ch03"}, {"md_atom_id": "md_ch03_a003", "md_file": "knowledge_base/chapters/ch03_submitting_data.md", "md_atom_type": "HEADING", "md_parent_section": "§3 [Submitting Data in Standard Format]", "md_verbatim": "## 3.1 Standard Metadata for Dataset Contents and Attributes", "score": 0.3267, "match_basis": "verbatim_token+chapter_route:ch03"}, {"md_atom_id": "md_ch03_a001", "md_file": "knowledge_base/chapters/ch03_submitting_data.md", "md_atom_type": "HEADING", "md_parent_section": "§3 [Submitting Data in Standard Format]", "md_verbatim": "# SDTMIG v3.4 — Chapter 3: Submitting Data in Standard Format", "score": 0.3, "match_basis": "verbatim_token+chapter_route:ch03"}, {"md_atom_id": "md_ch03_a021", "md_file": "knowledge_base/chapters/ch03_submitting_data.md", "md_atom_type": "HEADING", "md_parent_section": "§3.2 [Using the CDISC Domain Models in Regulatory Submissions — Dataset Metadata]", "md_verbatim": "### 3.2.1 Dataset-level Metadata", "score": 0.3, "match_basis": "verbatim_token+chapter_route:ch03"}, {"md_atom_id": "md_ch03_a090", "md_file": "knowledge_base/chapters/ch03_submitting_data.md", "md_atom_type": "HEADING", "md_parent_section": "§3.2.1 [Dataset-level Metadata]", "md_verbatim": "### 3.2.1.1 Primary Keys", "score": 0.3, "match_basis": "verbatim_token+chapter_route:ch03"}], "candidate_count": 5, "zero_candidate": false}
{"pdf_atom_id": "sv20_p0044_a008", "pdf_atom_type": "TABLE_HEADER", "pdf_source": "SDTM_v2.0", "pdf_page": 44, "pdf_parent_section": "§3.2.2 [Comments]", "pdf_verbatim": "# | Variable Name | Variable Label | Type | Format | Role | Variable(s) Qualified | Usage Restrictions | Variable C-code | Definition | Notes | Examples", "figure_ref": null, "candidates": [{"md_atom_id": "md_ch03_a024", "md_file": "knowledge_base/chapters/ch03_submitting_data.md", "md_atom_type": "TABLE_HEADER", "md_parent_section": "§3.2.1 [Dataset-level Metadata]", "md_verbatim": "| Dataset | Description | Class | Structure | Purpose | Keys | Location |\n|---------|-------------|-------|-----------|---------|------|----------|", "score": 0.3205, "match_basis": "verbatim_token+chapter_route:ch03"}, {"md_atom_id": "md_ch03_a086", "md_file": "knowledge_base/chapters/ch03_submitting_data.md", "md_atom_type": "TABLE_ROW", "md_parent_section": "§3.2.1 [Dataset-level Metadata]", "md_verbatim": "| SUPP-- | Supplemental Qualifiers for [domain name] | Relationship | One record per supplemental qualifier per related parent domain record(s) | Tabulation | STUDYID, RDOMAIN, USUBJID, IDVAR, IDVARVAL, QNAM | supp--.xpt |", "score": 0.3157, "match_basis": "verbatim_token+chapter_route:ch03"}, {"md_atom_id": "md_ch03_a080", "md_file": "knowledge_base/chapters/ch03_submitting_data.md", "md_atom_type": "TABLE_ROW", "md_parent_section": "§3.2.1 [Dataset-level Metadata]", "md_verbatim": "| TM | Trial Disease Milestones | Trial Design | One record per Disease Milestone type | Tabulation | STUDYID, MIDSTYPE | tm.xpt |", "score": 0.2916, "match_basis": "verbatim_token+chapter_route:ch03"}, {"md_atom_id": "md_ch03_a062", "md_file": "knowledge_base/chapters/ch03_submitting_data.md", "md_atom_type": "TABLE_ROW", "md_parent_section": "§3.2.1 [Dataset-level Metadata]", "md_verbatim": "| PE | Physical Examination | Findings | One record per body system or abnormality per visit per subject | Tabulation | STUDYID, USUBJID, PETESTCD, VISITNUM | pe.xpt |", "score": 0.2904, "match_basis": "verbatim_token+chapter_route:ch03"}, {"md_atom_id": "md_ch03_a071", "md_file": "knowledge_base/chapters/ch03_submitting_data.md", "md_atom_type": "TABLE_ROW", "md_parent_section": "§3.2.1 [Dataset-level Metadata]", "md_verbatim": "| TU | Tumor/Lesion Identification | Findings | One record per identified tumor per subject per assessor | Tabulation | STUDYID, USUBJID, TUEVALID, TULNKID | tu.xpt |", "score": 0.2814, "match_basis": "verbatim_token+chapter_route:ch03"}], "candidate_count": 5, "zero_candidate": false}
{"pdf_atom_id": "sv20_p0044_a009", "pdf_atom_type": "TABLE_ROW", "pdf_source": "SDTM_v2.0", "pdf_page": 44, "pdf_parent_section": "§3.2.2 [Comments]", "pdf_verbatim": "1 | STUDYID | Study Identifier | Char | | Identifier | | | C83082 | A sequence of characters used by the sponsor to uniquely identify the study. | | ", "figure_ref": null, "candidates": [{"md_atom_id": "md_ch03_a087", "md_file": "knowledge_base/chapters/ch03_submitting_data.md", "md_atom_type": "TABLE_ROW", "md_parent_section": "§3.2.1 [Dataset-level Metadata]", "md_verbatim": "| OI | Non-host Organism Identifiers | Study Reference | One record per taxon per non-host organism | Tabulation | NHOID, OISEQ | oi.xpt |", "score": 0.4098, "match_basis": "verbatim_token+chapter_route:ch03"}, {"md_atom_id": "md_ch03_a084", "md_file": "knowledge_base/chapters/ch03_submitting_data.md", "md_atom_type": "TABLE_ROW", "md_parent_section": "§3.2.1 [Dataset-level Metadata]", "md_verbatim": "| RELSPEC | Related Specimens | Relationship | One record per specimen identifier per subject | Tabulation | STUDYID, USUBJID, REFID | relspec.xpt |", "score": 0.3966, "match_basis": "verbatim_token+chapter_route:ch03"}, {"md_atom_id": "md_ch03_a038", "md_file": "knowledge_base/chapters/ch03_submitting_data.md", "md_atom_type": "TABLE_ROW", "md_parent_section": "§3.2.1 [Dataset-level Metadata]", "md_verbatim": "| BE | Biospecimen Events | Events | One record per instance per biospecimen event per biospecimen identifier per subject | Tabulation | STUDYID, USUBJID, BEREFID, BETERM, BESTDTC | be.xpt |", "score": 0.3918, "match_basis": "verbatim_token+chapter_route:ch03"}, {"md_atom_id": "md_ch03_a068", "md_file": "knowledge_base/chapters/ch03_submitting_data.md", "md_atom_type": "TABLE_ROW", "md_parent_section": "§3.2.1 [Dataset-level Metadata]", "md_verbatim": "| SC | Subject Characteristics | Findings | One record per characteristic per visit per subject. | Tabulation | STUDYID, USUBJID, SCTESTCD, VISITNUM | sc.xpt |", "score": 0.3791, "match_basis": "verbatim_token+chapter_route:ch03"}, {"md_atom_id": "md_ch03_a071", "md_file": "knowledge_base/chapters/ch03_submitting_data.md", "md_atom_type": "TABLE_ROW", "md_parent_section": "§3.2.1 [Dataset-level Metadata]", "md_verbatim": "| TU | Tumor/Lesion Identification | Findings | One record per identified tumor per subject per assessor | Tabulation | STUDYID, USUBJID, TUEVALID, TULNKID | tu.xpt |", "score": 0.378, "match_basis": "verbatim_token+chapter_route:ch03"}], "candidate_count": 5, "zero_candidate": false}
{"pdf_atom_id": "sv20_p0044_a010", "pdf_atom_type": "TABLE_ROW", "pdf_source": "SDTM_v2.0", "pdf_page": 44, "pdf_parent_section": "§3.2.2 [Comments]", "pdf_verbatim": "2 | DOMAIN | Domain Abbreviation | Char | | Identifier | | | C49558 | An abbreviation for a collection of observations, with a topic-specific commonality. | 2-character abbreviation, which must be \"CO\". | ", "figure_ref": null, "candidates": [{"md_atom_id": "md_ch03_a032", "md_file": "knowledge_base/chapters/ch03_submitting_data.md", "md_atom_type": "TABLE_ROW", "md_parent_section": "§3.2.1 [Dataset-level Metadata]", "md_verbatim": "| EC | Exposure as Collected | Interventions | One record per protocol-specified study treatment, collected-dosing interval, per subject, per mood | Tabulation | STUDYID, USUBJID, ECTRT, ECSTDTC, ECMOOD | ec.xpt |", "score": 0.394, "match_basis": "verbatim_token+chapter_route:ch03"}, {"md_atom_id": "md_ch03_a084", "md_file": "knowledge_base/chapters/ch03_submitting_data.md", "md_atom_type": "TABLE_ROW", "md_parent_section": "§3.2.1 [Dataset-level Metadata]", "md_verbatim": "| RELSPEC | Related Specimens | Relationship | One record per specimen identifier per subject | Tabulation | STUDYID, USUBJID, REFID | relspec.xpt |", "score": 0.3865, "match_basis": "verbatim_token+chapter_route:ch03"}, {"md_atom_id": "md_ch03_a038", "md_file": "knowledge_base/chapters/ch03_submitting_data.md", "md_atom_type": "TABLE_ROW", "md_parent_section": "§3.2.1 [Dataset-level Metadata]", "md_verbatim": "| BE | Biospecimen Events | Events | One record per instance per biospecimen event per biospecimen identifier per subject | Tabulation | STUDYID, USUBJID, BEREFID, BETERM, BESTDTC | be.xpt |", "score": 0.378, "match_basis": "verbatim_token+chapter_route:ch03"}, {"md_atom_id": "md_ch03_a033", "md_file": "knowledge_base/chapters/ch03_submitting_data.md", "md_atom_type": "TABLE_ROW", "md_parent_section": "§3.2.1 [Dataset-level Metadata]", "md_verbatim": "| EX | Exposure | Interventions | One record per protocol-specified study treatment, constant-dosing interval, per subject | Tabulation | STUDYID, USUBJID, EXTRT, EXSTDTC | ex.xpt |", "score": 0.3756, "match_basis": "verbatim_token+chapter_route:ch03"}, {"md_atom_id": "md_ch03_a044", "md_file": "knowledge_base/chapters/ch03_submitting_data.md", "md_atom_type": "TABLE_ROW", "md_parent_section": "§3.2.1 [Dataset-level Metadata]", "md_verbatim": "| BS | Biospecimen Findings | Findings | One record per measurement per biospecimen identifier per subject | Tabulation | STUDYID, USUBJID, BSREFID, BSTESTCD | bs.xpt |", "score": 0.372, "match_basis": "verbatim_token+chapter_route:ch03"}], "candidate_count": 5, "zero_candidate": false}
{"pdf_atom_id": "sv20_p0044_a011", "pdf_atom_type": "TABLE_ROW", "pdf_source": "SDTM_v2.0", "pdf_page": 44, "pdf_parent_section": "§3.2.2 [Comments]", "pdf_verbatim": "3 | RDOMAIN | Related Domain Abbreviation | Char | | Record Qualifier | | | | | | Domain abbreviation of the parent record(s). Null for records collected on general comments or additional information section of CRF.", "figure_ref": null, "candidates": [{"md_atom_id": "md_ch03_a086", "md_file": "knowledge_base/chapters/ch03_submitting_data.md", "md_atom_type": "TABLE_ROW", "md_parent_section": "§3.2.1 [Dataset-level Metadata]", "md_verbatim": "| SUPP-- | Supplemental Qualifiers for [domain name] | Relationship | One record per supplemental qualifier per related parent domain record(s) | Tabulation | STUDYID, RDOMAIN, USUBJID, IDVAR, IDVARVAL, QNAM | supp--.xpt |", "score": 0.4622, "match_basis": "verbatim_token+chapter_route:ch03"}, {"md_atom_id": "md_ch03_a084", "md_file": "knowledge_base/chapters/ch03_submitting_data.md", "md_atom_type": "TABLE_ROW", "md_parent_section": "§3.2.1 [Dataset-level Metadata]", "md_verbatim": "| RELSPEC | Related Specimens | Relationship | One record per specimen identifier per subject | Tabulation | STUDYID, USUBJID, REFID | relspec.xpt |", "score": 0.3982, "match_basis": "verbatim_token+chapter_route:ch03"}, {"md_atom_id": "md_ch03_a083", "md_file": "knowledge_base/chapters/ch03_submitting_data.md", "md_atom_type": "TABLE_ROW", "md_parent_section": "§3.2.1 [Dataset-level Metadata]", "md_verbatim": "| RELREC | Related Records | Relationship | One record per related record, group of records or dataset | Tabulation | STUDYID, RDOMAIN, USUBJID, IDVAR, IDVARVAL, RELID | relrec.xpt |", "score": 0.3973, "match_basis": "verbatim_token+chapter_route:ch03"}, {"md_atom_id": "md_ch03_a032", "md_file": "knowledge_base/chapters/ch03_submitting_data.md", "md_atom_type": "TABLE_ROW", "md_parent_section": "§3.2.1 [Dataset-level Metadata]", "md_verbatim": "| EC | Exposure as Collected | Interventions | One record per protocol-specified study treatment, collected-dosing interval, per subject, per mood | Tabulation | STUDYID, USUBJID, ECTRT, ECSTDTC, ECMOOD | ec.xpt |", "score": 0.3832, "match_basis": "verbatim_token+chapter_route:ch03"}, {"md_atom_id": "md_ch03_a025", "md_file": "knowledge_base/chapters/ch03_submitting_data.md", "md_atom_type": "TABLE_ROW", "md_parent_section": "§3.2.1 [Dataset-level Metadata]", "md_verbatim": "| CO | Comments | Special Purpose | One record per comment per subject | Tabulation | STUDYID, USUBJID, IDVAR, COREF, COOTC | co.xpt |", "score": 0.3826, "match_basis": "verbatim_token+chapter_route:ch03"}], "candidate_count": 5, "zero_candidate": false}
{"pdf_atom_id": "sv20_p0044_a012", "pdf_atom_type": "TABLE_ROW", "pdf_source": "SDTM_v2.0", "pdf_page": 44, "pdf_parent_section": "§3.2.2 [Comments]", "pdf_verbatim": "4 | USUBJID | Unique Subject Identifier | Char | | Identifier | | | C69256 | A sequence of characters used to uniquely identify a subject across all studies for all applications or submissions involving the product. | | ", "figure_ref": null, "candidates": [{"md_atom_id": "md_ch03_a071", "md_file": "knowledge_base/chapters/ch03_submitting_data.md", "md_atom_type": "TABLE_ROW", "md_parent_section": "§3.2.1 [Dataset-level Metadata]", "md_verbatim": "| TU | Tumor/Lesion Identification | Findings | One record per identified tumor per subject per assessor | Tabulation | STUDYID, USUBJID, TUEVALID, TULNKID | tu.xpt |", "score": 0.4143, "match_basis": "verbatim_token+chapter_route:ch03"}, {"md_atom_id": "md_ch03_a084", "md_file": "knowledge_base/chapters/ch03_submitting_data.md", "md_atom_type": "TABLE_ROW", "md_parent_section": "§3.2.1 [Dataset-level Metadata]", "md_verbatim": "| RELSPEC | Related Specimens | Relationship | One record per specimen identifier per subject | Tabulation | STUDYID, USUBJID, REFID | relspec.xpt |", "score": 0.4138, "match_basis": "verbatim_token+chapter_route:ch03"}, {"md_atom_id": "md_ch03_a034", "md_file": "knowledge_base/chapters/ch03_submitting_data.md", "md_atom_type": "TABLE_ROW", "md_parent_section": "§3.2.1 [Dataset-level Metadata]", "md_verbatim": "| ML | Meal Data | Interventions | One record per food product occurrence or constant intake interval per subject | Tabulation | STUDYID, USUBJID, MLTRT, MLSTDTC | ml.xpt |", "score": 0.4091, "match_basis": "verbatim_token+chapter_route:ch03"}, {"md_atom_id": "md_ch03_a038", "md_file": "knowledge_base/chapters/ch03_submitting_data.md", "md_atom_type": "TABLE_ROW", "md_parent_section": "§3.2.1 [Dataset-level Metadata]", "md_verbatim": "| BE | Biospecimen Events | Events | One record per instance per biospecimen event per biospecimen identifier per subject | Tabulation | STUDYID, USUBJID, BEREFID, BETERM, BESTDTC | be.xpt |", "score": 0.4087, "match_basis": "verbatim_token+chapter_route:ch03"}, {"md_atom_id": "md_ch03_a068", "md_file": "knowledge_base/chapters/ch03_submitting_data.md", "md_atom_type": "TABLE_ROW", "md_parent_section": "§3.2.1 [Dataset-level Metadata]", "md_verbatim": "| SC | Subject Characteristics | Findings | One record per characteristic per visit per subject. | Tabulation | STUDYID, USUBJID, SCTESTCD, VISITNUM | sc.xpt |", "score": 0.4059, "match_basis": "verbatim_token+chapter_route:ch03"}], "candidate_count": 5, "zero_candidate": false}
{"pdf_atom_id": "sv20_p0044_a013", "pdf_atom_type": "TABLE_ROW", "pdf_source": "SDTM_v2.0", "pdf_page": 44, "pdf_parent_section": "§3.2.2 [Comments]", "pdf_verbatim": "5 | POOLID | Pool Identifier | Char | | Identifier | | | C117053 | A sequence of characters used to uniquely identify a group of subjects that have been pooled together. | The result is not assignable to any one individual. | ", "figure_ref": null, "candidates": [{"md_atom_id": "md_ch03_a071", "md_file": "knowledge_base/chapters/ch03_submitting_data.md", "md_atom_type": "TABLE_ROW", "md_parent_section": "§3.2.1 [Dataset-level Metadata]", "md_verbatim": "| TU | Tumor/Lesion Identification | Findings | One record per identified tumor per subject per assessor | Tabulation | STUDYID, USUBJID, TUEVALID, TULNKID | tu.xpt |", "score": 0.375, "match_basis": "verbatim_token+chapter_route:ch03"}, {"md_atom_id": "md_ch03_a068", "md_file": "knowledge_base/chapters/ch03_submitting_data.md", "md_atom_type": "TABLE_ROW", "md_parent_section": "§3.2.1 [Dataset-level Metadata]", "md_verbatim": "| SC | Subject Characteristics | Findings | One record per characteristic per visit per subject. | Tabulation | STUDYID, USUBJID, SCTESTCD, VISITNUM | sc.xpt |", "score": 0.3703, "match_basis": "verbatim_token+chapter_route:ch03"}, {"md_atom_id": "md_ch03_a038", "md_file": "knowledge_base/chapters/ch03_submitting_data.md", "md_atom_type": "TABLE_ROW", "md_parent_section": "§3.2.1 [Dataset-level Metadata]", "md_verbatim": "| BE | Biospecimen Events | Events | One record per instance per biospecimen event per biospecimen identifier per subject | Tabulation | STUDYID, USUBJID, BEREFID, BETERM, BESTDTC | be.xpt |", "score": 0.3701, "match_basis": "verbatim_token+chapter_route:ch03"}, {"md_atom_id": "md_ch03_a044", "md_file": "knowledge_base/chapters/ch03_submitting_data.md", "md_atom_type": "TABLE_ROW", "md_parent_section": "§3.2.1 [Dataset-level Metadata]", "md_verbatim": "| BS | Biospecimen Findings | Findings | One record per measurement per biospecimen identifier per subject | Tabulation | STUDYID, USUBJID, BSREFID, BSTESTCD | bs.xpt |", "score": 0.3696, "match_basis": "verbatim_token+chapter_route:ch03"}, {"md_atom_id": "md_ch03_a084", "md_file": "knowledge_base/chapters/ch03_submitting_data.md", "md_atom_type": "TABLE_ROW", "md_parent_section": "§3.2.1 [Dataset-level Metadata]", "md_verbatim": "| RELSPEC | Related Specimens | Relationship | One record per specimen identifier per subject | Tabulation | STUDYID, USUBJID, REFID | relspec.xpt |", "score": 0.3661, "match_basis": "verbatim_token+chapter_route:ch03"}], "candidate_count": 5, "zero_candidate": false}
{"pdf_atom_id": "sv20_p0044_a014", "pdf_atom_type": "TABLE_ROW", "pdf_source": "SDTM_v2.0", "pdf_page": 44, "pdf_parent_section": "§3.2.2 [Comments]", "pdf_verbatim": "6 | SPDEVID | Sponsor Device Identifier | Char | | Identifier | | | C117060 | A sequence of characters used by the sponsor to uniquely identify a specific device. | | ", "figure_ref": null, "candidates": [{"md_atom_id": "md_ch03_a087", "md_file": "knowledge_base/chapters/ch03_submitting_data.md", "md_atom_type": "TABLE_ROW", "md_parent_section": "§3.2.1 [Dataset-level Metadata]", "md_verbatim": "| OI | Non-host Organism Identifiers | Study Reference | One record per taxon per non-host organism | Tabulation | NHOID, OISEQ | oi.xpt |", "score": 0.3774, "match_basis": "verbatim_token+chapter_route:ch03"}, {"md_atom_id": "md_ch03_a084", "md_file": "knowledge_base/chapters/ch03_submitting_data.md", "md_atom_type": "TABLE_ROW", "md_parent_section": "§3.2.1 [Dataset-level Metadata]", "md_verbatim": "| RELSPEC | Related Specimens | Relationship | One record per specimen identifier per subject | Tabulation | STUDYID, USUBJID, REFID | relspec.xpt |", "score": 0.3742, "match_basis": "verbatim_token+chapter_route:ch03"}, {"md_atom_id": "md_ch03_a038", "md_file": "knowledge_base/chapters/ch03_submitting_data.md", "md_atom_type": "TABLE_ROW", "md_parent_section": "§3.2.1 [Dataset-level Metadata]", "md_verbatim": "| BE | Biospecimen Events | Events | One record per instance per biospecimen event per biospecimen identifier per subject | Tabulation | STUDYID, USUBJID, BEREFID, BETERM, BESTDTC | be.xpt |", "score": 0.3722, "match_basis": "verbatim_token+chapter_route:ch03"}, {"md_atom_id": "md_ch03_a044", "md_file": "knowledge_base/chapters/ch03_submitting_data.md", "md_atom_type": "TABLE_ROW", "md_parent_section": "§3.2.1 [Dataset-level Metadata]", "md_verbatim": "| BS | Biospecimen Findings | Findings | One record per measurement per biospecimen identifier per subject | Tabulation | STUDYID, USUBJID, BSREFID, BSTESTCD | bs.xpt |", "score": 0.3595, "match_basis": "verbatim_token+chapter_route:ch03"}, {"md_atom_id": "md_ch03_a032", "md_file": "knowledge_base/chapters/ch03_submitting_data.md", "md_atom_type": "TABLE_ROW", "md_parent_section": "§3.2.1 [Dataset-level Metadata]", "md_verbatim": "| EC | Exposure as Collected | Interventions | One record per protocol-specified study treatment, collected-dosing interval, per subject, per mood | Tabulation | STUDYID, USUBJID, ECTRT, ECSTDTC, ECMOOD | ec.xpt |", "score": 0.3524, "match_basis": "verbatim_token+chapter_route:ch03"}], "candidate_count": 5, "zero_candidate": false}
{"pdf_atom_id": "sv20_p0044_a015", "pdf_atom_type": "TABLE_ROW", "pdf_source": "SDTM_v2.0", "pdf_page": 44, "pdf_parent_section": "§3.2.2 [Comments]", "pdf_verbatim": "7 | COSEQ | Sequence Number | Num | | Identifier | | | | | | Sequence number to ensure uniqueness within the dataset.", "figure_ref": null, "candidates": [{"md_atom_id": "md_ch03_a087", "md_file": "knowledge_base/chapters/ch03_submitting_data.md", "md_atom_type": "TABLE_ROW", "md_parent_section": "§3.2.1 [Dataset-level Metadata]", "md_verbatim": "| OI | Non-host Organism Identifiers | Study Reference | One record per taxon per non-host organism | Tabulation | NHOID, OISEQ | oi.xpt |", "score": 0.3815, "match_basis": "verbatim_token+chapter_route:ch03"}, {"md_atom_id": "md_ch03_a084", "md_file": "knowledge_base/chapters/ch03_submitting_data.md", "md_atom_type": "TABLE_ROW", "md_parent_section": "§3.2.1 [Dataset-level Metadata]", "md_verbatim": "| RELSPEC | Related Specimens | Relationship | One record per specimen identifier per subject | Tabulation | STUDYID, USUBJID, REFID | relspec.xpt |", "score": 0.3621, "match_basis": "verbatim_token+chapter_route:ch03"}, {"md_atom_id": "md_ch03_a038", "md_file": "knowledge_base/chapters/ch03_submitting_data.md", "md_atom_type": "TABLE_ROW", "md_parent_section": "§3.2.1 [Dataset-level Metadata]", "md_verbatim": "| BE | Biospecimen Events | Events | One record per instance per biospecimen event per biospecimen identifier per subject | Tabulation | STUDYID, USUBJID, BEREFID, BETERM, BESTDTC | be.xpt |", "score": 0.3612, "match_basis": "verbatim_token+chapter_route:ch03"}, {"md_atom_id": "md_ch03_a044", "md_file": "knowledge_base/chapters/ch03_submitting_data.md", "md_atom_type": "TABLE_ROW", "md_parent_section": "§3.2.1 [Dataset-level Metadata]", "md_verbatim": "| BS | Biospecimen Findings | Findings | One record per measurement per biospecimen identifier per subject | Tabulation | STUDYID, USUBJID, BSREFID, BSTESTCD | bs.xpt |", "score": 0.3606, "match_basis": "verbatim_token+chapter_route:ch03"}, {"md_atom_id": "md_ch03_a071", "md_file": "knowledge_base/chapters/ch03_submitting_data.md", "md_atom_type": "TABLE_ROW", "md_parent_section": "§3.2.1 [Dataset-level Metadata]", "md_verbatim": "| TU | Tumor/Lesion Identification | Findings | One record per identified tumor per subject per assessor | Tabulation | STUDYID, USUBJID, TUEVALID, TULNKID | tu.xpt |", "score": 0.348, "match_basis": "verbatim_token+chapter_route:ch03"}], "candidate_count": 5, "zero_candidate": false}
{"pdf_atom_id": "sv20_p0044_a016", "pdf_atom_type": "TABLE_ROW", "pdf_source": "SDTM_v2.0", "pdf_page": 44, "pdf_parent_section": "§3.2.2 [Comments]", "pdf_verbatim": "8 | IDVAR | Identifying Variable | Char | | Record Qualifier | | | | | | Identifying variable in the parent dataset that identifies the record(s) to which the comment applies (e.g., AESEQ, CMGRPID). Used only when individual comments are", "figure_ref": null, "candidates": [{"md_atom_id": "md_ch03_a086", "md_file": "knowledge_base/chapters/ch03_submitting_data.md", "md_atom_type": "TABLE_ROW", "md_parent_section": "§3.2.1 [Dataset-level Metadata]", "md_verbatim": "| SUPP-- | Supplemental Qualifiers for [domain name] | Relationship | One record per supplemental qualifier per related parent domain record(s) | Tabulation | STUDYID, RDOMAIN, USUBJID, IDVAR, IDVARVAL, QNAM | supp--.xpt |", "score": 0.3968, "match_basis": "verbatim_token+chapter_route:ch03"}, {"md_atom_id": "md_ch03_a044", "md_file": "knowledge_base/chapters/ch03_submitting_data.md", "md_atom_type": "TABLE_ROW", "md_parent_section": "§3.2.1 [Dataset-level Metadata]", "md_verbatim": "| BS | Biospecimen Findings | Findings | One record per measurement per biospecimen identifier per subject | Tabulation | STUDYID, USUBJID, BSREFID, BSTESTCD | bs.xpt |", "score": 0.375, "match_basis": "verbatim_token+chapter_route:ch03"}, {"md_atom_id": "md_ch03_a087", "md_file": "knowledge_base/chapters/ch03_submitting_data.md", "md_atom_type": "TABLE_ROW", "md_parent_section": "§3.2.1 [Dataset-level Metadata]", "md_verbatim": "| OI | Non-host Organism Identifiers | Study Reference | One record per taxon per non-host organism | Tabulation | NHOID, OISEQ | oi.xpt |", "score": 0.3743, "match_basis": "verbatim_token+chapter_route:ch03"}, {"md_atom_id": "md_ch03_a071", "md_file": "knowledge_base/chapters/ch03_submitting_data.md", "md_atom_type": "TABLE_ROW", "md_parent_section": "§3.2.1 [Dataset-level Metadata]", "md_verbatim": "| TU | Tumor/Lesion Identification | Findings | One record per identified tumor per subject per assessor | Tabulation | STUDYID, USUBJID, TUEVALID, TULNKID | tu.xpt |", "score": 0.3703, "match_basis": "verbatim_token+chapter_route:ch03"}, {"md_atom_id": "md_ch03_a025", "md_file": "knowledge_base/chapters/ch03_submitting_data.md", "md_atom_type": "TABLE_ROW", "md_parent_section": "§3.2.1 [Dataset-level Metadata]", "md_verbatim": "| CO | Comments | Special Purpose | One record per comment per subject | Tabulation | STUDYID, USUBJID, IDVAR, COREF, COOTC | co.xpt |", "score": 0.3684, "match_basis": "verbatim_token+chapter_route:ch03"}], "candidate_count": 5, "zero_candidate": false}
{"pdf_atom_id": "sv20_p0045_a001", "pdf_atom_type": "TABLE_ROW", "pdf_source": "SDTM_v2.0", "pdf_page": 45, "pdf_parent_section": "§3.2.2 [Comments]", "pdf_verbatim": "8 | IDVAR | Identifying Variable | Char | | Record Qualifier | | | | | | related to domain records. Null for comments collected on separate CRFs.", "figure_ref": null, "candidates": [{"md_atom_id": "md_ch03_a086", "md_file": "knowledge_base/chapters/ch03_submitting_data.md", "md_atom_type": "TABLE_ROW", "md_parent_section": "§3.2.1 [Dataset-level Metadata]", "md_verbatim": "| SUPP-- | Supplemental Qualifiers for [domain name] | Relationship | One record per supplemental qualifier per related parent domain record(s) | Tabulation | STUDYID, RDOMAIN, USUBJID, IDVAR, IDVARVAL, QNAM | supp--.xpt |", "score": 0.4573, "match_basis": "verbatim_token+chapter_route:ch03"}, {"md_atom_id": "md_ch03_a084", "md_file": "knowledge_base/chapters/ch03_submitting_data.md", "md_atom_type": "TABLE_ROW", "md_parent_section": "§3.2.1 [Dataset-level Metadata]", "md_verbatim": "| RELSPEC | Related Specimens | Relationship | One record per specimen identifier per subject | Tabulation | STUDYID, USUBJID, REFID | relspec.xpt |", "score": 0.4163, "match_basis": "verbatim_token+chapter_route:ch03"}, {"md_atom_id": "md_ch03_a083", "md_file": "knowledge_base/chapters/ch03_submitting_data.md", "md_atom_type": "TABLE_ROW", "md_parent_section": "§3.2.1 [Dataset-level Metadata]", "md_verbatim": "| RELREC | Related Records | Relationship | One record per related record, group of records or dataset | Tabulation | STUDYID, RDOMAIN, USUBJID, IDVAR, IDVARVAL, RELID | relrec.xpt |", "score": 0.401, "match_basis": "verbatim_token+chapter_route:ch03"}, {"md_atom_id": "md_ch03_a025", "md_file": "knowledge_base/chapters/ch03_submitting_data.md", "md_atom_type": "TABLE_ROW", "md_parent_section": "§3.2.1 [Dataset-level Metadata]", "md_verbatim": "| CO | Comments | Special Purpose | One record per comment per subject | Tabulation | STUDYID, USUBJID, IDVAR, COREF, COOTC | co.xpt |", "score": 0.3918, "match_basis": "verbatim_token+chapter_route:ch03"}, {"md_atom_id": "md_ch03_a032", "md_file": "knowledge_base/chapters/ch03_submitting_data.md", "md_atom_type": "TABLE_ROW", "md_parent_section": "§3.2.1 [Dataset-level Metadata]", "md_verbatim": "| EC | Exposure as Collected | Interventions | One record per protocol-specified study treatment, collected-dosing interval, per subject, per mood | Tabulation | STUDYID, USUBJID, ECTRT, ECSTDTC, ECMOOD | ec.xpt |", "score": 0.385, "match_basis": "verbatim_token+chapter_route:ch03"}], "candidate_count": 5, "zero_candidate": false}
{"pdf_atom_id": "sv20_p0045_a002", "pdf_atom_type": "TABLE_ROW", "pdf_source": "SDTM_v2.0", "pdf_page": 45, "pdf_parent_section": "§3.2.2 [Comments]", "pdf_verbatim": "9 | IDVARVAL | Identifying Variable Value | Char | | Record Qualifier | | | | | | Value of identifying variable of the parent record(s). Null for comments collected on separate CRFs.", "figure_ref": null, "candidates": [{"md_atom_id": "md_ch03_a086", "md_file": "knowledge_base/chapters/ch03_submitting_data.md", "md_atom_type": "TABLE_ROW", "md_parent_section": "§3.2.1 [Dataset-level Metadata]", "md_verbatim": "| SUPP-- | Supplemental Qualifiers for [domain name] | Relationship | One record per supplemental qualifier per related parent domain record(s) | Tabulation | STUDYID, RDOMAIN, USUBJID, IDVAR, IDVARVAL, QNAM | supp--.xpt |", "score": 0.4429, "match_basis": "verbatim_token+chapter_route:ch03"}, {"md_atom_id": "md_ch03_a084", "md_file": "knowledge_base/chapters/ch03_submitting_data.md", "md_atom_type": "TABLE_ROW", "md_parent_section": "§3.2.1 [Dataset-level Metadata]", "md_verbatim": "| RELSPEC | Related Specimens | Relationship | One record per specimen identifier per subject | Tabulation | STUDYID, USUBJID, REFID | relspec.xpt |", "score": 0.395, "match_basis": "verbatim_token+chapter_route:ch03"}, {"md_atom_id": "md_ch03_a032", "md_file": "knowledge_base/chapters/ch03_submitting_data.md", "md_atom_type": "TABLE_ROW", "md_parent_section": "§3.2.1 [Dataset-level Metadata]", "md_verbatim": "| EC | Exposure as Collected | Interventions | One record per protocol-specified study treatment, collected-dosing interval, per subject, per mood | Tabulation | STUDYID, USUBJID, ECTRT, ECSTDTC, ECMOOD | ec.xpt |", "score": 0.3905, "match_basis": "verbatim_token+chapter_route:ch03"}, {"md_atom_id": "md_ch03_a025", "md_file": "knowledge_base/chapters/ch03_submitting_data.md", "md_atom_type": "TABLE_ROW", "md_parent_section": "§3.2.1 [Dataset-level Metadata]", "md_verbatim": "| CO | Comments | Special Purpose | One record per comment per subject | Tabulation | STUDYID, USUBJID, IDVAR, COREF, COOTC | co.xpt |", "score": 0.3848, "match_basis": "verbatim_token+chapter_route:ch03"}, {"md_atom_id": "md_ch03_a038", "md_file": "knowledge_base/chapters/ch03_submitting_data.md", "md_atom_type": "TABLE_ROW", "md_parent_section": "§3.2.1 [Dataset-level Metadata]", "md_verbatim": "| BE | Biospecimen Events | Events | One record per instance per biospecimen event per biospecimen identifier per subject | Tabulation | STUDYID, USUBJID, BEREFID, BETERM, BESTDTC | be.xpt |", "score": 0.3789, "match_basis": "verbatim_token+chapter_route:ch03"}], "candidate_count": 5, "zero_candidate": false}
{"pdf_atom_id": "sv20_p0045_a003", "pdf_atom_type": "TABLE_ROW", "pdf_source": "SDTM_v2.0", "pdf_page": 45, "pdf_parent_section": "§3.2.2 [Comments]", "pdf_verbatim": "10 | COREF | Comment Reference | Char | | Record Qualifier | | | | | Sponsor-defined reference associated with the comment. | A CRF page number (e.g., 650), a module name (e.g., \"DEMOG\"), or a combination of information that identifies the reference (e.g., \"650-VITALS-VISIT 2\")", "figure_ref": null, "candidates": [{"md_atom_id": "md_ch03_a087", "md_file": "knowledge_base/chapters/ch03_submitting_data.md", "md_atom_type": "TABLE_ROW", "md_parent_section": "§3.2.1 [Dataset-level Metadata]", "md_verbatim": "| OI | Non-host Organism Identifiers | Study Reference | One record per taxon per non-host organism | Tabulation | NHOID, OISEQ | oi.xpt |", "score": 0.4082, "match_basis": "verbatim_token+chapter_route:ch03"}, {"md_atom_id": "md_ch03_a086", "md_file": "knowledge_base/chapters/ch03_submitting_data.md", "md_atom_type": "TABLE_ROW", "md_parent_section": "§3.2.1 [Dataset-level Metadata]", "md_verbatim": "| SUPP-- | Supplemental Qualifiers for [domain name] | Relationship | One record per supplemental qualifier per related parent domain record(s) | Tabulation | STUDYID, RDOMAIN, USUBJID, IDVAR, IDVARVAL, QNAM | supp--.xpt |", "score": 0.4051, "match_basis": "verbatim_token+chapter_route:ch03"}, {"md_atom_id": "md_ch03_a084", "md_file": "knowledge_base/chapters/ch03_submitting_data.md", "md_atom_type": "TABLE_ROW", "md_parent_section": "§3.2.1 [Dataset-level Metadata]", "md_verbatim": "| RELSPEC | Related Specimens | Relationship | One record per specimen identifier per subject | Tabulation | STUDYID, USUBJID, REFID | relspec.xpt |", "score": 0.3992, "match_basis": "verbatim_token+chapter_route:ch03"}, {"md_atom_id": "md_ch03_a038", "md_file": "knowledge_base/chapters/ch03_submitting_data.md", "md_atom_type": "TABLE_ROW", "md_parent_section": "§3.2.1 [Dataset-level Metadata]", "md_verbatim": "| BE | Biospecimen Events | Events | One record per instance per biospecimen event per biospecimen identifier per subject | Tabulation | STUDYID, USUBJID, BEREFID, BETERM, BESTDTC | be.xpt |", "score": 0.3906, "match_basis": "verbatim_token+chapter_route:ch03"}, {"md_atom_id": "md_ch03_a061", "md_file": "knowledge_base/chapters/ch03_submitting_data.md", "md_atom_type": "TABLE_ROW", "md_parent_section": "§3.2.1 [Dataset-level Metadata]", "md_verbatim": "| PC | Pharmacokinetics Concentrations | Findings | One record per sample characteristic or time-point concentration per reference time point or per analyte per subject | Tabulation | STUDYID, USUBJID, PCTESTCD, VISITNUM, PCTPTREF, PCTPTNUM | pc.xpt |", "score": 0.3882, "match_basis": "verbatim_token+chapter_route:ch03"}], "candidate_count": 5, "zero_candidate": false}
{"pdf_atom_id": "sv20_p0045_a004", "pdf_atom_type": "TABLE_ROW", "pdf_source": "SDTM_v2.0", "pdf_page": 45, "pdf_parent_section": "§3.2.2 [Comments]", "pdf_verbatim": "11 | COVAL | Comment | Char | | Topic | | | | | The text of the comment. Text over 200 characters can be added to additional columns COVAL1-COVALn. | ", "figure_ref": null, "candidates": [{"md_atom_id": "md_ch03_a068", "md_file": "knowledge_base/chapters/ch03_submitting_data.md", "md_atom_type": "TABLE_ROW", "md_parent_section": "§3.2.1 [Dataset-level Metadata]", "md_verbatim": "| SC | Subject Characteristics | Findings | One record per characteristic per visit per subject. | Tabulation | STUDYID, USUBJID, SCTESTCD, VISITNUM | sc.xpt |", "score": 0.3587, "match_basis": "verbatim_token+chapter_route:ch03"}, {"md_atom_id": "md_ch03_a061", "md_file": "knowledge_base/chapters/ch03_submitting_data.md", "md_atom_type": "TABLE_ROW", "md_parent_section": "§3.2.1 [Dataset-level Metadata]", "md_verbatim": "| PC | Pharmacokinetics Concentrations | Findings | One record per sample characteristic or time-point concentration per reference time point or per analyte per subject | Tabulation | STUDYID, USUBJID, PCTESTCD, VISITNUM, PCTPTREF, PCTPTNUM | pc.xpt |", "score": 0.3489, "match_basis": "verbatim_token+chapter_route:ch03"}, {"md_atom_id": "md_ch03_a025", "md_file": "knowledge_base/chapters/ch03_submitting_data.md", "md_atom_type": "TABLE_ROW", "md_parent_section": "§3.2.1 [Dataset-level Metadata]", "md_verbatim": "| CO | Comments | Special Purpose | One record per comment per subject | Tabulation | STUDYID, USUBJID, IDVAR, COREF, COOTC | co.xpt |", "score": 0.3477, "match_basis": "verbatim_token+chapter_route:ch03"}, {"md_atom_id": "md_ch03_a033", "md_file": "knowledge_base/chapters/ch03_submitting_data.md", "md_atom_type": "TABLE_ROW", "md_parent_section": "§3.2.1 [Dataset-level Metadata]", "md_verbatim": "| EX | Exposure | Interventions | One record per protocol-specified study treatment, constant-dosing interval, per subject | Tabulation | STUDYID, USUBJID, EXTRT, EXSTDTC | ex.xpt |", "score": 0.3414, "match_basis": "verbatim_token+chapter_route:ch03"}, {"md_atom_id": "md_ch03_a032", "md_file": "knowledge_base/chapters/ch03_submitting_data.md", "md_atom_type": "TABLE_ROW", "md_parent_section": "§3.2.1 [Dataset-level Metadata]", "md_verbatim": "| EC | Exposure as Collected | Interventions | One record per protocol-specified study treatment, collected-dosing interval, per subject, per mood | Tabulation | STUDYID, USUBJID, ECTRT, ECSTDTC, ECMOOD | ec.xpt |", "score": 0.3403, "match_basis": "verbatim_token+chapter_route:ch03"}], "candidate_count": 5, "zero_candidate": false}
{"pdf_atom_id": "sv20_p0045_a005", "pdf_atom_type": "TABLE_ROW", "pdf_source": "SDTM_v2.0", "pdf_page": 45, "pdf_parent_section": "§3.2.2 [Comments]", "pdf_verbatim": "12 | COEVAL | Evaluator | Char | | Record Qualifier | | | | | Used to describe the originator of the comment. | \"CENTRAL REVIEWER\"", "figure_ref": null, "candidates": [{"md_atom_id": "md_ch03_a086", "md_file": "knowledge_base/chapters/ch03_submitting_data.md", "md_atom_type": "TABLE_ROW", "md_parent_section": "§3.2.1 [Dataset-level Metadata]", "md_verbatim": "| SUPP-- | Supplemental Qualifiers for [domain name] | Relationship | One record per supplemental qualifier per related parent domain record(s) | Tabulation | STUDYID, RDOMAIN, USUBJID, IDVAR, IDVARVAL, QNAM | supp--.xpt |", "score": 0.3785, "match_basis": "verbatim_token+chapter_route:ch03"}, {"md_atom_id": "md_ch03_a067", "md_file": "knowledge_base/chapters/ch03_submitting_data.md", "md_atom_type": "TABLE_ROW", "md_parent_section": "§3.2.1 [Dataset-level Metadata]", "md_verbatim": "| RS | Disease Response and Clin Classification | Findings | One record per response assessment or clinical classification assessment per time point per visit per subject per assessor per medical evaluator | Tabulation | STUDYID, USUBJID, RSTESTCD, VISITNUM, RSTPTREF, RSEVAL, RSPTPNUM, RSEVALID | rs.xpt |", "score": 0.3612, "match_basis": "verbatim_token+chapter_route:ch03"}, {"md_atom_id": "md_ch03_a025", "md_file": "knowledge_base/chapters/ch03_submitting_data.md", "md_atom_type": "TABLE_ROW", "md_parent_section": "§3.2.1 [Dataset-level Metadata]", "md_verbatim": "| CO | Comments | Special Purpose | One record per comment per subject | Tabulation | STUDYID, USUBJID, IDVAR, COREF, COOTC | co.xpt |", "score": 0.3568, "match_basis": "verbatim_token+chapter_route:ch03"}, {"md_atom_id": "md_ch03_a071", "md_file": "knowledge_base/chapters/ch03_submitting_data.md", "md_atom_type": "TABLE_ROW", "md_parent_section": "§3.2.1 [Dataset-level Metadata]", "md_verbatim": "| TU | Tumor/Lesion Identification | Findings | One record per identified tumor per subject per assessor | Tabulation | STUDYID, USUBJID, TUEVALID, TULNKID | tu.xpt |", "score": 0.3545, "match_basis": "verbatim_token+chapter_route:ch03"}, {"md_atom_id": "md_ch03_a084", "md_file": "knowledge_base/chapters/ch03_submitting_data.md", "md_atom_type": "TABLE_ROW", "md_parent_section": "§3.2.1 [Dataset-level Metadata]", "md_verbatim": "| RELSPEC | Related Specimens | Relationship | One record per specimen identifier per subject | Tabulation | STUDYID, USUBJID, REFID | relspec.xpt |", "score": 0.3545, "match_basis": "verbatim_token+chapter_route:ch03"}], "candidate_count": 5, "zero_candidate": false}
{"pdf_atom_id": "sv20_p0045_a006", "pdf_atom_type": "TABLE_ROW", "pdf_source": "SDTM_v2.0", "pdf_page": 45, "pdf_parent_section": "§3.2.2 [Comments]", "pdf_verbatim": "13 | COEVALID | Evaluator Identifier | Char | | Variable Qualifier | COEVAL | | | | Used to distinguish multiple evaluators with the same role recorded in --EVAL. | \"RADIOLOGIST1\", \"RADIOLOGIST2\"", "figure_ref": null, "candidates": [{"md_atom_id": "md_ch03_a071", "md_file": "knowledge_base/chapters/ch03_submitting_data.md", "md_atom_type": "TABLE_ROW", "md_parent_section": "§3.2.1 [Dataset-level Metadata]", "md_verbatim": "| TU | Tumor/Lesion Identification | Findings | One record per identified tumor per subject per assessor | Tabulation | STUDYID, USUBJID, TUEVALID, TULNKID | tu.xpt |", "score": 0.378, "match_basis": "verbatim_token+chapter_route:ch03"}, {"md_atom_id": "md_ch03_a086", "md_file": "knowledge_base/chapters/ch03_submitting_data.md", "md_atom_type": "TABLE_ROW", "md_parent_section": "§3.2.1 [Dataset-level Metadata]", "md_verbatim": "| SUPP-- | Supplemental Qualifiers for [domain name] | Relationship | One record per supplemental qualifier per related parent domain record(s) | Tabulation | STUDYID, RDOMAIN, USUBJID, IDVAR, IDVARVAL, QNAM | supp--.xpt |", "score": 0.3774, "match_basis": "verbatim_token+chapter_route:ch03"}, {"md_atom_id": "md_ch03_a087", "md_file": "knowledge_base/chapters/ch03_submitting_data.md", "md_atom_type": "TABLE_ROW", "md_parent_section": "§3.2.1 [Dataset-level Metadata]", "md_verbatim": "| OI | Non-host Organism Identifiers | Study Reference | One record per taxon per non-host organism | Tabulation | NHOID, OISEQ | oi.xpt |", "score": 0.3649, "match_basis": "verbatim_token+chapter_route:ch03"}, {"md_atom_id": "md_ch03_a084", "md_file": "knowledge_base/chapters/ch03_submitting_data.md", "md_atom_type": "TABLE_ROW", "md_parent_section": "§3.2.1 [Dataset-level Metadata]", "md_verbatim": "| RELSPEC | Related Specimens | Relationship | One record per specimen identifier per subject | Tabulation | STUDYID, USUBJID, REFID | relspec.xpt |", "score": 0.3626, "match_basis": "verbatim_token+chapter_route:ch03"}, {"md_atom_id": "md_ch03_a067", "md_file": "knowledge_base/chapters/ch03_submitting_data.md", "md_atom_type": "TABLE_ROW", "md_parent_section": "§3.2.1 [Dataset-level Metadata]", "md_verbatim": "| RS | Disease Response and Clin Classification | Findings | One record per response assessment or clinical classification assessment per time point per visit per subject per assessor per medical evaluator | Tabulation | STUDYID, USUBJID, RSTESTCD, VISITNUM, RSTPTREF, RSEVAL, RSPTPNUM, RSEVALID | rs.xpt |", "score": 0.3622, "match_basis": "verbatim_token+chapter_route:ch03"}], "candidate_count": 5, "zero_candidate": false}
{"pdf_atom_id": "sv20_p0045_a007", "pdf_atom_type": "TABLE_ROW", "pdf_source": "SDTM_v2.0", "pdf_page": 45, "pdf_parent_section": "§3.2.2 [Comments]", "pdf_verbatim": "14 | CODTC | Date/Time of Comment | Char | ISO 8601 datetime or interval | Timing | | | | | Date or date and time of comment on dedicated comment form, if collected. Should be null if this is a child record of another domain or if comment date was not collected. | ", "figure_ref": null, "candidates": [{"md_atom_id": "md_ch03_a032", "md_file": "knowledge_base/chapters/ch03_submitting_data.md", "md_atom_type": "TABLE_ROW", "md_parent_section": "§3.2.1 [Dataset-level Metadata]", "md_verbatim": "| EC | Exposure as Collected | Interventions | One record per protocol-specified study treatment, collected-dosing interval, per subject, per mood | Tabulation | STUDYID, USUBJID, ECTRT, ECSTDTC, ECMOOD | ec.xpt |", "score": 0.3962, "match_basis": "verbatim_token+chapter_route:ch03"}, {"md_atom_id": "md_ch03_a031", "md_file": "knowledge_base/chapters/ch03_submitting_data.md", "md_atom_type": "TABLE_ROW", "md_parent_section": "§3.2.1 [Dataset-level Metadata]", "md_verbatim": "| CM | Concomitant/Prior Medications | Interventions | One record per recorded intervention occurrence or constant-dosing interval per subject | Tabulation | STUDYID, USUBJID, CMTRT, CMSTDTC | cm.xpt |", "score": 0.3937, "match_basis": "verbatim_token+chapter_route:ch03"}, {"md_atom_id": "md_ch03_a086", "md_file": "knowledge_base/chapters/ch03_submitting_data.md", "md_atom_type": "TABLE_ROW", "md_parent_section": "§3.2.1 [Dataset-level Metadata]", "md_verbatim": "| SUPP-- | Supplemental Qualifiers for [domain name] | Relationship | One record per supplemental qualifier per related parent domain record(s) | Tabulation | STUDYID, RDOMAIN, USUBJID, IDVAR, IDVARVAL, QNAM | supp--.xpt |", "score": 0.3738, "match_basis": "verbatim_token+chapter_route:ch03"}, {"md_atom_id": "md_ch03_a033", "md_file": "knowledge_base/chapters/ch03_submitting_data.md", "md_atom_type": "TABLE_ROW", "md_parent_section": "§3.2.1 [Dataset-level Metadata]", "md_verbatim": "| EX | Exposure | Interventions | One record per protocol-specified study treatment, constant-dosing interval, per subject | Tabulation | STUDYID, USUBJID, EXTRT, EXSTDTC | ex.xpt |", "score": 0.3722, "match_basis": "verbatim_token+chapter_route:ch03"}, {"md_atom_id": "md_ch03_a083", "md_file": "knowledge_base/chapters/ch03_submitting_data.md", "md_atom_type": "TABLE_ROW", "md_parent_section": "§3.2.1 [Dataset-level Metadata]", "md_verbatim": "| RELREC | Related Records | Relationship | One record per related record, group of records or dataset | Tabulation | STUDYID, RDOMAIN, USUBJID, IDVAR, IDVARVAL, RELID | relrec.xpt |", "score": 0.3696, "match_basis": "verbatim_token+chapter_route:ch03"}], "candidate_count": 5, "zero_candidate": false}
{"pdf_atom_id": "sv20_p0045_a008", "pdf_atom_type": "TABLE_ROW", "pdf_source": "SDTM_v2.0", "pdf_page": 45, "pdf_parent_section": "§3.2.2 [Comments]", "pdf_verbatim": "15 | CODY | Study Day of Comment | Num | | Timing | | | | | Actual study day of the comment, in integer days. The algorithm for calculations must be relative to the sponsor-defined RFSTDTC variable in the Demographics (DM) domain. | ", "figure_ref": null, "candidates": [{"md_atom_id": "md_ch03_a026", "md_file": "knowledge_base/chapters/ch03_submitting_data.md", "md_atom_type": "TABLE_ROW", "md_parent_section": "§3.2.1 [Dataset-level Metadata]", "md_verbatim": "| DM | Demographics | Special Purpose | One record per subject | Tabulation | STUDYID, USUBJID | dm.xpt |", "score": 0.3939, "match_basis": "verbatim_token+chapter_route:ch03"}, {"md_atom_id": "md_ch03_a086", "md_file": "knowledge_base/chapters/ch03_submitting_data.md", "md_atom_type": "TABLE_ROW", "md_parent_section": "§3.2.1 [Dataset-level Metadata]", "md_verbatim": "| SUPP-- | Supplemental Qualifiers for [domain name] | Relationship | One record per supplemental qualifier per related parent domain record(s) | Tabulation | STUDYID, RDOMAIN, USUBJID, IDVAR, IDVARVAL, QNAM | supp--.xpt |", "score": 0.3896, "match_basis": "verbatim_token+chapter_route:ch03"}, {"md_atom_id": "md_ch03_a027", "md_file": "knowledge_base/chapters/ch03_submitting_data.md", "md_atom_type": "TABLE_ROW", "md_parent_section": "§3.2.1 [Dataset-level Metadata]", "md_verbatim": "| SE | Subject Elements | Special Purpose | One record per actual Element per subject | Tabulation | STUDYID, USUBJID, ETCD, SESTDTC | se.xpt |", "score": 0.3829, "match_basis": "verbatim_token+chapter_route:ch03"}, {"md_atom_id": "md_ch03_a066", "md_file": "knowledge_base/chapters/ch03_submitting_data.md", "md_atom_type": "TABLE_ROW", "md_parent_section": "§3.2.1 [Dataset-level Metadata]", "md_verbatim": "| RP | Reproductive System Findings | Findings | One record per finding or result per time point per visit per subject | Tabulation | STUDYID, DOMAIN, USUBJID, RPTESTCD, VISITNUM | rp.xpt |", "score": 0.382, "match_basis": "verbatim_token+chapter_route:ch03"}, {"md_atom_id": "md_ch03_a083", "md_file": "knowledge_base/chapters/ch03_submitting_data.md", "md_atom_type": "TABLE_ROW", "md_parent_section": "§3.2.1 [Dataset-level Metadata]", "md_verbatim": "| RELREC | Related Records | Relationship | One record per related record, group of records or dataset | Tabulation | STUDYID, RDOMAIN, USUBJID, IDVAR, IDVARVAL, RELID | relrec.xpt |", "score": 0.3762, "match_basis": "verbatim_token+chapter_route:ch03"}], "candidate_count": 5, "zero_candidate": false}
{"pdf_atom_id": "sv20_p0045_a009", "pdf_atom_type": "HEADING", "pdf_source": "SDTM_v2.0", "pdf_page": 45, "pdf_parent_section": "§3.2 [Special-Purpose Domains]", "pdf_verbatim": "3.2.3 Subject Summary Domains", "figure_ref": null, "candidates": [{"md_atom_id": "md_ch03_a090", "md_file": "knowledge_base/chapters/ch03_submitting_data.md", "md_atom_type": "HEADING", "md_parent_section": "§3.2.1 [Dataset-level Metadata]", "md_verbatim": "### 3.2.1.1 Primary Keys", "score": 0.36, "match_basis": "verbatim_token+chapter_route:ch03"}, {"md_atom_id": "md_ch03_a013", "md_file": "knowledge_base/chapters/ch03_submitting_data.md", "md_atom_type": "HEADING", "md_parent_section": "§3 [Submitting Data in Standard Format]", "md_verbatim": "## 3.2 Using the CDISC Domain Models in Regulatory Submissions — Dataset Metadata", "score": 0.3588, "match_basis": "verbatim_token+chapter_route:ch03"}, {"md_atom_id": "md_ch03_a102", "md_file": "knowledge_base/chapters/ch03_submitting_data.md", "md_atom_type": "HEADING", "md_parent_section": "§3.2.1 [Dataset-level Metadata]", "md_verbatim": "### 3.2.1.2 CDISC Submission Value-level Metadata", "score": 0.3162, "match_basis": "verbatim_token+chapter_route:ch03"}, {"md_atom_id": "md_ch03_a001", "md_file": "knowledge_base/chapters/ch03_submitting_data.md", "md_atom_type": "HEADING", "md_parent_section": "§3 [Submitting Data in Standard Format]", "md_verbatim": "# SDTMIG v3.4 — Chapter 3: Submitting Data in Standard Format", "score": 0.314, "match_basis": "verbatim_token+chapter_route:ch03"}, {"md_atom_id": "md_ch03_a003", "md_file": "knowledge_base/chapters/ch03_submitting_data.md", "md_atom_type": "HEADING", "md_parent_section": "§3 [Submitting Data in Standard Format]", "md_verbatim": "## 3.1 Standard Metadata for Dataset Contents and Attributes", "score": 0.3, "match_basis": "verbatim_token+chapter_route:ch03"}], "candidate_count": 5, "zero_candidate": false}
{"pdf_atom_id": "sv20_p0045_a010", "pdf_atom_type": "SENTENCE", "pdf_source": "SDTM_v2.0", "pdf_page": 45, "pdf_parent_section": "§3.2.3 [Subject Summary Domains]", "pdf_verbatim": "Several special-purpose domains are designed to provide summaries of a subject's progress over time.", "figure_ref": null, "candidates": [{"md_atom_id": "md_ch03_a095", "md_file": "knowledge_base/chapters/ch03_submitting_data.md", "md_atom_type": "SENTENCE", "md_parent_section": "§3.2.1.1 [Primary Keys]", "md_verbatim": "For all the general observation-class domains (and for some special-purpose domains), the --SEQ variable was created so that a unique record could be identified consistently across all of these domains via its use, along with STUDYID, USUBJID, and DOMAIN.", "score": 0.3926, "match_basis": "verbatim_token+chapter_route:ch03"}, {"md_atom_id": "md_ch03_a004", "md_file": "knowledge_base/chapters/ch03_submitting_data.md", "md_atom_type": "SENTENCE", "md_parent_section": "§3.1 [Standard Metadata for Dataset Contents and Attributes]", "md_verbatim": "The SDTMIG provides standard descriptions of some of the most commonly used data domains, with metadata attributes.", "score": 0.366, "match_basis": "verbatim_token+chapter_route:ch03"}, {"md_atom_id": "md_ch03_a023", "md_file": "knowledge_base/chapters/ch03_submitting_data.md", "md_atom_type": "SENTENCE", "md_parent_section": "§3.2.1 [Dataset-level Metadata]", "md_verbatim": "The Dataset-level Metadata table provides examples of dataset structures:", "score": 0.36, "match_basis": "verbatim_token+chapter_route:ch03"}, {"md_atom_id": "md_ch03_a106", "md_file": "knowledge_base/chapters/ch03_submitting_data.md", "md_atom_type": "SENTENCE", "md_parent_section": "§3.2.1.2 [CDISC Submission Value-level Metadata]", "md_verbatim": "**Example:** The Vital Signs (VS) data domain could contain subject records related to diastolic and systolic blood pressure, height, weight, and body mass index (BMI). These data are all submitted in the normalized SDTM Findings structure of 1 row per vital signs measurement. This means that there could be 5 records per subject (1 for each test or measurement) for a single visit or time point, with the parameter names stored in the Test Code/Name variables, and the parameter values stored in result variables. Because the unique test code/names could have different attributes (e.g., different origins, roles, definitions) there would be a need to provide value-level metadata for this information.", "score": 0.3581, "match_basis": "verbatim_token+chapter_route:ch03"}, {"md_atom_id": "md_ch03_a096", "md_file": "knowledge_base/chapters/ch03_submitting_data.md", "md_atom_type": "SENTENCE", "md_parent_section": "§3.2.1.1 [Primary Keys]", "md_verbatim": "In most domains, --SEQ will be a surrogate key for a set of variables that comprise the natural key.", "score": 0.3565, "match_basis": "verbatim_token+chapter_route:ch03"}], "candidate_count": 5, "zero_candidate": false}
{"pdf_atom_id": "sv20_p0045_a011", "pdf_atom_type": "SENTENCE", "pdf_source": "SDTM_v2.0", "pdf_page": 45, "pdf_parent_section": "§3.2.3 [Subject Summary Domains]", "pdf_verbatim": "Each dataset is based on a study-level dataset in Section 5.1, The Trial Design Model.", "figure_ref": null, "candidates": [{"md_atom_id": "md_ch03_a009", "md_file": "knowledge_base/chapters/ch03_submitting_data.md", "md_atom_type": "SENTENCE", "md_parent_section": "§3.1 [Standard Metadata for Dataset Contents and Attributes]", "md_verbatim": "The domain models in Section 6, Domain Models Based on the General Observation Classes, illustrate how to apply the SDTM when creating a specific domain dataset.", "score": 0.42, "match_basis": "verbatim_token+chapter_route:ch03"}, {"md_atom_id": "md_ch03_a091", "md_file": "knowledge_base/chapters/ch03_submitting_data.md", "md_atom_type": "SENTENCE", "md_parent_section": "§3.2.1.1 [Primary Keys]", "md_verbatim": "The table in Section 3.2.1, Dataset-level Metadata, shows examples of what a sponsor might submit as variables that comprise the primary key for SDTM datasets.", "score": 0.4125, "match_basis": "verbatim_token+chapter_route:ch03"}, {"md_atom_id": "md_ch03_a023", "md_file": "knowledge_base/chapters/ch03_submitting_data.md", "md_atom_type": "SENTENCE", "md_parent_section": "§3.2.1 [Dataset-level Metadata]", "md_verbatim": "The Dataset-level Metadata table provides examples of dataset structures:", "score": 0.4053, "match_basis": "verbatim_token+chapter_route:ch03"}, {"md_atom_id": "md_ch03_a107", "md_file": "knowledge_base/chapters/ch03_submitting_data.md", "md_atom_type": "SENTENCE", "md_parent_section": "§3.2.1.2 [CDISC Submission Value-level Metadata]", "md_verbatim": "The value-level metadata should be provided as a separate section of the Define-XML document.", "score": 0.4015, "match_basis": "verbatim_token+chapter_route:ch03"}, {"md_atom_id": "md_ch03_a018", "md_file": "knowledge_base/chapters/ch03_submitting_data.md", "md_atom_type": "SENTENCE", "md_parent_section": "§3.2 [Using the CDISC Domain Models in Regulatory Submissions — Dataset Metadata]", "md_verbatim": "Dataset definition metadata should include:", "score": 0.384, "match_basis": "verbatim_token+chapter_route:ch03"}], "candidate_count": 5, "zero_candidate": false}
{"pdf_atom_id": "sv20_p0045_a012", "pdf_atom_type": "HEADING", "pdf_source": "SDTM_v2.0", "pdf_page": 45, "pdf_parent_section": "§3.2.3 [Subject Summary Domains]", "pdf_verbatim": "3.2.3.1 Subject Elements", "figure_ref": null, "candidates": [{"md_atom_id": "md_ch03_a003", "md_file": "knowledge_base/chapters/ch03_submitting_data.md", "md_atom_type": "HEADING", "md_parent_section": "§3 [Submitting Data in Standard Format]", "md_verbatim": "## 3.1 Standard Metadata for Dataset Contents and Attributes", "score": 0.3308, "match_basis": "verbatim_token+chapter_route:ch03"}, {"md_atom_id": "md_ch03_a102", "md_file": "knowledge_base/chapters/ch03_submitting_data.md", "md_atom_type": "HEADING", "md_parent_section": "§3.2.1 [Dataset-level Metadata]", "md_verbatim": "### 3.2.1.2 CDISC Submission Value-level Metadata", "score": 0.3182, "match_basis": "verbatim_token+chapter_route:ch03"}, {"md_atom_id": "md_ch03_a001", "md_file": "knowledge_base/chapters/ch03_submitting_data.md", "md_atom_type": "HEADING", "md_parent_section": "§3 [Submitting Data in Standard Format]", "md_verbatim": "# SDTMIG v3.4 — Chapter 3: Submitting Data in Standard Format", "score": 0.3154, "match_basis": "verbatim_token+chapter_route:ch03"}, {"md_atom_id": "md_ch03_a013", "md_file": "knowledge_base/chapters/ch03_submitting_data.md", "md_atom_type": "HEADING", "md_parent_section": "§3 [Submitting Data in Standard Format]", "md_verbatim": "## 3.2 Using the CDISC Domain Models in Regulatory Submissions — Dataset Metadata", "score": 0.3118, "match_basis": "verbatim_token+chapter_route:ch03"}, {"md_atom_id": "md_ch03_a021", "md_file": "knowledge_base/chapters/ch03_submitting_data.md", "md_atom_type": "HEADING", "md_parent_section": "§3.2 [Using the CDISC Domain Models in Regulatory Submissions — Dataset Metadata]", "md_verbatim": "### 3.2.1 Dataset-level Metadata", "score": 0.3, "match_basis": "verbatim_token+chapter_route:ch03"}], "candidate_count": 5, "zero_candidate": false}
{"pdf_atom_id": "sv20_p0045_a013", "pdf_atom_type": "SENTENCE", "pdf_source": "SDTM_v2.0", "pdf_page": 45, "pdf_parent_section": "§3.2.3.1 [Subject Elements]", "pdf_verbatim": "Subject Elements describes the actual order of elements that were traversed by the subject, together with the start date or start date and time and end date/time for each.", "figure_ref": null, "candidates": [{"md_atom_id": "md_ch03_a094", "md_file": "knowledge_base/chapters/ch03_submitting_data.md", "md_atom_type": "SENTENCE", "md_parent_section": "§3.2.1.1 [Primary Keys]", "md_verbatim": "The identified keys for each dataset should be consistent with the description of the dataset structure as described in the Define-XML document.", "score": 0.395, "match_basis": "verbatim_token+chapter_route:ch03"}, {"md_atom_id": "md_ch03_a014", "md_file": "knowledge_base/chapters/ch03_submitting_data.md", "md_atom_type": "SENTENCE", "md_parent_section": "§3.2 [Using the CDISC Domain Models in Regulatory Submissions — Dataset Metadata]", "md_verbatim": "The Define-XML document that accompanies a submission should also describe each dataset that is included in the submission and describe the natural key structure of each dataset.", "score": 0.3944, "match_basis": "verbatim_token+chapter_route:ch03"}, {"md_atom_id": "md_ch03_a005", "md_file": "knowledge_base/chapters/ch03_submitting_data.md", "md_atom_type": "SENTENCE", "md_parent_section": "§3.1 [Standard Metadata for Dataset Contents and Attributes]", "md_verbatim": "These include descriptive metadata attributes that should be included in a Define-XML document.", "score": 0.3702, "match_basis": "verbatim_token+chapter_route:ch03"}, {"md_atom_id": "md_ch03_a004", "md_file": "knowledge_base/chapters/ch03_submitting_data.md", "md_atom_type": "SENTENCE", "md_parent_section": "§3.1 [Standard Metadata for Dataset Contents and Attributes]", "md_verbatim": "The SDTMIG provides standard descriptions of some of the most commonly used data domains, with metadata attributes.", "score": 0.3699, "match_basis": "verbatim_token+chapter_route:ch03"}, {"md_atom_id": "md_ch03_a106", "md_file": "knowledge_base/chapters/ch03_submitting_data.md", "md_atom_type": "SENTENCE", "md_parent_section": "§3.2.1.2 [CDISC Submission Value-level Metadata]", "md_verbatim": "**Example:** The Vital Signs (VS) data domain could contain subject records related to diastolic and systolic blood pressure, height, weight, and body mass index (BMI). These data are all submitted in the normalized SDTM Findings structure of 1 row per vital signs measurement. This means that there could be 5 records per subject (1 for each test or measurement) for a single visit or time point, with the parameter names stored in the Test Code/Name variables, and the parameter values stored in result variables. Because the unique test code/names could have different attributes (e.g., different origins, roles, definitions) there would be a need to provide value-level metadata for this information.", "score": 0.3651, "match_basis": "verbatim_token+chapter_route:ch03"}], "candidate_count": 5, "zero_candidate": false}
{"pdf_atom_id": "sv20_p0045_a014", "pdf_atom_type": "SENTENCE", "pdf_source": "SDTM_v2.0", "pdf_page": 45, "pdf_parent_section": "§3.2.3.1 [Subject Elements]", "pdf_verbatim": "Planned elements are described in the Trial Design Model (see Section 5.1.1, Trial Arms and Trial Elements).", "figure_ref": null, "candidates": [{"md_atom_id": "md_ch03_a089", "md_file": "knowledge_base/chapters/ch03_submitting_data.md", "md_atom_type": "SENTENCE", "md_parent_section": "§3.2.1 [Dataset-level Metadata]", "md_verbatim": "See Section 8.4, Relating Non-standard Variable Values to a Parent Domain.", "score": 0.3923, "match_basis": "verbatim_token+chapter_route:ch03"}, {"md_atom_id": "md_ch03_a094", "md_file": "knowledge_base/chapters/ch03_submitting_data.md", "md_atom_type": "SENTENCE", "md_parent_section": "§3.2.1.1 [Primary Keys]", "md_verbatim": "The identified keys for each dataset should be consistent with the description of the dataset structure as described in the Define-XML document.", "score": 0.3828, "match_basis": "verbatim_token+chapter_route:ch03"}, {"md_atom_id": "md_ch03_a098", "md_file": "knowledge_base/chapters/ch03_submitting_data.md", "md_atom_type": "SENTENCE", "md_parent_section": "§3.2.1.1 [Primary Keys]", "md_verbatim": "See Section 4.1.9, Assigning Natural Keys in the Metadata, for how this should be represented, and for additional information on keys.", "score": 0.3786, "match_basis": "verbatim_token+chapter_route:ch03"}, {"md_atom_id": "md_ch03_a005", "md_file": "knowledge_base/chapters/ch03_submitting_data.md", "md_atom_type": "SENTENCE", "md_parent_section": "§3.1 [Standard Metadata for Dataset Contents and Attributes]", "md_verbatim": "These include descriptive metadata attributes that should be included in a Define-XML document.", "score": 0.3692, "match_basis": "verbatim_token+chapter_route:ch03"}, {"md_atom_id": "md_ch03_a004", "md_file": "knowledge_base/chapters/ch03_submitting_data.md", "md_atom_type": "SENTENCE", "md_parent_section": "§3.1 [Standard Metadata for Dataset Contents and Attributes]", "md_verbatim": "The SDTMIG provides standard descriptions of some of the most commonly used data domains, with metadata attributes.", "score": 0.369, "match_basis": "verbatim_token+chapter_route:ch03"}], "candidate_count": 5, "zero_candidate": false}
{"pdf_atom_id": "sv20_p0045_a015", "pdf_atom_type": "SENTENCE", "pdf_source": "SDTM_v2.0", "pdf_page": 45, "pdf_parent_section": "§3.2.3.1 [Subject Elements]", "pdf_verbatim": "Because actual data does not always follow the plan, the SDTM allows for descriptions of an unplanned element for subjects (SEUPDES).", "figure_ref": null, "candidates": [{"md_atom_id": "md_ch03_a094", "md_file": "knowledge_base/chapters/ch03_submitting_data.md", "md_atom_type": "SENTENCE", "md_parent_section": "§3.2.1.1 [Primary Keys]", "md_verbatim": "The identified keys for each dataset should be consistent with the description of the dataset structure as described in the Define-XML document.", "score": 0.3981, "match_basis": "verbatim_token+chapter_route:ch03"}, {"md_atom_id": "md_ch03_a004", "md_file": "knowledge_base/chapters/ch03_submitting_data.md", "md_atom_type": "SENTENCE", "md_parent_section": "§3.1 [Standard Metadata for Dataset Contents and Attributes]", "md_verbatim": "The SDTMIG provides standard descriptions of some of the most commonly used data domains, with metadata attributes.", "score": 0.3932, "match_basis": "verbatim_token+chapter_route:ch03"}, {"md_atom_id": "md_ch03_a005", "md_file": "knowledge_base/chapters/ch03_submitting_data.md", "md_atom_type": "SENTENCE", "md_parent_section": "§3.1 [Standard Metadata for Dataset Contents and Attributes]", "md_verbatim": "These include descriptive metadata attributes that should be included in a Define-XML document.", "score": 0.3742, "match_basis": "verbatim_token+chapter_route:ch03"}, {"md_atom_id": "md_ch03_a105", "md_file": "knowledge_base/chapters/ch03_submitting_data.md", "md_atom_type": "SENTENCE", "md_parent_section": "§3.2.1.2 [CDISC Submission Value-level Metadata]", "md_verbatim": "Because many different types of observations are all presented in the same structure, there is a need to provide additional metadata to describe expected properties that differentiate (e.g., hematology lab results from serum chemistry lab results in terms of data type, standard units, and other attributes).", "score": 0.3663, "match_basis": "verbatim_token+chapter_route:ch03"}, {"md_atom_id": "md_ch03_a091", "md_file": "knowledge_base/chapters/ch03_submitting_data.md", "md_atom_type": "SENTENCE", "md_parent_section": "§3.2.1.1 [Primary Keys]", "md_verbatim": "The table in Section 3.2.1, Dataset-level Metadata, shows examples of what a sponsor might submit as variables that comprise the primary key for SDTM datasets.", "score": 0.3643, "match_basis": "verbatim_token+chapter_route:ch03"}], "candidate_count": 5, "zero_candidate": false}
{"pdf_atom_id": "sv20_p0045_a016", "pdf_atom_type": "SENTENCE", "pdf_source": "SDTM_v2.0", "pdf_page": 45, "pdf_parent_section": "§3.2.3.1 [Subject Elements]", "pdf_verbatim": "See the implementation guides for further guidance regarding use of additional identifier and timing variables.", "figure_ref": null, "candidates": [{"md_atom_id": "md_ch03_a089", "md_file": "knowledge_base/chapters/ch03_submitting_data.md", "md_atom_type": "SENTENCE", "md_parent_section": "§3.2.1 [Dataset-level Metadata]", "md_verbatim": "See Section 8.4, Relating Non-standard Variable Values to a Parent Domain.", "score": 0.4037, "match_basis": "verbatim_token+chapter_route:ch03"}, {"md_atom_id": "md_ch03_a097", "md_file": "knowledge_base/chapters/ch03_submitting_data.md", "md_atom_type": "SENTENCE", "md_parent_section": "§3.2.1.1 [Primary Keys]", "md_verbatim": "In certain instances, a supplemental qualifier (SUPP--) variable might also contribute to the natural key of a record for a particular domain.", "score": 0.4036, "match_basis": "verbatim_token+chapter_route:ch03"}, {"md_atom_id": "md_ch03_a098", "md_file": "knowledge_base/chapters/ch03_submitting_data.md", "md_atom_type": "SENTENCE", "md_parent_section": "§3.2.1.1 [Primary Keys]", "md_verbatim": "See Section 4.1.9, Assigning Natural Keys in the Metadata, for how this should be represented, and for additional information on keys.", "score": 0.39, "match_basis": "verbatim_token+chapter_route:ch03"}, {"md_atom_id": "md_ch03_a095", "md_file": "knowledge_base/chapters/ch03_submitting_data.md", "md_atom_type": "SENTENCE", "md_parent_section": "§3.2.1.1 [Primary Keys]", "md_verbatim": "For all the general observation-class domains (and for some special-purpose domains), the --SEQ variable was created so that a unique record could be identified consistently across all of these domains via its use, along with STUDYID, USUBJID, and DOMAIN.", "score": 0.3839, "match_basis": "verbatim_token+chapter_route:ch03"}, {"md_atom_id": "md_ch03_a015", "md_file": "knowledge_base/chapters/ch03_submitting_data.md", "md_atom_type": "SENTENCE", "md_parent_section": "§3.2 [Using the CDISC Domain Models in Regulatory Submissions — Dataset Metadata]", "md_verbatim": "In addition, comments can also be provided where needed.", "score": 0.38, "match_basis": "verbatim_token+chapter_route:ch03"}], "candidate_count": 5, "zero_candidate": false}
{"pdf_atom_id": "sv20_p0046_a001", "pdf_atom_type": "HEADING", "pdf_source": "SDTM_v2.0", "pdf_page": 46, "pdf_parent_section": "§3.2.3.1 [Subject Elements]", "pdf_verbatim": "Subject Elements—One Record per Actual Element per Subject", "figure_ref": null, "candidates": [{"md_atom_id": "md_ch03_a003", "md_file": "knowledge_base/chapters/ch03_submitting_data.md", "md_atom_type": "HEADING", "md_parent_section": "§3 [Submitting Data in Standard Format]", "md_verbatim": "## 3.1 Standard Metadata for Dataset Contents and Attributes", "score": 0.3245, "match_basis": "verbatim_token+chapter_route:ch03"}, {"md_atom_id": "md_ch03_a102", "md_file": "knowledge_base/chapters/ch03_submitting_data.md", "md_atom_type": "HEADING", "md_parent_section": "§3.2.1 [Dataset-level Metadata]", "md_verbatim": "### 3.2.1.2 CDISC Submission Value-level Metadata", "score": 0.314, "match_basis": "verbatim_token+chapter_route:ch03"}, {"md_atom_id": "md_ch03_a001", "md_file": "knowledge_base/chapters/ch03_submitting_data.md", "md_atom_type": "HEADING", "md_parent_section": "§3 [Submitting Data in Standard Format]", "md_verbatim": "# SDTMIG v3.4 — Chapter 3: Submitting Data in Standard Format", "score": 0.3122, "match_basis": "verbatim_token+chapter_route:ch03"}, {"md_atom_id": "md_ch03_a013", "md_file": "knowledge_base/chapters/ch03_submitting_data.md", "md_atom_type": "HEADING", "md_parent_section": "§3 [Submitting Data in Standard Format]", "md_verbatim": "## 3.2 Using the CDISC Domain Models in Regulatory Submissions — Dataset Metadata", "score": 0.3098, "match_basis": "verbatim_token+chapter_route:ch03"}, {"md_atom_id": "md_ch03_a021", "md_file": "knowledge_base/chapters/ch03_submitting_data.md", "md_atom_type": "HEADING", "md_parent_section": "§3.2 [Using the CDISC Domain Models in Regulatory Submissions — Dataset Metadata]", "md_verbatim": "### 3.2.1 Dataset-level Metadata", "score": 0.3, "match_basis": "verbatim_token+chapter_route:ch03"}], "candidate_count": 5, "zero_candidate": false}
{"pdf_atom_id": "sv20_p0046_a002", "pdf_atom_type": "TABLE_HEADER", "pdf_source": "SDTM_v2.0", "pdf_page": 46, "pdf_parent_section": "§3.2.3.1 [Subject Elements]", "pdf_verbatim": "# | Variable Name | Variable Label | Type | Format | Role | Variable(s) Qualified | Usage Restrictions | Variable C-code | Definition | Notes | Examples", "figure_ref": null, "candidates": [{"md_atom_id": "md_ch03_a024", "md_file": "knowledge_base/chapters/ch03_submitting_data.md", "md_atom_type": "TABLE_HEADER", "md_parent_section": "§3.2.1 [Dataset-level Metadata]", "md_verbatim": "| Dataset | Description | Class | Structure | Purpose | Keys | Location |\n|---------|-------------|-------|-----------|---------|------|----------|", "score": 0.3205, "match_basis": "verbatim_token+chapter_route:ch03"}, {"md_atom_id": "md_ch03_a086", "md_file": "knowledge_base/chapters/ch03_submitting_data.md", "md_atom_type": "TABLE_ROW", "md_parent_section": "§3.2.1 [Dataset-level Metadata]", "md_verbatim": "| SUPP-- | Supplemental Qualifiers for [domain name] | Relationship | One record per supplemental qualifier per related parent domain record(s) | Tabulation | STUDYID, RDOMAIN, USUBJID, IDVAR, IDVARVAL, QNAM | supp--.xpt |", "score": 0.3157, "match_basis": "verbatim_token+chapter_route:ch03"}, {"md_atom_id": "md_ch03_a080", "md_file": "knowledge_base/chapters/ch03_submitting_data.md", "md_atom_type": "TABLE_ROW", "md_parent_section": "§3.2.1 [Dataset-level Metadata]", "md_verbatim": "| TM | Trial Disease Milestones | Trial Design | One record per Disease Milestone type | Tabulation | STUDYID, MIDSTYPE | tm.xpt |", "score": 0.2916, "match_basis": "verbatim_token+chapter_route:ch03"}, {"md_atom_id": "md_ch03_a062", "md_file": "knowledge_base/chapters/ch03_submitting_data.md", "md_atom_type": "TABLE_ROW", "md_parent_section": "§3.2.1 [Dataset-level Metadata]", "md_verbatim": "| PE | Physical Examination | Findings | One record per body system or abnormality per visit per subject | Tabulation | STUDYID, USUBJID, PETESTCD, VISITNUM | pe.xpt |", "score": 0.2904, "match_basis": "verbatim_token+chapter_route:ch03"}, {"md_atom_id": "md_ch03_a071", "md_file": "knowledge_base/chapters/ch03_submitting_data.md", "md_atom_type": "TABLE_ROW", "md_parent_section": "§3.2.1 [Dataset-level Metadata]", "md_verbatim": "| TU | Tumor/Lesion Identification | Findings | One record per identified tumor per subject per assessor | Tabulation | STUDYID, USUBJID, TUEVALID, TULNKID | tu.xpt |", "score": 0.2814, "match_basis": "verbatim_token+chapter_route:ch03"}], "candidate_count": 5, "zero_candidate": false}
{"pdf_atom_id": "sv20_p0046_a003", "pdf_atom_type": "TABLE_ROW", "pdf_source": "SDTM_v2.0", "pdf_page": 46, "pdf_parent_section": "§3.2.3.1 [Subject Elements]", "pdf_verbatim": "1 | STUDYID | Study Identifier | Char | | Identifier | | | C83082 | A sequence of characters used by the sponsor to uniquely identify the study. | | ", "figure_ref": null, "candidates": [{"md_atom_id": "md_ch03_a087", "md_file": "knowledge_base/chapters/ch03_submitting_data.md", "md_atom_type": "TABLE_ROW", "md_parent_section": "§3.2.1 [Dataset-level Metadata]", "md_verbatim": "| OI | Non-host Organism Identifiers | Study Reference | One record per taxon per non-host organism | Tabulation | NHOID, OISEQ | oi.xpt |", "score": 0.4098, "match_basis": "verbatim_token+chapter_route:ch03"}, {"md_atom_id": "md_ch03_a084", "md_file": "knowledge_base/chapters/ch03_submitting_data.md", "md_atom_type": "TABLE_ROW", "md_parent_section": "§3.2.1 [Dataset-level Metadata]", "md_verbatim": "| RELSPEC | Related Specimens | Relationship | One record per specimen identifier per subject | Tabulation | STUDYID, USUBJID, REFID | relspec.xpt |", "score": 0.3966, "match_basis": "verbatim_token+chapter_route:ch03"}, {"md_atom_id": "md_ch03_a038", "md_file": "knowledge_base/chapters/ch03_submitting_data.md", "md_atom_type": "TABLE_ROW", "md_parent_section": "§3.2.1 [Dataset-level Metadata]", "md_verbatim": "| BE | Biospecimen Events | Events | One record per instance per biospecimen event per biospecimen identifier per subject | Tabulation | STUDYID, USUBJID, BEREFID, BETERM, BESTDTC | be.xpt |", "score": 0.3918, "match_basis": "verbatim_token+chapter_route:ch03"}, {"md_atom_id": "md_ch03_a068", "md_file": "knowledge_base/chapters/ch03_submitting_data.md", "md_atom_type": "TABLE_ROW", "md_parent_section": "§3.2.1 [Dataset-level Metadata]", "md_verbatim": "| SC | Subject Characteristics | Findings | One record per characteristic per visit per subject. | Tabulation | STUDYID, USUBJID, SCTESTCD, VISITNUM | sc.xpt |", "score": 0.3791, "match_basis": "verbatim_token+chapter_route:ch03"}, {"md_atom_id": "md_ch03_a071", "md_file": "knowledge_base/chapters/ch03_submitting_data.md", "md_atom_type": "TABLE_ROW", "md_parent_section": "§3.2.1 [Dataset-level Metadata]", "md_verbatim": "| TU | Tumor/Lesion Identification | Findings | One record per identified tumor per subject per assessor | Tabulation | STUDYID, USUBJID, TUEVALID, TULNKID | tu.xpt |", "score": 0.378, "match_basis": "verbatim_token+chapter_route:ch03"}], "candidate_count": 5, "zero_candidate": false}
{"pdf_atom_id": "sv20_p0046_a004", "pdf_atom_type": "TABLE_ROW", "pdf_source": "SDTM_v2.0", "pdf_page": 46, "pdf_parent_section": "§3.2.3.1 [Subject Elements]", "pdf_verbatim": "2 | DOMAIN | Domain Abbreviation | Char | | Identifier | | | C49558 | An abbreviation for a collection of observations, with a topic-specific commonality. | 2-character abbreviation, which must be \"SE\". | ", "figure_ref": null, "candidates": [{"md_atom_id": "md_ch03_a032", "md_file": "knowledge_base/chapters/ch03_submitting_data.md", "md_atom_type": "TABLE_ROW", "md_parent_section": "§3.2.1 [Dataset-level Metadata]", "md_verbatim": "| EC | Exposure as Collected | Interventions | One record per protocol-specified study treatment, collected-dosing interval, per subject, per mood | Tabulation | STUDYID, USUBJID, ECTRT, ECSTDTC, ECMOOD | ec.xpt |", "score": 0.394, "match_basis": "verbatim_token+chapter_route:ch03"}, {"md_atom_id": "md_ch03_a084", "md_file": "knowledge_base/chapters/ch03_submitting_data.md", "md_atom_type": "TABLE_ROW", "md_parent_section": "§3.2.1 [Dataset-level Metadata]", "md_verbatim": "| RELSPEC | Related Specimens | Relationship | One record per specimen identifier per subject | Tabulation | STUDYID, USUBJID, REFID | relspec.xpt |", "score": 0.3865, "match_basis": "verbatim_token+chapter_route:ch03"}, {"md_atom_id": "md_ch03_a038", "md_file": "knowledge_base/chapters/ch03_submitting_data.md", "md_atom_type": "TABLE_ROW", "md_parent_section": "§3.2.1 [Dataset-level Metadata]", "md_verbatim": "| BE | Biospecimen Events | Events | One record per instance per biospecimen event per biospecimen identifier per subject | Tabulation | STUDYID, USUBJID, BEREFID, BETERM, BESTDTC | be.xpt |", "score": 0.378, "match_basis": "verbatim_token+chapter_route:ch03"}, {"md_atom_id": "md_ch03_a033", "md_file": "knowledge_base/chapters/ch03_submitting_data.md", "md_atom_type": "TABLE_ROW", "md_parent_section": "§3.2.1 [Dataset-level Metadata]", "md_verbatim": "| EX | Exposure | Interventions | One record per protocol-specified study treatment, constant-dosing interval, per subject | Tabulation | STUDYID, USUBJID, EXTRT, EXSTDTC | ex.xpt |", "score": 0.3756, "match_basis": "verbatim_token+chapter_route:ch03"}, {"md_atom_id": "md_ch03_a044", "md_file": "knowledge_base/chapters/ch03_submitting_data.md", "md_atom_type": "TABLE_ROW", "md_parent_section": "§3.2.1 [Dataset-level Metadata]", "md_verbatim": "| BS | Biospecimen Findings | Findings | One record per measurement per biospecimen identifier per subject | Tabulation | STUDYID, USUBJID, BSREFID, BSTESTCD | bs.xpt |", "score": 0.372, "match_basis": "verbatim_token+chapter_route:ch03"}], "candidate_count": 5, "zero_candidate": false}
{"pdf_atom_id": "sv20_p0046_a005", "pdf_atom_type": "TABLE_ROW", "pdf_source": "SDTM_v2.0", "pdf_page": 46, "pdf_parent_section": "§3.2.3.1 [Subject Elements]", "pdf_verbatim": "3 | USUBJID | Unique Subject Identifier | Char | | Identifier | | | C69256 | A sequence of characters used to uniquely identify a subject across all studies for all applications or submissions involving the product. | | ", "figure_ref": null, "candidates": [{"md_atom_id": "md_ch03_a071", "md_file": "knowledge_base/chapters/ch03_submitting_data.md", "md_atom_type": "TABLE_ROW", "md_parent_section": "§3.2.1 [Dataset-level Metadata]", "md_verbatim": "| TU | Tumor/Lesion Identification | Findings | One record per identified tumor per subject per assessor | Tabulation | STUDYID, USUBJID, TUEVALID, TULNKID | tu.xpt |", "score": 0.4143, "match_basis": "verbatim_token+chapter_route:ch03"}, {"md_atom_id": "md_ch03_a084", "md_file": "knowledge_base/chapters/ch03_submitting_data.md", "md_atom_type": "TABLE_ROW", "md_parent_section": "§3.2.1 [Dataset-level Metadata]", "md_verbatim": "| RELSPEC | Related Specimens | Relationship | One record per specimen identifier per subject | Tabulation | STUDYID, USUBJID, REFID | relspec.xpt |", "score": 0.4138, "match_basis": "verbatim_token+chapter_route:ch03"}, {"md_atom_id": "md_ch03_a034", "md_file": "knowledge_base/chapters/ch03_submitting_data.md", "md_atom_type": "TABLE_ROW", "md_parent_section": "§3.2.1 [Dataset-level Metadata]", "md_verbatim": "| ML | Meal Data | Interventions | One record per food product occurrence or constant intake interval per subject | Tabulation | STUDYID, USUBJID, MLTRT, MLSTDTC | ml.xpt |", "score": 0.4091, "match_basis": "verbatim_token+chapter_route:ch03"}, {"md_atom_id": "md_ch03_a038", "md_file": "knowledge_base/chapters/ch03_submitting_data.md", "md_atom_type": "TABLE_ROW", "md_parent_section": "§3.2.1 [Dataset-level Metadata]", "md_verbatim": "| BE | Biospecimen Events | Events | One record per instance per biospecimen event per biospecimen identifier per subject | Tabulation | STUDYID, USUBJID, BEREFID, BETERM, BESTDTC | be.xpt |", "score": 0.4087, "match_basis": "verbatim_token+chapter_route:ch03"}, {"md_atom_id": "md_ch03_a068", "md_file": "knowledge_base/chapters/ch03_submitting_data.md", "md_atom_type": "TABLE_ROW", "md_parent_section": "§3.2.1 [Dataset-level Metadata]", "md_verbatim": "| SC | Subject Characteristics | Findings | One record per characteristic per visit per subject. | Tabulation | STUDYID, USUBJID, SCTESTCD, VISITNUM | sc.xpt |", "score": 0.4059, "match_basis": "verbatim_token+chapter_route:ch03"}], "candidate_count": 5, "zero_candidate": false}
{"pdf_atom_id": "sv20_p0046_a006", "pdf_atom_type": "TABLE_ROW", "pdf_source": "SDTM_v2.0", "pdf_page": 46, "pdf_parent_section": "§3.2.3.1 [Subject Elements]", "pdf_verbatim": "4 | SESEQ | Sequence Number | Num | | Identifier | | | | | | Sequence number to ensure uniqueness within the dataset. Should be assigned to be in a consistent chronological order.", "figure_ref": null, "candidates": [{"md_atom_id": "md_ch03_a077", "md_file": "knowledge_base/chapters/ch03_submitting_data.md", "md_atom_type": "TABLE_ROW", "md_parent_section": "§3.2.1 [Dataset-level Metadata]", "md_verbatim": "| TD | Trial Disease Assessments | Trial Design | One record per planned constant assessment period | Tabulation | STUDYID, TDORDER | td.xpt |", "score": 0.3667, "match_basis": "verbatim_token+chapter_route:ch03"}, {"md_atom_id": "md_ch03_a087", "md_file": "knowledge_base/chapters/ch03_submitting_data.md", "md_atom_type": "TABLE_ROW", "md_parent_section": "§3.2.1 [Dataset-level Metadata]", "md_verbatim": "| OI | Non-host Organism Identifiers | Study Reference | One record per taxon per non-host organism | Tabulation | NHOID, OISEQ | oi.xpt |", "score": 0.3649, "match_basis": "verbatim_token+chapter_route:ch03"}, {"md_atom_id": "md_ch03_a084", "md_file": "knowledge_base/chapters/ch03_submitting_data.md", "md_atom_type": "TABLE_ROW", "md_parent_section": "§3.2.1 [Dataset-level Metadata]", "md_verbatim": "| RELSPEC | Related Specimens | Relationship | One record per specimen identifier per subject | Tabulation | STUDYID, USUBJID, REFID | relspec.xpt |", "score": 0.3569, "match_basis": "verbatim_token+chapter_route:ch03"}, {"md_atom_id": "md_ch03_a071", "md_file": "knowledge_base/chapters/ch03_submitting_data.md", "md_atom_type": "TABLE_ROW", "md_parent_section": "§3.2.1 [Dataset-level Metadata]", "md_verbatim": "| TU | Tumor/Lesion Identification | Findings | One record per identified tumor per subject per assessor | Tabulation | STUDYID, USUBJID, TUEVALID, TULNKID | tu.xpt |", "score": 0.3567, "match_basis": "verbatim_token+chapter_route:ch03"}, {"md_atom_id": "md_ch03_a044", "md_file": "knowledge_base/chapters/ch03_submitting_data.md", "md_atom_type": "TABLE_ROW", "md_parent_section": "§3.2.1 [Dataset-level Metadata]", "md_verbatim": "| BS | Biospecimen Findings | Findings | One record per measurement per biospecimen identifier per subject | Tabulation | STUDYID, USUBJID, BSREFID, BSTESTCD | bs.xpt |", "score": 0.3562, "match_basis": "verbatim_token+chapter_route:ch03"}], "candidate_count": 5, "zero_candidate": false}
{"pdf_atom_id": "sv20_p0046_a007", "pdf_atom_type": "TABLE_ROW", "pdf_source": "SDTM_v2.0", "pdf_page": 46, "pdf_parent_section": "§3.2.3.1 [Subject Elements]", "pdf_verbatim": "5 | ETCD | Element Code | Char | | Topic | | | | | | ETCD (the companion to ELEMENT) is limited to 8 characters and does not have special character restrictions. These values should be short for ease of use in programming, but it is not expected that ETCD will need to serve as a variable name.", "figure_ref": null, "candidates": [{"md_atom_id": "md_ch03_a027", "md_file": "knowledge_base/chapters/ch03_submitting_data.md", "md_atom_type": "TABLE_ROW", "md_parent_section": "§3.2.1 [Dataset-level Metadata]", "md_verbatim": "| SE | Subject Elements | Special Purpose | One record per actual Element per subject | Tabulation | STUDYID, USUBJID, ETCD, SESTDTC | se.xpt |", "score": 0.3745, "match_basis": "verbatim_token+chapter_route:ch03"}, {"md_atom_id": "md_ch03_a032", "md_file": "knowledge_base/chapters/ch03_submitting_data.md", "md_atom_type": "TABLE_ROW", "md_parent_section": "§3.2.1 [Dataset-level Metadata]", "md_verbatim": "| EC | Exposure as Collected | Interventions | One record per protocol-specified study treatment, collected-dosing interval, per subject, per mood | Tabulation | STUDYID, USUBJID, ECTRT, ECSTDTC, ECMOOD | ec.xpt |", "score": 0.3655, "match_basis": "verbatim_token+chapter_route:ch03"}, {"md_atom_id": "md_ch03_a056", "md_file": "knowledge_base/chapters/ch03_submitting_data.md", "md_atom_type": "TABLE_ROW", "md_parent_section": "§3.2.1 [Dataset-level Metadata]", "md_verbatim": "| MI | Microscopic Findings | Findings | One record per finding per specimen per subject | Tabulation | STUDYID, USUBJID, MISPEC, MITESTCD | mi.xpt |", "score": 0.3592, "match_basis": "verbatim_token+chapter_route:ch03"}, {"md_atom_id": "md_ch03_a033", "md_file": "knowledge_base/chapters/ch03_submitting_data.md", "md_atom_type": "TABLE_ROW", "md_parent_section": "§3.2.1 [Dataset-level Metadata]", "md_verbatim": "| EX | Exposure | Interventions | One record per protocol-specified study treatment, constant-dosing interval, per subject | Tabulation | STUDYID, USUBJID, EXTRT, EXSTDTC | ex.xpt |", "score": 0.3585, "match_basis": "verbatim_token+chapter_route:ch03"}, {"md_atom_id": "md_ch03_a078", "md_file": "knowledge_base/chapters/ch03_submitting_data.md", "md_atom_type": "TABLE_ROW", "md_parent_section": "§3.2.1 [Dataset-level Metadata]", "md_verbatim": "| TE | Trial Elements | Trial Design | One record per planned Element | Tabulation | STUDYID, ETCD | te.xpt |", "score": 0.3567, "match_basis": "verbatim_token+chapter_route:ch03"}], "candidate_count": 5, "zero_candidate": false}
{"pdf_atom_id": "sv20_p0046_a008", "pdf_atom_type": "TABLE_ROW", "pdf_source": "SDTM_v2.0", "pdf_page": 46, "pdf_parent_section": "§3.2.3.1 [Subject Elements]", "pdf_verbatim": "6 | ELEMENT | Description of Element | Char | | Synonym Qualifier | ETCD | | | | | The name of the element. If ETCD has a value of \"UNPLAN\" then ELEMENT should be null.", "figure_ref": null, "candidates": [{"md_atom_id": "md_ch03_a086", "md_file": "knowledge_base/chapters/ch03_submitting_data.md", "md_atom_type": "TABLE_ROW", "md_parent_section": "§3.2.1 [Dataset-level Metadata]", "md_verbatim": "| SUPP-- | Supplemental Qualifiers for [domain name] | Relationship | One record per supplemental qualifier per related parent domain record(s) | Tabulation | STUDYID, RDOMAIN, USUBJID, IDVAR, IDVARVAL, QNAM | supp--.xpt |", "score": 0.395, "match_basis": "verbatim_token+chapter_route:ch03"}, {"md_atom_id": "md_ch03_a078", "md_file": "knowledge_base/chapters/ch03_submitting_data.md", "md_atom_type": "TABLE_ROW", "md_parent_section": "§3.2.1 [Dataset-level Metadata]", "md_verbatim": "| TE | Trial Elements | Trial Design | One record per planned Element | Tabulation | STUDYID, ETCD | te.xpt |", "score": 0.3947, "match_basis": "verbatim_token+chapter_route:ch03"}, {"md_atom_id": "md_ch03_a076", "md_file": "knowledge_base/chapters/ch03_submitting_data.md", "md_atom_type": "TABLE_ROW", "md_parent_section": "§3.2.1 [Dataset-level Metadata]", "md_verbatim": "| TA | Trial Arms | Trial Design | One record per planned Element per Arm | Tabulation | STUDYID, ARMCD, TAETORD | ta.xpt |", "score": 0.3723, "match_basis": "verbatim_token+chapter_route:ch03"}, {"md_atom_id": "md_ch03_a027", "md_file": "knowledge_base/chapters/ch03_submitting_data.md", "md_atom_type": "TABLE_ROW", "md_parent_section": "§3.2.1 [Dataset-level Metadata]", "md_verbatim": "| SE | Subject Elements | Special Purpose | One record per actual Element per subject | Tabulation | STUDYID, USUBJID, ETCD, SESTDTC | se.xpt |", "score": 0.3645, "match_basis": "verbatim_token+chapter_route:ch03"}, {"md_atom_id": "md_ch03_a044", "md_file": "knowledge_base/chapters/ch03_submitting_data.md", "md_atom_type": "TABLE_ROW", "md_parent_section": "§3.2.1 [Dataset-level Metadata]", "md_verbatim": "| BS | Biospecimen Findings | Findings | One record per measurement per biospecimen identifier per subject | Tabulation | STUDYID, USUBJID, BSREFID, BSTESTCD | bs.xpt |", "score": 0.35, "match_basis": "verbatim_token+chapter_route:ch03"}], "candidate_count": 5, "zero_candidate": false}
{"pdf_atom_id": "sv20_p0046_a009", "pdf_atom_type": "TABLE_ROW", "pdf_source": "SDTM_v2.0", "pdf_page": 46, "pdf_parent_section": "§3.2.3.1 [Subject Elements]", "pdf_verbatim": "7 | TAETORD | Planned Order of Element within Arm | Num | | Timing | | | C83438 | An assigned numeric identifier that gives the planned order of the element within the trial arm of the study. | Value for the element within the subject's assigned arm. | ", "figure_ref": null, "candidates": [{"md_atom_id": "md_ch03_a076", "md_file": "knowledge_base/chapters/ch03_submitting_data.md", "md_atom_type": "TABLE_ROW", "md_parent_section": "§3.2.1 [Dataset-level Metadata]", "md_verbatim": "| TA | Trial Arms | Trial Design | One record per planned Element per Arm | Tabulation | STUDYID, ARMCD, TAETORD | ta.xpt |", "score": 0.4618, "match_basis": "verbatim_token+chapter_route:ch03"}, {"md_atom_id": "md_ch03_a078", "md_file": "knowledge_base/chapters/ch03_submitting_data.md", "md_atom_type": "TABLE_ROW", "md_parent_section": "§3.2.1 [Dataset-level Metadata]", "md_verbatim": "| TE | Trial Elements | Trial Design | One record per planned Element | Tabulation | STUDYID, ETCD | te.xpt |", "score": 0.4281, "match_basis": "verbatim_token+chapter_route:ch03"}, {"md_atom_id": "md_ch03_a077", "md_file": "knowledge_base/chapters/ch03_submitting_data.md", "md_atom_type": "TABLE_ROW", "md_parent_section": "§3.2.1 [Dataset-level Metadata]", "md_verbatim": "| TD | Trial Disease Assessments | Trial Design | One record per planned constant assessment period | Tabulation | STUDYID, TDORDER | td.xpt |", "score": 0.4121, "match_basis": "verbatim_token+chapter_route:ch03"}, {"md_atom_id": "md_ch03_a044", "md_file": "knowledge_base/chapters/ch03_submitting_data.md", "md_atom_type": "TABLE_ROW", "md_parent_section": "§3.2.1 [Dataset-level Metadata]", "md_verbatim": "| BS | Biospecimen Findings | Findings | One record per measurement per biospecimen identifier per subject | Tabulation | STUDYID, USUBJID, BSREFID, BSTESTCD | bs.xpt |", "score": 0.4026, "match_basis": "verbatim_token+chapter_route:ch03"}, {"md_atom_id": "md_ch03_a084", "md_file": "knowledge_base/chapters/ch03_submitting_data.md", "md_atom_type": "TABLE_ROW", "md_parent_section": "§3.2.1 [Dataset-level Metadata]", "md_verbatim": "| RELSPEC | Related Specimens | Relationship | One record per specimen identifier per subject | Tabulation | STUDYID, USUBJID, REFID | relspec.xpt |", "score": 0.4019, "match_basis": "verbatim_token+chapter_route:ch03"}], "candidate_count": 5, "zero_candidate": false}
{"pdf_atom_id": "sv20_p0046_a010", "pdf_atom_type": "TABLE_ROW", "pdf_source": "SDTM_v2.0", "pdf_page": 46, "pdf_parent_section": "§3.2.3.1 [Subject Elements]", "pdf_verbatim": "8 | EPOCH | Epoch | Char | | Timing | | | C71738 | A time period defined in the protocol with a study-specific purpose. | Value for the element within the subject's assigned arm. | ", "figure_ref": null, "candidates": [{"md_atom_id": "md_ch03_a027", "md_file": "knowledge_base/chapters/ch03_submitting_data.md", "md_atom_type": "TABLE_ROW", "md_parent_section": "§3.2.1 [Dataset-level Metadata]", "md_verbatim": "| SE | Subject Elements | Special Purpose | One record per actual Element per subject | Tabulation | STUDYID, USUBJID, ETCD, SESTDTC | se.xpt |", "score": 0.4307, "match_basis": "verbatim_token+chapter_route:ch03"}, {"md_atom_id": "md_ch03_a033", "md_file": "knowledge_base/chapters/ch03_submitting_data.md", "md_atom_type": "TABLE_ROW", "md_parent_section": "§3.2.1 [Dataset-level Metadata]", "md_verbatim": "| EX | Exposure | Interventions | One record per protocol-specified study treatment, constant-dosing interval, per subject | Tabulation | STUDYID, USUBJID, EXTRT, EXSTDTC | ex.xpt |", "score": 0.421, "match_basis": "verbatim_token+chapter_route:ch03"}, {"md_atom_id": "md_ch03_a032", "md_file": "knowledge_base/chapters/ch03_submitting_data.md", "md_atom_type": "TABLE_ROW", "md_parent_section": "§3.2.1 [Dataset-level Metadata]", "md_verbatim": "| EC | Exposure as Collected | Interventions | One record per protocol-specified study treatment, collected-dosing interval, per subject, per mood | Tabulation | STUDYID, USUBJID, ECTRT, ECSTDTC, ECMOOD | ec.xpt |", "score": 0.4181, "match_basis": "verbatim_token+chapter_route:ch03"}, {"md_atom_id": "md_ch03_a025", "md_file": "knowledge_base/chapters/ch03_submitting_data.md", "md_atom_type": "TABLE_ROW", "md_parent_section": "§3.2.1 [Dataset-level Metadata]", "md_verbatim": "| CO | Comments | Special Purpose | One record per comment per subject | Tabulation | STUDYID, USUBJID, IDVAR, COREF, COOTC | co.xpt |", "score": 0.4129, "match_basis": "verbatim_token+chapter_route:ch03"}, {"md_atom_id": "md_ch03_a026", "md_file": "knowledge_base/chapters/ch03_submitting_data.md", "md_atom_type": "TABLE_ROW", "md_parent_section": "§3.2.1 [Dataset-level Metadata]", "md_verbatim": "| DM | Demographics | Special Purpose | One record per subject | Tabulation | STUDYID, USUBJID | dm.xpt |", "score": 0.403, "match_basis": "verbatim_token+chapter_route:ch03"}], "candidate_count": 5, "zero_candidate": false}
{"pdf_atom_id": "sv20_p0046_a011", "pdf_atom_type": "TABLE_ROW", "pdf_source": "SDTM_v2.0", "pdf_page": 46, "pdf_parent_section": "§3.2.3.1 [Subject Elements]", "pdf_verbatim": "9 | SESTDTC | Start Date/Time of Element | Char | ISO 8601 datetime or interval | Timing | | | | | | Start date or start date and time for an element for each subject.", "figure_ref": null, "candidates": [{"md_atom_id": "md_ch03_a027", "md_file": "knowledge_base/chapters/ch03_submitting_data.md", "md_atom_type": "TABLE_ROW", "md_parent_section": "§3.2.1 [Dataset-level Metadata]", "md_verbatim": "| SE | Subject Elements | Special Purpose | One record per actual Element per subject | Tabulation | STUDYID, USUBJID, ETCD, SESTDTC | se.xpt |", "score": 0.4098, "match_basis": "verbatim_token+chapter_route:ch03"}, {"md_atom_id": "md_ch03_a034", "md_file": "knowledge_base/chapters/ch03_submitting_data.md", "md_atom_type": "TABLE_ROW", "md_parent_section": "§3.2.1 [Dataset-level Metadata]", "md_verbatim": "| ML | Meal Data | Interventions | One record per food product occurrence or constant intake interval per subject | Tabulation | STUDYID, USUBJID, MLTRT, MLSTDTC | ml.xpt |", "score": 0.403, "match_basis": "verbatim_token+chapter_route:ch03"}, {"md_atom_id": "md_ch03_a033", "md_file": "knowledge_base/chapters/ch03_submitting_data.md", "md_atom_type": "TABLE_ROW", "md_parent_section": "§3.2.1 [Dataset-level Metadata]", "md_verbatim": "| EX | Exposure | Interventions | One record per protocol-specified study treatment, constant-dosing interval, per subject | Tabulation | STUDYID, USUBJID, EXTRT, EXSTDTC | ex.xpt |", "score": 0.4029, "match_basis": "verbatim_token+chapter_route:ch03"}, {"md_atom_id": "md_ch03_a031", "md_file": "knowledge_base/chapters/ch03_submitting_data.md", "md_atom_type": "TABLE_ROW", "md_parent_section": "§3.2.1 [Dataset-level Metadata]", "md_verbatim": "| CM | Concomitant/Prior Medications | Interventions | One record per recorded intervention occurrence or constant-dosing interval per subject | Tabulation | STUDYID, USUBJID, CMTRT, CMSTDTC | cm.xpt |", "score": 0.3971, "match_basis": "verbatim_token+chapter_route:ch03"}, {"md_atom_id": "md_ch03_a032", "md_file": "knowledge_base/chapters/ch03_submitting_data.md", "md_atom_type": "TABLE_ROW", "md_parent_section": "§3.2.1 [Dataset-level Metadata]", "md_verbatim": "| EC | Exposure as Collected | Interventions | One record per protocol-specified study treatment, collected-dosing interval, per subject, per mood | Tabulation | STUDYID, USUBJID, ECTRT, ECSTDTC, ECMOOD | ec.xpt |", "score": 0.3936, "match_basis": "verbatim_token+chapter_route:ch03"}], "candidate_count": 5, "zero_candidate": false}
{"pdf_atom_id": "sv20_p0046_a012", "pdf_atom_type": "TABLE_ROW", "pdf_source": "SDTM_v2.0", "pdf_page": 46, "pdf_parent_section": "§3.2.3.1 [Subject Elements]", "pdf_verbatim": "10 | SEENDTC | End Date/Time of Element | Char | ISO 8601 datetime or interval | Timing | | | | | | End date/time of an element for each subject.", "figure_ref": null, "candidates": [{"md_atom_id": "md_ch03_a074", "md_file": "knowledge_base/chapters/ch03_submitting_data.md", "md_atom_type": "TABLE_ROW", "md_parent_section": "§3.2.1 [Dataset-level Metadata]", "md_verbatim": "| FA | Findings About Events or Interventions | Findings About | One record per finding, per object, per time point, per visit per subject | Tabulation | STUDYID, USUBJID, FATESTCD, FAOBJ, VISITNUM, FATPTREF, FATPTNUM | fa.xpt |", "score": 0.3866, "match_basis": "verbatim_token+chapter_route:ch03"}, {"md_atom_id": "md_ch03_a033", "md_file": "knowledge_base/chapters/ch03_submitting_data.md", "md_atom_type": "TABLE_ROW", "md_parent_section": "§3.2.1 [Dataset-level Metadata]", "md_verbatim": "| EX | Exposure | Interventions | One record per protocol-specified study treatment, constant-dosing interval, per subject | Tabulation | STUDYID, USUBJID, EXTRT, EXSTDTC | ex.xpt |", "score": 0.3865, "match_basis": "verbatim_token+chapter_route:ch03"}, {"md_atom_id": "md_ch03_a034", "md_file": "knowledge_base/chapters/ch03_submitting_data.md", "md_atom_type": "TABLE_ROW", "md_parent_section": "§3.2.1 [Dataset-level Metadata]", "md_verbatim": "| ML | Meal Data | Interventions | One record per food product occurrence or constant intake interval per subject | Tabulation | STUDYID, USUBJID, MLTRT, MLSTDTC | ml.xpt |", "score": 0.3857, "match_basis": "verbatim_token+chapter_route:ch03"}, {"md_atom_id": "md_ch03_a032", "md_file": "knowledge_base/chapters/ch03_submitting_data.md", "md_atom_type": "TABLE_ROW", "md_parent_section": "§3.2.1 [Dataset-level Metadata]", "md_verbatim": "| EC | Exposure as Collected | Interventions | One record per protocol-specified study treatment, collected-dosing interval, per subject, per mood | Tabulation | STUDYID, USUBJID, ECTRT, ECSTDTC, ECMOOD | ec.xpt |", "score": 0.3841, "match_basis": "verbatim_token+chapter_route:ch03"}, {"md_atom_id": "md_ch03_a031", "md_file": "knowledge_base/chapters/ch03_submitting_data.md", "md_atom_type": "TABLE_ROW", "md_parent_section": "§3.2.1 [Dataset-level Metadata]", "md_verbatim": "| CM | Concomitant/Prior Medications | Interventions | One record per recorded intervention occurrence or constant-dosing interval per subject | Tabulation | STUDYID, USUBJID, CMTRT, CMSTDTC | cm.xpt |", "score": 0.3808, "match_basis": "verbatim_token+chapter_route:ch03"}], "candidate_count": 5, "zero_candidate": false}
{"pdf_atom_id": "sv20_p0046_a013", "pdf_atom_type": "TABLE_ROW", "pdf_source": "SDTM_v2.0", "pdf_page": 46, "pdf_parent_section": "§3.2.3.1 [Subject Elements]", "pdf_verbatim": "11 | SESTDY | Study Day of Start of Element | Num | | Timing | | | | | | Study day of start of element relative to the sponsor-defined RFSTDTC.", "figure_ref": null, "candidates": [{"md_atom_id": "md_ch03_a027", "md_file": "knowledge_base/chapters/ch03_submitting_data.md", "md_atom_type": "TABLE_ROW", "md_parent_section": "§3.2.1 [Dataset-level Metadata]", "md_verbatim": "| SE | Subject Elements | Special Purpose | One record per actual Element per subject | Tabulation | STUDYID, USUBJID, ETCD, SESTDTC | se.xpt |", "score": 0.4098, "match_basis": "verbatim_token+chapter_route:ch03"}, {"md_atom_id": "md_ch03_a078", "md_file": "knowledge_base/chapters/ch03_submitting_data.md", "md_atom_type": "TABLE_ROW", "md_parent_section": "§3.2.1 [Dataset-level Metadata]", "md_verbatim": "| TE | Trial Elements | Trial Design | One record per planned Element | Tabulation | STUDYID, ETCD | te.xpt |", "score": 0.393, "match_basis": "verbatim_token+chapter_route:ch03"}, {"md_atom_id": "md_ch03_a076", "md_file": "knowledge_base/chapters/ch03_submitting_data.md", "md_atom_type": "TABLE_ROW", "md_parent_section": "§3.2.1 [Dataset-level Metadata]", "md_verbatim": "| TA | Trial Arms | Trial Design | One record per planned Element per Arm | Tabulation | STUDYID, ARMCD, TAETORD | ta.xpt |", "score": 0.3868, "match_basis": "verbatim_token+chapter_route:ch03"}, {"md_atom_id": "md_ch03_a038", "md_file": "knowledge_base/chapters/ch03_submitting_data.md", "md_atom_type": "TABLE_ROW", "md_parent_section": "§3.2.1 [Dataset-level Metadata]", "md_verbatim": "| BE | Biospecimen Events | Events | One record per instance per biospecimen event per biospecimen identifier per subject | Tabulation | STUDYID, USUBJID, BEREFID, BETERM, BESTDTC | be.xpt |", "score": 0.3804, "match_basis": "verbatim_token+chapter_route:ch03"}, {"md_atom_id": "md_ch03_a060", "md_file": "knowledge_base/chapters/ch03_submitting_data.md", "md_atom_type": "TABLE_ROW", "md_parent_section": "§3.2.1 [Dataset-level Metadata]", "md_verbatim": "| OE | Ophthalmic Examinations | Findings | One record per ophthalmic finding per method per location, per time point per visit per subject | Tabulation | STUDYID, USUBJID, FOCID, OETESTCD, OETSTDTL, OEMETHOD, OELOC, OELAT, OEDIR, VISITNUM, OEDTC, OETPTREF, OETPTNUM, OEREPNUM | oe.xpt |", "score": 0.3803, "match_basis": "verbatim_token+chapter_route:ch03"}], "candidate_count": 5, "zero_candidate": false}
{"pdf_atom_id": "sv20_p0046_a014", "pdf_atom_type": "TABLE_ROW", "pdf_source": "SDTM_v2.0", "pdf_page": 46, "pdf_parent_section": "§3.2.3.1 [Subject Elements]", "pdf_verbatim": "12 | SEENDY | Study Day of End of Element | Num | | Timing | | | | | | Study day of end of element relative to the sponsor-defined RFSTDTC.", "figure_ref": null, "candidates": [{"md_atom_id": "md_ch03_a078", "md_file": "knowledge_base/chapters/ch03_submitting_data.md", "md_atom_type": "TABLE_ROW", "md_parent_section": "§3.2.1 [Dataset-level Metadata]", "md_verbatim": "| TE | Trial Elements | Trial Design | One record per planned Element | Tabulation | STUDYID, ETCD | te.xpt |", "score": 0.3957, "match_basis": "verbatim_token+chapter_route:ch03"}, {"md_atom_id": "md_ch03_a027", "md_file": "knowledge_base/chapters/ch03_submitting_data.md", "md_atom_type": "TABLE_ROW", "md_parent_section": "§3.2.1 [Dataset-level Metadata]", "md_verbatim": "| SE | Subject Elements | Special Purpose | One record per actual Element per subject | Tabulation | STUDYID, USUBJID, ETCD, SESTDTC | se.xpt |", "score": 0.3951, "match_basis": "verbatim_token+chapter_route:ch03"}, {"md_atom_id": "md_ch03_a076", "md_file": "knowledge_base/chapters/ch03_submitting_data.md", "md_atom_type": "TABLE_ROW", "md_parent_section": "§3.2.1 [Dataset-level Metadata]", "md_verbatim": "| TA | Trial Arms | Trial Design | One record per planned Element per Arm | Tabulation | STUDYID, ARMCD, TAETORD | ta.xpt |", "score": 0.3892, "match_basis": "verbatim_token+chapter_route:ch03"}, {"md_atom_id": "md_ch03_a084", "md_file": "knowledge_base/chapters/ch03_submitting_data.md", "md_atom_type": "TABLE_ROW", "md_parent_section": "§3.2.1 [Dataset-level Metadata]", "md_verbatim": "| RELSPEC | Related Specimens | Relationship | One record per specimen identifier per subject | Tabulation | STUDYID, USUBJID, REFID | relspec.xpt |", "score": 0.3776, "match_basis": "verbatim_token+chapter_route:ch03"}, {"md_atom_id": "md_ch03_a060", "md_file": "knowledge_base/chapters/ch03_submitting_data.md", "md_atom_type": "TABLE_ROW", "md_parent_section": "§3.2.1 [Dataset-level Metadata]", "md_verbatim": "| OE | Ophthalmic Examinations | Findings | One record per ophthalmic finding per method per location, per time point per visit per subject | Tabulation | STUDYID, USUBJID, FOCID, OETESTCD, OETSTDTL, OEMETHOD, OELOC, OELAT, OEDIR, VISITNUM, OEDTC, OETPTREF, OETPTNUM, OEREPNUM | oe.xpt |", "score": 0.3762, "match_basis": "verbatim_token+chapter_route:ch03"}], "candidate_count": 5, "zero_candidate": false}
{"pdf_atom_id": "sv20_p0046_a015", "pdf_atom_type": "TABLE_ROW", "pdf_source": "SDTM_v2.0", "pdf_page": 46, "pdf_parent_section": "§3.2.3.1 [Subject Elements]", "pdf_verbatim": "13 | SEUPDES | Description of Unplanned Element | Char | | Synonym Qualifier | ETCD | | | | | Description of what happened to the subject during an unplanned element. Used only if ETCD has the value of \"UNPLAN\".", "figure_ref": null, "candidates": [{"md_atom_id": "md_ch03_a078", "md_file": "knowledge_base/chapters/ch03_submitting_data.md", "md_atom_type": "TABLE_ROW", "md_parent_section": "§3.2.1 [Dataset-level Metadata]", "md_verbatim": "| TE | Trial Elements | Trial Design | One record per planned Element | Tabulation | STUDYID, ETCD | te.xpt |", "score": 0.3989, "match_basis": "verbatim_token+chapter_route:ch03"}, {"md_atom_id": "md_ch03_a027", "md_file": "knowledge_base/chapters/ch03_submitting_data.md", "md_atom_type": "TABLE_ROW", "md_parent_section": "§3.2.1 [Dataset-level Metadata]", "md_verbatim": "| SE | Subject Elements | Special Purpose | One record per actual Element per subject | Tabulation | STUDYID, USUBJID, ETCD, SESTDTC | se.xpt |", "score": 0.3849, "match_basis": "verbatim_token+chapter_route:ch03"}, {"md_atom_id": "md_ch03_a086", "md_file": "knowledge_base/chapters/ch03_submitting_data.md", "md_atom_type": "TABLE_ROW", "md_parent_section": "§3.2.1 [Dataset-level Metadata]", "md_verbatim": "| SUPP-- | Supplemental Qualifiers for [domain name] | Relationship | One record per supplemental qualifier per related parent domain record(s) | Tabulation | STUDYID, RDOMAIN, USUBJID, IDVAR, IDVARVAL, QNAM | supp--.xpt |", "score": 0.3807, "match_basis": "verbatim_token+chapter_route:ch03"}, {"md_atom_id": "md_ch03_a076", "md_file": "knowledge_base/chapters/ch03_submitting_data.md", "md_atom_type": "TABLE_ROW", "md_parent_section": "§3.2.1 [Dataset-level Metadata]", "md_verbatim": "| TA | Trial Arms | Trial Design | One record per planned Element per Arm | Tabulation | STUDYID, ARMCD, TAETORD | ta.xpt |", "score": 0.3796, "match_basis": "verbatim_token+chapter_route:ch03"}, {"md_atom_id": "md_ch03_a044", "md_file": "knowledge_base/chapters/ch03_submitting_data.md", "md_atom_type": "TABLE_ROW", "md_parent_section": "§3.2.1 [Dataset-level Metadata]", "md_verbatim": "| BS | Biospecimen Findings | Findings | One record per measurement per biospecimen identifier per subject | Tabulation | STUDYID, USUBJID, BSREFID, BSTESTCD | bs.xpt |", "score": 0.375, "match_basis": "verbatim_token+chapter_route:ch03"}], "candidate_count": 5, "zero_candidate": false}
{"pdf_atom_id": "sv20_p0046_a016", "pdf_atom_type": "HEADING", "pdf_source": "SDTM_v2.0", "pdf_page": 46, "pdf_parent_section": "§3.2.3 [Subject Summary Domains]", "pdf_verbatim": "3.2.3.2 Subject Repro Stages", "figure_ref": null, "candidates": [{"md_atom_id": "md_ch03_a001", "md_file": "knowledge_base/chapters/ch03_submitting_data.md", "md_atom_type": "HEADING", "md_parent_section": "§3 [Submitting Data in Standard Format]", "md_verbatim": "# SDTMIG v3.4 — Chapter 3: Submitting Data in Standard Format", "score": 0.3308, "match_basis": "verbatim_token+chapter_route:ch03"}, {"md_atom_id": "md_ch03_a102", "md_file": "knowledge_base/chapters/ch03_submitting_data.md", "md_atom_type": "HEADING", "md_parent_section": "§3.2.1 [Dataset-level Metadata]", "md_verbatim": "### 3.2.1.2 CDISC Submission Value-level Metadata", "score": 0.3176, "match_basis": "verbatim_token+chapter_route:ch03"}, {"md_atom_id": "md_ch03_a003", "md_file": "knowledge_base/chapters/ch03_submitting_data.md", "md_atom_type": "HEADING", "md_parent_section": "§3 [Submitting Data in Standard Format]", "md_verbatim": "## 3.1 Standard Metadata for Dataset Contents and Attributes", "score": 0.3146, "match_basis": "verbatim_token+chapter_route:ch03"}, {"md_atom_id": "md_ch03_a013", "md_file": "knowledge_base/chapters/ch03_submitting_data.md", "md_atom_type": "HEADING", "md_parent_section": "§3 [Submitting Data in Standard Format]", "md_verbatim": "## 3.2 Using the CDISC Domain Models in Regulatory Submissions — Dataset Metadata", "score": 0.3115, "match_basis": "verbatim_token+chapter_route:ch03"}, {"md_atom_id": "md_ch03_a021", "md_file": "knowledge_base/chapters/ch03_submitting_data.md", "md_atom_type": "HEADING", "md_parent_section": "§3.2 [Using the CDISC Domain Models in Regulatory Submissions — Dataset Metadata]", "md_verbatim": "### 3.2.1 Dataset-level Metadata", "score": 0.3, "match_basis": "verbatim_token+chapter_route:ch03"}], "candidate_count": 5, "zero_candidate": false}
