{"pdf_atom_id": "ig34_p0229_a016", "pdf_atom_type": "TABLE_ROW", "pdf_source": "SDTMIG_v3.4", "pdf_page": 229, "pdf_parent_section": "§6.3.5.5 Immunogenicity Specimen Assessments (IS)", "pdf_verbatim": "| ISBDAGNT | Binding Agent | Char | (MICROORG)(ISBDAGT) | Variable Qualifier | Text description of the agent that is binding to the entity in the ISTEST variable. ISBDAGNT is used to indicate that there is a binding relationship between the entities in the ISTEST and ISBDAGNT variables, regardless of direction. ISBDAGNT is not a method qualifier. It should only be used when the actual interest of the measurement is the binding interaction between the 2 entities in ISTEST and ISBDAGNT. In other words, the combination of ISTEST and ISBDAGNT should describe the entity or the analyte being measured, without the need for additional variables. The binding agent may be (but is not limited to) a test article, a portion of the test article, a related compound, an endogenous molecule, an allergen, or an infectious agent. | Perm |", "figure_ref": null, "candidates": [{"md_atom_id": "md_dmIS_ex_a030", "md_file": "knowledge_base/domains/IS/examples.md", "md_atom_type": "TABLE_ROW", "md_parent_section": "§IS.2 [Example 2]", "md_verbatim": "| 6 | ABC | IS | ABC-001 | 6 | A42839 | 3 | ADA_X | Cross-Reactive Binding Antidrug Antibody | ENDOGENOUS COAGULATION FACTOR VIII | QUANTIFY | ANTIDRUG ANTIBODIES | HUMORAL IMMUNITY | 90 | titer | 90 | 90 | titer | SERUM | ELECTROCHEMILUMINESCENCE IMMUNOASSAY | 1 | VISIT 1 | 2017-07-27 |", "score": 0.465, "match_basis": "verbatim_token+domain_route:IS"}, {"md_atom_id": "md_dmIS_ex_a032", "md_file": "knowledge_base/domains/IS/examples.md", "md_atom_type": "TABLE_ROW", "md_parent_section": "§IS.2 [Example 2]", "md_verbatim": "| 8 | ABC | IS | ABC-001 | 8 | A42839 | 4 | ADA_NX | Neutralize Cross-React Bind Antidrug Ab | ENDOGENOUS COAGULATION FACTOR VIII | QUANTIFY | ANTIDRUG ANTIBODIES | HUMORAL IMMUNITY | 150 | titer | 150 | 150 | titer | SERUM | HEMAGGLUTINATION INHIBITION ASSAY | 1 | VISIT 1 | 2017-07-27 |", "score": 0.4593, "match_basis": "verbatim_token+domain_route:IS"}, {"md_atom_id": "md_dmIS_ex_a029", "md_file": "knowledge_base/domains/IS/examples.md", "md_atom_type": "TABLE_ROW", "md_parent_section": "§IS.2 [Example 2]", "md_verbatim": "| 5 | ABC | IS | ABC-001 | 5 | A42839 | 3 | ADA_X | Cross-Reactive Binding Antidrug Antibody | ENDOGENOUS COAGULATION FACTOR VIII | CONFIRM | ANTIDRUG ANTIBODIES | HUMORAL IMMUNITY | POSITIVE | | POSITIVE | | | SERUM | ELECTROCHEMILUMINESCENCE IMMUNOASSAY | 1 | VISIT 1 | 2017-07-27 |", "score": 0.4577, "match_basis": "verbatim_token+domain_route:IS"}, {"md_atom_id": "md_dmIS_ex_a105", "md_file": "knowledge_base/domains/IS/examples.md", "md_atom_type": "TABLE_ROW", "md_parent_section": "§IS.7 [Example 7]", "md_verbatim": "| 3 | RSV1230 | IS | RSV1230-011 | 3 | 13668 | CYKSCCL | Cytokine-secreting Cells | INTERFERON GAMMA | WITHOUT STIMULATING AGENT | | STUDY VACCINE-RELATED IMMUNOGENICITY | CELLULAR IMMUNITY | 60.8 | SFC/10^6 PBMC | 60.8 | 60.8 | SFC/10^6 PBMC | PERIPHERAL BLOOD MONONUCLEAR CELL | ELISPOT | 2 | VISIT 1 | 2017-06-27 |", "score": 0.4521, "match_basis": "verbatim_token+domain_route:IS"}, {"md_atom_id": "md_dmIS_ex_a103", "md_file": "knowledge_base/domains/IS/examples.md", "md_atom_type": "TABLE_ROW", "md_parent_section": "§IS.7 [Example 7]", "md_verbatim": "| 1 | RSV1230 | IS | RSV1230-011 | 1 | 13668 | CYKSCCL | Cytokine-secreting Cells | INTERFERON GAMMA | WITHOUT STIMULATING AGENT | | STUDY VACCINE-RELATED IMMUNOGENICITY | CELLULAR IMMUNITY | 5.1 | SFC/10^6 PBMC | 5.1 | 5.1 | SFC/10^6 PBMC | PERIPHERAL BLOOD MONONUCLEAR CELL | ELISPOT | 1 | BASELINE | 2017-05-27 |", "score": 0.4519, "match_basis": "verbatim_token+domain_route:IS"}], "candidate_count": 5, "zero_candidate": false}
{"pdf_atom_id": "ig34_p0229_a017", "pdf_atom_type": "TABLE_ROW", "pdf_source": "SDTMIG_v3.4", "pdf_page": 229, "pdf_parent_section": "§6.3.5.5 Immunogenicity Specimen Assessments (IS)", "pdf_verbatim": "| ISTSTOPO | Test Operational Objective | Char | (TSTOPOBJ) | Variable Qualifier | Text description of the high-level purpose of the test at the operational level. If populated, valid values are \"SCREEN\", \"CONFIRM\", and \"QUANTIFY\". | Perm |", "figure_ref": null, "candidates": [{"md_atom_id": "md_dmIS_assn_a011", "md_file": "knowledge_base/domains/IS/assumptions.md", "md_atom_type": "LIST_ITEM", "md_parent_section": "§IS [IS — Assumptions]", "md_verbatim": "8. The IS domain variable ISTSTOPO (Test Operational Objective) is supported by a nonextensible Controlled Terminology codelist containing the values SCREEN, CONFIRM, and QUANTIFY.", "score": 0.4655, "match_basis": "verbatim_token+domain_route:IS"}, {"md_atom_id": "md_dmIS_ex_a025", "md_file": "knowledge_base/domains/IS/examples.md", "md_atom_type": "TABLE_ROW", "md_parent_section": "§IS.2 [Example 2]", "md_verbatim": "| 1 | ABC | IS | ABC-001 | 1 | A42839 | 1 | ADA_BAB | Binding Antidrug Antibody | COAGULATION FACTOR VIII ANALOGUE DRUG | CONFIRM | ANTIDRUG ANTIBODIES | HUMORAL IMMUNITY | POSITIVE | | POSITIVE | | | SERUM | ELECTROCHEMILUMINESCENCE IMMUNOASSAY | 1 | VISIT 1 | 2017-07-27 |", "score": 0.4621, "match_basis": "verbatim_token+domain_route:IS"}, {"md_atom_id": "md_dmIS_ex_a029", "md_file": "knowledge_base/domains/IS/examples.md", "md_atom_type": "TABLE_ROW", "md_parent_section": "§IS.2 [Example 2]", "md_verbatim": "| 5 | ABC | IS | ABC-001 | 5 | A42839 | 3 | ADA_X | Cross-Reactive Binding Antidrug Antibody | ENDOGENOUS COAGULATION FACTOR VIII | CONFIRM | ANTIDRUG ANTIBODIES | HUMORAL IMMUNITY | POSITIVE | | POSITIVE | | | SERUM | ELECTROCHEMILUMINESCENCE IMMUNOASSAY | 1 | VISIT 1 | 2017-07-27 |", "score": 0.4597, "match_basis": "verbatim_token+domain_route:IS"}, {"md_atom_id": "md_dmIS_ex_a027", "md_file": "knowledge_base/domains/IS/examples.md", "md_atom_type": "TABLE_ROW", "md_parent_section": "§IS.2 [Example 2]", "md_verbatim": "| 3 | ABC | IS | ABC-001 | 3 | A42839 | 2 | ADA_NAB | Neutralizing Binding Antidrug Antibody | COAGULATION FACTOR VIII ANALOGUE DRUG | CONFIRM | ANTIDRUG ANTIBODIES | HUMORAL IMMUNITY | POSITIVE | | POSITIVE | | | SERUM | HEMAGGLUTINATION INHIBITION ASSAY | 1 | VISIT 1 | 2017-07-27 |", "score": 0.4586, "match_basis": "verbatim_token+domain_route:IS"}, {"md_atom_id": "md_dmIS_ex_a031", "md_file": "knowledge_base/domains/IS/examples.md", "md_atom_type": "TABLE_ROW", "md_parent_section": "§IS.2 [Example 2]", "md_verbatim": "| 7 | ABC | IS | ABC-001 | 7 | A42839 | 3 | ADA_NX | Neutralize Cross-React Bind Antidrug Ab | ENDOGENOUS COAGULATION FACTOR VIII | CONFIRM | ANTIDRUG ANTIBODIES | HUMORAL IMMUNITY | POSITIVE | | POSITIVE | | | SERUM | HEMAGGLUTINATION INHIBITION ASSAY | 1 | VISIT 1 | 2017-07-27 |", "score": 0.4545, "match_basis": "verbatim_token+domain_route:IS"}], "candidate_count": 5, "zero_candidate": false}
{"pdf_atom_id": "ig34_p0229_a018", "pdf_atom_type": "TABLE_ROW", "pdf_source": "SDTMIG_v3.4", "pdf_page": 229, "pdf_parent_section": "§6.3.5.5 Immunogenicity Specimen Assessments (IS)", "pdf_verbatim": "| ISMSMCBE | Molecule Secreted by Cells | Char | | Variable Qualifier | Text description of the entity secreted by the cells represented in ISTEST. The combination of ISTEST and ISMSCBCE should describe the entity or the analyte being measured, without the need for additional variables. | Perm |", "figure_ref": null, "candidates": [{"md_atom_id": "md_dmIS_ex_a105", "md_file": "knowledge_base/domains/IS/examples.md", "md_atom_type": "TABLE_ROW", "md_parent_section": "§IS.7 [Example 7]", "md_verbatim": "| 3 | RSV1230 | IS | RSV1230-011 | 3 | 13668 | CYKSCCL | Cytokine-secreting Cells | INTERFERON GAMMA | WITHOUT STIMULATING AGENT | | STUDY VACCINE-RELATED IMMUNOGENICITY | CELLULAR IMMUNITY | 60.8 | SFC/10^6 PBMC | 60.8 | 60.8 | SFC/10^6 PBMC | PERIPHERAL BLOOD MONONUCLEAR CELL | ELISPOT | 2 | VISIT 1 | 2017-06-27 |", "score": 0.4583, "match_basis": "verbatim_token+domain_route:IS"}, {"md_atom_id": "md_dmIS_ex_a103", "md_file": "knowledge_base/domains/IS/examples.md", "md_atom_type": "TABLE_ROW", "md_parent_section": "§IS.7 [Example 7]", "md_verbatim": "| 1 | RSV1230 | IS | RSV1230-011 | 1 | 13668 | CYKSCCL | Cytokine-secreting Cells | INTERFERON GAMMA | WITHOUT STIMULATING AGENT | | STUDY VACCINE-RELATED IMMUNOGENICITY | CELLULAR IMMUNITY | 5.1 | SFC/10^6 PBMC | 5.1 | 5.1 | SFC/10^6 PBMC | PERIPHERAL BLOOD MONONUCLEAR CELL | ELISPOT | 1 | BASELINE | 2017-05-27 |", "score": 0.458, "match_basis": "verbatim_token+domain_route:IS"}, {"md_atom_id": "md_dmIS_ex_a104", "md_file": "knowledge_base/domains/IS/examples.md", "md_atom_type": "TABLE_ROW", "md_parent_section": "§IS.7 [Example 7]", "md_verbatim": "| 2 | RSV1230 | IS | RSV1230-011 | 2 | 13668 | CYKSCCL | Cytokine-secreting Cells | INTERFERON GAMMA | WITH STIMULATING AGENT | RSV-EPITOPE B | STUDY VACCINE-RELATED IMMUNOGENICITY | CELLULAR IMMUNITY | 10.5 | SFC/10^6 PBMC | 10.5 | 10.5 | SFC/10^6 PBMC | PERIPHERAL BLOOD MONONUCLEAR CELL | ELISPOT | 1 | BASELINE | 2017-05-27 |", "score": 0.4481, "match_basis": "verbatim_token+domain_route:IS"}, {"md_atom_id": "md_dmIS_ex_a106", "md_file": "knowledge_base/domains/IS/examples.md", "md_atom_type": "TABLE_ROW", "md_parent_section": "§IS.7 [Example 7]", "md_verbatim": "| 4 | RSV1230 | IS | RSV1230-011 | 4 | 13668 | CYKSCCL | Cytokine-secreting Cells | INTERFERON GAMMA | WITH STIMULATING AGENT | RSV-EPITOPE B | STUDY VACCINE-RELATED IMMUNOGENICITY | CELLULAR IMMUNITY | 260.5 | SFC/10^6 PBMC | 260.5 | 260.5 | SFC/10^6 PBMC | PERIPHERAL BLOOD MONONUCLEAR CELL | ELISPOT | 2 | VISIT 1 | 2017-06-27 |", "score": 0.4481, "match_basis": "verbatim_token+domain_route:IS"}, {"md_atom_id": "md_dmIS_ex_a028", "md_file": "knowledge_base/domains/IS/examples.md", "md_atom_type": "TABLE_ROW", "md_parent_section": "§IS.2 [Example 2]", "md_verbatim": "| 4 | ABC | IS | ABC-001 | 4 | A42839 | 2 | ADA_NAB | Neutralizing Binding Antidrug Antibody | COAGULATION FACTOR VIII ANALOGUE DRUG | QUANTIFY | ANTIDRUG ANTIBODIES | HUMORAL IMMUNITY | 60 | titer | 60 | 60 | titer | SERUM | HEMAGGLUTINATION INHIBITION ASSAY | 1 | VISIT 1 | 2017-07-27 |", "score": 0.4459, "match_basis": "verbatim_token+domain_route:IS"}], "candidate_count": 5, "zero_candidate": false}
{"pdf_atom_id": "ig34_p0229_a019", "pdf_atom_type": "TABLE_ROW", "pdf_source": "SDTMIG_v3.4", "pdf_page": 229, "pdf_parent_section": "§6.3.5.5 Immunogenicity Specimen Assessments (IS)", "pdf_verbatim": "| ISTSTDTL | Test Detail | Char | | Variable Qualifier | Further description of ISTESTCD and ISTEST. | Perm |", "figure_ref": null, "candidates": [{"md_atom_id": "md_dmIS_ex_a157", "md_file": "knowledge_base/domains/IS/examples.md", "md_atom_type": "TABLE_ROW", "md_parent_section": "§IS.11 [Example 11]", "md_verbatim": "| 2 | XYZ | IS | XYZ1234 | 2 | 12456666 | ARIGEAB | Allergen-induced IgE Antibody | DOG DANDER ANTIGEN | | 0.12 | U/mL | 0.12 | 0.12 | U/mL | SERUM | RIA | 1 | SCREENING | 2018-06-20 |", "score": 0.4255, "match_basis": "verbatim_token+domain_route:IS"}, {"md_atom_id": "md_dmIS_ex_a159", "md_file": "knowledge_base/domains/IS/examples.md", "md_atom_type": "TABLE_ROW", "md_parent_section": "§IS.11 [Example 11]", "md_verbatim": "| 4 | XYZ | IS | XYZ1234 | 4 | 12456666 | ARIGEAB | Allergen-induced IgE Antibody | CAT DANDER ANTIGEN | | 0.19 | U/mL | 0.19 | 0.19 | U/mL | SERUM | RIA | 1 | SCREENING | 2018-06-20 |", "score": 0.4255, "match_basis": "verbatim_token+domain_route:IS"}, {"md_atom_id": "md_dmIS_ex_a163", "md_file": "knowledge_base/domains/IS/examples.md", "md_atom_type": "TABLE_ROW", "md_parent_section": "§IS.11 [Example 11]", "md_verbatim": "| 8 | XYZ | IS | XYZ1234 | 8 | 12456666 | ARIGEAB | Allergen-induced IgE Antibody | COW DANDER ANTIGEN | | 120 | U/mL | 120 | 120 | U/mL | SERUM | RIA | 1 | SCREENING | 2018-06-20 |", "score": 0.4253, "match_basis": "verbatim_token+domain_route:IS"}, {"md_atom_id": "md_dmIS_ex_a161", "md_file": "knowledge_base/domains/IS/examples.md", "md_atom_type": "TABLE_ROW", "md_parent_section": "§IS.11 [Example 11]", "md_verbatim": "| 6 | XYZ | IS | XYZ1234 | 6 | 12456666 | ARIGEAB | Allergen-induced IgE Antibody | HORSE DANDER ANTIGEN | | 44 | U/mL | 44 | 44 | U/mL | SERUM | RIA | 1 | SCREENING | 2018-06-20 |", "score": 0.425, "match_basis": "verbatim_token+domain_route:IS"}, {"md_atom_id": "md_dmIS_ex_a158", "md_file": "knowledge_base/domains/IS/examples.md", "md_atom_type": "TABLE_ROW", "md_parent_section": "§IS.11 [Example 11]", "md_verbatim": "| 3 | XYZ | IS | XYZ1234 | 3 | 12456666 | ARIGEAB | Allergen-induced IgE Antibody | DOG DANDER ANTIGEN | RAST SCORE | 0 | | 0 | 0 | | SERUM | RIA | 1 | SCREENING | 2018-06-20 |", "score": 0.4242, "match_basis": "verbatim_token+domain_route:IS"}], "candidate_count": 5, "zero_candidate": false}
{"pdf_atom_id": "ig34_p0229_a020", "pdf_atom_type": "TABLE_ROW", "pdf_source": "SDTMIG_v3.4", "pdf_page": 229, "pdf_parent_section": "§6.3.5.5 Immunogenicity Specimen Assessments (IS)", "pdf_verbatim": "| ISCAT | Category for Immunogenicity Test | Char | * | Grouping Qualifier | Used to define a category of topic-variable values across subjects. Example: \"SEROLOGY\". | Perm |", "figure_ref": null, "candidates": [{"md_atom_id": "md_dmIS_ex_a093", "md_file": "knowledge_base/domains/IS/examples.md", "md_atom_type": "TABLE_ROW", "md_parent_section": "§IS.6 [Example 6]", "md_verbatim": "| 2 | INFLA456 | IS | INF02-01 | 2 | SAMPLBC001 | ABSCCL | Antibody-secreting Cells | INFLUENZA H1-SPECIFIC IGG ANTIBODY | STUDY VACCINE-RELATED IMMUNOGENICITY | HUMORAL IMMUNITY | 626 | SFC/10^6 PBMC | 626 | 626 | SFC/10^6 PBMC | PERIPHERAL BLOOD MONONUCLEAR CELL | ELISPOT | 2011-06-08 |", "score": 0.4706, "match_basis": "verbatim_token+domain_route:IS"}, {"md_atom_id": "md_dmIS_ex_a094", "md_file": "knowledge_base/domains/IS/examples.md", "md_atom_type": "TABLE_ROW", "md_parent_section": "§IS.6 [Example 6]", "md_verbatim": "| 3 | INFLA456 | IS | INF02-01 | 3 | SAMPLBC001 | ABSCCL | Antibody-secreting Cells | INFLUENZA H3-SPECIFIC IGG ANTIBODY | STUDY VACCINE-RELATED IMMUNOGENICITY | HUMORAL IMMUNITY | 592 | SFC/10^6 PBMC | 592 | 592 | SFC/10^6 PBMC | PERIPHERAL BLOOD MONONUCLEAR CELL | ELISPOT | 2011-06-08 |", "score": 0.4706, "match_basis": "verbatim_token+domain_route:IS"}, {"md_atom_id": "md_dmIS_ex_a092", "md_file": "knowledge_base/domains/IS/examples.md", "md_atom_type": "TABLE_ROW", "md_parent_section": "§IS.6 [Example 6]", "md_verbatim": "| 1 | INFLA456 | IS | INF02-01 | 1 | SAMPLBC001 | ABSCCL | Antibody-secreting Cells | IGG ANTIBODY | STUDY VACCINE-RELATED IMMUNOGENICITY | HUMORAL IMMUNITY | 2019 | SFC/10^6 PBMC | 2019 | 2019 | SFC/10^6 PBMC | PERIPHERAL BLOOD MONONUCLEAR CELL | ELISPOT | 2011-06-08 |", "score": 0.4671, "match_basis": "verbatim_token+domain_route:IS"}, {"md_atom_id": "md_dmIS_ex_a116", "md_file": "knowledge_base/domains/IS/examples.md", "md_atom_type": "TABLE_ROW", "md_parent_section": "§IS.8 [Example 8]", "md_verbatim": "| 2 | RSV1230 | IS | RSV1230-011 | RESPIRATORY SYNCYTIAL VIRUS | 2 | 13668 | MBNAB | Neutralizing Microbial-induced Antibody | RESPIRATORY SYNCYTIAL VIRUS | NEUTRALIZING TITER 50% | STUDY VACCINE-RELATED IMMUNOGENICITY | HUMORAL IMMUNITY | 1:80 | | 80 | 80 | titer | SERUM | MICRONEUTRALIZATION ASSAY | 2 | VISIT 1 | 2017-07-27 |", "score": 0.4667, "match_basis": "verbatim_token+domain_route:IS"}, {"md_atom_id": "md_dmIS_ex_a117", "md_file": "knowledge_base/domains/IS/examples.md", "md_atom_type": "TABLE_ROW", "md_parent_section": "§IS.8 [Example 8]", "md_verbatim": "| 3 | RSV1230 | IS | RSV1230-011 | RESPIRATORY SYNCYTIAL VIRUS | 3 | 13668 | MBNAB | Neutralizing Microbial-induced Antibody | RESPIRATORY SYNCYTIAL VIRUS | NEUTRALIZING TITER 50% | STUDY VACCINE-RELATED IMMUNOGENICITY | HUMORAL IMMUNITY | 1:200 | | 200 | 200 | titer | SERUM | MICRONEUTRALIZATION ASSAY | 3 | VISIT 2 | 2017-09-27 |", "score": 0.4663, "match_basis": "verbatim_token+domain_route:IS"}], "candidate_count": 5, "zero_candidate": false}
{"pdf_atom_id": "ig34_p0229_a021", "pdf_atom_type": "TABLE_ROW", "pdf_source": "SDTMIG_v3.4", "pdf_page": 229, "pdf_parent_section": "§6.3.5.5 Immunogenicity Specimen Assessments (IS)", "pdf_verbatim": "| ISSCAT | Subcategory for Immunogenicity Test | Char | * | Grouping Qualifier | A further categorization of ISCAT. | Perm |", "figure_ref": null, "candidates": [{"md_atom_id": "md_dmIS_ex_a116", "md_file": "knowledge_base/domains/IS/examples.md", "md_atom_type": "TABLE_ROW", "md_parent_section": "§IS.8 [Example 8]", "md_verbatim": "| 2 | RSV1230 | IS | RSV1230-011 | RESPIRATORY SYNCYTIAL VIRUS | 2 | 13668 | MBNAB | Neutralizing Microbial-induced Antibody | RESPIRATORY SYNCYTIAL VIRUS | NEUTRALIZING TITER 50% | STUDY VACCINE-RELATED IMMUNOGENICITY | HUMORAL IMMUNITY | 1:80 | | 80 | 80 | titer | SERUM | MICRONEUTRALIZATION ASSAY | 2 | VISIT 1 | 2017-07-27 |", "score": 0.4863, "match_basis": "verbatim_token+domain_route:IS"}, {"md_atom_id": "md_dmIS_ex_a117", "md_file": "knowledge_base/domains/IS/examples.md", "md_atom_type": "TABLE_ROW", "md_parent_section": "§IS.8 [Example 8]", "md_verbatim": "| 3 | RSV1230 | IS | RSV1230-011 | RESPIRATORY SYNCYTIAL VIRUS | 3 | 13668 | MBNAB | Neutralizing Microbial-induced Antibody | RESPIRATORY SYNCYTIAL VIRUS | NEUTRALIZING TITER 50% | STUDY VACCINE-RELATED IMMUNOGENICITY | HUMORAL IMMUNITY | 1:200 | | 200 | 200 | titer | SERUM | MICRONEUTRALIZATION ASSAY | 3 | VISIT 2 | 2017-09-27 |", "score": 0.4857, "match_basis": "verbatim_token+domain_route:IS"}, {"md_atom_id": "md_dmIS_ex_a115", "md_file": "knowledge_base/domains/IS/examples.md", "md_atom_type": "TABLE_ROW", "md_parent_section": "§IS.8 [Example 8]", "md_verbatim": "| 1 | RSV1230 | IS | RSV1230-011 | RESPIRATORY SYNCYTIAL VIRUS | 1 | 13668 | MBNAB | Neutralizing Microbial-induced Antibody | RESPIRATORY SYNCYTIAL VIRUS | NEUTRALIZING TITER 50% | STUDY VACCINE-RELATED IMMUNOGENICITY | HUMORAL IMMUNITY | 1:40 | | 40 | 40 | titer | SERUM | MICRONEUTRALIZATION ASSAY | 1 | BASELINE | 2017-05-27 |", "score": 0.4851, "match_basis": "verbatim_token+domain_route:IS"}, {"md_atom_id": "md_dmIS_ex_a092", "md_file": "knowledge_base/domains/IS/examples.md", "md_atom_type": "TABLE_ROW", "md_parent_section": "§IS.6 [Example 6]", "md_verbatim": "| 1 | INFLA456 | IS | INF02-01 | 1 | SAMPLBC001 | ABSCCL | Antibody-secreting Cells | IGG ANTIBODY | STUDY VACCINE-RELATED IMMUNOGENICITY | HUMORAL IMMUNITY | 2019 | SFC/10^6 PBMC | 2019 | 2019 | SFC/10^6 PBMC | PERIPHERAL BLOOD MONONUCLEAR CELL | ELISPOT | 2011-06-08 |", "score": 0.4686, "match_basis": "verbatim_token+domain_route:IS"}, {"md_atom_id": "md_dmIS_ex_a093", "md_file": "knowledge_base/domains/IS/examples.md", "md_atom_type": "TABLE_ROW", "md_parent_section": "§IS.6 [Example 6]", "md_verbatim": "| 2 | INFLA456 | IS | INF02-01 | 2 | SAMPLBC001 | ABSCCL | Antibody-secreting Cells | INFLUENZA H1-SPECIFIC IGG ANTIBODY | STUDY VACCINE-RELATED IMMUNOGENICITY | HUMORAL IMMUNITY | 626 | SFC/10^6 PBMC | 626 | 626 | SFC/10^6 PBMC | PERIPHERAL BLOOD MONONUCLEAR CELL | ELISPOT | 2011-06-08 |", "score": 0.468, "match_basis": "verbatim_token+domain_route:IS"}], "candidate_count": 5, "zero_candidate": false}
{"pdf_atom_id": "ig34_p0230_a001", "pdf_atom_type": "TABLE_HEADER", "pdf_source": "SDTMIG_v3.4", "pdf_page": 230, "pdf_parent_section": "§6.3.5.5 Immunogenicity Specimen Assessments (IS)", "pdf_verbatim": "| Variable Name | Variable Label | Type | Controlled Terms, Codelist or Format¹ | Role | CDISC Notes | Core |", "figure_ref": null, "candidates": [{"md_atom_id": "md_dmIS_ex_a167", "md_file": "knowledge_base/domains/IS/examples.md", "md_atom_type": "TABLE_HEADER", "md_parent_section": "§IS.11 [Example 11]", "md_verbatim": "| Row | STUDYID | DOMAIN | USUBJID | IDVAR | IDVARVAL | QNAM | QLABEL | QVAL | QORIG | QEVAL |\n|-----|---------|--------|---------|-------|----------|------|--------|------|-------|-------|", "score": 0.4423, "match_basis": "verbatim_token+domain_route:IS"}, {"md_atom_id": "md_dmIS_ex_a174", "md_file": "knowledge_base/domains/IS/examples.md", "md_atom_type": "TABLE_HEADER", "md_parent_section": "§IS.11 [Example 11]", "md_verbatim": "| Row | STUDYID | DOMAIN | USUBJID | IDVAR | IDVARVAL | QNAM | QLABEL | QVAL | QORIG | QEVAL |\n|-----|---------|--------|---------|-------|----------|------|--------|------|-------|-------|", "score": 0.4423, "match_basis": "verbatim_token+domain_route:IS"}, {"md_atom_id": "md_dmIS_ex_a091", "md_file": "knowledge_base/domains/IS/examples.md", "md_atom_type": "TABLE_HEADER", "md_parent_section": "§IS.6 [Example 6]", "md_verbatim": "| Row | STUDYID | DOMAIN | USUBJID | ISSEQ | ISREFID | ISTESTCD | ISTEST | ISMSCBCE | ISCAT | ISSCAT | ISORRES | ISORRESU | ISSTRESC | ISSTRESN | ISSTRESU | ISSPEC | ISMETHOD | ISDTC |\n|-----|---------|--------|---------|-------|---------|----------|--------|----------|-------|--------|---------|----------|----------|----------|----------|--------|----------|-------|", "score": 0.4178, "match_basis": "verbatim_token+domain_route:IS"}, {"md_atom_id": "md_dmIS_ex_a073", "md_file": "knowledge_base/domains/IS/examples.md", "md_atom_type": "TABLE_HEADER", "md_parent_section": "§IS.5 [Example 5]", "md_verbatim": "| Row | STUDYID | DOMAIN | USUBJID | ISSEQ | ISREFID | ISTESTCD | ISTEST | ISBDAGNT | ISTSTOPO | ISCAT | ISSCAT | ISORRES | ISORRESU | ISSTRESC | ISSTRESN | ISSTRESU | ISSPEC | ISMETHOD | VISITNUM | VISIT | ISDTC |\n|-----|---------|--------|---------|-------|---------|----------|--------|----------|----------|-------|--------|---------|----------|----------|----------|----------|--------|----------|----------|-------|-------|", "score": 0.4159, "match_basis": "verbatim_token+domain_route:IS"}, {"md_atom_id": "md_dmIS_ex_a102", "md_file": "knowledge_base/domains/IS/examples.md", "md_atom_type": "TABLE_HEADER", "md_parent_section": "§IS.7 [Example 7]", "md_verbatim": "| Row | STUDYID | DOMAIN | USUBJID | ISSEQ | ISREFID | ISTESTCD | ISTEST | ISMSCBCE | ISTCND | ISCNDAGT | ISCAT | ISSCAT | ISORRES | ISORRESU | ISSTRESC | ISSTRESN | ISSTRESU | ISSPEC | ISMETHOD | VISITNUM | VISIT | ISDTC |\n|-----|---------|--------|---------|-------|---------|----------|--------|----------|--------|----------|-------|--------|---------|----------|----------|----------|----------|--------|----------|----------|-------|-------|", "score": 0.4159, "match_basis": "verbatim_token+domain_route:IS"}], "candidate_count": 5, "zero_candidate": false}
{"pdf_atom_id": "ig34_p0230_a002", "pdf_atom_type": "TABLE_ROW", "pdf_source": "SDTMIG_v3.4", "pdf_page": 230, "pdf_parent_section": "§6.3.5.5 Immunogenicity Specimen Assessments (IS)", "pdf_verbatim": "| ISORRES | Results or Findings in Original Units | Char | | Result Qualifier | Result of the measurement or finding as originally received or collected. | Exp |", "figure_ref": null, "candidates": [{"md_atom_id": "md_dmIS_ex_a043", "md_file": "knowledge_base/domains/IS/examples.md", "md_atom_type": "TABLE_ROW", "md_parent_section": "§IS.3 [Example 3]", "md_verbatim": "| 4 | ABC | IS | ABC-004 | 4 | J123 | 2 | ADA_BAB | Binding Antidrug Antibody | PRODRUG A ACTIVE METABOLITE | QUANTIFY | ANTIDRUG ANTIBODIES | HUMORAL IMMUNITY | 60 | titer | 60 | 60 | titer | SERUM | ELECTROCHEMILUMINESCENCE IMMUNOASSAY | 1 | VISIT 1 | 2017-07-27 |", "score": 0.4426, "match_basis": "verbatim_token+domain_route:IS"}, {"md_atom_id": "md_dmIS_ex_a013", "md_file": "knowledge_base/domains/IS/examples.md", "md_atom_type": "TABLE_ROW", "md_parent_section": "§IS.1 [Example 1]", "md_verbatim": "| 3 | ABC | IS | ABC-002 | 3 | V555 | 1 | ADA_BAB | Binding Antidrug Antibody | DRUG AZ-007 | QUANTIFY | ANTIDRUG ANTIBODIES | HUMORAL IMMUNITY | 50 | titer | 50 | 50 | titer | SERUM | ELECTROCHEMILUMINESCENCE IMMUNOASSAY | 1 | VISIT 1 | 2017-07-27 |", "score": 0.4419, "match_basis": "verbatim_token+domain_route:IS"}, {"md_atom_id": "md_dmIS_ex_a011", "md_file": "knowledge_base/domains/IS/examples.md", "md_atom_type": "TABLE_ROW", "md_parent_section": "§IS.1 [Example 1]", "md_verbatim": "| 1 | ABC | IS | ABC-002 | 1 | V555 | 1 | ADA_BAB | Binding Antidrug Antibody | DRUG AZ-007 | SCREEN | ANTIDRUG ANTIBODIES | HUMORAL IMMUNITY | POSITIVE | | POSITIVE | | | SERUM | ELECTROCHEMILUMINESCENCE IMMUNOASSAY | 1 | VISIT 1 | 2017-07-27 |", "score": 0.4412, "match_basis": "verbatim_token+domain_route:IS"}, {"md_atom_id": "md_dmIS_ex_a041", "md_file": "knowledge_base/domains/IS/examples.md", "md_atom_type": "TABLE_ROW", "md_parent_section": "§IS.3 [Example 3]", "md_verbatim": "| 2 | ABC | IS | ABC-004 | 2 | J123 | 1 | ADA_BAB | Binding Antidrug Antibody | PRODRUG A | QUANTIFY | ANTIDRUG ANTIBODIES | HUMORAL IMMUNITY | 30 | titer | 30 | 30 | titer | SERUM | ELECTROCHEMILUMINESCENCE IMMUNOASSAY | 1 | VISIT 1 | 2017-07-27 |", "score": 0.4412, "match_basis": "verbatim_token+domain_route:IS"}, {"md_atom_id": "md_dmIS_ex_a012", "md_file": "knowledge_base/domains/IS/examples.md", "md_atom_type": "TABLE_ROW", "md_parent_section": "§IS.1 [Example 1]", "md_verbatim": "| 2 | ABC | IS | ABC-002 | 2 | V555 | 1 | ADA_BAB | Binding Antidrug Antibody | DRUG AZ-007 | CONFIRM | ANTIDRUG ANTIBODIES | HUMORAL IMMUNITY | POSITIVE | | POSITIVE | | | SERUM | ELECTROCHEMILUMINESCENCE IMMUNOASSAY | 1 | VISIT 1 | 2017-07-27 |", "score": 0.4409, "match_basis": "verbatim_token+domain_route:IS"}], "candidate_count": 5, "zero_candidate": false}
{"pdf_atom_id": "ig34_p0230_a003", "pdf_atom_type": "TABLE_ROW", "pdf_source": "SDTMIG_v3.4", "pdf_page": 230, "pdf_parent_section": "§6.3.5.5 Immunogenicity Specimen Assessments (IS)", "pdf_verbatim": "| ISORRESU | Original Units | Char | (UNIT) | Variable Qualifier | Original units in which the data were collected. The unit for ISORRES. Examples: \"Index Value\", \"gpELISA\", \"unit/mL\". | Exp |", "figure_ref": null, "candidates": [{"md_atom_id": "md_dmIS_ex_a063", "md_file": "knowledge_base/domains/IS/examples.md", "md_atom_type": "TABLE_ROW", "md_parent_section": "§IS.4 [Example 4]", "md_verbatim": "| 9 | ABC | IS | ABC-008 | 9 | V4 | | ADA_BAB | Binding Antidrug Antibody | PEG EPITOPE OF PEGINTERFERON BETA1A | QUANTIFY | ANTIDRUG ANTIBODIES | HUMORAL IMMUNITY | 40 | titer | 40 | 40 | titer | SERUM | ELISA | 1 | VISIT 1 | 2017-08-27 |", "score": 0.4381, "match_basis": "verbatim_token+domain_route:IS"}, {"md_atom_id": "md_dmIS_ex_a157", "md_file": "knowledge_base/domains/IS/examples.md", "md_atom_type": "TABLE_ROW", "md_parent_section": "§IS.11 [Example 11]", "md_verbatim": "| 2 | XYZ | IS | XYZ1234 | 2 | 12456666 | ARIGEAB | Allergen-induced IgE Antibody | DOG DANDER ANTIGEN | | 0.12 | U/mL | 0.12 | 0.12 | U/mL | SERUM | RIA | 1 | SCREENING | 2018-06-20 |", "score": 0.433, "match_basis": "verbatim_token+domain_route:IS"}, {"md_atom_id": "md_dmIS_ex_a159", "md_file": "knowledge_base/domains/IS/examples.md", "md_atom_type": "TABLE_ROW", "md_parent_section": "§IS.11 [Example 11]", "md_verbatim": "| 4 | XYZ | IS | XYZ1234 | 4 | 12456666 | ARIGEAB | Allergen-induced IgE Antibody | CAT DANDER ANTIGEN | | 0.19 | U/mL | 0.19 | 0.19 | U/mL | SERUM | RIA | 1 | SCREENING | 2018-06-20 |", "score": 0.433, "match_basis": "verbatim_token+domain_route:IS"}, {"md_atom_id": "md_dmIS_ex_a093", "md_file": "knowledge_base/domains/IS/examples.md", "md_atom_type": "TABLE_ROW", "md_parent_section": "§IS.6 [Example 6]", "md_verbatim": "| 2 | INFLA456 | IS | INF02-01 | 2 | SAMPLBC001 | ABSCCL | Antibody-secreting Cells | INFLUENZA H1-SPECIFIC IGG ANTIBODY | STUDY VACCINE-RELATED IMMUNOGENICITY | HUMORAL IMMUNITY | 626 | SFC/10^6 PBMC | 626 | 626 | SFC/10^6 PBMC | PERIPHERAL BLOOD MONONUCLEAR CELL | ELISPOT | 2011-06-08 |", "score": 0.4327, "match_basis": "verbatim_token+domain_route:IS"}, {"md_atom_id": "md_dmIS_ex_a094", "md_file": "knowledge_base/domains/IS/examples.md", "md_atom_type": "TABLE_ROW", "md_parent_section": "§IS.6 [Example 6]", "md_verbatim": "| 3 | INFLA456 | IS | INF02-01 | 3 | SAMPLBC001 | ABSCCL | Antibody-secreting Cells | INFLUENZA H3-SPECIFIC IGG ANTIBODY | STUDY VACCINE-RELATED IMMUNOGENICITY | HUMORAL IMMUNITY | 592 | SFC/10^6 PBMC | 592 | 592 | SFC/10^6 PBMC | PERIPHERAL BLOOD MONONUCLEAR CELL | ELISPOT | 2011-06-08 |", "score": 0.4327, "match_basis": "verbatim_token+domain_route:IS"}], "candidate_count": 5, "zero_candidate": false}
{"pdf_atom_id": "ig34_p0230_a004", "pdf_atom_type": "TABLE_ROW", "pdf_source": "SDTMIG_v3.4", "pdf_page": 230, "pdf_parent_section": "§6.3.5.5 Immunogenicity Specimen Assessments (IS)", "pdf_verbatim": "| ISORNRLO | Reference Range Lower Limit in Orig Unit | Char | | Variable Qualifier | Lower end of reference range for continuous measurement in original units. Should be populated only for continuous results. | Exp |", "figure_ref": null, "candidates": [{"md_atom_id": "md_dmIS_ex_a032", "md_file": "knowledge_base/domains/IS/examples.md", "md_atom_type": "TABLE_ROW", "md_parent_section": "§IS.2 [Example 2]", "md_verbatim": "| 8 | ABC | IS | ABC-001 | 8 | A42839 | 4 | ADA_NX | Neutralize Cross-React Bind Antidrug Ab | ENDOGENOUS COAGULATION FACTOR VIII | QUANTIFY | ANTIDRUG ANTIBODIES | HUMORAL IMMUNITY | 150 | titer | 150 | 150 | titer | SERUM | HEMAGGLUTINATION INHIBITION ASSAY | 1 | VISIT 1 | 2017-07-27 |", "score": 0.4375, "match_basis": "verbatim_token+domain_route:IS"}, {"md_atom_id": "md_dmIS_ex_a031", "md_file": "knowledge_base/domains/IS/examples.md", "md_atom_type": "TABLE_ROW", "md_parent_section": "§IS.2 [Example 2]", "md_verbatim": "| 7 | ABC | IS | ABC-001 | 7 | A42839 | 3 | ADA_NX | Neutralize Cross-React Bind Antidrug Ab | ENDOGENOUS COAGULATION FACTOR VIII | CONFIRM | ANTIDRUG ANTIBODIES | HUMORAL IMMUNITY | POSITIVE | | POSITIVE | | | SERUM | HEMAGGLUTINATION INHIBITION ASSAY | 1 | VISIT 1 | 2017-07-27 |", "score": 0.4373, "match_basis": "verbatim_token+domain_route:IS"}, {"md_atom_id": "md_dmIS_ex_a028", "md_file": "knowledge_base/domains/IS/examples.md", "md_atom_type": "TABLE_ROW", "md_parent_section": "§IS.2 [Example 2]", "md_verbatim": "| 4 | ABC | IS | ABC-001 | 4 | A42839 | 2 | ADA_NAB | Neutralizing Binding Antidrug Antibody | COAGULATION FACTOR VIII ANALOGUE DRUG | QUANTIFY | ANTIDRUG ANTIBODIES | HUMORAL IMMUNITY | 60 | titer | 60 | 60 | titer | SERUM | HEMAGGLUTINATION INHIBITION ASSAY | 1 | VISIT 1 | 2017-07-27 |", "score": 0.4343, "match_basis": "verbatim_token+domain_route:IS"}, {"md_atom_id": "md_dmIS_ex_a027", "md_file": "knowledge_base/domains/IS/examples.md", "md_atom_type": "TABLE_ROW", "md_parent_section": "§IS.2 [Example 2]", "md_verbatim": "| 3 | ABC | IS | ABC-001 | 3 | A42839 | 2 | ADA_NAB | Neutralizing Binding Antidrug Antibody | COAGULATION FACTOR VIII ANALOGUE DRUG | CONFIRM | ANTIDRUG ANTIBODIES | HUMORAL IMMUNITY | POSITIVE | | POSITIVE | | | SERUM | HEMAGGLUTINATION INHIBITION ASSAY | 1 | VISIT 1 | 2017-07-27 |", "score": 0.4339, "match_basis": "verbatim_token+domain_route:IS"}, {"md_atom_id": "md_dmIS_ex_a030", "md_file": "knowledge_base/domains/IS/examples.md", "md_atom_type": "TABLE_ROW", "md_parent_section": "§IS.2 [Example 2]", "md_verbatim": "| 6 | ABC | IS | ABC-001 | 6 | A42839 | 3 | ADA_X | Cross-Reactive Binding Antidrug Antibody | ENDOGENOUS COAGULATION FACTOR VIII | QUANTIFY | ANTIDRUG ANTIBODIES | HUMORAL IMMUNITY | 90 | titer | 90 | 90 | titer | SERUM | ELECTROCHEMILUMINESCENCE IMMUNOASSAY | 1 | VISIT 1 | 2017-07-27 |", "score": 0.4326, "match_basis": "verbatim_token+domain_route:IS"}], "candidate_count": 5, "zero_candidate": false}
{"pdf_atom_id": "ig34_p0230_a005", "pdf_atom_type": "TABLE_ROW", "pdf_source": "SDTMIG_v3.4", "pdf_page": 230, "pdf_parent_section": "§6.3.5.5 Immunogenicity Specimen Assessments (IS)", "pdf_verbatim": "| ISORNRHI | Reference Range Upper Limit in Orig Unit | Char | | Variable Qualifier | Upper end of reference range for continuous measurement in original units. Should be populated only for continuous results. | Exp |", "figure_ref": null, "candidates": [{"md_atom_id": "md_dmIS_ex_a032", "md_file": "knowledge_base/domains/IS/examples.md", "md_atom_type": "TABLE_ROW", "md_parent_section": "§IS.2 [Example 2]", "md_verbatim": "| 8 | ABC | IS | ABC-001 | 8 | A42839 | 4 | ADA_NX | Neutralize Cross-React Bind Antidrug Ab | ENDOGENOUS COAGULATION FACTOR VIII | QUANTIFY | ANTIDRUG ANTIBODIES | HUMORAL IMMUNITY | 150 | titer | 150 | 150 | titer | SERUM | HEMAGGLUTINATION INHIBITION ASSAY | 1 | VISIT 1 | 2017-07-27 |", "score": 0.4375, "match_basis": "verbatim_token+domain_route:IS"}, {"md_atom_id": "md_dmIS_ex_a031", "md_file": "knowledge_base/domains/IS/examples.md", "md_atom_type": "TABLE_ROW", "md_parent_section": "§IS.2 [Example 2]", "md_verbatim": "| 7 | ABC | IS | ABC-001 | 7 | A42839 | 3 | ADA_NX | Neutralize Cross-React Bind Antidrug Ab | ENDOGENOUS COAGULATION FACTOR VIII | CONFIRM | ANTIDRUG ANTIBODIES | HUMORAL IMMUNITY | POSITIVE | | POSITIVE | | | SERUM | HEMAGGLUTINATION INHIBITION ASSAY | 1 | VISIT 1 | 2017-07-27 |", "score": 0.4373, "match_basis": "verbatim_token+domain_route:IS"}, {"md_atom_id": "md_dmIS_ex_a105", "md_file": "knowledge_base/domains/IS/examples.md", "md_atom_type": "TABLE_ROW", "md_parent_section": "§IS.7 [Example 7]", "md_verbatim": "| 3 | RSV1230 | IS | RSV1230-011 | 3 | 13668 | CYKSCCL | Cytokine-secreting Cells | INTERFERON GAMMA | WITHOUT STIMULATING AGENT | | STUDY VACCINE-RELATED IMMUNOGENICITY | CELLULAR IMMUNITY | 60.8 | SFC/10^6 PBMC | 60.8 | 60.8 | SFC/10^6 PBMC | PERIPHERAL BLOOD MONONUCLEAR CELL | ELISPOT | 2 | VISIT 1 | 2017-06-27 |", "score": 0.4349, "match_basis": "verbatim_token+domain_route:IS"}, {"md_atom_id": "md_dmIS_ex_a103", "md_file": "knowledge_base/domains/IS/examples.md", "md_atom_type": "TABLE_ROW", "md_parent_section": "§IS.7 [Example 7]", "md_verbatim": "| 1 | RSV1230 | IS | RSV1230-011 | 1 | 13668 | CYKSCCL | Cytokine-secreting Cells | INTERFERON GAMMA | WITHOUT STIMULATING AGENT | | STUDY VACCINE-RELATED IMMUNOGENICITY | CELLULAR IMMUNITY | 5.1 | SFC/10^6 PBMC | 5.1 | 5.1 | SFC/10^6 PBMC | PERIPHERAL BLOOD MONONUCLEAR CELL | ELISPOT | 1 | BASELINE | 2017-05-27 |", "score": 0.4347, "match_basis": "verbatim_token+domain_route:IS"}, {"md_atom_id": "md_dmIS_ex_a028", "md_file": "knowledge_base/domains/IS/examples.md", "md_atom_type": "TABLE_ROW", "md_parent_section": "§IS.2 [Example 2]", "md_verbatim": "| 4 | ABC | IS | ABC-001 | 4 | A42839 | 2 | ADA_NAB | Neutralizing Binding Antidrug Antibody | COAGULATION FACTOR VIII ANALOGUE DRUG | QUANTIFY | ANTIDRUG ANTIBODIES | HUMORAL IMMUNITY | 60 | titer | 60 | 60 | titer | SERUM | HEMAGGLUTINATION INHIBITION ASSAY | 1 | VISIT 1 | 2017-07-27 |", "score": 0.4343, "match_basis": "verbatim_token+domain_route:IS"}], "candidate_count": 5, "zero_candidate": false}
{"pdf_atom_id": "ig34_p0230_a006", "pdf_atom_type": "TABLE_ROW", "pdf_source": "SDTMIG_v3.4", "pdf_page": 230, "pdf_parent_section": "§6.3.5.5 Immunogenicity Specimen Assessments (IS)", "pdf_verbatim": "| ISSTRESC | Character Result/Finding in Std Format | Char | | Result Qualifier | Contains the result value for all findings copied or derived from ISORRES, in a standard format or in standard units. ISSTRESC should store all results or findings in character format; if results are numeric, they should also be stored in numeric format in ISSTRESN. | Exp |", "figure_ref": null, "candidates": [{"md_atom_id": "md_dmIS_ex_a043", "md_file": "knowledge_base/domains/IS/examples.md", "md_atom_type": "TABLE_ROW", "md_parent_section": "§IS.3 [Example 3]", "md_verbatim": "| 4 | ABC | IS | ABC-004 | 4 | J123 | 2 | ADA_BAB | Binding Antidrug Antibody | PRODRUG A ACTIVE METABOLITE | QUANTIFY | ANTIDRUG ANTIBODIES | HUMORAL IMMUNITY | 60 | titer | 60 | 60 | titer | SERUM | ELECTROCHEMILUMINESCENCE IMMUNOASSAY | 1 | VISIT 1 | 2017-07-27 |", "score": 0.4391, "match_basis": "verbatim_token+domain_route:IS"}, {"md_atom_id": "md_dmIS_ex_a030", "md_file": "knowledge_base/domains/IS/examples.md", "md_atom_type": "TABLE_ROW", "md_parent_section": "§IS.2 [Example 2]", "md_verbatim": "| 6 | ABC | IS | ABC-001 | 6 | A42839 | 3 | ADA_X | Cross-Reactive Binding Antidrug Antibody | ENDOGENOUS COAGULATION FACTOR VIII | QUANTIFY | ANTIDRUG ANTIBODIES | HUMORAL IMMUNITY | 90 | titer | 90 | 90 | titer | SERUM | ELECTROCHEMILUMINESCENCE IMMUNOASSAY | 1 | VISIT 1 | 2017-07-27 |", "score": 0.4387, "match_basis": "verbatim_token+domain_route:IS"}, {"md_atom_id": "md_dmIS_ex_a026", "md_file": "knowledge_base/domains/IS/examples.md", "md_atom_type": "TABLE_ROW", "md_parent_section": "§IS.2 [Example 2]", "md_verbatim": "| 2 | ABC | IS | ABC-001 | 2 | A42839 | 1 | ADA_BAB | Binding Antidrug Antibody | COAGULATION FACTOR VIII ANALOGUE DRUG | QUANTIFY | ANTIDRUG ANTIBODIES | HUMORAL IMMUNITY | 30 | titer | 30 | 30 | titer | SERUM | ELECTROCHEMILUMINESCENCE IMMUNOASSAY | 1 | VISIT 1 | 2017-07-27 |", "score": 0.4371, "match_basis": "verbatim_token+domain_route:IS"}, {"md_atom_id": "md_dmIS_ex_a028", "md_file": "knowledge_base/domains/IS/examples.md", "md_atom_type": "TABLE_ROW", "md_parent_section": "§IS.2 [Example 2]", "md_verbatim": "| 4 | ABC | IS | ABC-001 | 4 | A42839 | 2 | ADA_NAB | Neutralizing Binding Antidrug Antibody | COAGULATION FACTOR VIII ANALOGUE DRUG | QUANTIFY | ANTIDRUG ANTIBODIES | HUMORAL IMMUNITY | 60 | titer | 60 | 60 | titer | SERUM | HEMAGGLUTINATION INHIBITION ASSAY | 1 | VISIT 1 | 2017-07-27 |", "score": 0.4371, "match_basis": "verbatim_token+domain_route:IS"}, {"md_atom_id": "md_dmIS_ex_a055", "md_file": "knowledge_base/domains/IS/examples.md", "md_atom_type": "TABLE_ROW", "md_parent_section": "§IS.4 [Example 4]", "md_verbatim": "| 1 | ABC | IS | ABC-007 | 1 | A1 | | ADA_BAB | Binding Antidrug Antibody | ACTIVE INTERFERON BETA 1A | SCREEN | ANTIDRUG ANTIBODIES | HUMORAL IMMUNITY | POSITIVE | | POSITIVE | | | SERUM | IMMUNOASSAY | 1 | VISIT 1 | 2017-07-27 |", "score": 0.4367, "match_basis": "verbatim_token+domain_route:IS"}], "candidate_count": 5, "zero_candidate": false}
{"pdf_atom_id": "ig34_p0230_a007", "pdf_atom_type": "TABLE_ROW", "pdf_source": "SDTMIG_v3.4", "pdf_page": 230, "pdf_parent_section": "§6.3.5.5 Immunogenicity Specimen Assessments (IS)", "pdf_verbatim": "| ISSTRESN | Numeric Results/Findings in Std. Units | Num | | Result Qualifier | Used for continuous or numeric results or findings in standard format; copied in numeric format from ISSTRESC. ISSTRESN should store all numeric test results or findings. | Exp |", "figure_ref": null, "candidates": [{"md_atom_id": "md_dmIS_ex_a028", "md_file": "knowledge_base/domains/IS/examples.md", "md_atom_type": "TABLE_ROW", "md_parent_section": "§IS.2 [Example 2]", "md_verbatim": "| 4 | ABC | IS | ABC-001 | 4 | A42839 | 2 | ADA_NAB | Neutralizing Binding Antidrug Antibody | COAGULATION FACTOR VIII ANALOGUE DRUG | QUANTIFY | ANTIDRUG ANTIBODIES | HUMORAL IMMUNITY | 60 | titer | 60 | 60 | titer | SERUM | HEMAGGLUTINATION INHIBITION ASSAY | 1 | VISIT 1 | 2017-07-27 |", "score": 0.4413, "match_basis": "verbatim_token+domain_route:IS"}, {"md_atom_id": "md_dmIS_ex_a027", "md_file": "knowledge_base/domains/IS/examples.md", "md_atom_type": "TABLE_ROW", "md_parent_section": "§IS.2 [Example 2]", "md_verbatim": "| 3 | ABC | IS | ABC-001 | 3 | A42839 | 2 | ADA_NAB | Neutralizing Binding Antidrug Antibody | COAGULATION FACTOR VIII ANALOGUE DRUG | CONFIRM | ANTIDRUG ANTIBODIES | HUMORAL IMMUNITY | POSITIVE | | POSITIVE | | | SERUM | HEMAGGLUTINATION INHIBITION ASSAY | 1 | VISIT 1 | 2017-07-27 |", "score": 0.4407, "match_basis": "verbatim_token+domain_route:IS"}, {"md_atom_id": "md_dmIS_ex_a030", "md_file": "knowledge_base/domains/IS/examples.md", "md_atom_type": "TABLE_ROW", "md_parent_section": "§IS.2 [Example 2]", "md_verbatim": "| 6 | ABC | IS | ABC-001 | 6 | A42839 | 3 | ADA_X | Cross-Reactive Binding Antidrug Antibody | ENDOGENOUS COAGULATION FACTOR VIII | QUANTIFY | ANTIDRUG ANTIBODIES | HUMORAL IMMUNITY | 90 | titer | 90 | 90 | titer | SERUM | ELECTROCHEMILUMINESCENCE IMMUNOASSAY | 1 | VISIT 1 | 2017-07-27 |", "score": 0.4391, "match_basis": "verbatim_token+domain_route:IS"}, {"md_atom_id": "md_dmIS_ex_a029", "md_file": "knowledge_base/domains/IS/examples.md", "md_atom_type": "TABLE_ROW", "md_parent_section": "§IS.2 [Example 2]", "md_verbatim": "| 5 | ABC | IS | ABC-001 | 5 | A42839 | 3 | ADA_X | Cross-Reactive Binding Antidrug Antibody | ENDOGENOUS COAGULATION FACTOR VIII | CONFIRM | ANTIDRUG ANTIBODIES | HUMORAL IMMUNITY | POSITIVE | | POSITIVE | | | SERUM | ELECTROCHEMILUMINESCENCE IMMUNOASSAY | 1 | VISIT 1 | 2017-07-27 |", "score": 0.4388, "match_basis": "verbatim_token+domain_route:IS"}, {"md_atom_id": "md_dmIS_ex_a013", "md_file": "knowledge_base/domains/IS/examples.md", "md_atom_type": "TABLE_ROW", "md_parent_section": "§IS.1 [Example 1]", "md_verbatim": "| 3 | ABC | IS | ABC-002 | 3 | V555 | 1 | ADA_BAB | Binding Antidrug Antibody | DRUG AZ-007 | QUANTIFY | ANTIDRUG ANTIBODIES | HUMORAL IMMUNITY | 50 | titer | 50 | 50 | titer | SERUM | ELECTROCHEMILUMINESCENCE IMMUNOASSAY | 1 | VISIT 1 | 2017-07-27 |", "score": 0.4386, "match_basis": "verbatim_token+domain_route:IS"}], "candidate_count": 5, "zero_candidate": false}
{"pdf_atom_id": "ig34_p0230_a008", "pdf_atom_type": "TABLE_ROW", "pdf_source": "SDTMIG_v3.4", "pdf_page": 230, "pdf_parent_section": "§6.3.5.5 Immunogenicity Specimen Assessments (IS)", "pdf_verbatim": "| ISSTRESU | Standard Units | Char | (UNIT) | Variable Qualifier | Standardized units used for ISSTRESC and ISSTRESN. Examples: \"Index Value\", \"gpELISA\", \"unit/mL\". | Exp |", "figure_ref": null, "candidates": [{"md_atom_id": "md_dmIS_ex_a063", "md_file": "knowledge_base/domains/IS/examples.md", "md_atom_type": "TABLE_ROW", "md_parent_section": "§IS.4 [Example 4]", "md_verbatim": "| 9 | ABC | IS | ABC-008 | 9 | V4 | | ADA_BAB | Binding Antidrug Antibody | PEG EPITOPE OF PEGINTERFERON BETA1A | QUANTIFY | ANTIDRUG ANTIBODIES | HUMORAL IMMUNITY | 40 | titer | 40 | 40 | titer | SERUM | ELISA | 1 | VISIT 1 | 2017-08-27 |", "score": 0.435, "match_basis": "verbatim_token+domain_route:IS"}, {"md_atom_id": "md_dmIS_ex_a093", "md_file": "knowledge_base/domains/IS/examples.md", "md_atom_type": "TABLE_ROW", "md_parent_section": "§IS.6 [Example 6]", "md_verbatim": "| 2 | INFLA456 | IS | INF02-01 | 2 | SAMPLBC001 | ABSCCL | Antibody-secreting Cells | INFLUENZA H1-SPECIFIC IGG ANTIBODY | STUDY VACCINE-RELATED IMMUNOGENICITY | HUMORAL IMMUNITY | 626 | SFC/10^6 PBMC | 626 | 626 | SFC/10^6 PBMC | PERIPHERAL BLOOD MONONUCLEAR CELL | ELISPOT | 2011-06-08 |", "score": 0.4302, "match_basis": "verbatim_token+domain_route:IS"}, {"md_atom_id": "md_dmIS_ex_a094", "md_file": "knowledge_base/domains/IS/examples.md", "md_atom_type": "TABLE_ROW", "md_parent_section": "§IS.6 [Example 6]", "md_verbatim": "| 3 | INFLA456 | IS | INF02-01 | 3 | SAMPLBC001 | ABSCCL | Antibody-secreting Cells | INFLUENZA H3-SPECIFIC IGG ANTIBODY | STUDY VACCINE-RELATED IMMUNOGENICITY | HUMORAL IMMUNITY | 592 | SFC/10^6 PBMC | 592 | 592 | SFC/10^6 PBMC | PERIPHERAL BLOOD MONONUCLEAR CELL | ELISPOT | 2011-06-08 |", "score": 0.4302, "match_basis": "verbatim_token+domain_route:IS"}, {"md_atom_id": "md_dmIS_ex_a157", "md_file": "knowledge_base/domains/IS/examples.md", "md_atom_type": "TABLE_ROW", "md_parent_section": "§IS.11 [Example 11]", "md_verbatim": "| 2 | XYZ | IS | XYZ1234 | 2 | 12456666 | ARIGEAB | Allergen-induced IgE Antibody | DOG DANDER ANTIGEN | | 0.12 | U/mL | 0.12 | 0.12 | U/mL | SERUM | RIA | 1 | SCREENING | 2018-06-20 |", "score": 0.4291, "match_basis": "verbatim_token+domain_route:IS"}, {"md_atom_id": "md_dmIS_ex_a159", "md_file": "knowledge_base/domains/IS/examples.md", "md_atom_type": "TABLE_ROW", "md_parent_section": "§IS.11 [Example 11]", "md_verbatim": "| 4 | XYZ | IS | XYZ1234 | 4 | 12456666 | ARIGEAB | Allergen-induced IgE Antibody | CAT DANDER ANTIGEN | | 0.19 | U/mL | 0.19 | 0.19 | U/mL | SERUM | RIA | 1 | SCREENING | 2018-06-20 |", "score": 0.4291, "match_basis": "verbatim_token+domain_route:IS"}], "candidate_count": 5, "zero_candidate": false}
{"pdf_atom_id": "ig34_p0230_a009", "pdf_atom_type": "TABLE_ROW", "pdf_source": "SDTMIG_v3.4", "pdf_page": 230, "pdf_parent_section": "§6.3.5.5 Immunogenicity Specimen Assessments (IS)", "pdf_verbatim": "| ISSTNRLO | Reference Range Lower Limit-Std Units | Num | | Variable Qualifier | Lower end of reference range for continuous measurements for ISSTRESC/ISSTRESN in standardized units. Should be populated only for continuous measurements. | Exp |", "figure_ref": null, "candidates": [{"md_atom_id": "md_dmIS_ex_a032", "md_file": "knowledge_base/domains/IS/examples.md", "md_atom_type": "TABLE_ROW", "md_parent_section": "§IS.2 [Example 2]", "md_verbatim": "| 8 | ABC | IS | ABC-001 | 8 | A42839 | 4 | ADA_NX | Neutralize Cross-React Bind Antidrug Ab | ENDOGENOUS COAGULATION FACTOR VIII | QUANTIFY | ANTIDRUG ANTIBODIES | HUMORAL IMMUNITY | 150 | titer | 150 | 150 | titer | SERUM | HEMAGGLUTINATION INHIBITION ASSAY | 1 | VISIT 1 | 2017-07-27 |", "score": 0.4365, "match_basis": "verbatim_token+domain_route:IS"}, {"md_atom_id": "md_dmIS_ex_a031", "md_file": "knowledge_base/domains/IS/examples.md", "md_atom_type": "TABLE_ROW", "md_parent_section": "§IS.2 [Example 2]", "md_verbatim": "| 7 | ABC | IS | ABC-001 | 7 | A42839 | 3 | ADA_NX | Neutralize Cross-React Bind Antidrug Ab | ENDOGENOUS COAGULATION FACTOR VIII | CONFIRM | ANTIDRUG ANTIBODIES | HUMORAL IMMUNITY | POSITIVE | | POSITIVE | | | SERUM | HEMAGGLUTINATION INHIBITION ASSAY | 1 | VISIT 1 | 2017-07-27 |", "score": 0.4363, "match_basis": "verbatim_token+domain_route:IS"}, {"md_atom_id": "md_dmIS_ex_a030", "md_file": "knowledge_base/domains/IS/examples.md", "md_atom_type": "TABLE_ROW", "md_parent_section": "§IS.2 [Example 2]", "md_verbatim": "| 6 | ABC | IS | ABC-001 | 6 | A42839 | 3 | ADA_X | Cross-Reactive Binding Antidrug Antibody | ENDOGENOUS COAGULATION FACTOR VIII | QUANTIFY | ANTIDRUG ANTIBODIES | HUMORAL IMMUNITY | 90 | titer | 90 | 90 | titer | SERUM | ELECTROCHEMILUMINESCENCE IMMUNOASSAY | 1 | VISIT 1 | 2017-07-27 |", "score": 0.4351, "match_basis": "verbatim_token+domain_route:IS"}, {"md_atom_id": "md_dmIS_ex_a029", "md_file": "knowledge_base/domains/IS/examples.md", "md_atom_type": "TABLE_ROW", "md_parent_section": "§IS.2 [Example 2]", "md_verbatim": "| 5 | ABC | IS | ABC-001 | 5 | A42839 | 3 | ADA_X | Cross-Reactive Binding Antidrug Antibody | ENDOGENOUS COAGULATION FACTOR VIII | CONFIRM | ANTIDRUG ANTIBODIES | HUMORAL IMMUNITY | POSITIVE | | POSITIVE | | | SERUM | ELECTROCHEMILUMINESCENCE IMMUNOASSAY | 1 | VISIT 1 | 2017-07-27 |", "score": 0.4349, "match_basis": "verbatim_token+domain_route:IS"}, {"md_atom_id": "md_dmIS_ex_a105", "md_file": "knowledge_base/domains/IS/examples.md", "md_atom_type": "TABLE_ROW", "md_parent_section": "§IS.7 [Example 7]", "md_verbatim": "| 3 | RSV1230 | IS | RSV1230-011 | 3 | 13668 | CYKSCCL | Cytokine-secreting Cells | INTERFERON GAMMA | WITHOUT STIMULATING AGENT | | STUDY VACCINE-RELATED IMMUNOGENICITY | CELLULAR IMMUNITY | 60.8 | SFC/10^6 PBMC | 60.8 | 60.8 | SFC/10^6 PBMC | PERIPHERAL BLOOD MONONUCLEAR CELL | ELISPOT | 2 | VISIT 1 | 2017-06-27 |", "score": 0.4308, "match_basis": "verbatim_token+domain_route:IS"}], "candidate_count": 5, "zero_candidate": false}
{"pdf_atom_id": "ig34_p0230_a010", "pdf_atom_type": "TABLE_ROW", "pdf_source": "SDTMIG_v3.4", "pdf_page": 230, "pdf_parent_section": "§6.3.5.5 Immunogenicity Specimen Assessments (IS)", "pdf_verbatim": "| ISSTNRHI | Reference Range Upper Limit-Std Units | Num | | Variable Qualifier | Upper end of reference range for continuous measurements in standardized units. Should be populated only for continuous results. | Exp |", "figure_ref": null, "candidates": [{"md_atom_id": "md_dmIS_ex_a032", "md_file": "knowledge_base/domains/IS/examples.md", "md_atom_type": "TABLE_ROW", "md_parent_section": "§IS.2 [Example 2]", "md_verbatim": "| 8 | ABC | IS | ABC-001 | 8 | A42839 | 4 | ADA_NX | Neutralize Cross-React Bind Antidrug Ab | ENDOGENOUS COAGULATION FACTOR VIII | QUANTIFY | ANTIDRUG ANTIBODIES | HUMORAL IMMUNITY | 150 | titer | 150 | 150 | titer | SERUM | HEMAGGLUTINATION INHIBITION ASSAY | 1 | VISIT 1 | 2017-07-27 |", "score": 0.4365, "match_basis": "verbatim_token+domain_route:IS"}, {"md_atom_id": "md_dmIS_ex_a031", "md_file": "knowledge_base/domains/IS/examples.md", "md_atom_type": "TABLE_ROW", "md_parent_section": "§IS.2 [Example 2]", "md_verbatim": "| 7 | ABC | IS | ABC-001 | 7 | A42839 | 3 | ADA_NX | Neutralize Cross-React Bind Antidrug Ab | ENDOGENOUS COAGULATION FACTOR VIII | CONFIRM | ANTIDRUG ANTIBODIES | HUMORAL IMMUNITY | POSITIVE | | POSITIVE | | | SERUM | HEMAGGLUTINATION INHIBITION ASSAY | 1 | VISIT 1 | 2017-07-27 |", "score": 0.4363, "match_basis": "verbatim_token+domain_route:IS"}, {"md_atom_id": "md_dmIS_ex_a105", "md_file": "knowledge_base/domains/IS/examples.md", "md_atom_type": "TABLE_ROW", "md_parent_section": "§IS.7 [Example 7]", "md_verbatim": "| 3 | RSV1230 | IS | RSV1230-011 | 3 | 13668 | CYKSCCL | Cytokine-secreting Cells | INTERFERON GAMMA | WITHOUT STIMULATING AGENT | | STUDY VACCINE-RELATED IMMUNOGENICITY | CELLULAR IMMUNITY | 60.8 | SFC/10^6 PBMC | 60.8 | 60.8 | SFC/10^6 PBMC | PERIPHERAL BLOOD MONONUCLEAR CELL | ELISPOT | 2 | VISIT 1 | 2017-06-27 |", "score": 0.434, "match_basis": "verbatim_token+domain_route:IS"}, {"md_atom_id": "md_dmIS_ex_a103", "md_file": "knowledge_base/domains/IS/examples.md", "md_atom_type": "TABLE_ROW", "md_parent_section": "§IS.7 [Example 7]", "md_verbatim": "| 1 | RSV1230 | IS | RSV1230-011 | 1 | 13668 | CYKSCCL | Cytokine-secreting Cells | INTERFERON GAMMA | WITHOUT STIMULATING AGENT | | STUDY VACCINE-RELATED IMMUNOGENICITY | CELLULAR IMMUNITY | 5.1 | SFC/10^6 PBMC | 5.1 | 5.1 | SFC/10^6 PBMC | PERIPHERAL BLOOD MONONUCLEAR CELL | ELISPOT | 1 | BASELINE | 2017-05-27 |", "score": 0.4338, "match_basis": "verbatim_token+domain_route:IS"}, {"md_atom_id": "md_dmIS_ex_a030", "md_file": "knowledge_base/domains/IS/examples.md", "md_atom_type": "TABLE_ROW", "md_parent_section": "§IS.2 [Example 2]", "md_verbatim": "| 6 | ABC | IS | ABC-001 | 6 | A42839 | 3 | ADA_X | Cross-Reactive Binding Antidrug Antibody | ENDOGENOUS COAGULATION FACTOR VIII | QUANTIFY | ANTIDRUG ANTIBODIES | HUMORAL IMMUNITY | 90 | titer | 90 | 90 | titer | SERUM | ELECTROCHEMILUMINESCENCE IMMUNOASSAY | 1 | VISIT 1 | 2017-07-27 |", "score": 0.4317, "match_basis": "verbatim_token+domain_route:IS"}], "candidate_count": 5, "zero_candidate": false}
{"pdf_atom_id": "ig34_p0230_a011", "pdf_atom_type": "TABLE_ROW", "pdf_source": "SDTMIG_v3.4", "pdf_page": 230, "pdf_parent_section": "§6.3.5.5 Immunogenicity Specimen Assessments (IS)", "pdf_verbatim": "| ISSTNRC | Reference Range for Char Rslt-Std Units | Char | | Variable Qualifier | For normal range values that are character in ordinal scale or if categorical ranges were supplied. Examples: \"-1 to +1\", \"NEGATIVE TO TRACE\". | Perm |", "figure_ref": null, "candidates": [{"md_atom_id": "md_dmIS_ex_a060", "md_file": "knowledge_base/domains/IS/examples.md", "md_atom_type": "TABLE_ROW", "md_parent_section": "§IS.4 [Example 4]", "md_verbatim": "| 6 | ABC | IS | ABC-008 | 6 | V4 | | ADA_BAB | Binding Antidrug Antibody | ACTIVE INTERFERON BETA 1A | SCREEN | ANTIDRUG ANTIBODIES | HUMORAL IMMUNITY | NEGATIVE | | NEGATIVE | | | SERUM | IMMUNOASSAY | 1 | VISIT 1 | 2017-08-27 |", "score": 0.448, "match_basis": "verbatim_token+domain_route:IS"}, {"md_atom_id": "md_dmIS_ex_a057", "md_file": "knowledge_base/domains/IS/examples.md", "md_atom_type": "TABLE_ROW", "md_parent_section": "§IS.4 [Example 4]", "md_verbatim": "| 3 | ABC | IS | ABC-007 | 3 | A1 | | ADA_BAB | Binding Antidrug Antibody | PEG EPITOPE OF PEGINTERFERON BETA1A | CONFIRM | ANTIDRUG ANTIBODIES | HUMORAL IMMUNITY | NEGATIVE | | NEGATIVE | | | SERUM | ELISA | 1 | VISIT 1 | 2017-07-27 |", "score": 0.442, "match_basis": "verbatim_token+domain_route:IS"}, {"md_atom_id": "md_dmIS_ex_a028", "md_file": "knowledge_base/domains/IS/examples.md", "md_atom_type": "TABLE_ROW", "md_parent_section": "§IS.2 [Example 2]", "md_verbatim": "| 4 | ABC | IS | ABC-001 | 4 | A42839 | 2 | ADA_NAB | Neutralizing Binding Antidrug Antibody | COAGULATION FACTOR VIII ANALOGUE DRUG | QUANTIFY | ANTIDRUG ANTIBODIES | HUMORAL IMMUNITY | 60 | titer | 60 | 60 | titer | SERUM | HEMAGGLUTINATION INHIBITION ASSAY | 1 | VISIT 1 | 2017-07-27 |", "score": 0.4361, "match_basis": "verbatim_token+domain_route:IS"}, {"md_atom_id": "md_dmIS_ex_a027", "md_file": "knowledge_base/domains/IS/examples.md", "md_atom_type": "TABLE_ROW", "md_parent_section": "§IS.2 [Example 2]", "md_verbatim": "| 3 | ABC | IS | ABC-001 | 3 | A42839 | 2 | ADA_NAB | Neutralizing Binding Antidrug Antibody | COAGULATION FACTOR VIII ANALOGUE DRUG | CONFIRM | ANTIDRUG ANTIBODIES | HUMORAL IMMUNITY | POSITIVE | | POSITIVE | | | SERUM | HEMAGGLUTINATION INHIBITION ASSAY | 1 | VISIT 1 | 2017-07-27 |", "score": 0.4357, "match_basis": "verbatim_token+domain_route:IS"}, {"md_atom_id": "md_dmIS_ex_a030", "md_file": "knowledge_base/domains/IS/examples.md", "md_atom_type": "TABLE_ROW", "md_parent_section": "§IS.2 [Example 2]", "md_verbatim": "| 6 | ABC | IS | ABC-001 | 6 | A42839 | 3 | ADA_X | Cross-Reactive Binding Antidrug Antibody | ENDOGENOUS COAGULATION FACTOR VIII | QUANTIFY | ANTIDRUG ANTIBODIES | HUMORAL IMMUNITY | 90 | titer | 90 | 90 | titer | SERUM | ELECTROCHEMILUMINESCENCE IMMUNOASSAY | 1 | VISIT 1 | 2017-07-27 |", "score": 0.4344, "match_basis": "verbatim_token+domain_route:IS"}], "candidate_count": 5, "zero_candidate": false}
{"pdf_atom_id": "ig34_p0230_a012", "pdf_atom_type": "TABLE_ROW", "pdf_source": "SDTMIG_v3.4", "pdf_page": 230, "pdf_parent_section": "§6.3.5.5 Immunogenicity Specimen Assessments (IS)", "pdf_verbatim": "| ISNRIND | Reference Range Indicator | Char | (NRIND) | Variable Qualifier | Indicates where the value falls with respect to a reference range defined by ISORNRLO and ISORNRHI, ISSTNRLO and ISSTNRHI, or by ISSTNRC. Examples: \"NORMAL\", \"ABNORMAL\", \"HIGH\", \"LOW\". Sponsors should specify in the study metadata (Comments column in the Define-XML document) whether ISNRIND refers to the original or standard reference ranges and results. Should not be used to indicate clinical significance. | Exp |", "figure_ref": null, "candidates": [{"md_atom_id": "md_dmIS_ex_a093", "md_file": "knowledge_base/domains/IS/examples.md", "md_atom_type": "TABLE_ROW", "md_parent_section": "§IS.6 [Example 6]", "md_verbatim": "| 2 | INFLA456 | IS | INF02-01 | 2 | SAMPLBC001 | ABSCCL | Antibody-secreting Cells | INFLUENZA H1-SPECIFIC IGG ANTIBODY | STUDY VACCINE-RELATED IMMUNOGENICITY | HUMORAL IMMUNITY | 626 | SFC/10^6 PBMC | 626 | 626 | SFC/10^6 PBMC | PERIPHERAL BLOOD MONONUCLEAR CELL | ELISPOT | 2011-06-08 |", "score": 0.443, "match_basis": "verbatim_token+domain_route:IS"}, {"md_atom_id": "md_dmIS_ex_a094", "md_file": "knowledge_base/domains/IS/examples.md", "md_atom_type": "TABLE_ROW", "md_parent_section": "§IS.6 [Example 6]", "md_verbatim": "| 3 | INFLA456 | IS | INF02-01 | 3 | SAMPLBC001 | ABSCCL | Antibody-secreting Cells | INFLUENZA H3-SPECIFIC IGG ANTIBODY | STUDY VACCINE-RELATED IMMUNOGENICITY | HUMORAL IMMUNITY | 592 | SFC/10^6 PBMC | 592 | 592 | SFC/10^6 PBMC | PERIPHERAL BLOOD MONONUCLEAR CELL | ELISPOT | 2011-06-08 |", "score": 0.443, "match_basis": "verbatim_token+domain_route:IS"}, {"md_atom_id": "md_dmIS_ex_a103", "md_file": "knowledge_base/domains/IS/examples.md", "md_atom_type": "TABLE_ROW", "md_parent_section": "§IS.7 [Example 7]", "md_verbatim": "| 1 | RSV1230 | IS | RSV1230-011 | 1 | 13668 | CYKSCCL | Cytokine-secreting Cells | INTERFERON GAMMA | WITHOUT STIMULATING AGENT | | STUDY VACCINE-RELATED IMMUNOGENICITY | CELLULAR IMMUNITY | 5.1 | SFC/10^6 PBMC | 5.1 | 5.1 | SFC/10^6 PBMC | PERIPHERAL BLOOD MONONUCLEAR CELL | ELISPOT | 1 | BASELINE | 2017-05-27 |", "score": 0.4345, "match_basis": "verbatim_token+domain_route:IS"}, {"md_atom_id": "md_dmIS_ex_a105", "md_file": "knowledge_base/domains/IS/examples.md", "md_atom_type": "TABLE_ROW", "md_parent_section": "§IS.7 [Example 7]", "md_verbatim": "| 3 | RSV1230 | IS | RSV1230-011 | 3 | 13668 | CYKSCCL | Cytokine-secreting Cells | INTERFERON GAMMA | WITHOUT STIMULATING AGENT | | STUDY VACCINE-RELATED IMMUNOGENICITY | CELLULAR IMMUNITY | 60.8 | SFC/10^6 PBMC | 60.8 | 60.8 | SFC/10^6 PBMC | PERIPHERAL BLOOD MONONUCLEAR CELL | ELISPOT | 2 | VISIT 1 | 2017-06-27 |", "score": 0.4322, "match_basis": "verbatim_token+domain_route:IS"}, {"md_atom_id": "md_dmIS_ex_a077", "md_file": "knowledge_base/domains/IS/examples.md", "md_atom_type": "TABLE_ROW", "md_parent_section": "§IS.5 [Example 5]", "md_verbatim": "| 4 | RSV1230 | IS | RSV1230-011 | 4 | 13668 | MBIGSAB | IgG Antibody | HUMAN RESPIRATORY SYNCYTIAL VIRUS-PROTEIN Z | QUANTIFY | NON-STUDY-RELATED IMMUNOGENICITY | HUMORAL IMMUNITY | 1:50 | titer | NA | | | SERUM | IMMUNOASSAY | 1 | BASELINE | 2017-05-27 |", "score": 0.432, "match_basis": "verbatim_token+domain_route:IS"}], "candidate_count": 5, "zero_candidate": false}
{"pdf_atom_id": "ig34_p0230_a013", "pdf_atom_type": "TABLE_ROW", "pdf_source": "SDTMIG_v3.4", "pdf_page": 230, "pdf_parent_section": "§6.3.5.5 Immunogenicity Specimen Assessments (IS)", "pdf_verbatim": "| ISSTAT | Completion Status | Char | (ND) | Record Qualifier | Used to indicate a test was not done. Should be null if a result exists in ISORRES. | Perm |", "figure_ref": null, "candidates": [{"md_atom_id": "md_dmIS_ex_a169", "md_file": "knowledge_base/domains/IS/examples.md", "md_atom_type": "TABLE_ROW", "md_parent_section": "§IS.11 [Example 11]", "md_verbatim": "| 2 | XYZ | IS | XYZ1234 | ISBDAGNT | 1 | ISMIXCOP | Mixture Component | CAT | CRF | |", "score": 0.4276, "match_basis": "verbatim_token+domain_route:IS"}, {"md_atom_id": "md_dmIS_ex_a116", "md_file": "knowledge_base/domains/IS/examples.md", "md_atom_type": "TABLE_ROW", "md_parent_section": "§IS.8 [Example 8]", "md_verbatim": "| 2 | RSV1230 | IS | RSV1230-011 | RESPIRATORY SYNCYTIAL VIRUS | 2 | 13668 | MBNAB | Neutralizing Microbial-induced Antibody | RESPIRATORY SYNCYTIAL VIRUS | NEUTRALIZING TITER 50% | STUDY VACCINE-RELATED IMMUNOGENICITY | HUMORAL IMMUNITY | 1:80 | | 80 | 80 | titer | SERUM | MICRONEUTRALIZATION ASSAY | 2 | VISIT 1 | 2017-07-27 |", "score": 0.4256, "match_basis": "verbatim_token+domain_route:IS"}, {"md_atom_id": "md_dmIS_ex_a117", "md_file": "knowledge_base/domains/IS/examples.md", "md_atom_type": "TABLE_ROW", "md_parent_section": "§IS.8 [Example 8]", "md_verbatim": "| 3 | RSV1230 | IS | RSV1230-011 | RESPIRATORY SYNCYTIAL VIRUS | 3 | 13668 | MBNAB | Neutralizing Microbial-induced Antibody | RESPIRATORY SYNCYTIAL VIRUS | NEUTRALIZING TITER 50% | STUDY VACCINE-RELATED IMMUNOGENICITY | HUMORAL IMMUNITY | 1:200 | | 200 | 200 | titer | SERUM | MICRONEUTRALIZATION ASSAY | 3 | VISIT 2 | 2017-09-27 |", "score": 0.4255, "match_basis": "verbatim_token+domain_route:IS"}, {"md_atom_id": "md_dmIS_ex_a115", "md_file": "knowledge_base/domains/IS/examples.md", "md_atom_type": "TABLE_ROW", "md_parent_section": "§IS.8 [Example 8]", "md_verbatim": "| 1 | RSV1230 | IS | RSV1230-011 | RESPIRATORY SYNCYTIAL VIRUS | 1 | 13668 | MBNAB | Neutralizing Microbial-induced Antibody | RESPIRATORY SYNCYTIAL VIRUS | NEUTRALIZING TITER 50% | STUDY VACCINE-RELATED IMMUNOGENICITY | HUMORAL IMMUNITY | 1:40 | | 40 | 40 | titer | SERUM | MICRONEUTRALIZATION ASSAY | 1 | BASELINE | 2017-05-27 |", "score": 0.4253, "match_basis": "verbatim_token+domain_route:IS"}, {"md_atom_id": "md_dmIS_ex_a028", "md_file": "knowledge_base/domains/IS/examples.md", "md_atom_type": "TABLE_ROW", "md_parent_section": "§IS.2 [Example 2]", "md_verbatim": "| 4 | ABC | IS | ABC-001 | 4 | A42839 | 2 | ADA_NAB | Neutralizing Binding Antidrug Antibody | COAGULATION FACTOR VIII ANALOGUE DRUG | QUANTIFY | ANTIDRUG ANTIBODIES | HUMORAL IMMUNITY | 60 | titer | 60 | 60 | titer | SERUM | HEMAGGLUTINATION INHIBITION ASSAY | 1 | VISIT 1 | 2017-07-27 |", "score": 0.4231, "match_basis": "verbatim_token+domain_route:IS"}], "candidate_count": 5, "zero_candidate": false}
{"pdf_atom_id": "ig34_p0230_a014", "pdf_atom_type": "TABLE_ROW", "pdf_source": "SDTMIG_v3.4", "pdf_page": 230, "pdf_parent_section": "§6.3.5.5 Immunogenicity Specimen Assessments (IS)", "pdf_verbatim": "| ISREASND | Reason Not Done | Char | | Record Qualifier | Describes why a measurement or test was not performed. Used in conjunction with ISSTAT when value is \"NOT DONE\". | Perm |", "figure_ref": null, "candidates": [{"md_atom_id": "md_dmIS_ex_a126", "md_file": "knowledge_base/domains/IS/examples.md", "md_atom_type": "TABLE_ROW", "md_parent_section": "§IS.9 [Example 9]", "md_verbatim": "| 1 | SAU1230 | IS | SAU1230-011 | STAPHYLOCOCCUS AUREUS 04-02981 | 1 | 13668 | MBFAB | Functional Microbial-induced Antibody | STAPHYLOCOCCUS AUREUS-EPITOPE X | OPSONIZATION INDEX | STUDY VACCINE-RELATED IMMUNOGENICITY | HUMORAL IMMUNITY | 100 | 100 | 100 | SERUM | OPSONOPHAGOCYTIC KILLING ASSAY | 1 | BASELINE | 2017-05-27 |", "score": 0.4242, "match_basis": "verbatim_token+domain_route:IS"}, {"md_atom_id": "md_dmIS_ex_a127", "md_file": "knowledge_base/domains/IS/examples.md", "md_atom_type": "TABLE_ROW", "md_parent_section": "§IS.9 [Example 9]", "md_verbatim": "| 2 | SAU1230 | IS | SAU1230-011 | STAPHYLOCOCCUS AUREUS 04-02981 | 2 | 13668 | MBFAB | Functional Microbial-induced Antibody | STAPHYLOCOCCUS AUREUS-EPITOPE X | OPSONIZATION INDEX | STUDY VACCINE-RELATED IMMUNOGENICITY | HUMORAL IMMUNITY | 1000 | 1000 | 1000 | SERUM | OPSONOPHAGOCYTIC KILLING ASSAY | 2 | VISIT 1 | 2017-07-27 |", "score": 0.4242, "match_basis": "verbatim_token+domain_route:IS"}, {"md_atom_id": "md_dmIS_ex_a128", "md_file": "knowledge_base/domains/IS/examples.md", "md_atom_type": "TABLE_ROW", "md_parent_section": "§IS.9 [Example 9]", "md_verbatim": "| 3 | SAU1230 | IS | SAU1230-011 | STAPHYLOCOCCUS AUREUS 04-02981 | 3 | 13668 | MBFAB | Functional Microbial-induced Antibody | STAPHYLOCOCCUS AUREUS-EPITOPE X | OPSONIZATION INDEX | STUDY VACCINE-RELATED IMMUNOGENICITY | HUMORAL IMMUNITY | 5000 | 5000 | 5000 | SERUM | OPSONOPHAGOCYTIC KILLING ASSAY | 3 | VISIT 2 | 2017-09-27 |", "score": 0.4242, "match_basis": "verbatim_token+domain_route:IS"}, {"md_atom_id": "md_dmIS_ex_a175", "md_file": "knowledge_base/domains/IS/examples.md", "md_atom_type": "TABLE_ROW", "md_parent_section": "§IS.11 [Example 11]", "md_verbatim": "| 1 | XYZ | IS | XYZ1234 | ISBDAGNT | 1 | ISALGREG | Allergen Mixture Region | CENTRAL CA, AREA 14 | CRF | |", "score": 0.4222, "match_basis": "verbatim_token+domain_route:IS"}, {"md_atom_id": "md_dmIS_ex_a030", "md_file": "knowledge_base/domains/IS/examples.md", "md_atom_type": "TABLE_ROW", "md_parent_section": "§IS.2 [Example 2]", "md_verbatim": "| 6 | ABC | IS | ABC-001 | 6 | A42839 | 3 | ADA_X | Cross-Reactive Binding Antidrug Antibody | ENDOGENOUS COAGULATION FACTOR VIII | QUANTIFY | ANTIDRUG ANTIBODIES | HUMORAL IMMUNITY | 90 | titer | 90 | 90 | titer | SERUM | ELECTROCHEMILUMINESCENCE IMMUNOASSAY | 1 | VISIT 1 | 2017-07-27 |", "score": 0.4203, "match_basis": "verbatim_token+domain_route:IS"}], "candidate_count": 5, "zero_candidate": false}
{"pdf_atom_id": "ig34_p0230_a015", "pdf_atom_type": "TABLE_ROW", "pdf_source": "SDTMIG_v3.4", "pdf_page": 230, "pdf_parent_section": "§6.3.5.5 Immunogenicity Specimen Assessments (IS)", "pdf_verbatim": "| ISNAM | Vendor Name | Char | | Record Qualifier | Name or identifier of the laboratory or vendor who provided the test results. | Perm |", "figure_ref": null, "candidates": [{"md_atom_id": "md_dmIS_ex_a077", "md_file": "knowledge_base/domains/IS/examples.md", "md_atom_type": "TABLE_ROW", "md_parent_section": "§IS.5 [Example 5]", "md_verbatim": "| 4 | RSV1230 | IS | RSV1230-011 | 4 | 13668 | MBIGSAB | IgG Antibody | HUMAN RESPIRATORY SYNCYTIAL VIRUS-PROTEIN Z | QUANTIFY | NON-STUDY-RELATED IMMUNOGENICITY | HUMORAL IMMUNITY | 1:50 | titer | NA | | | SERUM | IMMUNOASSAY | 1 | BASELINE | 2017-05-27 |", "score": 0.4435, "match_basis": "verbatim_token+domain_route:IS"}, {"md_atom_id": "md_dmIS_ex_a078", "md_file": "knowledge_base/domains/IS/examples.md", "md_atom_type": "TABLE_ROW", "md_parent_section": "§IS.5 [Example 5]", "md_verbatim": "| 5 | RSV1230 | IS | RSV1230-011 | 5 | 13668 | MBIGSAB | IgG Antibody | HUMAN RESPIRATORY SYNCYTIAL VIRUS-PROTEIN B | QUANTIFY | STUDY VACCINE-RELATED IMMUNOGENICITY | HUMORAL IMMUNITY | 1:100 | titer | NA | | | SERUM | IMMUNOASSAY | 2 | VISIT 1 | 2017-07-27 |", "score": 0.4429, "match_basis": "verbatim_token+domain_route:IS"}, {"md_atom_id": "md_dmIS_ex_a079", "md_file": "knowledge_base/domains/IS/examples.md", "md_atom_type": "TABLE_ROW", "md_parent_section": "§IS.5 [Example 5]", "md_verbatim": "| 6 | RSV1230 | IS | RSV1230-011 | 6 | 13668 | MBIGSAB | IgG Antibody | HUMAN RESPIRATORY SYNCYTIAL VIRUS-PROTEIN B | QUANTIFY | STUDY VACCINE-RELATED IMMUNOGENICITY | HUMORAL IMMUNITY | 1:250 | titer | NA | | | SERUM | IMMUNOASSAY | 3 | VISIT 2 | 2017-08-27 |", "score": 0.4429, "match_basis": "verbatim_token+domain_route:IS"}, {"md_atom_id": "md_dmIS_ex_a080", "md_file": "knowledge_base/domains/IS/examples.md", "md_atom_type": "TABLE_ROW", "md_parent_section": "§IS.5 [Example 5]", "md_verbatim": "| 7 | RSV1230 | IS | RSV1230-011 | 7 | 13668 | MBIGSAB | IgG Antibody | HUMAN RESPIRATORY SYNCYTIAL VIRUS-PROTEIN B | QUANTIFY | STUDY VACCINE-RELATED IMMUNOGENICITY | HUMORAL IMMUNITY | 1:500 | titer | NA | | | SERUM | IMMUNOASSAY | 4 | VISIT 3 | 2017-09-27 |", "score": 0.4429, "match_basis": "verbatim_token+domain_route:IS"}, {"md_atom_id": "md_dmIS_ex_a075", "md_file": "knowledge_base/domains/IS/examples.md", "md_atom_type": "TABLE_ROW", "md_parent_section": "§IS.5 [Example 5]", "md_verbatim": "| 2 | RSV1230 | IS | RSV1230-011 | 2 | 13668 | MBIGSAB | IgG Antibody | HUMAN RESPIRATORY SYNCYTIAL VIRUS-PROTEIN B | QUANTIFY | STUDY VACCINE-RELATED IMMUNOGENICITY | HUMORAL IMMUNITY | 1:24 | titer | NA | | | SERUM | IMMUNOASSAY | 1 | BASELINE | 2017-05-27 |", "score": 0.4426, "match_basis": "verbatim_token+domain_route:IS"}], "candidate_count": 5, "zero_candidate": false}
{"pdf_atom_id": "ig34_p0230_a016", "pdf_atom_type": "TABLE_ROW", "pdf_source": "SDTMIG_v3.4", "pdf_page": 230, "pdf_parent_section": "§6.3.5.5 Immunogenicity Specimen Assessments (IS)", "pdf_verbatim": "| ISSPEC | Specimen Type | Char | (SPECTYPE) | Record Qualifier | Defines the types of specimen used for a measurement. Example: \"SERUM\". | Perm |", "figure_ref": null, "candidates": [{"md_atom_id": "md_dmIS_ex_a013", "md_file": "knowledge_base/domains/IS/examples.md", "md_atom_type": "TABLE_ROW", "md_parent_section": "§IS.1 [Example 1]", "md_verbatim": "| 3 | ABC | IS | ABC-002 | 3 | V555 | 1 | ADA_BAB | Binding Antidrug Antibody | DRUG AZ-007 | QUANTIFY | ANTIDRUG ANTIBODIES | HUMORAL IMMUNITY | 50 | titer | 50 | 50 | titer | SERUM | ELECTROCHEMILUMINESCENCE IMMUNOASSAY | 1 | VISIT 1 | 2017-07-27 |", "score": 0.4336, "match_basis": "verbatim_token+domain_route:IS"}, {"md_atom_id": "md_dmIS_ex_a041", "md_file": "knowledge_base/domains/IS/examples.md", "md_atom_type": "TABLE_ROW", "md_parent_section": "§IS.3 [Example 3]", "md_verbatim": "| 2 | ABC | IS | ABC-004 | 2 | J123 | 1 | ADA_BAB | Binding Antidrug Antibody | PRODRUG A | QUANTIFY | ANTIDRUG ANTIBODIES | HUMORAL IMMUNITY | 30 | titer | 30 | 30 | titer | SERUM | ELECTROCHEMILUMINESCENCE IMMUNOASSAY | 1 | VISIT 1 | 2017-07-27 |", "score": 0.4331, "match_basis": "verbatim_token+domain_route:IS"}, {"md_atom_id": "md_dmIS_ex_a093", "md_file": "knowledge_base/domains/IS/examples.md", "md_atom_type": "TABLE_ROW", "md_parent_section": "§IS.6 [Example 6]", "md_verbatim": "| 2 | INFLA456 | IS | INF02-01 | 2 | SAMPLBC001 | ABSCCL | Antibody-secreting Cells | INFLUENZA H1-SPECIFIC IGG ANTIBODY | STUDY VACCINE-RELATED IMMUNOGENICITY | HUMORAL IMMUNITY | 626 | SFC/10^6 PBMC | 626 | 626 | SFC/10^6 PBMC | PERIPHERAL BLOOD MONONUCLEAR CELL | ELISPOT | 2011-06-08 |", "score": 0.431, "match_basis": "verbatim_token+domain_route:IS"}, {"md_atom_id": "md_dmIS_ex_a094", "md_file": "knowledge_base/domains/IS/examples.md", "md_atom_type": "TABLE_ROW", "md_parent_section": "§IS.6 [Example 6]", "md_verbatim": "| 3 | INFLA456 | IS | INF02-01 | 3 | SAMPLBC001 | ABSCCL | Antibody-secreting Cells | INFLUENZA H3-SPECIFIC IGG ANTIBODY | STUDY VACCINE-RELATED IMMUNOGENICITY | HUMORAL IMMUNITY | 592 | SFC/10^6 PBMC | 592 | 592 | SFC/10^6 PBMC | PERIPHERAL BLOOD MONONUCLEAR CELL | ELISPOT | 2011-06-08 |", "score": 0.431, "match_basis": "verbatim_token+domain_route:IS"}, {"md_atom_id": "md_dmIS_ex_a043", "md_file": "knowledge_base/domains/IS/examples.md", "md_atom_type": "TABLE_ROW", "md_parent_section": "§IS.3 [Example 3]", "md_verbatim": "| 4 | ABC | IS | ABC-004 | 4 | J123 | 2 | ADA_BAB | Binding Antidrug Antibody | PRODRUG A ACTIVE METABOLITE | QUANTIFY | ANTIDRUG ANTIBODIES | HUMORAL IMMUNITY | 60 | titer | 60 | 60 | titer | SERUM | ELECTROCHEMILUMINESCENCE IMMUNOASSAY | 1 | VISIT 1 | 2017-07-27 |", "score": 0.4304, "match_basis": "verbatim_token+domain_route:IS"}], "candidate_count": 5, "zero_candidate": false}
{"pdf_atom_id": "ig34_p0230_a017", "pdf_atom_type": "TABLE_ROW", "pdf_source": "SDTMIG_v3.4", "pdf_page": 230, "pdf_parent_section": "§6.3.5.5 Immunogenicity Specimen Assessments (IS)", "pdf_verbatim": "| ISSPCCND | Specimen Condition | Char | (SPECCOND) | Record Qualifier | Free or standardized text describing the condition of the specimen. Examples: \"HEMOLYZED\", \"ICTERIC\", \"LIPEMIC\". | Perm |", "figure_ref": null, "candidates": [{"md_atom_id": "md_dmIS_ex_a028", "md_file": "knowledge_base/domains/IS/examples.md", "md_atom_type": "TABLE_ROW", "md_parent_section": "§IS.2 [Example 2]", "md_verbatim": "| 4 | ABC | IS | ABC-001 | 4 | A42839 | 2 | ADA_NAB | Neutralizing Binding Antidrug Antibody | COAGULATION FACTOR VIII ANALOGUE DRUG | QUANTIFY | ANTIDRUG ANTIBODIES | HUMORAL IMMUNITY | 60 | titer | 60 | 60 | titer | SERUM | HEMAGGLUTINATION INHIBITION ASSAY | 1 | VISIT 1 | 2017-07-27 |", "score": 0.4386, "match_basis": "verbatim_token+domain_route:IS"}, {"md_atom_id": "md_dmIS_ex_a011", "md_file": "knowledge_base/domains/IS/examples.md", "md_atom_type": "TABLE_ROW", "md_parent_section": "§IS.1 [Example 1]", "md_verbatim": "| 1 | ABC | IS | ABC-002 | 1 | V555 | 1 | ADA_BAB | Binding Antidrug Antibody | DRUG AZ-007 | SCREEN | ANTIDRUG ANTIBODIES | HUMORAL IMMUNITY | POSITIVE | | POSITIVE | | | SERUM | ELECTROCHEMILUMINESCENCE IMMUNOASSAY | 1 | VISIT 1 | 2017-07-27 |", "score": 0.4353, "match_basis": "verbatim_token+domain_route:IS"}, {"md_atom_id": "md_dmIS_ex_a026", "md_file": "knowledge_base/domains/IS/examples.md", "md_atom_type": "TABLE_ROW", "md_parent_section": "§IS.2 [Example 2]", "md_verbatim": "| 2 | ABC | IS | ABC-001 | 2 | A42839 | 1 | ADA_BAB | Binding Antidrug Antibody | COAGULATION FACTOR VIII ANALOGUE DRUG | QUANTIFY | ANTIDRUG ANTIBODIES | HUMORAL IMMUNITY | 30 | titer | 30 | 30 | titer | SERUM | ELECTROCHEMILUMINESCENCE IMMUNOASSAY | 1 | VISIT 1 | 2017-07-27 |", "score": 0.4349, "match_basis": "verbatim_token+domain_route:IS"}, {"md_atom_id": "md_dmIS_ex_a027", "md_file": "knowledge_base/domains/IS/examples.md", "md_atom_type": "TABLE_ROW", "md_parent_section": "§IS.2 [Example 2]", "md_verbatim": "| 3 | ABC | IS | ABC-001 | 3 | A42839 | 2 | ADA_NAB | Neutralizing Binding Antidrug Antibody | COAGULATION FACTOR VIII ANALOGUE DRUG | CONFIRM | ANTIDRUG ANTIBODIES | HUMORAL IMMUNITY | POSITIVE | | POSITIVE | | | SERUM | HEMAGGLUTINATION INHIBITION ASSAY | 1 | VISIT 1 | 2017-07-27 |", "score": 0.4345, "match_basis": "verbatim_token+domain_route:IS"}, {"md_atom_id": "md_dmIS_ex_a032", "md_file": "knowledge_base/domains/IS/examples.md", "md_atom_type": "TABLE_ROW", "md_parent_section": "§IS.2 [Example 2]", "md_verbatim": "| 8 | ABC | IS | ABC-001 | 8 | A42839 | 4 | ADA_NX | Neutralize Cross-React Bind Antidrug Ab | ENDOGENOUS COAGULATION FACTOR VIII | QUANTIFY | ANTIDRUG ANTIBODIES | HUMORAL IMMUNITY | 150 | titer | 150 | 150 | titer | SERUM | HEMAGGLUTINATION INHIBITION ASSAY | 1 | VISIT 1 | 2017-07-27 |", "score": 0.4345, "match_basis": "verbatim_token+domain_route:IS"}], "candidate_count": 5, "zero_candidate": false}
{"pdf_atom_id": "ig34_p0230_a018", "pdf_atom_type": "TABLE_ROW", "pdf_source": "SDTMIG_v3.4", "pdf_page": 230, "pdf_parent_section": "§6.3.5.5 Immunogenicity Specimen Assessments (IS)", "pdf_verbatim": "| ISSPCUFL | Specimen Usability for the Test | Char | (NY) | Record Qualifier | Describes the usability of the specimen for the test. The value will be \"N\" if the specimen is not usable, and null if the specimen is usable. | Perm |", "figure_ref": null, "candidates": [{"md_atom_id": "md_dmIS_ex_a093", "md_file": "knowledge_base/domains/IS/examples.md", "md_atom_type": "TABLE_ROW", "md_parent_section": "§IS.6 [Example 6]", "md_verbatim": "| 2 | INFLA456 | IS | INF02-01 | 2 | SAMPLBC001 | ABSCCL | Antibody-secreting Cells | INFLUENZA H1-SPECIFIC IGG ANTIBODY | STUDY VACCINE-RELATED IMMUNOGENICITY | HUMORAL IMMUNITY | 626 | SFC/10^6 PBMC | 626 | 626 | SFC/10^6 PBMC | PERIPHERAL BLOOD MONONUCLEAR CELL | ELISPOT | 2011-06-08 |", "score": 0.4264, "match_basis": "verbatim_token+domain_route:IS"}, {"md_atom_id": "md_dmIS_ex_a094", "md_file": "knowledge_base/domains/IS/examples.md", "md_atom_type": "TABLE_ROW", "md_parent_section": "§IS.6 [Example 6]", "md_verbatim": "| 3 | INFLA456 | IS | INF02-01 | 3 | SAMPLBC001 | ABSCCL | Antibody-secreting Cells | INFLUENZA H3-SPECIFIC IGG ANTIBODY | STUDY VACCINE-RELATED IMMUNOGENICITY | HUMORAL IMMUNITY | 592 | SFC/10^6 PBMC | 592 | 592 | SFC/10^6 PBMC | PERIPHERAL BLOOD MONONUCLEAR CELL | ELISPOT | 2011-06-08 |", "score": 0.4264, "match_basis": "verbatim_token+domain_route:IS"}, {"md_atom_id": "md_dmIS_ex_a138", "md_file": "knowledge_base/domains/IS/examples.md", "md_atom_type": "TABLE_ROW", "md_parent_section": "§IS.10 [Example 10]", "md_verbatim": "| 3 | XYZ | IS | XYZ1234 | 3 | 19283746 | 1a | ATAB | Autoantibody | NUCLEAR AUTOANTIGENS | STAINING PATTERN | | SPECKLED PATTERN | | SPECKLED PATTERN | | | SERUM | FLUORESCENT IMMUNOASSAY | 1 | SCREENING | 2018-06-20 |", "score": 0.4186, "match_basis": "verbatim_token+domain_route:IS"}, {"md_atom_id": "md_dmIS_ex_a043", "md_file": "knowledge_base/domains/IS/examples.md", "md_atom_type": "TABLE_ROW", "md_parent_section": "§IS.3 [Example 3]", "md_verbatim": "| 4 | ABC | IS | ABC-004 | 4 | J123 | 2 | ADA_BAB | Binding Antidrug Antibody | PRODRUG A ACTIVE METABOLITE | QUANTIFY | ANTIDRUG ANTIBODIES | HUMORAL IMMUNITY | 60 | titer | 60 | 60 | titer | SERUM | ELECTROCHEMILUMINESCENCE IMMUNOASSAY | 1 | VISIT 1 | 2017-07-27 |", "score": 0.4167, "match_basis": "verbatim_token+domain_route:IS"}, {"md_atom_id": "md_dmIS_ex_a158", "md_file": "knowledge_base/domains/IS/examples.md", "md_atom_type": "TABLE_ROW", "md_parent_section": "§IS.11 [Example 11]", "md_verbatim": "| 3 | XYZ | IS | XYZ1234 | 3 | 12456666 | ARIGEAB | Allergen-induced IgE Antibody | DOG DANDER ANTIGEN | RAST SCORE | 0 | | 0 | 0 | | SERUM | RIA | 1 | SCREENING | 2018-06-20 |", "score": 0.4165, "match_basis": "verbatim_token+domain_route:IS"}], "candidate_count": 5, "zero_candidate": false}
{"pdf_atom_id": "ig34_p0230_a019", "pdf_atom_type": "TABLE_ROW", "pdf_source": "SDTMIG_v3.4", "pdf_page": 230, "pdf_parent_section": "§6.3.5.5 Immunogenicity Specimen Assessments (IS)", "pdf_verbatim": "| ISMETHOD | Method of Test or Examination | Char | (METHOD) | Record Qualifier | Method of the test or examination. Examples: \"ELISA\", \"ELISPOT\". | Perm |", "figure_ref": null, "candidates": [{"md_atom_id": "md_dmIS_ex_a093", "md_file": "knowledge_base/domains/IS/examples.md", "md_atom_type": "TABLE_ROW", "md_parent_section": "§IS.6 [Example 6]", "md_verbatim": "| 2 | INFLA456 | IS | INF02-01 | 2 | SAMPLBC001 | ABSCCL | Antibody-secreting Cells | INFLUENZA H1-SPECIFIC IGG ANTIBODY | STUDY VACCINE-RELATED IMMUNOGENICITY | HUMORAL IMMUNITY | 626 | SFC/10^6 PBMC | 626 | 626 | SFC/10^6 PBMC | PERIPHERAL BLOOD MONONUCLEAR CELL | ELISPOT | 2011-06-08 |", "score": 0.4375, "match_basis": "verbatim_token+domain_route:IS"}, {"md_atom_id": "md_dmIS_ex_a094", "md_file": "knowledge_base/domains/IS/examples.md", "md_atom_type": "TABLE_ROW", "md_parent_section": "§IS.6 [Example 6]", "md_verbatim": "| 3 | INFLA456 | IS | INF02-01 | 3 | SAMPLBC001 | ABSCCL | Antibody-secreting Cells | INFLUENZA H3-SPECIFIC IGG ANTIBODY | STUDY VACCINE-RELATED IMMUNOGENICITY | HUMORAL IMMUNITY | 592 | SFC/10^6 PBMC | 592 | 592 | SFC/10^6 PBMC | PERIPHERAL BLOOD MONONUCLEAR CELL | ELISPOT | 2011-06-08 |", "score": 0.4375, "match_basis": "verbatim_token+domain_route:IS"}, {"md_atom_id": "md_dmIS_ex_a092", "md_file": "knowledge_base/domains/IS/examples.md", "md_atom_type": "TABLE_ROW", "md_parent_section": "§IS.6 [Example 6]", "md_verbatim": "| 1 | INFLA456 | IS | INF02-01 | 1 | SAMPLBC001 | ABSCCL | Antibody-secreting Cells | IGG ANTIBODY | STUDY VACCINE-RELATED IMMUNOGENICITY | HUMORAL IMMUNITY | 2019 | SFC/10^6 PBMC | 2019 | 2019 | SFC/10^6 PBMC | PERIPHERAL BLOOD MONONUCLEAR CELL | ELISPOT | 2011-06-08 |", "score": 0.4358, "match_basis": "verbatim_token+domain_route:IS"}, {"md_atom_id": "md_dmIS_ex_a105", "md_file": "knowledge_base/domains/IS/examples.md", "md_atom_type": "TABLE_ROW", "md_parent_section": "§IS.7 [Example 7]", "md_verbatim": "| 3 | RSV1230 | IS | RSV1230-011 | 3 | 13668 | CYKSCCL | Cytokine-secreting Cells | INTERFERON GAMMA | WITHOUT STIMULATING AGENT | | STUDY VACCINE-RELATED IMMUNOGENICITY | CELLULAR IMMUNITY | 60.8 | SFC/10^6 PBMC | 60.8 | 60.8 | SFC/10^6 PBMC | PERIPHERAL BLOOD MONONUCLEAR CELL | ELISPOT | 2 | VISIT 1 | 2017-06-27 |", "score": 0.4318, "match_basis": "verbatim_token+domain_route:IS"}, {"md_atom_id": "md_dmIS_ex_a103", "md_file": "knowledge_base/domains/IS/examples.md", "md_atom_type": "TABLE_ROW", "md_parent_section": "§IS.7 [Example 7]", "md_verbatim": "| 1 | RSV1230 | IS | RSV1230-011 | 1 | 13668 | CYKSCCL | Cytokine-secreting Cells | INTERFERON GAMMA | WITHOUT STIMULATING AGENT | | STUDY VACCINE-RELATED IMMUNOGENICITY | CELLULAR IMMUNITY | 5.1 | SFC/10^6 PBMC | 5.1 | 5.1 | SFC/10^6 PBMC | PERIPHERAL BLOOD MONONUCLEAR CELL | ELISPOT | 1 | BASELINE | 2017-05-27 |", "score": 0.4316, "match_basis": "verbatim_token+domain_route:IS"}], "candidate_count": 5, "zero_candidate": false}
{"pdf_atom_id": "ig34_p0230_a020", "pdf_atom_type": "TABLE_ROW", "pdf_source": "SDTMIG_v3.4", "pdf_page": 230, "pdf_parent_section": "§6.3.5.5 Immunogenicity Specimen Assessments (IS)", "pdf_verbatim": "| ISLOBXFL | Last Observation Before Exposure Flag | Char | (NY) | Record Qualifier | Operationally derived indicator used to identify the last non-missing value prior to RFXSTDTC. The value should be \"Y\" or null. | Perm |", "figure_ref": null, "candidates": [{"md_atom_id": "md_dmIS_ex_a028", "md_file": "knowledge_base/domains/IS/examples.md", "md_atom_type": "TABLE_ROW", "md_parent_section": "§IS.2 [Example 2]", "md_verbatim": "| 4 | ABC | IS | ABC-001 | 4 | A42839 | 2 | ADA_NAB | Neutralizing Binding Antidrug Antibody | COAGULATION FACTOR VIII ANALOGUE DRUG | QUANTIFY | ANTIDRUG ANTIBODIES | HUMORAL IMMUNITY | 60 | titer | 60 | 60 | titer | SERUM | HEMAGGLUTINATION INHIBITION ASSAY | 1 | VISIT 1 | 2017-07-27 |", "score": 0.4459, "match_basis": "verbatim_token+domain_route:IS"}, {"md_atom_id": "md_dmIS_ex_a026", "md_file": "knowledge_base/domains/IS/examples.md", "md_atom_type": "TABLE_ROW", "md_parent_section": "§IS.2 [Example 2]", "md_verbatim": "| 2 | ABC | IS | ABC-001 | 2 | A42839 | 1 | ADA_BAB | Binding Antidrug Antibody | COAGULATION FACTOR VIII ANALOGUE DRUG | QUANTIFY | ANTIDRUG ANTIBODIES | HUMORAL IMMUNITY | 30 | titer | 30 | 30 | titer | SERUM | ELECTROCHEMILUMINESCENCE IMMUNOASSAY | 1 | VISIT 1 | 2017-07-27 |", "score": 0.4424, "match_basis": "verbatim_token+domain_route:IS"}, {"md_atom_id": "md_dmIS_ex_a160", "md_file": "knowledge_base/domains/IS/examples.md", "md_atom_type": "TABLE_ROW", "md_parent_section": "§IS.11 [Example 11]", "md_verbatim": "| 5 | XYZ | IS | XYZ1234 | 5 | 12456666 | ARIGEAB | Allergen-induced IgE Antibody | CAT DANDER ANTIGEN | RAST SCORE | 0 | | 0 | 0 | | SERUM | RIA | 1 | SCREENING | 2018-06-20 |", "score": 0.4423, "match_basis": "verbatim_token+domain_route:IS"}, {"md_atom_id": "md_dmIS_ex_a027", "md_file": "knowledge_base/domains/IS/examples.md", "md_atom_type": "TABLE_ROW", "md_parent_section": "§IS.2 [Example 2]", "md_verbatim": "| 3 | ABC | IS | ABC-001 | 3 | A42839 | 2 | ADA_NAB | Neutralizing Binding Antidrug Antibody | COAGULATION FACTOR VIII ANALOGUE DRUG | CONFIRM | ANTIDRUG ANTIBODIES | HUMORAL IMMUNITY | POSITIVE | | POSITIVE | | | SERUM | HEMAGGLUTINATION INHIBITION ASSAY | 1 | VISIT 1 | 2017-07-27 |", "score": 0.4419, "match_basis": "verbatim_token+domain_route:IS"}, {"md_atom_id": "md_dmIS_ex_a030", "md_file": "knowledge_base/domains/IS/examples.md", "md_atom_type": "TABLE_ROW", "md_parent_section": "§IS.2 [Example 2]", "md_verbatim": "| 6 | ABC | IS | ABC-001 | 6 | A42839 | 3 | ADA_X | Cross-Reactive Binding Antidrug Antibody | ENDOGENOUS COAGULATION FACTOR VIII | QUANTIFY | ANTIDRUG ANTIBODIES | HUMORAL IMMUNITY | 90 | titer | 90 | 90 | titer | SERUM | ELECTROCHEMILUMINESCENCE IMMUNOASSAY | 1 | VISIT 1 | 2017-07-27 |", "score": 0.4404, "match_basis": "verbatim_token+domain_route:IS"}], "candidate_count": 5, "zero_candidate": false}
{"pdf_atom_id": "ig34_p0230_a021", "pdf_atom_type": "TABLE_ROW", "pdf_source": "SDTMIG_v3.4", "pdf_page": 230, "pdf_parent_section": "§6.3.5.5 Immunogenicity Specimen Assessments (IS)", "pdf_verbatim": "| ISBLFL | Baseline Flag | Char | (NY) | Record Qualifier | Indicator used to identify a baseline value. Should be \"Y\" or null. Note that ISBLFL is retained for backward compatibility. The authoritative baseline for statistical analysis is in an ADaM dataset. | Perm |", "figure_ref": null, "candidates": [{"md_atom_id": "md_dmIS_ex_a077", "md_file": "knowledge_base/domains/IS/examples.md", "md_atom_type": "TABLE_ROW", "md_parent_section": "§IS.5 [Example 5]", "md_verbatim": "| 4 | RSV1230 | IS | RSV1230-011 | 4 | 13668 | MBIGSAB | IgG Antibody | HUMAN RESPIRATORY SYNCYTIAL VIRUS-PROTEIN Z | QUANTIFY | NON-STUDY-RELATED IMMUNOGENICITY | HUMORAL IMMUNITY | 1:50 | titer | NA | | | SERUM | IMMUNOASSAY | 1 | BASELINE | 2017-05-27 |", "score": 0.4474, "match_basis": "verbatim_token+domain_route:IS"}, {"md_atom_id": "md_dmIS_ex_a028", "md_file": "knowledge_base/domains/IS/examples.md", "md_atom_type": "TABLE_ROW", "md_parent_section": "§IS.2 [Example 2]", "md_verbatim": "| 4 | ABC | IS | ABC-001 | 4 | A42839 | 2 | ADA_NAB | Neutralizing Binding Antidrug Antibody | COAGULATION FACTOR VIII ANALOGUE DRUG | QUANTIFY | ANTIDRUG ANTIBODIES | HUMORAL IMMUNITY | 60 | titer | 60 | 60 | titer | SERUM | HEMAGGLUTINATION INHIBITION ASSAY | 1 | VISIT 1 | 2017-07-27 |", "score": 0.4466, "match_basis": "verbatim_token+domain_route:IS"}, {"md_atom_id": "md_dmIS_ex_a075", "md_file": "knowledge_base/domains/IS/examples.md", "md_atom_type": "TABLE_ROW", "md_parent_section": "§IS.5 [Example 5]", "md_verbatim": "| 2 | RSV1230 | IS | RSV1230-011 | 2 | 13668 | MBIGSAB | IgG Antibody | HUMAN RESPIRATORY SYNCYTIAL VIRUS-PROTEIN B | QUANTIFY | STUDY VACCINE-RELATED IMMUNOGENICITY | HUMORAL IMMUNITY | 1:24 | titer | NA | | | SERUM | IMMUNOASSAY | 1 | BASELINE | 2017-05-27 |", "score": 0.4466, "match_basis": "verbatim_token+domain_route:IS"}, {"md_atom_id": "md_dmIS_ex_a043", "md_file": "knowledge_base/domains/IS/examples.md", "md_atom_type": "TABLE_ROW", "md_parent_section": "§IS.3 [Example 3]", "md_verbatim": "| 4 | ABC | IS | ABC-004 | 4 | J123 | 2 | ADA_BAB | Binding Antidrug Antibody | PRODRUG A ACTIVE METABOLITE | QUANTIFY | ANTIDRUG ANTIBODIES | HUMORAL IMMUNITY | 60 | titer | 60 | 60 | titer | SERUM | ELECTROCHEMILUMINESCENCE IMMUNOASSAY | 1 | VISIT 1 | 2017-07-27 |", "score": 0.4454, "match_basis": "verbatim_token+domain_route:IS"}, {"md_atom_id": "md_dmIS_ex_a026", "md_file": "knowledge_base/domains/IS/examples.md", "md_atom_type": "TABLE_ROW", "md_parent_section": "§IS.2 [Example 2]", "md_verbatim": "| 2 | ABC | IS | ABC-001 | 2 | A42839 | 1 | ADA_BAB | Binding Antidrug Antibody | COAGULATION FACTOR VIII ANALOGUE DRUG | QUANTIFY | ANTIDRUG ANTIBODIES | HUMORAL IMMUNITY | 30 | titer | 30 | 30 | titer | SERUM | ELECTROCHEMILUMINESCENCE IMMUNOASSAY | 1 | VISIT 1 | 2017-07-27 |", "score": 0.4433, "match_basis": "verbatim_token+domain_route:IS"}], "candidate_count": 5, "zero_candidate": false}
{"pdf_atom_id": "ig34_p0230_a022", "pdf_atom_type": "TABLE_ROW", "pdf_source": "SDTMIG_v3.4", "pdf_page": 230, "pdf_parent_section": "§6.3.5.5 Immunogenicity Specimen Assessments (IS)", "pdf_verbatim": "| ISDRVFL | Derived Flag | Char | (NY) | Record Qualifier | Used to indicate a derived record. The value should be \"Y\" or null. Examples of records that might be derived for the submission datasets include those that represent the average of other records, do not come from the CRF, or are not as originally received or collected. If [continues on next page] | Perm |", "figure_ref": null, "candidates": [{"md_atom_id": "md_dmIS_ex_a093", "md_file": "knowledge_base/domains/IS/examples.md", "md_atom_type": "TABLE_ROW", "md_parent_section": "§IS.6 [Example 6]", "md_verbatim": "| 2 | INFLA456 | IS | INF02-01 | 2 | SAMPLBC001 | ABSCCL | Antibody-secreting Cells | INFLUENZA H1-SPECIFIC IGG ANTIBODY | STUDY VACCINE-RELATED IMMUNOGENICITY | HUMORAL IMMUNITY | 626 | SFC/10^6 PBMC | 626 | 626 | SFC/10^6 PBMC | PERIPHERAL BLOOD MONONUCLEAR CELL | ELISPOT | 2011-06-08 |", "score": 0.4345, "match_basis": "verbatim_token+domain_route:IS"}, {"md_atom_id": "md_dmIS_ex_a094", "md_file": "knowledge_base/domains/IS/examples.md", "md_atom_type": "TABLE_ROW", "md_parent_section": "§IS.6 [Example 6]", "md_verbatim": "| 3 | INFLA456 | IS | INF02-01 | 3 | SAMPLBC001 | ABSCCL | Antibody-secreting Cells | INFLUENZA H3-SPECIFIC IGG ANTIBODY | STUDY VACCINE-RELATED IMMUNOGENICITY | HUMORAL IMMUNITY | 592 | SFC/10^6 PBMC | 592 | 592 | SFC/10^6 PBMC | PERIPHERAL BLOOD MONONUCLEAR CELL | ELISPOT | 2011-06-08 |", "score": 0.4345, "match_basis": "verbatim_token+domain_route:IS"}, {"md_atom_id": "md_dmIS_ex_a103", "md_file": "knowledge_base/domains/IS/examples.md", "md_atom_type": "TABLE_ROW", "md_parent_section": "§IS.7 [Example 7]", "md_verbatim": "| 1 | RSV1230 | IS | RSV1230-011 | 1 | 13668 | CYKSCCL | Cytokine-secreting Cells | INTERFERON GAMMA | WITHOUT STIMULATING AGENT | | STUDY VACCINE-RELATED IMMUNOGENICITY | CELLULAR IMMUNITY | 5.1 | SFC/10^6 PBMC | 5.1 | 5.1 | SFC/10^6 PBMC | PERIPHERAL BLOOD MONONUCLEAR CELL | ELISPOT | 1 | BASELINE | 2017-05-27 |", "score": 0.4308, "match_basis": "verbatim_token+domain_route:IS"}, {"md_atom_id": "md_dmIS_ex_a092", "md_file": "knowledge_base/domains/IS/examples.md", "md_atom_type": "TABLE_ROW", "md_parent_section": "§IS.6 [Example 6]", "md_verbatim": "| 1 | INFLA456 | IS | INF02-01 | 1 | SAMPLBC001 | ABSCCL | Antibody-secreting Cells | IGG ANTIBODY | STUDY VACCINE-RELATED IMMUNOGENICITY | HUMORAL IMMUNITY | 2019 | SFC/10^6 PBMC | 2019 | 2019 | SFC/10^6 PBMC | PERIPHERAL BLOOD MONONUCLEAR CELL | ELISPOT | 2011-06-08 |", "score": 0.4304, "match_basis": "verbatim_token+domain_route:IS"}, {"md_atom_id": "md_dmIS_ex_a105", "md_file": "knowledge_base/domains/IS/examples.md", "md_atom_type": "TABLE_ROW", "md_parent_section": "§IS.7 [Example 7]", "md_verbatim": "| 3 | RSV1230 | IS | RSV1230-011 | 3 | 13668 | CYKSCCL | Cytokine-secreting Cells | INTERFERON GAMMA | WITHOUT STIMULATING AGENT | | STUDY VACCINE-RELATED IMMUNOGENICITY | CELLULAR IMMUNITY | 60.8 | SFC/10^6 PBMC | 60.8 | 60.8 | SFC/10^6 PBMC | PERIPHERAL BLOOD MONONUCLEAR CELL | ELISPOT | 2 | VISIT 1 | 2017-06-27 |", "score": 0.4282, "match_basis": "verbatim_token+domain_route:IS"}], "candidate_count": 5, "zero_candidate": false}
{"pdf_atom_id": "ig34_p0231_a001", "pdf_atom_type": "TABLE_ROW", "pdf_source": "SDTMIG_v3.4", "pdf_page": 231, "pdf_parent_section": "§6.3.5.5 Immunogenicity Specimen Assessments (IS)", "pdf_verbatim": "| ISLLOQ | Lower Limit of Quantitation | Num |  | Variable Qualifier | Indicates the lower limit of quantitation for an assay. Units will be those used for ISSTRESU. | Exp |", "figure_ref": null, "candidates": [{"md_atom_id": "md_dmIS_ex_a028", "md_file": "knowledge_base/domains/IS/examples.md", "md_atom_type": "TABLE_ROW", "md_parent_section": "§IS.2 [Example 2]", "md_verbatim": "| 4 | ABC | IS | ABC-001 | 4 | A42839 | 2 | ADA_NAB | Neutralizing Binding Antidrug Antibody | COAGULATION FACTOR VIII ANALOGUE DRUG | QUANTIFY | ANTIDRUG ANTIBODIES | HUMORAL IMMUNITY | 60 | titer | 60 | 60 | titer | SERUM | HEMAGGLUTINATION INHIBITION ASSAY | 1 | VISIT 1 | 2017-07-27 |", "score": 0.4653, "match_basis": "verbatim_token+domain_route:IS"}, {"md_atom_id": "md_dmIS_ex_a026", "md_file": "knowledge_base/domains/IS/examples.md", "md_atom_type": "TABLE_ROW", "md_parent_section": "§IS.2 [Example 2]", "md_verbatim": "| 2 | ABC | IS | ABC-001 | 2 | A42839 | 1 | ADA_BAB | Binding Antidrug Antibody | COAGULATION FACTOR VIII ANALOGUE DRUG | QUANTIFY | ANTIDRUG ANTIBODIES | HUMORAL IMMUNITY | 30 | titer | 30 | 30 | titer | SERUM | ELECTROCHEMILUMINESCENCE IMMUNOASSAY | 1 | VISIT 1 | 2017-07-27 |", "score": 0.4608, "match_basis": "verbatim_token+domain_route:IS"}, {"md_atom_id": "md_dmIS_ex_a032", "md_file": "knowledge_base/domains/IS/examples.md", "md_atom_type": "TABLE_ROW", "md_parent_section": "§IS.2 [Example 2]", "md_verbatim": "| 8 | ABC | IS | ABC-001 | 8 | A42839 | 4 | ADA_NX | Neutralize Cross-React Bind Antidrug Ab | ENDOGENOUS COAGULATION FACTOR VIII | QUANTIFY | ANTIDRUG ANTIBODIES | HUMORAL IMMUNITY | 150 | titer | 150 | 150 | titer | SERUM | HEMAGGLUTINATION INHIBITION ASSAY | 1 | VISIT 1 | 2017-07-27 |", "score": 0.46, "match_basis": "verbatim_token+domain_route:IS"}, {"md_atom_id": "md_dmIS_ex_a059", "md_file": "knowledge_base/domains/IS/examples.md", "md_atom_type": "TABLE_ROW", "md_parent_section": "§IS.4 [Example 4]", "md_verbatim": "| 5 | ABC | IS | ABC-007 | 5 | A1 | | ADA_NAB | Neutralizing Binding Antidrug Antibody | PEGINTERFERON BETA1A | QUANTIFY | ANTIDRUG ANTIBODIES | HUMORAL IMMUNITY | 4.7 | titer | 4.7 | 4.7 | titer | SERUM | REPORTER GENE IMMUNOASSAY | 1 | VISIT 1 | 2017-07-27 |", "score": 0.4591, "match_basis": "verbatim_token+domain_route:IS"}, {"md_atom_id": "md_dmIS_ex_a030", "md_file": "knowledge_base/domains/IS/examples.md", "md_atom_type": "TABLE_ROW", "md_parent_section": "§IS.2 [Example 2]", "md_verbatim": "| 6 | ABC | IS | ABC-001 | 6 | A42839 | 3 | ADA_X | Cross-Reactive Binding Antidrug Antibody | ENDOGENOUS COAGULATION FACTOR VIII | QUANTIFY | ANTIDRUG ANTIBODIES | HUMORAL IMMUNITY | 90 | titer | 90 | 90 | titer | SERUM | ELECTROCHEMILUMINESCENCE IMMUNOASSAY | 1 | VISIT 1 | 2017-07-27 |", "score": 0.4573, "match_basis": "verbatim_token+domain_route:IS"}], "candidate_count": 5, "zero_candidate": false}
{"pdf_atom_id": "ig34_p0231_a002", "pdf_atom_type": "TABLE_ROW", "pdf_source": "SDTMIG_v3.4", "pdf_page": 231, "pdf_parent_section": "§6.3.5.5 Immunogenicity Specimen Assessments (IS)", "pdf_verbatim": "| VISITNUM | Visit Number | Num |  | Timing | Clinical encounter number. Numeric version of VISIT, used for sorting. | Exp |", "figure_ref": null, "candidates": [{"md_atom_id": "md_dmIS_ex_a105", "md_file": "knowledge_base/domains/IS/examples.md", "md_atom_type": "TABLE_ROW", "md_parent_section": "§IS.7 [Example 7]", "md_verbatim": "| 3 | RSV1230 | IS | RSV1230-011 | 3 | 13668 | CYKSCCL | Cytokine-secreting Cells | INTERFERON GAMMA | WITHOUT STIMULATING AGENT | | STUDY VACCINE-RELATED IMMUNOGENICITY | CELLULAR IMMUNITY | 60.8 | SFC/10^6 PBMC | 60.8 | 60.8 | SFC/10^6 PBMC | PERIPHERAL BLOOD MONONUCLEAR CELL | ELISPOT | 2 | VISIT 1 | 2017-06-27 |", "score": 0.4403, "match_basis": "verbatim_token+domain_route:IS"}, {"md_atom_id": "md_dmIS_ex_a106", "md_file": "knowledge_base/domains/IS/examples.md", "md_atom_type": "TABLE_ROW", "md_parent_section": "§IS.7 [Example 7]", "md_verbatim": "| 4 | RSV1230 | IS | RSV1230-011 | 4 | 13668 | CYKSCCL | Cytokine-secreting Cells | INTERFERON GAMMA | WITH STIMULATING AGENT | RSV-EPITOPE B | STUDY VACCINE-RELATED IMMUNOGENICITY | CELLULAR IMMUNITY | 260.5 | SFC/10^6 PBMC | 260.5 | 260.5 | SFC/10^6 PBMC | PERIPHERAL BLOOD MONONUCLEAR CELL | ELISPOT | 2 | VISIT 1 | 2017-06-27 |", "score": 0.4395, "match_basis": "verbatim_token+domain_route:IS"}, {"md_atom_id": "md_dmIS_ex_a013", "md_file": "knowledge_base/domains/IS/examples.md", "md_atom_type": "TABLE_ROW", "md_parent_section": "§IS.1 [Example 1]", "md_verbatim": "| 3 | ABC | IS | ABC-002 | 3 | V555 | 1 | ADA_BAB | Binding Antidrug Antibody | DRUG AZ-007 | QUANTIFY | ANTIDRUG ANTIBODIES | HUMORAL IMMUNITY | 50 | titer | 50 | 50 | titer | SERUM | ELECTROCHEMILUMINESCENCE IMMUNOASSAY | 1 | VISIT 1 | 2017-07-27 |", "score": 0.4365, "match_basis": "verbatim_token+domain_route:IS"}, {"md_atom_id": "md_dmIS_ex_a041", "md_file": "knowledge_base/domains/IS/examples.md", "md_atom_type": "TABLE_ROW", "md_parent_section": "§IS.3 [Example 3]", "md_verbatim": "| 2 | ABC | IS | ABC-004 | 2 | J123 | 1 | ADA_BAB | Binding Antidrug Antibody | PRODRUG A | QUANTIFY | ANTIDRUG ANTIBODIES | HUMORAL IMMUNITY | 30 | titer | 30 | 30 | titer | SERUM | ELECTROCHEMILUMINESCENCE IMMUNOASSAY | 1 | VISIT 1 | 2017-07-27 |", "score": 0.4359, "match_basis": "verbatim_token+domain_route:IS"}, {"md_atom_id": "md_dmIS_ex_a026", "md_file": "knowledge_base/domains/IS/examples.md", "md_atom_type": "TABLE_ROW", "md_parent_section": "§IS.2 [Example 2]", "md_verbatim": "| 2 | ABC | IS | ABC-001 | 2 | A42839 | 1 | ADA_BAB | Binding Antidrug Antibody | COAGULATION FACTOR VIII ANALOGUE DRUG | QUANTIFY | ANTIDRUG ANTIBODIES | HUMORAL IMMUNITY | 30 | titer | 30 | 30 | titer | SERUM | ELECTROCHEMILUMINESCENCE IMMUNOASSAY | 1 | VISIT 1 | 2017-07-27 |", "score": 0.4353, "match_basis": "verbatim_token+domain_route:IS"}], "candidate_count": 5, "zero_candidate": false}
{"pdf_atom_id": "ig34_p0231_a003", "pdf_atom_type": "TABLE_ROW", "pdf_source": "SDTMIG_v3.4", "pdf_page": 231, "pdf_parent_section": "§6.3.5.5 Immunogenicity Specimen Assessments (IS)", "pdf_verbatim": "| VISIT | Visit Name | Char |  | Timing | Protocol-defined description of a clinical encounter. May be used in addition to VISITNUM and/or VISITDY. | Perm |", "figure_ref": null, "candidates": [{"md_atom_id": "md_dmIS_ex_a011", "md_file": "knowledge_base/domains/IS/examples.md", "md_atom_type": "TABLE_ROW", "md_parent_section": "§IS.1 [Example 1]", "md_verbatim": "| 1 | ABC | IS | ABC-002 | 1 | V555 | 1 | ADA_BAB | Binding Antidrug Antibody | DRUG AZ-007 | SCREEN | ANTIDRUG ANTIBODIES | HUMORAL IMMUNITY | POSITIVE | | POSITIVE | | | SERUM | ELECTROCHEMILUMINESCENCE IMMUNOASSAY | 1 | VISIT 1 | 2017-07-27 |", "score": 0.4462, "match_basis": "verbatim_token+domain_route:IS"}, {"md_atom_id": "md_dmIS_ex_a041", "md_file": "knowledge_base/domains/IS/examples.md", "md_atom_type": "TABLE_ROW", "md_parent_section": "§IS.3 [Example 3]", "md_verbatim": "| 2 | ABC | IS | ABC-004 | 2 | J123 | 1 | ADA_BAB | Binding Antidrug Antibody | PRODRUG A | QUANTIFY | ANTIDRUG ANTIBODIES | HUMORAL IMMUNITY | 30 | titer | 30 | 30 | titer | SERUM | ELECTROCHEMILUMINESCENCE IMMUNOASSAY | 1 | VISIT 1 | 2017-07-27 |", "score": 0.4462, "match_basis": "verbatim_token+domain_route:IS"}, {"md_atom_id": "md_dmIS_ex_a040", "md_file": "knowledge_base/domains/IS/examples.md", "md_atom_type": "TABLE_ROW", "md_parent_section": "§IS.3 [Example 3]", "md_verbatim": "| 1 | ABC | IS | ABC-004 | 1 | J123 | 1 | ADA_BAB | Binding Antidrug Antibody | PRODRUG A | CONFIRM | ANTIDRUG ANTIBODIES | HUMORAL IMMUNITY | POSITIVE | | POSITIVE | | | SERUM | ELECTROCHEMILUMINESCENCE IMMUNOASSAY | 1 | VISIT 1 | 2017-07-27 |", "score": 0.4451, "match_basis": "verbatim_token+domain_route:IS"}, {"md_atom_id": "md_dmIS_ex_a026", "md_file": "knowledge_base/domains/IS/examples.md", "md_atom_type": "TABLE_ROW", "md_parent_section": "§IS.2 [Example 2]", "md_verbatim": "| 2 | ABC | IS | ABC-001 | 2 | A42839 | 1 | ADA_BAB | Binding Antidrug Antibody | COAGULATION FACTOR VIII ANALOGUE DRUG | QUANTIFY | ANTIDRUG ANTIBODIES | HUMORAL IMMUNITY | 30 | titer | 30 | 30 | titer | SERUM | ELECTROCHEMILUMINESCENCE IMMUNOASSAY | 1 | VISIT 1 | 2017-07-27 |", "score": 0.4443, "match_basis": "verbatim_token+domain_route:IS"}, {"md_atom_id": "md_dmIS_ex_a025", "md_file": "knowledge_base/domains/IS/examples.md", "md_atom_type": "TABLE_ROW", "md_parent_section": "§IS.2 [Example 2]", "md_verbatim": "| 1 | ABC | IS | ABC-001 | 1 | A42839 | 1 | ADA_BAB | Binding Antidrug Antibody | COAGULATION FACTOR VIII ANALOGUE DRUG | CONFIRM | ANTIDRUG ANTIBODIES | HUMORAL IMMUNITY | POSITIVE | | POSITIVE | | | SERUM | ELECTROCHEMILUMINESCENCE IMMUNOASSAY | 1 | VISIT 1 | 2017-07-27 |", "score": 0.4434, "match_basis": "verbatim_token+domain_route:IS"}], "candidate_count": 5, "zero_candidate": false}
{"pdf_atom_id": "ig34_p0231_a004", "pdf_atom_type": "TABLE_ROW", "pdf_source": "SDTMIG_v3.4", "pdf_page": 231, "pdf_parent_section": "§6.3.5.5 Immunogenicity Specimen Assessments (IS)", "pdf_verbatim": "| VISITDY | Planned Study Day of Visit | Num |  | Timing | Planned study day of the visit based upon RFSTDTC in Demographics. | Perm |", "figure_ref": null, "candidates": [{"md_atom_id": "md_dmIS_ex_a105", "md_file": "knowledge_base/domains/IS/examples.md", "md_atom_type": "TABLE_ROW", "md_parent_section": "§IS.7 [Example 7]", "md_verbatim": "| 3 | RSV1230 | IS | RSV1230-011 | 3 | 13668 | CYKSCCL | Cytokine-secreting Cells | INTERFERON GAMMA | WITHOUT STIMULATING AGENT | | STUDY VACCINE-RELATED IMMUNOGENICITY | CELLULAR IMMUNITY | 60.8 | SFC/10^6 PBMC | 60.8 | 60.8 | SFC/10^6 PBMC | PERIPHERAL BLOOD MONONUCLEAR CELL | ELISPOT | 2 | VISIT 1 | 2017-06-27 |", "score": 0.4362, "match_basis": "verbatim_token+domain_route:IS"}, {"md_atom_id": "md_dmIS_ex_a106", "md_file": "knowledge_base/domains/IS/examples.md", "md_atom_type": "TABLE_ROW", "md_parent_section": "§IS.7 [Example 7]", "md_verbatim": "| 4 | RSV1230 | IS | RSV1230-011 | 4 | 13668 | CYKSCCL | Cytokine-secreting Cells | INTERFERON GAMMA | WITH STIMULATING AGENT | RSV-EPITOPE B | STUDY VACCINE-RELATED IMMUNOGENICITY | CELLULAR IMMUNITY | 260.5 | SFC/10^6 PBMC | 260.5 | 260.5 | SFC/10^6 PBMC | PERIPHERAL BLOOD MONONUCLEAR CELL | ELISPOT | 2 | VISIT 1 | 2017-06-27 |", "score": 0.4355, "match_basis": "verbatim_token+domain_route:IS"}, {"md_atom_id": "md_dmIS_ex_a145", "md_file": "knowledge_base/domains/IS/examples.md", "md_atom_type": "TABLE_ROW", "md_parent_section": "§IS.10 [Example 10]", "md_verbatim": "| 10 | XYZ | IS | XYZ1234 | 10 | 19283746 | 4 | ATAB | Autoantibody | SJOGRENS SS-B ANTIGEN | | SCREEN | POSITIVE | | POSITIVE | | | SERUM | MULTIPLEXED BEAD BASED IMMUNOASSAY | 1 | SCREENING | 2018-06-20 |", "score": 0.433, "match_basis": "verbatim_token+domain_route:IS"}, {"md_atom_id": "md_dmIS_ex_a141", "md_file": "knowledge_base/domains/IS/examples.md", "md_atom_type": "TABLE_ROW", "md_parent_section": "§IS.10 [Example 10]", "md_verbatim": "| 6 | XYZ | IS | XYZ1234 | 6 | 19283746 | 2 | ATAB | Autoantibody | SJOGRENS SS-A60 ANTIGEN | | SCREEN | POSITIVE | | POSITIVE | | | SERUM | MULTIPLEXED BEAD BASED IMMUNOASSAY | 1 | SCREENING | 2018-06-20 |", "score": 0.4327, "match_basis": "verbatim_token+domain_route:IS"}, {"md_atom_id": "md_dmIS_ex_a143", "md_file": "knowledge_base/domains/IS/examples.md", "md_atom_type": "TABLE_ROW", "md_parent_section": "§IS.10 [Example 10]", "md_verbatim": "| 8 | XYZ | IS | XYZ1234 | 8 | 19283746 | 3 | ATAB | Autoantibody | SJOGRENS SS-A52 ANTIGEN | | SCREEN | POSITIVE | | POSITIVE | | | SERUM | MULTIPLEXED BEAD BASED IMMUNOASSAY | 1 | SCREENING | 2018-06-20 |", "score": 0.4327, "match_basis": "verbatim_token+domain_route:IS"}], "candidate_count": 5, "zero_candidate": false}
{"pdf_atom_id": "ig34_p0231_a005", "pdf_atom_type": "TABLE_ROW", "pdf_source": "SDTMIG_v3.4", "pdf_page": 231, "pdf_parent_section": "§6.3.5.5 Immunogenicity Specimen Assessments (IS)", "pdf_verbatim": "| TAETORD | Planned Order of Element within Arm | Num |  | Timing | Number that gives the planned order of the element within the arm. | Perm |", "figure_ref": null, "candidates": [{"md_atom_id": "md_dmIS_ex_a105", "md_file": "knowledge_base/domains/IS/examples.md", "md_atom_type": "TABLE_ROW", "md_parent_section": "§IS.7 [Example 7]", "md_verbatim": "| 3 | RSV1230 | IS | RSV1230-011 | 3 | 13668 | CYKSCCL | Cytokine-secreting Cells | INTERFERON GAMMA | WITHOUT STIMULATING AGENT | | STUDY VACCINE-RELATED IMMUNOGENICITY | CELLULAR IMMUNITY | 60.8 | SFC/10^6 PBMC | 60.8 | 60.8 | SFC/10^6 PBMC | PERIPHERAL BLOOD MONONUCLEAR CELL | ELISPOT | 2 | VISIT 1 | 2017-06-27 |", "score": 0.4243, "match_basis": "verbatim_token+domain_route:IS"}, {"md_atom_id": "md_dmIS_ex_a103", "md_file": "knowledge_base/domains/IS/examples.md", "md_atom_type": "TABLE_ROW", "md_parent_section": "§IS.7 [Example 7]", "md_verbatim": "| 1 | RSV1230 | IS | RSV1230-011 | 1 | 13668 | CYKSCCL | Cytokine-secreting Cells | INTERFERON GAMMA | WITHOUT STIMULATING AGENT | | STUDY VACCINE-RELATED IMMUNOGENICITY | CELLULAR IMMUNITY | 5.1 | SFC/10^6 PBMC | 5.1 | 5.1 | SFC/10^6 PBMC | PERIPHERAL BLOOD MONONUCLEAR CELL | ELISPOT | 1 | BASELINE | 2017-05-27 |", "score": 0.4242, "match_basis": "verbatim_token+domain_route:IS"}, {"md_atom_id": "md_dmIS_ex_a104", "md_file": "knowledge_base/domains/IS/examples.md", "md_atom_type": "TABLE_ROW", "md_parent_section": "§IS.7 [Example 7]", "md_verbatim": "| 2 | RSV1230 | IS | RSV1230-011 | 2 | 13668 | CYKSCCL | Cytokine-secreting Cells | INTERFERON GAMMA | WITH STIMULATING AGENT | RSV-EPITOPE B | STUDY VACCINE-RELATED IMMUNOGENICITY | CELLULAR IMMUNITY | 10.5 | SFC/10^6 PBMC | 10.5 | 10.5 | SFC/10^6 PBMC | PERIPHERAL BLOOD MONONUCLEAR CELL | ELISPOT | 1 | BASELINE | 2017-05-27 |", "score": 0.4238, "match_basis": "verbatim_token+domain_route:IS"}, {"md_atom_id": "md_dmIS_ex_a106", "md_file": "knowledge_base/domains/IS/examples.md", "md_atom_type": "TABLE_ROW", "md_parent_section": "§IS.7 [Example 7]", "md_verbatim": "| 4 | RSV1230 | IS | RSV1230-011 | 4 | 13668 | CYKSCCL | Cytokine-secreting Cells | INTERFERON GAMMA | WITH STIMULATING AGENT | RSV-EPITOPE B | STUDY VACCINE-RELATED IMMUNOGENICITY | CELLULAR IMMUNITY | 260.5 | SFC/10^6 PBMC | 260.5 | 260.5 | SFC/10^6 PBMC | PERIPHERAL BLOOD MONONUCLEAR CELL | ELISPOT | 2 | VISIT 1 | 2017-06-27 |", "score": 0.4238, "match_basis": "verbatim_token+domain_route:IS"}, {"md_atom_id": "md_dmIS_ex_a025", "md_file": "knowledge_base/domains/IS/examples.md", "md_atom_type": "TABLE_ROW", "md_parent_section": "§IS.2 [Example 2]", "md_verbatim": "| 1 | ABC | IS | ABC-001 | 1 | A42839 | 1 | ADA_BAB | Binding Antidrug Antibody | COAGULATION FACTOR VIII ANALOGUE DRUG | CONFIRM | ANTIDRUG ANTIBODIES | HUMORAL IMMUNITY | POSITIVE | | POSITIVE | | | SERUM | ELECTROCHEMILUMINESCENCE IMMUNOASSAY | 1 | VISIT 1 | 2017-07-27 |", "score": 0.4219, "match_basis": "verbatim_token+domain_route:IS"}], "candidate_count": 5, "zero_candidate": false}
{"pdf_atom_id": "ig34_p0231_a006", "pdf_atom_type": "TABLE_ROW", "pdf_source": "SDTMIG_v3.4", "pdf_page": 231, "pdf_parent_section": "§6.3.5.5 Immunogenicity Specimen Assessments (IS)", "pdf_verbatim": "| EPOCH | Epoch | Char | (EPOCH) | Timing | Epoch associated with the start date/time of the observation, or the date/time of collection if start date/time is not collected. | Perm |", "figure_ref": null, "candidates": [{"md_atom_id": "md_dmIS_ex_a030", "md_file": "knowledge_base/domains/IS/examples.md", "md_atom_type": "TABLE_ROW", "md_parent_section": "§IS.2 [Example 2]", "md_verbatim": "| 6 | ABC | IS | ABC-001 | 6 | A42839 | 3 | ADA_X | Cross-Reactive Binding Antidrug Antibody | ENDOGENOUS COAGULATION FACTOR VIII | QUANTIFY | ANTIDRUG ANTIBODIES | HUMORAL IMMUNITY | 90 | titer | 90 | 90 | titer | SERUM | ELECTROCHEMILUMINESCENCE IMMUNOASSAY | 1 | VISIT 1 | 2017-07-27 |", "score": 0.4462, "match_basis": "verbatim_token+domain_route:IS"}, {"md_atom_id": "md_dmIS_ex_a029", "md_file": "knowledge_base/domains/IS/examples.md", "md_atom_type": "TABLE_ROW", "md_parent_section": "§IS.2 [Example 2]", "md_verbatim": "| 5 | ABC | IS | ABC-001 | 5 | A42839 | 3 | ADA_X | Cross-Reactive Binding Antidrug Antibody | ENDOGENOUS COAGULATION FACTOR VIII | CONFIRM | ANTIDRUG ANTIBODIES | HUMORAL IMMUNITY | POSITIVE | | POSITIVE | | | SERUM | ELECTROCHEMILUMINESCENCE IMMUNOASSAY | 1 | VISIT 1 | 2017-07-27 |", "score": 0.4458, "match_basis": "verbatim_token+domain_route:IS"}, {"md_atom_id": "md_dmIS_ex_a026", "md_file": "knowledge_base/domains/IS/examples.md", "md_atom_type": "TABLE_ROW", "md_parent_section": "§IS.2 [Example 2]", "md_verbatim": "| 2 | ABC | IS | ABC-001 | 2 | A42839 | 1 | ADA_BAB | Binding Antidrug Antibody | COAGULATION FACTOR VIII ANALOGUE DRUG | QUANTIFY | ANTIDRUG ANTIBODIES | HUMORAL IMMUNITY | 30 | titer | 30 | 30 | titer | SERUM | ELECTROCHEMILUMINESCENCE IMMUNOASSAY | 1 | VISIT 1 | 2017-07-27 |", "score": 0.4444, "match_basis": "verbatim_token+domain_route:IS"}, {"md_atom_id": "md_dmIS_ex_a025", "md_file": "knowledge_base/domains/IS/examples.md", "md_atom_type": "TABLE_ROW", "md_parent_section": "§IS.2 [Example 2]", "md_verbatim": "| 1 | ABC | IS | ABC-001 | 1 | A42839 | 1 | ADA_BAB | Binding Antidrug Antibody | COAGULATION FACTOR VIII ANALOGUE DRUG | CONFIRM | ANTIDRUG ANTIBODIES | HUMORAL IMMUNITY | POSITIVE | | POSITIVE | | | SERUM | ELECTROCHEMILUMINESCENCE IMMUNOASSAY | 1 | VISIT 1 | 2017-07-27 |", "score": 0.4435, "match_basis": "verbatim_token+domain_route:IS"}, {"md_atom_id": "md_dmIS_ex_a043", "md_file": "knowledge_base/domains/IS/examples.md", "md_atom_type": "TABLE_ROW", "md_parent_section": "§IS.3 [Example 3]", "md_verbatim": "| 4 | ABC | IS | ABC-004 | 4 | J123 | 2 | ADA_BAB | Binding Antidrug Antibody | PRODRUG A ACTIVE METABOLITE | QUANTIFY | ANTIDRUG ANTIBODIES | HUMORAL IMMUNITY | 60 | titer | 60 | 60 | titer | SERUM | ELECTROCHEMILUMINESCENCE IMMUNOASSAY | 1 | VISIT 1 | 2017-07-27 |", "score": 0.4375, "match_basis": "verbatim_token+domain_route:IS"}], "candidate_count": 5, "zero_candidate": false}
{"pdf_atom_id": "ig34_p0231_a007", "pdf_atom_type": "TABLE_ROW", "pdf_source": "SDTMIG_v3.4", "pdf_page": 231, "pdf_parent_section": "§6.3.5.5 Immunogenicity Specimen Assessments (IS)", "pdf_verbatim": "| ISDTC | Date/Time of Collection | Char | ISO 8601 datetime or interval | Timing | Collection date and time of an observation. | Exp |", "figure_ref": null, "candidates": [{"md_atom_id": "md_dmIS_ex_a030", "md_file": "knowledge_base/domains/IS/examples.md", "md_atom_type": "TABLE_ROW", "md_parent_section": "§IS.2 [Example 2]", "md_verbatim": "| 6 | ABC | IS | ABC-001 | 6 | A42839 | 3 | ADA_X | Cross-Reactive Binding Antidrug Antibody | ENDOGENOUS COAGULATION FACTOR VIII | QUANTIFY | ANTIDRUG ANTIBODIES | HUMORAL IMMUNITY | 90 | titer | 90 | 90 | titer | SERUM | ELECTROCHEMILUMINESCENCE IMMUNOASSAY | 1 | VISIT 1 | 2017-07-27 |", "score": 0.4435, "match_basis": "verbatim_token+domain_route:IS"}, {"md_atom_id": "md_dmIS_ex_a060", "md_file": "knowledge_base/domains/IS/examples.md", "md_atom_type": "TABLE_ROW", "md_parent_section": "§IS.4 [Example 4]", "md_verbatim": "| 6 | ABC | IS | ABC-008 | 6 | V4 | | ADA_BAB | Binding Antidrug Antibody | ACTIVE INTERFERON BETA 1A | SCREEN | ANTIDRUG ANTIBODIES | HUMORAL IMMUNITY | NEGATIVE | | NEGATIVE | | | SERUM | IMMUNOASSAY | 1 | VISIT 1 | 2017-08-27 |", "score": 0.442, "match_basis": "verbatim_token+domain_route:IS"}, {"md_atom_id": "md_dmIS_ex_a026", "md_file": "knowledge_base/domains/IS/examples.md", "md_atom_type": "TABLE_ROW", "md_parent_section": "§IS.2 [Example 2]", "md_verbatim": "| 2 | ABC | IS | ABC-001 | 2 | A42839 | 1 | ADA_BAB | Binding Antidrug Antibody | COAGULATION FACTOR VIII ANALOGUE DRUG | QUANTIFY | ANTIDRUG ANTIBODIES | HUMORAL IMMUNITY | 30 | titer | 30 | 30 | titer | SERUM | ELECTROCHEMILUMINESCENCE IMMUNOASSAY | 1 | VISIT 1 | 2017-07-27 |", "score": 0.4415, "match_basis": "verbatim_token+domain_route:IS"}, {"md_atom_id": "md_dmIS_ex_a029", "md_file": "knowledge_base/domains/IS/examples.md", "md_atom_type": "TABLE_ROW", "md_parent_section": "§IS.2 [Example 2]", "md_verbatim": "| 5 | ABC | IS | ABC-001 | 5 | A42839 | 3 | ADA_X | Cross-Reactive Binding Antidrug Antibody | ENDOGENOUS COAGULATION FACTOR VIII | CONFIRM | ANTIDRUG ANTIBODIES | HUMORAL IMMUNITY | POSITIVE | | POSITIVE | | | SERUM | ELECTROCHEMILUMINESCENCE IMMUNOASSAY | 1 | VISIT 1 | 2017-07-27 |", "score": 0.4386, "match_basis": "verbatim_token+domain_route:IS"}, {"md_atom_id": "md_dmIS_ex_a055", "md_file": "knowledge_base/domains/IS/examples.md", "md_atom_type": "TABLE_ROW", "md_parent_section": "§IS.4 [Example 4]", "md_verbatim": "| 1 | ABC | IS | ABC-007 | 1 | A1 | | ADA_BAB | Binding Antidrug Antibody | ACTIVE INTERFERON BETA 1A | SCREEN | ANTIDRUG ANTIBODIES | HUMORAL IMMUNITY | POSITIVE | | POSITIVE | | | SERUM | IMMUNOASSAY | 1 | VISIT 1 | 2017-07-27 |", "score": 0.436, "match_basis": "verbatim_token+domain_route:IS"}], "candidate_count": 5, "zero_candidate": false}
{"pdf_atom_id": "ig34_p0231_a008", "pdf_atom_type": "TABLE_ROW", "pdf_source": "SDTMIG_v3.4", "pdf_page": 231, "pdf_parent_section": "§6.3.5.5 Immunogenicity Specimen Assessments (IS)", "pdf_verbatim": "| ISENDTC | End Date/Time of Specimen Collection | Char | ISO 8601 datetime or interval | Timing | End date/time of the observation. | Perm |", "figure_ref": null, "candidates": [{"md_atom_id": "md_dmIS_ex_a030", "md_file": "knowledge_base/domains/IS/examples.md", "md_atom_type": "TABLE_ROW", "md_parent_section": "§IS.2 [Example 2]", "md_verbatim": "| 6 | ABC | IS | ABC-001 | 6 | A42839 | 3 | ADA_X | Cross-Reactive Binding Antidrug Antibody | ENDOGENOUS COAGULATION FACTOR VIII | QUANTIFY | ANTIDRUG ANTIBODIES | HUMORAL IMMUNITY | 90 | titer | 90 | 90 | titer | SERUM | ELECTROCHEMILUMINESCENCE IMMUNOASSAY | 1 | VISIT 1 | 2017-07-27 |", "score": 0.4455, "match_basis": "verbatim_token+domain_route:IS"}, {"md_atom_id": "md_dmIS_ex_a029", "md_file": "knowledge_base/domains/IS/examples.md", "md_atom_type": "TABLE_ROW", "md_parent_section": "§IS.2 [Example 2]", "md_verbatim": "| 5 | ABC | IS | ABC-001 | 5 | A42839 | 3 | ADA_X | Cross-Reactive Binding Antidrug Antibody | ENDOGENOUS COAGULATION FACTOR VIII | CONFIRM | ANTIDRUG ANTIBODIES | HUMORAL IMMUNITY | POSITIVE | | POSITIVE | | | SERUM | ELECTROCHEMILUMINESCENCE IMMUNOASSAY | 1 | VISIT 1 | 2017-07-27 |", "score": 0.4408, "match_basis": "verbatim_token+domain_route:IS"}, {"md_atom_id": "md_dmIS_ex_a026", "md_file": "knowledge_base/domains/IS/examples.md", "md_atom_type": "TABLE_ROW", "md_parent_section": "§IS.2 [Example 2]", "md_verbatim": "| 2 | ABC | IS | ABC-001 | 2 | A42839 | 1 | ADA_BAB | Binding Antidrug Antibody | COAGULATION FACTOR VIII ANALOGUE DRUG | QUANTIFY | ANTIDRUG ANTIBODIES | HUMORAL IMMUNITY | 30 | titer | 30 | 30 | titer | SERUM | ELECTROCHEMILUMINESCENCE IMMUNOASSAY | 1 | VISIT 1 | 2017-07-27 |", "score": 0.4391, "match_basis": "verbatim_token+domain_route:IS"}, {"md_atom_id": "md_dmIS_ex_a060", "md_file": "knowledge_base/domains/IS/examples.md", "md_atom_type": "TABLE_ROW", "md_parent_section": "§IS.4 [Example 4]", "md_verbatim": "| 6 | ABC | IS | ABC-008 | 6 | V4 | | ADA_BAB | Binding Antidrug Antibody | ACTIVE INTERFERON BETA 1A | SCREEN | ANTIDRUG ANTIBODIES | HUMORAL IMMUNITY | NEGATIVE | | NEGATIVE | | | SERUM | IMMUNOASSAY | 1 | VISIT 1 | 2017-08-27 |", "score": 0.4389, "match_basis": "verbatim_token+domain_route:IS"}, {"md_atom_id": "md_dmIS_ex_a105", "md_file": "knowledge_base/domains/IS/examples.md", "md_atom_type": "TABLE_ROW", "md_parent_section": "§IS.7 [Example 7]", "md_verbatim": "| 3 | RSV1230 | IS | RSV1230-011 | 3 | 13668 | CYKSCCL | Cytokine-secreting Cells | INTERFERON GAMMA | WITHOUT STIMULATING AGENT | | STUDY VACCINE-RELATED IMMUNOGENICITY | CELLULAR IMMUNITY | 60.8 | SFC/10^6 PBMC | 60.8 | 60.8 | SFC/10^6 PBMC | PERIPHERAL BLOOD MONONUCLEAR CELL | ELISPOT | 2 | VISIT 1 | 2017-06-27 |", "score": 0.4353, "match_basis": "verbatim_token+domain_route:IS"}], "candidate_count": 5, "zero_candidate": false}
{"pdf_atom_id": "ig34_p0231_a009", "pdf_atom_type": "TABLE_ROW", "pdf_source": "SDTMIG_v3.4", "pdf_page": 231, "pdf_parent_section": "§6.3.5.5 Immunogenicity Specimen Assessments (IS)", "pdf_verbatim": "| ISDY | Study Day of Visit/Collection/Exam | Num |  | Timing | Actual study day of visit/collection/exam expressed in integer days relative to sponsor-defined RFSTDTC in Demographics. | Perm |", "figure_ref": null, "candidates": [{"md_atom_id": "md_dmIS_ex_a105", "md_file": "knowledge_base/domains/IS/examples.md", "md_atom_type": "TABLE_ROW", "md_parent_section": "§IS.7 [Example 7]", "md_verbatim": "| 3 | RSV1230 | IS | RSV1230-011 | 3 | 13668 | CYKSCCL | Cytokine-secreting Cells | INTERFERON GAMMA | WITHOUT STIMULATING AGENT | | STUDY VACCINE-RELATED IMMUNOGENICITY | CELLULAR IMMUNITY | 60.8 | SFC/10^6 PBMC | 60.8 | 60.8 | SFC/10^6 PBMC | PERIPHERAL BLOOD MONONUCLEAR CELL | ELISPOT | 2 | VISIT 1 | 2017-06-27 |", "score": 0.459, "match_basis": "verbatim_token+domain_route:IS"}, {"md_atom_id": "md_dmIS_ex_a106", "md_file": "knowledge_base/domains/IS/examples.md", "md_atom_type": "TABLE_ROW", "md_parent_section": "§IS.7 [Example 7]", "md_verbatim": "| 4 | RSV1230 | IS | RSV1230-011 | 4 | 13668 | CYKSCCL | Cytokine-secreting Cells | INTERFERON GAMMA | WITH STIMULATING AGENT | RSV-EPITOPE B | STUDY VACCINE-RELATED IMMUNOGENICITY | CELLULAR IMMUNITY | 260.5 | SFC/10^6 PBMC | 260.5 | 260.5 | SFC/10^6 PBMC | PERIPHERAL BLOOD MONONUCLEAR CELL | ELISPOT | 2 | VISIT 1 | 2017-06-27 |", "score": 0.458, "match_basis": "verbatim_token+domain_route:IS"}, {"md_atom_id": "md_dmIS_ex_a030", "md_file": "knowledge_base/domains/IS/examples.md", "md_atom_type": "TABLE_ROW", "md_parent_section": "§IS.2 [Example 2]", "md_verbatim": "| 6 | ABC | IS | ABC-001 | 6 | A42839 | 3 | ADA_X | Cross-Reactive Binding Antidrug Antibody | ENDOGENOUS COAGULATION FACTOR VIII | QUANTIFY | ANTIDRUG ANTIBODIES | HUMORAL IMMUNITY | 90 | titer | 90 | 90 | titer | SERUM | ELECTROCHEMILUMINESCENCE IMMUNOASSAY | 1 | VISIT 1 | 2017-07-27 |", "score": 0.4571, "match_basis": "verbatim_token+domain_route:IS"}, {"md_atom_id": "md_dmIS_ex_a029", "md_file": "knowledge_base/domains/IS/examples.md", "md_atom_type": "TABLE_ROW", "md_parent_section": "§IS.2 [Example 2]", "md_verbatim": "| 5 | ABC | IS | ABC-001 | 5 | A42839 | 3 | ADA_X | Cross-Reactive Binding Antidrug Antibody | ENDOGENOUS COAGULATION FACTOR VIII | CONFIRM | ANTIDRUG ANTIBODIES | HUMORAL IMMUNITY | POSITIVE | | POSITIVE | | | SERUM | ELECTROCHEMILUMINESCENCE IMMUNOASSAY | 1 | VISIT 1 | 2017-07-27 |", "score": 0.4568, "match_basis": "verbatim_token+domain_route:IS"}, {"md_atom_id": "md_dmIS_ex_a025", "md_file": "knowledge_base/domains/IS/examples.md", "md_atom_type": "TABLE_ROW", "md_parent_section": "§IS.2 [Example 2]", "md_verbatim": "| 1 | ABC | IS | ABC-001 | 1 | A42839 | 1 | ADA_BAB | Binding Antidrug Antibody | COAGULATION FACTOR VIII ANALOGUE DRUG | CONFIRM | ANTIDRUG ANTIBODIES | HUMORAL IMMUNITY | POSITIVE | | POSITIVE | | | SERUM | ELECTROCHEMILUMINESCENCE IMMUNOASSAY | 1 | VISIT 1 | 2017-07-27 |", "score": 0.4552, "match_basis": "verbatim_token+domain_route:IS"}], "candidate_count": 5, "zero_candidate": false}
{"pdf_atom_id": "ig34_p0231_a010", "pdf_atom_type": "TABLE_ROW", "pdf_source": "SDTMIG_v3.4", "pdf_page": 231, "pdf_parent_section": "§6.3.5.5 Immunogenicity Specimen Assessments (IS)", "pdf_verbatim": "| ISENDY | Study Day of End of Specimen Collection | Num |  | Timing | Actual study day of end of observation expressed in integer days relative to the sponsor-defined RFSTDTC in Demographics. | Perm |", "figure_ref": null, "candidates": [{"md_atom_id": "md_dmIS_ex_a030", "md_file": "knowledge_base/domains/IS/examples.md", "md_atom_type": "TABLE_ROW", "md_parent_section": "§IS.2 [Example 2]", "md_verbatim": "| 6 | ABC | IS | ABC-001 | 6 | A42839 | 3 | ADA_X | Cross-Reactive Binding Antidrug Antibody | ENDOGENOUS COAGULATION FACTOR VIII | QUANTIFY | ANTIDRUG ANTIBODIES | HUMORAL IMMUNITY | 90 | titer | 90 | 90 | titer | SERUM | ELECTROCHEMILUMINESCENCE IMMUNOASSAY | 1 | VISIT 1 | 2017-07-27 |", "score": 0.4503, "match_basis": "verbatim_token+domain_route:IS"}, {"md_atom_id": "md_dmIS_ex_a029", "md_file": "knowledge_base/domains/IS/examples.md", "md_atom_type": "TABLE_ROW", "md_parent_section": "§IS.2 [Example 2]", "md_verbatim": "| 5 | ABC | IS | ABC-001 | 5 | A42839 | 3 | ADA_X | Cross-Reactive Binding Antidrug Antibody | ENDOGENOUS COAGULATION FACTOR VIII | CONFIRM | ANTIDRUG ANTIBODIES | HUMORAL IMMUNITY | POSITIVE | | POSITIVE | | | SERUM | ELECTROCHEMILUMINESCENCE IMMUNOASSAY | 1 | VISIT 1 | 2017-07-27 |", "score": 0.45, "match_basis": "verbatim_token+domain_route:IS"}, {"md_atom_id": "md_dmIS_ex_a105", "md_file": "knowledge_base/domains/IS/examples.md", "md_atom_type": "TABLE_ROW", "md_parent_section": "§IS.7 [Example 7]", "md_verbatim": "| 3 | RSV1230 | IS | RSV1230-011 | 3 | 13668 | CYKSCCL | Cytokine-secreting Cells | INTERFERON GAMMA | WITHOUT STIMULATING AGENT | | STUDY VACCINE-RELATED IMMUNOGENICITY | CELLULAR IMMUNITY | 60.8 | SFC/10^6 PBMC | 60.8 | 60.8 | SFC/10^6 PBMC | PERIPHERAL BLOOD MONONUCLEAR CELL | ELISPOT | 2 | VISIT 1 | 2017-06-27 |", "score": 0.4452, "match_basis": "verbatim_token+domain_route:IS"}, {"md_atom_id": "md_dmIS_ex_a103", "md_file": "knowledge_base/domains/IS/examples.md", "md_atom_type": "TABLE_ROW", "md_parent_section": "§IS.7 [Example 7]", "md_verbatim": "| 1 | RSV1230 | IS | RSV1230-011 | 1 | 13668 | CYKSCCL | Cytokine-secreting Cells | INTERFERON GAMMA | WITHOUT STIMULATING AGENT | | STUDY VACCINE-RELATED IMMUNOGENICITY | CELLULAR IMMUNITY | 5.1 | SFC/10^6 PBMC | 5.1 | 5.1 | SFC/10^6 PBMC | PERIPHERAL BLOOD MONONUCLEAR CELL | ELISPOT | 1 | BASELINE | 2017-05-27 |", "score": 0.4449, "match_basis": "verbatim_token+domain_route:IS"}, {"md_atom_id": "md_dmIS_ex_a025", "md_file": "knowledge_base/domains/IS/examples.md", "md_atom_type": "TABLE_ROW", "md_parent_section": "§IS.2 [Example 2]", "md_verbatim": "| 1 | ABC | IS | ABC-001 | 1 | A42839 | 1 | ADA_BAB | Binding Antidrug Antibody | COAGULATION FACTOR VIII ANALOGUE DRUG | CONFIRM | ANTIDRUG ANTIBODIES | HUMORAL IMMUNITY | POSITIVE | | POSITIVE | | | SERUM | ELECTROCHEMILUMINESCENCE IMMUNOASSAY | 1 | VISIT 1 | 2017-07-27 |", "score": 0.4446, "match_basis": "verbatim_token+domain_route:IS"}], "candidate_count": 5, "zero_candidate": false}
{"pdf_atom_id": "ig34_p0231_a011", "pdf_atom_type": "TABLE_ROW", "pdf_source": "SDTMIG_v3.4", "pdf_page": 231, "pdf_parent_section": "§6.3.5.5 Immunogenicity Specimen Assessments (IS)", "pdf_verbatim": "| ISTPT | Planned Time Point Name | Char |  | Timing | Text description of time when specimen should be taken. This may be represented as an elapsed time relative to a fixed reference point, such as time of last dose. See ISTPTNUM and ISTPTREF. Examples: \"Start\", \"5 min post\". | Perm |", "figure_ref": null, "candidates": [{"md_atom_id": "md_dmIS_ex_a105", "md_file": "knowledge_base/domains/IS/examples.md", "md_atom_type": "TABLE_ROW", "md_parent_section": "§IS.7 [Example 7]", "md_verbatim": "| 3 | RSV1230 | IS | RSV1230-011 | 3 | 13668 | CYKSCCL | Cytokine-secreting Cells | INTERFERON GAMMA | WITHOUT STIMULATING AGENT | | STUDY VACCINE-RELATED IMMUNOGENICITY | CELLULAR IMMUNITY | 60.8 | SFC/10^6 PBMC | 60.8 | 60.8 | SFC/10^6 PBMC | PERIPHERAL BLOOD MONONUCLEAR CELL | ELISPOT | 2 | VISIT 1 | 2017-06-27 |", "score": 0.441, "match_basis": "verbatim_token+domain_route:IS"}, {"md_atom_id": "md_dmIS_ex_a103", "md_file": "knowledge_base/domains/IS/examples.md", "md_atom_type": "TABLE_ROW", "md_parent_section": "§IS.7 [Example 7]", "md_verbatim": "| 1 | RSV1230 | IS | RSV1230-011 | 1 | 13668 | CYKSCCL | Cytokine-secreting Cells | INTERFERON GAMMA | WITHOUT STIMULATING AGENT | | STUDY VACCINE-RELATED IMMUNOGENICITY | CELLULAR IMMUNITY | 5.1 | SFC/10^6 PBMC | 5.1 | 5.1 | SFC/10^6 PBMC | PERIPHERAL BLOOD MONONUCLEAR CELL | ELISPOT | 1 | BASELINE | 2017-05-27 |", "score": 0.4408, "match_basis": "verbatim_token+domain_route:IS"}, {"md_atom_id": "md_dmIS_ex_a104", "md_file": "knowledge_base/domains/IS/examples.md", "md_atom_type": "TABLE_ROW", "md_parent_section": "§IS.7 [Example 7]", "md_verbatim": "| 2 | RSV1230 | IS | RSV1230-011 | 2 | 13668 | CYKSCCL | Cytokine-secreting Cells | INTERFERON GAMMA | WITH STIMULATING AGENT | RSV-EPITOPE B | STUDY VACCINE-RELATED IMMUNOGENICITY | CELLULAR IMMUNITY | 10.5 | SFC/10^6 PBMC | 10.5 | 10.5 | SFC/10^6 PBMC | PERIPHERAL BLOOD MONONUCLEAR CELL | ELISPOT | 1 | BASELINE | 2017-05-27 |", "score": 0.4373, "match_basis": "verbatim_token+domain_route:IS"}, {"md_atom_id": "md_dmIS_ex_a106", "md_file": "knowledge_base/domains/IS/examples.md", "md_atom_type": "TABLE_ROW", "md_parent_section": "§IS.7 [Example 7]", "md_verbatim": "| 4 | RSV1230 | IS | RSV1230-011 | 4 | 13668 | CYKSCCL | Cytokine-secreting Cells | INTERFERON GAMMA | WITH STIMULATING AGENT | RSV-EPITOPE B | STUDY VACCINE-RELATED IMMUNOGENICITY | CELLULAR IMMUNITY | 260.5 | SFC/10^6 PBMC | 260.5 | 260.5 | SFC/10^6 PBMC | PERIPHERAL BLOOD MONONUCLEAR CELL | ELISPOT | 2 | VISIT 1 | 2017-06-27 |", "score": 0.4373, "match_basis": "verbatim_token+domain_route:IS"}, {"md_atom_id": "md_dmIS_ex_a025", "md_file": "knowledge_base/domains/IS/examples.md", "md_atom_type": "TABLE_ROW", "md_parent_section": "§IS.2 [Example 2]", "md_verbatim": "| 1 | ABC | IS | ABC-001 | 1 | A42839 | 1 | ADA_BAB | Binding Antidrug Antibody | COAGULATION FACTOR VIII ANALOGUE DRUG | CONFIRM | ANTIDRUG ANTIBODIES | HUMORAL IMMUNITY | POSITIVE | | POSITIVE | | | SERUM | ELECTROCHEMILUMINESCENCE IMMUNOASSAY | 1 | VISIT 1 | 2017-07-27 |", "score": 0.4369, "match_basis": "verbatim_token+domain_route:IS"}], "candidate_count": 5, "zero_candidate": false}
{"pdf_atom_id": "ig34_p0231_a012", "pdf_atom_type": "TABLE_ROW", "pdf_source": "SDTMIG_v3.4", "pdf_page": 231, "pdf_parent_section": "§6.3.5.5 Immunogenicity Specimen Assessments (IS)", "pdf_verbatim": "| ISTPTNUM | Planned Time Point Number | Num |  | Timing | Numerical version of ISTPT to aid in sorting. | Perm |", "figure_ref": null, "candidates": [{"md_atom_id": "md_dmIS_ex_a105", "md_file": "knowledge_base/domains/IS/examples.md", "md_atom_type": "TABLE_ROW", "md_parent_section": "§IS.7 [Example 7]", "md_verbatim": "| 3 | RSV1230 | IS | RSV1230-011 | 3 | 13668 | CYKSCCL | Cytokine-secreting Cells | INTERFERON GAMMA | WITHOUT STIMULATING AGENT | | STUDY VACCINE-RELATED IMMUNOGENICITY | CELLULAR IMMUNITY | 60.8 | SFC/10^6 PBMC | 60.8 | 60.8 | SFC/10^6 PBMC | PERIPHERAL BLOOD MONONUCLEAR CELL | ELISPOT | 2 | VISIT 1 | 2017-06-27 |", "score": 0.424, "match_basis": "verbatim_token+domain_route:IS"}, {"md_atom_id": "md_dmIS_ex_a103", "md_file": "knowledge_base/domains/IS/examples.md", "md_atom_type": "TABLE_ROW", "md_parent_section": "§IS.7 [Example 7]", "md_verbatim": "| 1 | RSV1230 | IS | RSV1230-011 | 1 | 13668 | CYKSCCL | Cytokine-secreting Cells | INTERFERON GAMMA | WITHOUT STIMULATING AGENT | | STUDY VACCINE-RELATED IMMUNOGENICITY | CELLULAR IMMUNITY | 5.1 | SFC/10^6 PBMC | 5.1 | 5.1 | SFC/10^6 PBMC | PERIPHERAL BLOOD MONONUCLEAR CELL | ELISPOT | 1 | BASELINE | 2017-05-27 |", "score": 0.4238, "match_basis": "verbatim_token+domain_route:IS"}, {"md_atom_id": "md_dmIS_ex_a104", "md_file": "knowledge_base/domains/IS/examples.md", "md_atom_type": "TABLE_ROW", "md_parent_section": "§IS.7 [Example 7]", "md_verbatim": "| 2 | RSV1230 | IS | RSV1230-011 | 2 | 13668 | CYKSCCL | Cytokine-secreting Cells | INTERFERON GAMMA | WITH STIMULATING AGENT | RSV-EPITOPE B | STUDY VACCINE-RELATED IMMUNOGENICITY | CELLULAR IMMUNITY | 10.5 | SFC/10^6 PBMC | 10.5 | 10.5 | SFC/10^6 PBMC | PERIPHERAL BLOOD MONONUCLEAR CELL | ELISPOT | 1 | BASELINE | 2017-05-27 |", "score": 0.4235, "match_basis": "verbatim_token+domain_route:IS"}, {"md_atom_id": "md_dmIS_ex_a106", "md_file": "knowledge_base/domains/IS/examples.md", "md_atom_type": "TABLE_ROW", "md_parent_section": "§IS.7 [Example 7]", "md_verbatim": "| 4 | RSV1230 | IS | RSV1230-011 | 4 | 13668 | CYKSCCL | Cytokine-secreting Cells | INTERFERON GAMMA | WITH STIMULATING AGENT | RSV-EPITOPE B | STUDY VACCINE-RELATED IMMUNOGENICITY | CELLULAR IMMUNITY | 260.5 | SFC/10^6 PBMC | 260.5 | 260.5 | SFC/10^6 PBMC | PERIPHERAL BLOOD MONONUCLEAR CELL | ELISPOT | 2 | VISIT 1 | 2017-06-27 |", "score": 0.4235, "match_basis": "verbatim_token+domain_route:IS"}, {"md_atom_id": "md_dmIS_ex_a092", "md_file": "knowledge_base/domains/IS/examples.md", "md_atom_type": "TABLE_ROW", "md_parent_section": "§IS.6 [Example 6]", "md_verbatim": "| 1 | INFLA456 | IS | INF02-01 | 1 | SAMPLBC001 | ABSCCL | Antibody-secreting Cells | IGG ANTIBODY | STUDY VACCINE-RELATED IMMUNOGENICITY | HUMORAL IMMUNITY | 2019 | SFC/10^6 PBMC | 2019 | 2019 | SFC/10^6 PBMC | PERIPHERAL BLOOD MONONUCLEAR CELL | ELISPOT | 2011-06-08 |", "score": 0.4178, "match_basis": "verbatim_token+domain_route:IS"}], "candidate_count": 5, "zero_candidate": false}
{"pdf_atom_id": "ig34_p0231_a013", "pdf_atom_type": "TABLE_ROW", "pdf_source": "SDTMIG_v3.4", "pdf_page": 231, "pdf_parent_section": "§6.3.5.5 Immunogenicity Specimen Assessments (IS)", "pdf_verbatim": "| ISELTM | Planned Elapsed Time from Time Point Ref | Char | ISO 8601 duration | Timing | Planned elapsed time (in ISO 8601) relative to a planned fixed reference (ISTPTREF). This variable is useful where there are repetitive measures. Not a clock time or a date/time variable. Represented as ISO 8601 duration. Examples: \"-PT15M\" to represent the period of 15 minutes prior to the reference point indicated by ISTPTREF, \"PT8H\" to represent the period of 8 hours after the reference point indicated by ISTPTREF. | Perm |", "figure_ref": null, "candidates": [{"md_atom_id": "md_dmIS_ex_a103", "md_file": "knowledge_base/domains/IS/examples.md", "md_atom_type": "TABLE_ROW", "md_parent_section": "§IS.7 [Example 7]", "md_verbatim": "| 1 | RSV1230 | IS | RSV1230-011 | 1 | 13668 | CYKSCCL | Cytokine-secreting Cells | INTERFERON GAMMA | WITHOUT STIMULATING AGENT | | STUDY VACCINE-RELATED IMMUNOGENICITY | CELLULAR IMMUNITY | 5.1 | SFC/10^6 PBMC | 5.1 | 5.1 | SFC/10^6 PBMC | PERIPHERAL BLOOD MONONUCLEAR CELL | ELISPOT | 1 | BASELINE | 2017-05-27 |", "score": 0.4504, "match_basis": "verbatim_token+domain_route:IS"}, {"md_atom_id": "md_dmIS_ex_a105", "md_file": "knowledge_base/domains/IS/examples.md", "md_atom_type": "TABLE_ROW", "md_parent_section": "§IS.7 [Example 7]", "md_verbatim": "| 3 | RSV1230 | IS | RSV1230-011 | 3 | 13668 | CYKSCCL | Cytokine-secreting Cells | INTERFERON GAMMA | WITHOUT STIMULATING AGENT | | STUDY VACCINE-RELATED IMMUNOGENICITY | CELLULAR IMMUNITY | 60.8 | SFC/10^6 PBMC | 60.8 | 60.8 | SFC/10^6 PBMC | PERIPHERAL BLOOD MONONUCLEAR CELL | ELISPOT | 2 | VISIT 1 | 2017-06-27 |", "score": 0.4478, "match_basis": "verbatim_token+domain_route:IS"}, {"md_atom_id": "md_dmIS_ex_a104", "md_file": "knowledge_base/domains/IS/examples.md", "md_atom_type": "TABLE_ROW", "md_parent_section": "§IS.7 [Example 7]", "md_verbatim": "| 2 | RSV1230 | IS | RSV1230-011 | 2 | 13668 | CYKSCCL | Cytokine-secreting Cells | INTERFERON GAMMA | WITH STIMULATING AGENT | RSV-EPITOPE B | STUDY VACCINE-RELATED IMMUNOGENICITY | CELLULAR IMMUNITY | 10.5 | SFC/10^6 PBMC | 10.5 | 10.5 | SFC/10^6 PBMC | PERIPHERAL BLOOD MONONUCLEAR CELL | ELISPOT | 1 | BASELINE | 2017-05-27 |", "score": 0.4472, "match_basis": "verbatim_token+domain_route:IS"}, {"md_atom_id": "md_dmIS_ex_a106", "md_file": "knowledge_base/domains/IS/examples.md", "md_atom_type": "TABLE_ROW", "md_parent_section": "§IS.7 [Example 7]", "md_verbatim": "| 4 | RSV1230 | IS | RSV1230-011 | 4 | 13668 | CYKSCCL | Cytokine-secreting Cells | INTERFERON GAMMA | WITH STIMULATING AGENT | RSV-EPITOPE B | STUDY VACCINE-RELATED IMMUNOGENICITY | CELLULAR IMMUNITY | 260.5 | SFC/10^6 PBMC | 260.5 | 260.5 | SFC/10^6 PBMC | PERIPHERAL BLOOD MONONUCLEAR CELL | ELISPOT | 2 | VISIT 1 | 2017-06-27 |", "score": 0.4443, "match_basis": "verbatim_token+domain_route:IS"}, {"md_atom_id": "md_dmIS_ex_a115", "md_file": "knowledge_base/domains/IS/examples.md", "md_atom_type": "TABLE_ROW", "md_parent_section": "§IS.8 [Example 8]", "md_verbatim": "| 1 | RSV1230 | IS | RSV1230-011 | RESPIRATORY SYNCYTIAL VIRUS | 1 | 13668 | MBNAB | Neutralizing Microbial-induced Antibody | RESPIRATORY SYNCYTIAL VIRUS | NEUTRALIZING TITER 50% | STUDY VACCINE-RELATED IMMUNOGENICITY | HUMORAL IMMUNITY | 1:40 | | 40 | 40 | titer | SERUM | MICRONEUTRALIZATION ASSAY | 1 | BASELINE | 2017-05-27 |", "score": 0.44, "match_basis": "verbatim_token+domain_route:IS"}], "candidate_count": 5, "zero_candidate": false}
{"pdf_atom_id": "ig34_p0231_a014", "pdf_atom_type": "TABLE_ROW", "pdf_source": "SDTMIG_v3.4", "pdf_page": 231, "pdf_parent_section": "§6.3.5.5 Immunogenicity Specimen Assessments (IS)", "pdf_verbatim": "| ISTPTREF | Time Point Reference | Char |  | Timing | Name of the fixed reference point referred to by ISELTM, ISTPTNUM, and ISTPT. Examples: \"PREVIOUS DOSE\", \"PREVIOUS MEAL\". | Perm |", "figure_ref": null, "candidates": [{"md_atom_id": "md_dmIS_ex_a103", "md_file": "knowledge_base/domains/IS/examples.md", "md_atom_type": "TABLE_ROW", "md_parent_section": "§IS.7 [Example 7]", "md_verbatim": "| 1 | RSV1230 | IS | RSV1230-011 | 1 | 13668 | CYKSCCL | Cytokine-secreting Cells | INTERFERON GAMMA | WITHOUT STIMULATING AGENT | | STUDY VACCINE-RELATED IMMUNOGENICITY | CELLULAR IMMUNITY | 5.1 | SFC/10^6 PBMC | 5.1 | 5.1 | SFC/10^6 PBMC | PERIPHERAL BLOOD MONONUCLEAR CELL | ELISPOT | 1 | BASELINE | 2017-05-27 |", "score": 0.4214, "match_basis": "verbatim_token+domain_route:IS"}, {"md_atom_id": "md_dmIS_ex_a104", "md_file": "knowledge_base/domains/IS/examples.md", "md_atom_type": "TABLE_ROW", "md_parent_section": "§IS.7 [Example 7]", "md_verbatim": "| 2 | RSV1230 | IS | RSV1230-011 | 2 | 13668 | CYKSCCL | Cytokine-secreting Cells | INTERFERON GAMMA | WITH STIMULATING AGENT | RSV-EPITOPE B | STUDY VACCINE-RELATED IMMUNOGENICITY | CELLULAR IMMUNITY | 10.5 | SFC/10^6 PBMC | 10.5 | 10.5 | SFC/10^6 PBMC | PERIPHERAL BLOOD MONONUCLEAR CELL | ELISPOT | 1 | BASELINE | 2017-05-27 |", "score": 0.4212, "match_basis": "verbatim_token+domain_route:IS"}, {"md_atom_id": "md_dmIS_ex_a144", "md_file": "knowledge_base/domains/IS/examples.md", "md_atom_type": "TABLE_ROW", "md_parent_section": "§IS.10 [Example 10]", "md_verbatim": "| 9 | XYZ | IS | XYZ1234 | 9 | 19283746 | 3 | ATAB | Autoantibody | SJOGRENS SS-A52 ANTIGEN | | QUANTIFY | 51 | U/mL | 51 | 51 | U/mL | SERUM | MULTIPLEXED BEAD BASED IMMUNOASSAY | 1 | SCREENING | 2018-06-20 |", "score": 0.4192, "match_basis": "verbatim_token+domain_route:IS"}, {"md_atom_id": "md_dmIS_ex_a146", "md_file": "knowledge_base/domains/IS/examples.md", "md_atom_type": "TABLE_ROW", "md_parent_section": "§IS.10 [Example 10]", "md_verbatim": "| 11 | XYZ | IS | XYZ1234 | 11 | 19283746 | 4 | ATAB | Autoantibody | SJOGRENS SS-B ANTIGEN | | QUANTIFY | 169 | U/mL | 169 | 169 | U/mL | SERUM | MULTIPLEXED BEAD BASED IMMUNOASSAY | 1 | SCREENING | 2018-06-20 |", "score": 0.4192, "match_basis": "verbatim_token+domain_route:IS"}, {"md_atom_id": "md_dmIS_ex_a142", "md_file": "knowledge_base/domains/IS/examples.md", "md_atom_type": "TABLE_ROW", "md_parent_section": "§IS.10 [Example 10]", "md_verbatim": "| 7 | XYZ | IS | XYZ1234 | 7 | 19283746 | 2 | ATAB | Autoantibody | SJOGRENS SS-A60 ANTIGEN | | QUANTIFY | 181 | U/mL | 181 | 181 | U/mL | SERUM | MULTIPLEXED BEAD BASED IMMUNOASSAY | 1 | SCREENING | 2018-06-20 |", "score": 0.419, "match_basis": "verbatim_token+domain_route:IS"}], "candidate_count": 5, "zero_candidate": false}
{"pdf_atom_id": "ig34_p0231_a015", "pdf_atom_type": "TABLE_ROW", "pdf_source": "SDTMIG_v3.4", "pdf_page": 231, "pdf_parent_section": "§6.3.5.5 Immunogenicity Specimen Assessments (IS)", "pdf_verbatim": "| ISRFTDTC | Date/Time of Reference Time Point | Char | ISO 8601 datetime or interval | Timing | Date/time of the reference time point, ISTPTREF. | Perm |", "figure_ref": null, "candidates": [{"md_atom_id": "md_dmIS_ex_a105", "md_file": "knowledge_base/domains/IS/examples.md", "md_atom_type": "TABLE_ROW", "md_parent_section": "§IS.7 [Example 7]", "md_verbatim": "| 3 | RSV1230 | IS | RSV1230-011 | 3 | 13668 | CYKSCCL | Cytokine-secreting Cells | INTERFERON GAMMA | WITHOUT STIMULATING AGENT | | STUDY VACCINE-RELATED IMMUNOGENICITY | CELLULAR IMMUNITY | 60.8 | SFC/10^6 PBMC | 60.8 | 60.8 | SFC/10^6 PBMC | PERIPHERAL BLOOD MONONUCLEAR CELL | ELISPOT | 2 | VISIT 1 | 2017-06-27 |", "score": 0.436, "match_basis": "verbatim_token+domain_route:IS"}, {"md_atom_id": "md_dmIS_ex_a103", "md_file": "knowledge_base/domains/IS/examples.md", "md_atom_type": "TABLE_ROW", "md_parent_section": "§IS.7 [Example 7]", "md_verbatim": "| 1 | RSV1230 | IS | RSV1230-011 | 1 | 13668 | CYKSCCL | Cytokine-secreting Cells | INTERFERON GAMMA | WITHOUT STIMULATING AGENT | | STUDY VACCINE-RELATED IMMUNOGENICITY | CELLULAR IMMUNITY | 5.1 | SFC/10^6 PBMC | 5.1 | 5.1 | SFC/10^6 PBMC | PERIPHERAL BLOOD MONONUCLEAR CELL | ELISPOT | 1 | BASELINE | 2017-05-27 |", "score": 0.4358, "match_basis": "verbatim_token+domain_route:IS"}, {"md_atom_id": "md_dmIS_ex_a104", "md_file": "knowledge_base/domains/IS/examples.md", "md_atom_type": "TABLE_ROW", "md_parent_section": "§IS.7 [Example 7]", "md_verbatim": "| 2 | RSV1230 | IS | RSV1230-011 | 2 | 13668 | CYKSCCL | Cytokine-secreting Cells | INTERFERON GAMMA | WITH STIMULATING AGENT | RSV-EPITOPE B | STUDY VACCINE-RELATED IMMUNOGENICITY | CELLULAR IMMUNITY | 10.5 | SFC/10^6 PBMC | 10.5 | 10.5 | SFC/10^6 PBMC | PERIPHERAL BLOOD MONONUCLEAR CELL | ELISPOT | 1 | BASELINE | 2017-05-27 |", "score": 0.4353, "match_basis": "verbatim_token+domain_route:IS"}, {"md_atom_id": "md_dmIS_ex_a106", "md_file": "knowledge_base/domains/IS/examples.md", "md_atom_type": "TABLE_ROW", "md_parent_section": "§IS.7 [Example 7]", "md_verbatim": "| 4 | RSV1230 | IS | RSV1230-011 | 4 | 13668 | CYKSCCL | Cytokine-secreting Cells | INTERFERON GAMMA | WITH STIMULATING AGENT | RSV-EPITOPE B | STUDY VACCINE-RELATED IMMUNOGENICITY | CELLULAR IMMUNITY | 260.5 | SFC/10^6 PBMC | 260.5 | 260.5 | SFC/10^6 PBMC | PERIPHERAL BLOOD MONONUCLEAR CELL | ELISPOT | 2 | VISIT 1 | 2017-06-27 |", "score": 0.4353, "match_basis": "verbatim_token+domain_route:IS"}, {"md_atom_id": "md_dmIS_ex_a055", "md_file": "knowledge_base/domains/IS/examples.md", "md_atom_type": "TABLE_ROW", "md_parent_section": "§IS.4 [Example 4]", "md_verbatim": "| 1 | ABC | IS | ABC-007 | 1 | A1 | | ADA_BAB | Binding Antidrug Antibody | ACTIVE INTERFERON BETA 1A | SCREEN | ANTIDRUG ANTIBODIES | HUMORAL IMMUNITY | POSITIVE | | POSITIVE | | | SERUM | IMMUNOASSAY | 1 | VISIT 1 | 2017-07-27 |", "score": 0.4283, "match_basis": "verbatim_token+domain_route:IS"}], "candidate_count": 5, "zero_candidate": false}
{"pdf_atom_id": "ig34_p0231_a016", "pdf_atom_type": "NOTE", "pdf_source": "SDTMIG_v3.4", "pdf_page": 231, "pdf_parent_section": "§6.3.5.5 Immunogenicity Specimen Assessments (IS)", "pdf_verbatim": "1In this column, an asterisk (*) indicates that the variable may be subject to controlled terminology. CDISC/NCI codelist values are enclosed in parentheses.", "figure_ref": null, "candidates": [{"md_atom_id": "md_dmIS_assn_a011", "md_file": "knowledge_base/domains/IS/assumptions.md", "md_atom_type": "LIST_ITEM", "md_parent_section": "§IS [IS — Assumptions]", "md_verbatim": "8. The IS domain variable ISTSTOPO (Test Operational Objective) is supported by a nonextensible Controlled Terminology codelist containing the values SCREEN, CONFIRM, and QUANTIFY.", "score": 0.414, "match_basis": "verbatim_token+domain_route:IS"}, {"md_atom_id": "md_dmIS_assn_a008", "md_file": "knowledge_base/domains/IS/assumptions.md", "md_atom_type": "LIST_ITEM", "md_parent_section": "§IS [IS — Assumptions]", "md_verbatim": "7. The IS domain variable ISBDAGNT (Binding Agent) is currently supported by 2 Controlled Terminology codelists: Microorganism (MICROORG) and Binding Agent for Immunogenicity Tests (ISBDAGT). Controlled Terminology Rules for Immunogenicity Tests describes how and when to use each codelist (see https://www.cdisc.org/standards/terminology/controlled-terminology).", "score": 0.3925, "match_basis": "verbatim_token+domain_route:IS"}, {"md_atom_id": "md_dmIS_ex_a004", "md_file": "knowledge_base/domains/IS/examples.md", "md_atom_type": "SENTENCE", "md_parent_section": "§IS.1 [Example 1]", "md_verbatim": "Tiered testing scheme for ADA evaluation generally includes the following steps: screening, confirmatory, and \"characterization\" of the antidrug antibody. In tier 1, all evaluable samples are run in a screening assay. Samples that are positive for ADA in the screen assay are then analyzed in a confirmatory assay (tier 2). The samples that are positive for ADA in both the screen and confirmatory tiers of testing are further tested in tier 3; this frequently includes analysis of antibody titer and neutralizing activity. In order to illustrate the distinctive differences between the 3 tiers of ADA testing, the standard variable ISTSTOPO is used to represent the controlled values SCREEN, CONFIRM, and QUANTIFY. These values help to describe the operational objective or the reason behind each testing step/tier, and also to provide uniqueness to each row of record. The study drug AZ-007, which induces the subject's production of, and is the target of the antidrug antibody, is represented by the variable ISBDAGNT. ISGRPID is used in this example to show that the records are related to each other; in this particular case, tests are done in a tiered, sequential manner from screen to confirm to quantification of the detected antidrug antibody.", "score": 0.392, "match_basis": "verbatim_token+domain_route:IS"}, {"md_atom_id": "md_dmIS_ex_a068", "md_file": "knowledge_base/domains/IS/examples.md", "md_atom_type": "SENTENCE", "md_parent_section": "§IS.5 [Example 5]", "md_verbatim": "In this example, immune responses against RSV-protein Z were measured during the study. Because protein Z is not inserted into the vaccine vector, any immune response detected toward protein Z was not related to the study vaccine, although important for assessment and collected per the study protocol. In order to show that RSV-protein Z-induced antibody production was unrelated to the immunity solicited by the study vaccine RSV-protein B (ISCAT = \"STUDY VACCINE-RELATED IMMUNOGENICITY\"), the ISCAT for rows 3 and 4 is \"NON-STUDY-RELATED IMMUNOGENICITY\" (note: protein Z and protein B are examples, refer to controlled terminology for standard terms associated with ISBDAGNT).", "score": 0.3872, "match_basis": "verbatim_token+domain_route:IS"}, {"md_atom_id": "md_dmIS_ex_a087", "md_file": "knowledge_base/domains/IS/examples.md", "md_atom_type": "SENTENCE", "md_parent_section": "§IS.6 [Example 6]", "md_verbatim": "**Row 1:** Shows the total number of IgG ASCs from a subject's blood sample. In this case, ISTEST=\"Antibody-secreting Cells\"; the entity secreted by the cells in ISTEST is represented by the variable ISMSCBCE (i.e. IGG antibody non-specific to any antigen).", "score": 0.387, "match_basis": "verbatim_token+domain_route:IS"}], "candidate_count": 5, "zero_candidate": false}
{"pdf_atom_id": "ig34_p0231_a017", "pdf_atom_type": "HEADING", "pdf_source": "SDTMIG_v3.4", "pdf_page": 231, "pdf_parent_section": "§6.3.5.5 Immunogenicity Specimen Assessments (IS)", "pdf_verbatim": "IS – Assumptions", "figure_ref": null, "candidates": [{"md_atom_id": "md_dmIS_assn_a001", "md_file": "knowledge_base/domains/IS/assumptions.md", "md_atom_type": "HEADING", "md_parent_section": "§IS [IS — Assumptions]", "md_verbatim": "# IS — Assumptions", "score": 1.0, "match_basis": "verbatim_token+domain_route:IS"}, {"md_atom_id": "md_dmIS_ex_a001", "md_file": "knowledge_base/domains/IS/examples.md", "md_atom_type": "HEADING", "md_parent_section": "§IS [IS — Examples]", "md_verbatim": "# IS — Examples", "score": 0.4, "match_basis": "verbatim_token+domain_route:IS"}, {"md_atom_id": "md_dmIS_ex_a002", "md_file": "knowledge_base/domains/IS/examples.md", "md_atom_type": "HEADING", "md_parent_section": "§IS [IS — Examples]", "md_verbatim": "## Example 1", "score": 0.4, "match_basis": "verbatim_token+domain_route:IS"}, {"md_atom_id": "md_dmIS_ex_a014", "md_file": "knowledge_base/domains/IS/examples.md", "md_atom_type": "HEADING", "md_parent_section": "§IS [IS — Examples]", "md_verbatim": "## Example 2", "score": 0.4, "match_basis": "verbatim_token+domain_route:IS"}, {"md_atom_id": "md_dmIS_ex_a033", "md_file": "knowledge_base/domains/IS/examples.md", "md_atom_type": "HEADING", "md_parent_section": "§IS [IS — Examples]", "md_verbatim": "## Example 3", "score": 0.4, "match_basis": "verbatim_token+domain_route:IS"}], "candidate_count": 5, "zero_candidate": false}
{"pdf_atom_id": "ig34_p0231_a018", "pdf_atom_type": "LIST_ITEM", "pdf_source": "SDTMIG_v3.4", "pdf_page": 231, "pdf_parent_section": "§6.3.5.5 Immunogenicity Specimen Assessments (IS)", "pdf_verbatim": "1. The Immunogenicity Specimen Assessments (IS) domain holds assessments that describe whether a therapy (e.g., biologic, drug, vaccine) provoked/caused/induced an immune response in a subject. The response can be either positive or negative. For example, a vaccine is expected to induce a beneficial immune response, whereas a cellular therapy (e.g., erythropoiesis-stimulating agents) may cause an adverse immune response.", "figure_ref": null, "candidates": [{"md_atom_id": "md_dmIS_assn_a002", "md_file": "knowledge_base/domains/IS/assumptions.md", "md_atom_type": "LIST_ITEM", "md_parent_section": "§IS [IS — Assumptions]", "md_verbatim": "1. The Immunogenicity Specimen Assessments (IS) domain holds assessments that describe whether a therapy (e.g., biologic, drug, vaccine) provoked/caused/induced an immune response in a subject. The response can be either positive or negative. For example, a vaccine is expected to induce a beneficial immune response, whereas a cellular therapy (e.g., erythropoiesis-stimulating agents) may cause an adverse immune response.", "score": 1.0, "match_basis": "verbatim_token+domain_route:IS"}, {"md_atom_id": "md_dmIS_assn_a003", "md_file": "knowledge_base/domains/IS/assumptions.md", "md_atom_type": "LIST_ITEM", "md_parent_section": "§IS [IS — Assumptions]", "md_verbatim": "2. The IS domain also holds assessments that describe whether an allergen, microorganism, or endogenous molecule provoked/caused/induced an immune response in a subject, such as a subject's antibody reaction (autoantibodies) against auto/self-antigens for autoimmune studies or antibody production in response to allergens in allergy tests. Expected outputs can be positive or negative, present or absent for the antibody of interest, as well as quantification of the antibody. Assessments pertaining to antibodies produced in response to microbial infection will also be represented in the IS domain.", "score": 0.5962, "match_basis": "verbatim_token+domain_route:IS"}, {"md_atom_id": "md_dmIS_assn_a006", "md_file": "knowledge_base/domains/IS/assumptions.md", "md_atom_type": "LIST_ITEM", "md_parent_section": "§IS [IS — Assumptions]", "md_verbatim": "5. An exception is made to the class of antigen/antibody (Ag/Ab) combination assays. Microbial antigen/antibody (Ag/Ab) combination tests should be represented in the Microbiology Specimen (MB) domain. An example is fourth-generation HIV Ag/Ab combination tests, which are commonly seen as HIV identification or detection assays rather than tests that provide additional details on and characterization of a subject's immunological responses. The outputs of these assays can be expected as reactive, non-reactive, or indeterminate. Whereas some tests generate separate outputs for antigen and antibody, others just indicate \"reactive\" when either or both are detected. Output is generally based on relative light units, where a result of \"reactive\" typically requires the signal to cutoff ratio to be greater than 1.", "score": 0.5338, "match_basis": "verbatim_token+domain_route:IS"}, {"md_atom_id": "md_dmIS_assn_a016", "md_file": "knowledge_base/domains/IS/assumptions.md", "md_atom_type": "LIST_ITEM", "md_parent_section": "§IS [IS — Assumptions]", "md_verbatim": "   d. For assessments measuring the induced-cellular response, ISSCAT = CELLULAR IMMUNITY.", "score": 0.5236, "match_basis": "verbatim_token+domain_route:IS"}, {"md_atom_id": "md_dmIS_assn_a014", "md_file": "knowledge_base/domains/IS/assumptions.md", "md_atom_type": "LIST_ITEM", "md_parent_section": "§IS [IS — Assumptions]", "md_verbatim": "   b. For immunological data collected during the vaccine trial but which are not assessments about the study vaccine, ISCAT = NON-STUDY-RELATED IMMUNOGENICITY.", "score": 0.5219, "match_basis": "verbatim_token+domain_route:IS"}], "candidate_count": 5, "zero_candidate": false}
{"pdf_atom_id": "ig34_p0231_a019", "pdf_atom_type": "LIST_ITEM", "pdf_source": "SDTMIG_v3.4", "pdf_page": 231, "pdf_parent_section": "§6.3.5.5 Immunogenicity Specimen Assessments (IS)", "pdf_verbatim": "2. The IS domain also holds assessments that describe whether an allergen, microorganism, or endogenous molecule provoked/caused/induced an immune response in a subject, such as a subject's antibody reaction (autoantibodies) against auto/self-antigens for autoimmune studies or antibody production in response to allergens in allergy trials. Expected outputs can be positive or negative, present or absent for the antibody of interest, as well as quantification of the antibody. Assessments pertaining to antibodies produced in response to microbial infection will also be represented in the IS domain.", "figure_ref": null, "candidates": [{"md_atom_id": "md_dmIS_assn_a003", "md_file": "knowledge_base/domains/IS/assumptions.md", "md_atom_type": "LIST_ITEM", "md_parent_section": "§IS [IS — Assumptions]", "md_verbatim": "2. The IS domain also holds assessments that describe whether an allergen, microorganism, or endogenous molecule provoked/caused/induced an immune response in a subject, such as a subject's antibody reaction (autoantibodies) against auto/self-antigens for autoimmune studies or antibody production in response to allergens in allergy tests. Expected outputs can be positive or negative, present or absent for the antibody of interest, as well as quantification of the antibody. Assessments pertaining to antibodies produced in response to microbial infection will also be represented in the IS domain.", "score": 0.9876, "match_basis": "verbatim_token+domain_route:IS"}, {"md_atom_id": "md_dmIS_assn_a002", "md_file": "knowledge_base/domains/IS/assumptions.md", "md_atom_type": "LIST_ITEM", "md_parent_section": "§IS [IS — Assumptions]", "md_verbatim": "1. The Immunogenicity Specimen Assessments (IS) domain holds assessments that describe whether a therapy (e.g., biologic, drug, vaccine) provoked/caused/induced an immune response in a subject. The response can be either positive or negative. For example, a vaccine is expected to induce a beneficial immune response, whereas a cellular therapy (e.g., erythropoiesis-stimulating agents) may cause an adverse immune response.", "score": 0.5962, "match_basis": "verbatim_token+domain_route:IS"}, {"md_atom_id": "md_dmIS_assn_a004", "md_file": "knowledge_base/domains/IS/assumptions.md", "md_atom_type": "LIST_ITEM", "md_parent_section": "§IS [IS — Assumptions]", "md_verbatim": "3. Assessments about all other types of \"induced\" humoral (antibody) immune response in a subject (e.g., antibodies against human leukocyte antigen (HLA) proteins) will also be represented in the IS domain.", "score": 0.5806, "match_basis": "verbatim_token+domain_route:IS"}, {"md_atom_id": "md_dmIS_assn_a006", "md_file": "knowledge_base/domains/IS/assumptions.md", "md_atom_type": "LIST_ITEM", "md_parent_section": "§IS [IS — Assumptions]", "md_verbatim": "5. An exception is made to the class of antigen/antibody (Ag/Ab) combination assays. Microbial antigen/antibody (Ag/Ab) combination tests should be represented in the Microbiology Specimen (MB) domain. An example is fourth-generation HIV Ag/Ab combination tests, which are commonly seen as HIV identification or detection assays rather than tests that provide additional details on and characterization of a subject's immunological responses. The outputs of these assays can be expected as reactive, non-reactive, or indeterminate. Whereas some tests generate separate outputs for antigen and antibody, others just indicate \"reactive\" when either or both are detected. Output is generally based on relative light units, where a result of \"reactive\" typically requires the signal to cutoff ratio to be greater than 1.", "score": 0.554, "match_basis": "verbatim_token+domain_route:IS"}, {"md_atom_id": "md_dmIS_assn_a015", "md_file": "knowledge_base/domains/IS/assumptions.md", "md_atom_type": "LIST_ITEM", "md_parent_section": "§IS [IS — Assumptions]", "md_verbatim": "   c. For assessments measuring the induced-antibody response, ISSCAT = HUMORAL IMMUNITY.", "score": 0.4952, "match_basis": "verbatim_token+domain_route:IS"}], "candidate_count": 5, "zero_candidate": false}
{"pdf_atom_id": "ig34_p0232_a001", "pdf_atom_type": "LIST_ITEM", "pdf_source": "SDTMIG_v3.4", "pdf_page": 232, "pdf_parent_section": "§6.3.5.5 Immunogenicity Specimen Assessments (IS)", "pdf_verbatim": "3. Assessments about all other types of \"induced\" humoral (antibody) immune response in a subject (e.g., antibodies against human leukocyte antigen (HLA) proteins) will also be represented in the IS domain.", "figure_ref": null, "candidates": [{"md_atom_id": "md_dmIS_assn_a004", "md_file": "knowledge_base/domains/IS/assumptions.md", "md_atom_type": "LIST_ITEM", "md_parent_section": "§IS [IS — Assumptions]", "md_verbatim": "3. Assessments about all other types of \"induced\" humoral (antibody) immune response in a subject (e.g., antibodies against human leukocyte antigen (HLA) proteins) will also be represented in the IS domain.", "score": 1.0, "match_basis": "verbatim_token+domain_route:IS"}, {"md_atom_id": "md_dmIS_assn_a015", "md_file": "knowledge_base/domains/IS/assumptions.md", "md_atom_type": "LIST_ITEM", "md_parent_section": "§IS [IS — Assumptions]", "md_verbatim": "   c. For assessments measuring the induced-antibody response, ISSCAT = HUMORAL IMMUNITY.", "score": 0.6, "match_basis": "verbatim_token+domain_route:IS"}, {"md_atom_id": "md_dmIS_assn_a003", "md_file": "knowledge_base/domains/IS/assumptions.md", "md_atom_type": "LIST_ITEM", "md_parent_section": "§IS [IS — Assumptions]", "md_verbatim": "2. The IS domain also holds assessments that describe whether an allergen, microorganism, or endogenous molecule provoked/caused/induced an immune response in a subject, such as a subject's antibody reaction (autoantibodies) against auto/self-antigens for autoimmune studies or antibody production in response to allergens in allergy tests. Expected outputs can be positive or negative, present or absent for the antibody of interest, as well as quantification of the antibody. Assessments pertaining to antibodies produced in response to microbial infection will also be represented in the IS domain.", "score": 0.5806, "match_basis": "verbatim_token+domain_route:IS"}, {"md_atom_id": "md_dmIS_assn_a016", "md_file": "knowledge_base/domains/IS/assumptions.md", "md_atom_type": "LIST_ITEM", "md_parent_section": "§IS [IS — Assumptions]", "md_verbatim": "   d. For assessments measuring the induced-cellular response, ISSCAT = CELLULAR IMMUNITY.", "score": 0.5297, "match_basis": "verbatim_token+domain_route:IS"}, {"md_atom_id": "md_dmIS_assn_a007", "md_file": "knowledge_base/domains/IS/assumptions.md", "md_atom_type": "LIST_ITEM", "md_parent_section": "§IS [IS — Assumptions]", "md_verbatim": "6. Measurements of cytokines, chemokines, and complement proteins should be represented in the Laboratory Test Results (LB) domain.", "score": 0.5163, "match_basis": "verbatim_token+domain_route:IS"}], "candidate_count": 5, "zero_candidate": false}
{"pdf_atom_id": "ig34_p0232_a002", "pdf_atom_type": "LIST_ITEM", "pdf_source": "SDTMIG_v3.4", "pdf_page": 232, "pdf_parent_section": "§6.3.5.5 Immunogenicity Specimen Assessments (IS)", "pdf_verbatim": "4. Certain types of cellular immune responses will also be modeled in IS using non-flow cytometry techniques (see example 6). Flow cytometry data should be modeled in the Cell Phenotype Findings (CP) domain, section 6.3.5.3.", "figure_ref": null, "candidates": [{"md_atom_id": "md_dmIS_assn_a005", "md_file": "knowledge_base/domains/IS/assumptions.md", "md_atom_type": "LIST_ITEM", "md_parent_section": "§IS [IS — Assumptions]", "md_verbatim": "4. Certain types of cellular immune responses will also be modeled in IS using non-flow cytometry techniques (see example 6). Flow cytometry data should be modeled in the Cell Phenotype Findings (CP) domain, section 6.3.5.3.", "score": 1.0, "match_basis": "verbatim_token+domain_route:IS"}, {"md_atom_id": "md_dmIS_assn_a004", "md_file": "knowledge_base/domains/IS/assumptions.md", "md_atom_type": "LIST_ITEM", "md_parent_section": "§IS [IS — Assumptions]", "md_verbatim": "3. Assessments about all other types of \"induced\" humoral (antibody) immune response in a subject (e.g., antibodies against human leukocyte antigen (HLA) proteins) will also be represented in the IS domain.", "score": 0.504, "match_basis": "verbatim_token+domain_route:IS"}, {"md_atom_id": "md_dmIS_assn_a016", "md_file": "knowledge_base/domains/IS/assumptions.md", "md_atom_type": "LIST_ITEM", "md_parent_section": "§IS [IS — Assumptions]", "md_verbatim": "   d. For assessments measuring the induced-cellular response, ISSCAT = CELLULAR IMMUNITY.", "score": 0.5018, "match_basis": "verbatim_token+domain_route:IS"}, {"md_atom_id": "md_dmIS_assn_a002", "md_file": "knowledge_base/domains/IS/assumptions.md", "md_atom_type": "LIST_ITEM", "md_parent_section": "§IS [IS — Assumptions]", "md_verbatim": "1. The Immunogenicity Specimen Assessments (IS) domain holds assessments that describe whether a therapy (e.g., biologic, drug, vaccine) provoked/caused/induced an immune response in a subject. The response can be either positive or negative. For example, a vaccine is expected to induce a beneficial immune response, whereas a cellular therapy (e.g., erythropoiesis-stimulating agents) may cause an adverse immune response.", "score": 0.4857, "match_basis": "verbatim_token+domain_route:IS"}, {"md_atom_id": "md_dmIS_assn_a012", "md_file": "knowledge_base/domains/IS/assumptions.md", "md_atom_type": "LIST_ITEM", "md_parent_section": "§IS [IS — Assumptions]", "md_verbatim": "9. For vaccine studies, in order to distinguish collected data between study vaccine-induced immunogenicity and immunogenicity findings unrelated to the study vaccine (i.e., immunity as a result of natural infection or previous vaccination), the following ISCAT and ISSCAT values are recommended (see example 5):", "score": 0.482, "match_basis": "verbatim_token+domain_route:IS"}], "candidate_count": 5, "zero_candidate": false}
{"pdf_atom_id": "ig34_p0232_a003", "pdf_atom_type": "LIST_ITEM", "pdf_source": "SDTMIG_v3.4", "pdf_page": 232, "pdf_parent_section": "§6.3.5.5 Immunogenicity Specimen Assessments (IS)", "pdf_verbatim": "5. An exception is made to the class of antigen/antibody (Ag/Ab) combination assays. Microbial antigen/antibody (Ag/Ab) combination tests should be represented in the Microbiology Specimen (MB) domain. An example is fourth-generation HIV Ag/Ab combination tests, which are commonly seen as HIV identification or detection assays rather than tests that provide additional details on and characterization of a subject's immunological responses. The outputs of these assays can be expected as reactive, non-reactive, or indeterminate. Whereas some tests generate separate outputs for antigen and antibody, others just indicate \"reactive\" when either or both are detected. Output is generally based on relative light units, where a result of \"reactive\" typically requires the signal to cutoff ratio to be greater than 1.", "figure_ref": null, "candidates": [{"md_atom_id": "md_dmIS_assn_a006", "md_file": "knowledge_base/domains/IS/assumptions.md", "md_atom_type": "LIST_ITEM", "md_parent_section": "§IS [IS — Assumptions]", "md_verbatim": "5. An exception is made to the class of antigen/antibody (Ag/Ab) combination assays. Microbial antigen/antibody (Ag/Ab) combination tests should be represented in the Microbiology Specimen (MB) domain. An example is fourth-generation HIV Ag/Ab combination tests, which are commonly seen as HIV identification or detection assays rather than tests that provide additional details on and characterization of a subject's immunological responses. The outputs of these assays can be expected as reactive, non-reactive, or indeterminate. Whereas some tests generate separate outputs for antigen and antibody, others just indicate \"reactive\" when either or both are detected. Output is generally based on relative light units, where a result of \"reactive\" typically requires the signal to cutoff ratio to be greater than 1.", "score": 1.0, "match_basis": "verbatim_token+domain_route:IS"}, {"md_atom_id": "md_dmIS_assn_a003", "md_file": "knowledge_base/domains/IS/assumptions.md", "md_atom_type": "LIST_ITEM", "md_parent_section": "§IS [IS — Assumptions]", "md_verbatim": "2. The IS domain also holds assessments that describe whether an allergen, microorganism, or endogenous molecule provoked/caused/induced an immune response in a subject, such as a subject's antibody reaction (autoantibodies) against auto/self-antigens for autoimmune studies or antibody production in response to allergens in allergy tests. Expected outputs can be positive or negative, present or absent for the antibody of interest, as well as quantification of the antibody. Assessments pertaining to antibodies produced in response to microbial infection will also be represented in the IS domain.", "score": 0.5586, "match_basis": "verbatim_token+domain_route:IS"}, {"md_atom_id": "md_dmIS_assn_a002", "md_file": "knowledge_base/domains/IS/assumptions.md", "md_atom_type": "LIST_ITEM", "md_parent_section": "§IS [IS — Assumptions]", "md_verbatim": "1. The Immunogenicity Specimen Assessments (IS) domain holds assessments that describe whether a therapy (e.g., biologic, drug, vaccine) provoked/caused/induced an immune response in a subject. The response can be either positive or negative. For example, a vaccine is expected to induce a beneficial immune response, whereas a cellular therapy (e.g., erythropoiesis-stimulating agents) may cause an adverse immune response.", "score": 0.5338, "match_basis": "verbatim_token+domain_route:IS"}, {"md_atom_id": "md_dmIS_assn_a004", "md_file": "knowledge_base/domains/IS/assumptions.md", "md_atom_type": "LIST_ITEM", "md_parent_section": "§IS [IS — Assumptions]", "md_verbatim": "3. Assessments about all other types of \"induced\" humoral (antibody) immune response in a subject (e.g., antibodies against human leukocyte antigen (HLA) proteins) will also be represented in the IS domain.", "score": 0.5033, "match_basis": "verbatim_token+domain_route:IS"}, {"md_atom_id": "md_dmIS_assn_a009", "md_file": "knowledge_base/domains/IS/assumptions.md", "md_atom_type": "LIST_ITEM", "md_parent_section": "§IS [IS — Assumptions]", "md_verbatim": "   a. For antidrug antibody (ADA) tests, the ISBDAGNT variable is used to represent the free-text description of the name/identity of the therapy the antidrug antibody targets. CDISC does not control study therapy names (e.g., drugs, biologics). For ADA tests as a part of regulatory agency submissions, the proprietary binding study therapy name(s) should be considered as extended values of the ISBDAGT codelist when represented in Define-XML.", "score": 0.4931, "match_basis": "verbatim_token+domain_route:IS"}], "candidate_count": 5, "zero_candidate": false}
{"pdf_atom_id": "ig34_p0232_a004", "pdf_atom_type": "LIST_ITEM", "pdf_source": "SDTMIG_v3.4", "pdf_page": 232, "pdf_parent_section": "§6.3.5.5 Immunogenicity Specimen Assessments (IS)", "pdf_verbatim": "6. Measurements of cytokines, chemokines, and complement proteins should be represented in the Laboratory Test Results (LB) domain.", "figure_ref": null, "candidates": [{"md_atom_id": "md_dmIS_assn_a007", "md_file": "knowledge_base/domains/IS/assumptions.md", "md_atom_type": "LIST_ITEM", "md_parent_section": "§IS [IS — Assumptions]", "md_verbatim": "6. Measurements of cytokines, chemokines, and complement proteins should be represented in the Laboratory Test Results (LB) domain.", "score": 1.0, "match_basis": "verbatim_token+domain_route:IS"}, {"md_atom_id": "md_dmIS_assn_a004", "md_file": "knowledge_base/domains/IS/assumptions.md", "md_atom_type": "LIST_ITEM", "md_parent_section": "§IS [IS — Assumptions]", "md_verbatim": "3. Assessments about all other types of \"induced\" humoral (antibody) immune response in a subject (e.g., antibodies against human leukocyte antigen (HLA) proteins) will also be represented in the IS domain.", "score": 0.5163, "match_basis": "verbatim_token+domain_route:IS"}, {"md_atom_id": "md_dmIS_assn_a006", "md_file": "knowledge_base/domains/IS/assumptions.md", "md_atom_type": "LIST_ITEM", "md_parent_section": "§IS [IS — Assumptions]", "md_verbatim": "5. An exception is made to the class of antigen/antibody (Ag/Ab) combination assays. Microbial antigen/antibody (Ag/Ab) combination tests should be represented in the Microbiology Specimen (MB) domain. An example is fourth-generation HIV Ag/Ab combination tests, which are commonly seen as HIV identification or detection assays rather than tests that provide additional details on and characterization of a subject's immunological responses. The outputs of these assays can be expected as reactive, non-reactive, or indeterminate. Whereas some tests generate separate outputs for antigen and antibody, others just indicate \"reactive\" when either or both are detected. Output is generally based on relative light units, where a result of \"reactive\" typically requires the signal to cutoff ratio to be greater than 1.", "score": 0.4707, "match_basis": "verbatim_token+domain_route:IS"}, {"md_atom_id": "md_dmIS_assn_a010", "md_file": "knowledge_base/domains/IS/assumptions.md", "md_atom_type": "LIST_ITEM", "md_parent_section": "§IS [IS — Assumptions]", "md_verbatim": "   b. For mixed-allergens panel tests, submission values represented in the ISBDAGNT variable should follow this format: \"XXX, Multiple\" (e.g., Dairy Mix Antigens, Multiple; Animal Mix Antigens, Multiple; use the plural form for the word \"antigen\" if needed). Should the sponsor wish to specify the individual antigens in a mixed antigen panel (e.g., ISBDAGNT = \"Animal Mix Antigens, Multiple\"), put the names of the specific antigens in Suppqual (e.g., Cat, Dog, Cow, Horse; see example 11).", "score": 0.4633, "match_basis": "verbatim_token+domain_route:IS"}, {"md_atom_id": "md_dmIS_assn_a009", "md_file": "knowledge_base/domains/IS/assumptions.md", "md_atom_type": "LIST_ITEM", "md_parent_section": "§IS [IS — Assumptions]", "md_verbatim": "   a. For antidrug antibody (ADA) tests, the ISBDAGNT variable is used to represent the free-text description of the name/identity of the therapy the antidrug antibody targets. CDISC does not control study therapy names (e.g., drugs, biologics). For ADA tests as a part of regulatory agency submissions, the proprietary binding study therapy name(s) should be considered as extended values of the ISBDAGT codelist when represented in Define-XML.", "score": 0.463, "match_basis": "verbatim_token+domain_route:IS"}], "candidate_count": 5, "zero_candidate": false}
{"pdf_atom_id": "ig34_p0232_a005", "pdf_atom_type": "LIST_ITEM", "pdf_source": "SDTMIG_v3.4", "pdf_page": 232, "pdf_parent_section": "§6.3.5.5 Immunogenicity Specimen Assessments (IS)", "pdf_verbatim": "7. The IS domain variable ISBDAGNT (Binding Agent) is currently supported by 2 Controlled Terminology codelists: Microorganism (MICROORG) and Binding Agent for Immunogenicity Tests (ISBDAGT). Controlled Terminology Rules for Immunogenicity Tests describes how and when to use each codelist (see https://www.cdisc.org/standards/terminology/controlled-terminology).", "figure_ref": null, "candidates": [{"md_atom_id": "md_dmIS_assn_a008", "md_file": "knowledge_base/domains/IS/assumptions.md", "md_atom_type": "LIST_ITEM", "md_parent_section": "§IS [IS — Assumptions]", "md_verbatim": "7. The IS domain variable ISBDAGNT (Binding Agent) is currently supported by 2 Controlled Terminology codelists: Microorganism (MICROORG) and Binding Agent for Immunogenicity Tests (ISBDAGT). Controlled Terminology Rules for Immunogenicity Tests describes how and when to use each codelist (see https://www.cdisc.org/standards/terminology/controlled-terminology).", "score": 1.0, "match_basis": "verbatim_token+domain_route:IS"}, {"md_atom_id": "md_dmIS_assn_a011", "md_file": "knowledge_base/domains/IS/assumptions.md", "md_atom_type": "LIST_ITEM", "md_parent_section": "§IS [IS — Assumptions]", "md_verbatim": "8. The IS domain variable ISTSTOPO (Test Operational Objective) is supported by a nonextensible Controlled Terminology codelist containing the values SCREEN, CONFIRM, and QUANTIFY.", "score": 0.5659, "match_basis": "verbatim_token+domain_route:IS"}, {"md_atom_id": "md_dmIS_assn_a009", "md_file": "knowledge_base/domains/IS/assumptions.md", "md_atom_type": "LIST_ITEM", "md_parent_section": "§IS [IS — Assumptions]", "md_verbatim": "   a. For antidrug antibody (ADA) tests, the ISBDAGNT variable is used to represent the free-text description of the name/identity of the therapy the antidrug antibody targets. CDISC does not control study therapy names (e.g., drugs, biologics). For ADA tests as a part of regulatory agency submissions, the proprietary binding study therapy name(s) should be considered as extended values of the ISBDAGT codelist when represented in Define-XML.", "score": 0.536, "match_basis": "verbatim_token+domain_route:IS"}, {"md_atom_id": "md_dmIS_assn_a003", "md_file": "knowledge_base/domains/IS/assumptions.md", "md_atom_type": "LIST_ITEM", "md_parent_section": "§IS [IS — Assumptions]", "md_verbatim": "2. The IS domain also holds assessments that describe whether an allergen, microorganism, or endogenous molecule provoked/caused/induced an immune response in a subject, such as a subject's antibody reaction (autoantibodies) against auto/self-antigens for autoimmune studies or antibody production in response to allergens in allergy tests. Expected outputs can be positive or negative, present or absent for the antibody of interest, as well as quantification of the antibody. Assessments pertaining to antibodies produced in response to microbial infection will also be represented in the IS domain.", "score": 0.4914, "match_basis": "verbatim_token+domain_route:IS"}, {"md_atom_id": "md_dmIS_assn_a013", "md_file": "knowledge_base/domains/IS/assumptions.md", "md_atom_type": "LIST_ITEM", "md_parent_section": "§IS [IS — Assumptions]", "md_verbatim": "   a. For immunological data pertaining to the study vaccine, ISCAT = STUDY VACCINE-RELATED IMMUNOGENICITY.", "score": 0.4869, "match_basis": "verbatim_token+domain_route:IS"}], "candidate_count": 5, "zero_candidate": false}
{"pdf_atom_id": "ig34_p0232_a006", "pdf_atom_type": "LIST_ITEM", "pdf_source": "SDTMIG_v3.4", "pdf_page": 232, "pdf_parent_section": "§6.3.5.5 Immunogenicity Specimen Assessments (IS)", "pdf_verbatim": "a. For antidrug antibody (ADA) tests, the ISBDAGNT variable is used to represent the free-text description of the name/identity of the therapy the antidrug antibody targets. CDISC does not control study therapy names (e.g., drugs, biologics). For ADA tests as a part of regulatory agency submissions, the proprietary binding study therapy name(s) should be considered as extended values of the ISBDAGT codelist when represented in Define-XML.", "figure_ref": null, "candidates": [{"md_atom_id": "md_dmIS_assn_a009", "md_file": "knowledge_base/domains/IS/assumptions.md", "md_atom_type": "LIST_ITEM", "md_parent_section": "§IS [IS — Assumptions]", "md_verbatim": "   a. For antidrug antibody (ADA) tests, the ISBDAGNT variable is used to represent the free-text description of the name/identity of the therapy the antidrug antibody targets. CDISC does not control study therapy names (e.g., drugs, biologics). For ADA tests as a part of regulatory agency submissions, the proprietary binding study therapy name(s) should be considered as extended values of the ISBDAGT codelist when represented in Define-XML.", "score": 1.0, "match_basis": "verbatim_token+domain_route:IS"}, {"md_atom_id": "md_dmIS_assn_a010", "md_file": "knowledge_base/domains/IS/assumptions.md", "md_atom_type": "LIST_ITEM", "md_parent_section": "§IS [IS — Assumptions]", "md_verbatim": "   b. For mixed-allergens panel tests, submission values represented in the ISBDAGNT variable should follow this format: \"XXX, Multiple\" (e.g., Dairy Mix Antigens, Multiple; Animal Mix Antigens, Multiple; use the plural form for the word \"antigen\" if needed). Should the sponsor wish to specify the individual antigens in a mixed antigen panel (e.g., ISBDAGNT = \"Animal Mix Antigens, Multiple\"), put the names of the specific antigens in Suppqual (e.g., Cat, Dog, Cow, Horse; see example 11).", "score": 0.5361, "match_basis": "verbatim_token+domain_route:IS"}, {"md_atom_id": "md_dmIS_assn_a008", "md_file": "knowledge_base/domains/IS/assumptions.md", "md_atom_type": "LIST_ITEM", "md_parent_section": "§IS [IS — Assumptions]", "md_verbatim": "7. The IS domain variable ISBDAGNT (Binding Agent) is currently supported by 2 Controlled Terminology codelists: Microorganism (MICROORG) and Binding Agent for Immunogenicity Tests (ISBDAGT). Controlled Terminology Rules for Immunogenicity Tests describes how and when to use each codelist (see https://www.cdisc.org/standards/terminology/controlled-terminology).", "score": 0.536, "match_basis": "verbatim_token+domain_route:IS"}, {"md_atom_id": "md_dmIS_assn_a011", "md_file": "knowledge_base/domains/IS/assumptions.md", "md_atom_type": "LIST_ITEM", "md_parent_section": "§IS [IS — Assumptions]", "md_verbatim": "8. The IS domain variable ISTSTOPO (Test Operational Objective) is supported by a nonextensible Controlled Terminology codelist containing the values SCREEN, CONFIRM, and QUANTIFY.", "score": 0.5116, "match_basis": "verbatim_token+domain_route:IS"}, {"md_atom_id": "md_dmIS_assn_a006", "md_file": "knowledge_base/domains/IS/assumptions.md", "md_atom_type": "LIST_ITEM", "md_parent_section": "§IS [IS — Assumptions]", "md_verbatim": "5. An exception is made to the class of antigen/antibody (Ag/Ab) combination assays. Microbial antigen/antibody (Ag/Ab) combination tests should be represented in the Microbiology Specimen (MB) domain. An example is fourth-generation HIV Ag/Ab combination tests, which are commonly seen as HIV identification or detection assays rather than tests that provide additional details on and characterization of a subject's immunological responses. The outputs of these assays can be expected as reactive, non-reactive, or indeterminate. Whereas some tests generate separate outputs for antigen and antibody, others just indicate \"reactive\" when either or both are detected. Output is generally based on relative light units, where a result of \"reactive\" typically requires the signal to cutoff ratio to be greater than 1.", "score": 0.4931, "match_basis": "verbatim_token+domain_route:IS"}], "candidate_count": 5, "zero_candidate": false}
{"pdf_atom_id": "ig34_p0232_a007", "pdf_atom_type": "LIST_ITEM", "pdf_source": "SDTMIG_v3.4", "pdf_page": 232, "pdf_parent_section": "§6.3.5.5 Immunogenicity Specimen Assessments (IS)", "pdf_verbatim": "b. For mixed-allergens panel tests, submission values represented in the ISBDAGNT variable should follow this format: “XXX, Multiple” (e.g., Dairy Mix Antigens, Multiple; Animal Mix Antigens, Multiple; use the plural form for the word “antigen” if needed). Should the sponsor wish to specify the individual antigens in a mixed antigens panel (e.g., ISBDAGNT = “Animal Mix Antigens, Multiple”), put the names of the specific antigens in Suppqual (e.g., Cat, Dog, Cow, Horse; see example 11).", "figure_ref": null, "candidates": [{"md_atom_id": "md_dmIS_assn_a010", "md_file": "knowledge_base/domains/IS/assumptions.md", "md_atom_type": "LIST_ITEM", "md_parent_section": "§IS [IS — Assumptions]", "md_verbatim": "   b. For mixed-allergens panel tests, submission values represented in the ISBDAGNT variable should follow this format: \"XXX, Multiple\" (e.g., Dairy Mix Antigens, Multiple; Animal Mix Antigens, Multiple; use the plural form for the word \"antigen\" if needed). Should the sponsor wish to specify the individual antigens in a mixed antigen panel (e.g., ISBDAGNT = \"Animal Mix Antigens, Multiple\"), put the names of the specific antigens in Suppqual (e.g., Cat, Dog, Cow, Horse; see example 11).", "score": 1.0, "match_basis": "verbatim_token+domain_route:IS"}, {"md_atom_id": "md_dmIS_assn_a009", "md_file": "knowledge_base/domains/IS/assumptions.md", "md_atom_type": "LIST_ITEM", "md_parent_section": "§IS [IS — Assumptions]", "md_verbatim": "   a. For antidrug antibody (ADA) tests, the ISBDAGNT variable is used to represent the free-text description of the name/identity of the therapy the antidrug antibody targets. CDISC does not control study therapy names (e.g., drugs, biologics). For ADA tests as a part of regulatory agency submissions, the proprietary binding study therapy name(s) should be considered as extended values of the ISBDAGT codelist when represented in Define-XML.", "score": 0.5361, "match_basis": "verbatim_token+domain_route:IS"}, {"md_atom_id": "md_dmIS_assn_a006", "md_file": "knowledge_base/domains/IS/assumptions.md", "md_atom_type": "LIST_ITEM", "md_parent_section": "§IS [IS — Assumptions]", "md_verbatim": "5. An exception is made to the class of antigen/antibody (Ag/Ab) combination assays. Microbial antigen/antibody (Ag/Ab) combination tests should be represented in the Microbiology Specimen (MB) domain. An example is fourth-generation HIV Ag/Ab combination tests, which are commonly seen as HIV identification or detection assays rather than tests that provide additional details on and characterization of a subject's immunological responses. The outputs of these assays can be expected as reactive, non-reactive, or indeterminate. Whereas some tests generate separate outputs for antigen and antibody, others just indicate \"reactive\" when either or both are detected. Output is generally based on relative light units, where a result of \"reactive\" typically requires the signal to cutoff ratio to be greater than 1.", "score": 0.4887, "match_basis": "verbatim_token+domain_route:IS"}, {"md_atom_id": "md_dmIS_assn_a012", "md_file": "knowledge_base/domains/IS/assumptions.md", "md_atom_type": "LIST_ITEM", "md_parent_section": "§IS [IS — Assumptions]", "md_verbatim": "9. For vaccine studies, in order to distinguish collected data between study vaccine-induced immunogenicity and immunogenicity findings unrelated to the study vaccine (i.e., immunity as a result of natural infection or previous vaccination), the following ISCAT and ISSCAT values are recommended (see example 5):", "score": 0.4853, "match_basis": "verbatim_token+domain_route:IS"}, {"md_atom_id": "md_dmIS_assn_a003", "md_file": "knowledge_base/domains/IS/assumptions.md", "md_atom_type": "LIST_ITEM", "md_parent_section": "§IS [IS — Assumptions]", "md_verbatim": "2. The IS domain also holds assessments that describe whether an allergen, microorganism, or endogenous molecule provoked/caused/induced an immune response in a subject, such as a subject's antibody reaction (autoantibodies) against auto/self-antigens for autoimmune studies or antibody production in response to allergens in allergy tests. Expected outputs can be positive or negative, present or absent for the antibody of interest, as well as quantification of the antibody. Assessments pertaining to antibodies produced in response to microbial infection will also be represented in the IS domain.", "score": 0.4839, "match_basis": "verbatim_token+domain_route:IS"}], "candidate_count": 5, "zero_candidate": false}
{"pdf_atom_id": "ig34_p0232_a008", "pdf_atom_type": "LIST_ITEM", "pdf_source": "SDTMIG_v3.4", "pdf_page": 232, "pdf_parent_section": "§6.3.5.5 Immunogenicity Specimen Assessments (IS)", "pdf_verbatim": "8. The IS domain variable ISTSTOPO (Test Operational Objective) is supported by a nonextensible Controlled Terminology codelist containing the values SCREEN, CONFIRM, and QUANTIFY.", "figure_ref": null, "candidates": [{"md_atom_id": "md_dmIS_assn_a011", "md_file": "knowledge_base/domains/IS/assumptions.md", "md_atom_type": "LIST_ITEM", "md_parent_section": "§IS [IS — Assumptions]", "md_verbatim": "8. The IS domain variable ISTSTOPO (Test Operational Objective) is supported by a nonextensible Controlled Terminology codelist containing the values SCREEN, CONFIRM, and QUANTIFY.", "score": 1.0, "match_basis": "verbatim_token+domain_route:IS"}, {"md_atom_id": "md_dmIS_assn_a008", "md_file": "knowledge_base/domains/IS/assumptions.md", "md_atom_type": "LIST_ITEM", "md_parent_section": "§IS [IS — Assumptions]", "md_verbatim": "7. The IS domain variable ISBDAGNT (Binding Agent) is currently supported by 2 Controlled Terminology codelists: Microorganism (MICROORG) and Binding Agent for Immunogenicity Tests (ISBDAGT). Controlled Terminology Rules for Immunogenicity Tests describes how and when to use each codelist (see https://www.cdisc.org/standards/terminology/controlled-terminology).", "score": 0.5659, "match_basis": "verbatim_token+domain_route:IS"}, {"md_atom_id": "md_dmIS_assn_a009", "md_file": "knowledge_base/domains/IS/assumptions.md", "md_atom_type": "LIST_ITEM", "md_parent_section": "§IS [IS — Assumptions]", "md_verbatim": "   a. For antidrug antibody (ADA) tests, the ISBDAGNT variable is used to represent the free-text description of the name/identity of the therapy the antidrug antibody targets. CDISC does not control study therapy names (e.g., drugs, biologics). For ADA tests as a part of regulatory agency submissions, the proprietary binding study therapy name(s) should be considered as extended values of the ISBDAGT codelist when represented in Define-XML.", "score": 0.5116, "match_basis": "verbatim_token+domain_route:IS"}, {"md_atom_id": "md_dmIS_assn_a017", "md_file": "knowledge_base/domains/IS/assumptions.md", "md_atom_type": "LIST_ITEM", "md_parent_section": "§IS [IS — Assumptions]", "md_verbatim": "10. Any Identifier variables, Timing variables, or Findings general observation class qualifiers may be added to the IS domain.", "score": 0.4896, "match_basis": "verbatim_token+domain_route:IS"}, {"md_atom_id": "md_dmIS_assn_a006", "md_file": "knowledge_base/domains/IS/assumptions.md", "md_atom_type": "LIST_ITEM", "md_parent_section": "§IS [IS — Assumptions]", "md_verbatim": "5. An exception is made to the class of antigen/antibody (Ag/Ab) combination assays. Microbial antigen/antibody (Ag/Ab) combination tests should be represented in the Microbiology Specimen (MB) domain. An example is fourth-generation HIV Ag/Ab combination tests, which are commonly seen as HIV identification or detection assays rather than tests that provide additional details on and characterization of a subject's immunological responses. The outputs of these assays can be expected as reactive, non-reactive, or indeterminate. Whereas some tests generate separate outputs for antigen and antibody, others just indicate \"reactive\" when either or both are detected. Output is generally based on relative light units, where a result of \"reactive\" typically requires the signal to cutoff ratio to be greater than 1.", "score": 0.4763, "match_basis": "verbatim_token+domain_route:IS"}], "candidate_count": 5, "zero_candidate": false}
{"pdf_atom_id": "ig34_p0232_a009", "pdf_atom_type": "LIST_ITEM", "pdf_source": "SDTMIG_v3.4", "pdf_page": 232, "pdf_parent_section": "§6.3.5.5 Immunogenicity Specimen Assessments (IS)", "pdf_verbatim": "9. For vaccine studies, in order to distinguish collected data between study vaccine-induced immunogenicity and immunogenicity findings unrelated to the study vaccine (i.e., immunity as a result of natural infection or previous vaccination), the following ISCAT and ISSCAT values are recommended (see example 5):", "figure_ref": null, "candidates": [{"md_atom_id": "md_dmIS_assn_a012", "md_file": "knowledge_base/domains/IS/assumptions.md", "md_atom_type": "LIST_ITEM", "md_parent_section": "§IS [IS — Assumptions]", "md_verbatim": "9. For vaccine studies, in order to distinguish collected data between study vaccine-induced immunogenicity and immunogenicity findings unrelated to the study vaccine (i.e., immunity as a result of natural infection or previous vaccination), the following ISCAT and ISSCAT values are recommended (see example 5):", "score": 1.0, "match_basis": "verbatim_token+domain_route:IS"}, {"md_atom_id": "md_dmIS_ex_a067", "md_file": "knowledge_base/domains/IS/examples.md", "md_atom_type": "SENTENCE", "md_parent_section": "§IS.5 [Example 5]", "md_verbatim": "This example illustrates the use of the CDISC-recommended ISCAT values \"STUDY VACCINE-RELATED IMMUNOGENICITY\" and \"NON-STUDY-RELATED IMMUNOGENICITY\" to distinguish between study vaccine-induced immunogenicity and immunogenicity findings unrelated to the study vaccine data collected during a vaccine study. ISCAT = \"NON-STUDY-RELATED IMMUNOGENICITY\" was developed to explicitly and purposefully indicate whether an observed immunity toward an antigen was not related to the study vaccine but rather was a result of natural infection or previous vaccination. Oftentimes, it is simply impossible to tell whether the antibody found in a subject is due to a natural infection or previous vaccination (or both) — yet this immunogenicity, unrelated to the study vaccine, is important for collection and assessment at the screening phase of the trial.", "score": 0.5797, "match_basis": "verbatim_token+domain_route:IS"}, {"md_atom_id": "md_dmIS_assn_a014", "md_file": "knowledge_base/domains/IS/assumptions.md", "md_atom_type": "LIST_ITEM", "md_parent_section": "§IS [IS — Assumptions]", "md_verbatim": "   b. For immunological data collected during the vaccine trial but which are not assessments about the study vaccine, ISCAT = NON-STUDY-RELATED IMMUNOGENICITY.", "score": 0.5618, "match_basis": "verbatim_token+domain_route:IS"}, {"md_atom_id": "md_dmIS_assn_a013", "md_file": "knowledge_base/domains/IS/assumptions.md", "md_atom_type": "LIST_ITEM", "md_parent_section": "§IS [IS — Assumptions]", "md_verbatim": "   a. For immunological data pertaining to the study vaccine, ISCAT = STUDY VACCINE-RELATED IMMUNOGENICITY.", "score": 0.5456, "match_basis": "verbatim_token+domain_route:IS"}, {"md_atom_id": "md_dmIS_assn_a002", "md_file": "knowledge_base/domains/IS/assumptions.md", "md_atom_type": "LIST_ITEM", "md_parent_section": "§IS [IS — Assumptions]", "md_verbatim": "1. The Immunogenicity Specimen Assessments (IS) domain holds assessments that describe whether a therapy (e.g., biologic, drug, vaccine) provoked/caused/induced an immune response in a subject. The response can be either positive or negative. For example, a vaccine is expected to induce a beneficial immune response, whereas a cellular therapy (e.g., erythropoiesis-stimulating agents) may cause an adverse immune response.", "score": 0.5017, "match_basis": "verbatim_token+domain_route:IS"}], "candidate_count": 5, "zero_candidate": false}
{"pdf_atom_id": "ig34_p0232_a010", "pdf_atom_type": "LIST_ITEM", "pdf_source": "SDTMIG_v3.4", "pdf_page": 232, "pdf_parent_section": "§6.3.5.5 Immunogenicity Specimen Assessments (IS)", "pdf_verbatim": "a. For immunological data pertaining to the study vaccine, ISCAT = STUDY VACCINE-RELATED IMMUNOGENICITY.", "figure_ref": null, "candidates": [{"md_atom_id": "md_dmIS_assn_a013", "md_file": "knowledge_base/domains/IS/assumptions.md", "md_atom_type": "LIST_ITEM", "md_parent_section": "§IS [IS — Assumptions]", "md_verbatim": "   a. For immunological data pertaining to the study vaccine, ISCAT = STUDY VACCINE-RELATED IMMUNOGENICITY.", "score": 1.0, "match_basis": "verbatim_token+domain_route:IS"}, {"md_atom_id": "md_dmIS_assn_a014", "md_file": "knowledge_base/domains/IS/assumptions.md", "md_atom_type": "LIST_ITEM", "md_parent_section": "§IS [IS — Assumptions]", "md_verbatim": "   b. For immunological data collected during the vaccine trial but which are not assessments about the study vaccine, ISCAT = NON-STUDY-RELATED IMMUNOGENICITY.", "score": 0.7077, "match_basis": "verbatim_token+domain_route:IS"}, {"md_atom_id": "md_dmIS_assn_a012", "md_file": "knowledge_base/domains/IS/assumptions.md", "md_atom_type": "LIST_ITEM", "md_parent_section": "§IS [IS — Assumptions]", "md_verbatim": "9. For vaccine studies, in order to distinguish collected data between study vaccine-induced immunogenicity and immunogenicity findings unrelated to the study vaccine (i.e., immunity as a result of natural infection or previous vaccination), the following ISCAT and ISSCAT values are recommended (see example 5):", "score": 0.5456, "match_basis": "verbatim_token+domain_route:IS"}, {"md_atom_id": "md_dmIS_assn_a002", "md_file": "knowledge_base/domains/IS/assumptions.md", "md_atom_type": "LIST_ITEM", "md_parent_section": "§IS [IS — Assumptions]", "md_verbatim": "1. The Immunogenicity Specimen Assessments (IS) domain holds assessments that describe whether a therapy (e.g., biologic, drug, vaccine) provoked/caused/induced an immune response in a subject. The response can be either positive or negative. For example, a vaccine is expected to induce a beneficial immune response, whereas a cellular therapy (e.g., erythropoiesis-stimulating agents) may cause an adverse immune response.", "score": 0.4931, "match_basis": "verbatim_token+domain_route:IS"}, {"md_atom_id": "md_dmIS_assn_a008", "md_file": "knowledge_base/domains/IS/assumptions.md", "md_atom_type": "LIST_ITEM", "md_parent_section": "§IS [IS — Assumptions]", "md_verbatim": "7. The IS domain variable ISBDAGNT (Binding Agent) is currently supported by 2 Controlled Terminology codelists: Microorganism (MICROORG) and Binding Agent for Immunogenicity Tests (ISBDAGT). Controlled Terminology Rules for Immunogenicity Tests describes how and when to use each codelist (see https://www.cdisc.org/standards/terminology/controlled-terminology).", "score": 0.4869, "match_basis": "verbatim_token+domain_route:IS"}], "candidate_count": 5, "zero_candidate": false}
{"pdf_atom_id": "ig34_p0232_a011", "pdf_atom_type": "LIST_ITEM", "pdf_source": "SDTMIG_v3.4", "pdf_page": 232, "pdf_parent_section": "§6.3.5.5 Immunogenicity Specimen Assessments (IS)", "pdf_verbatim": "b. For immunological data collected during the vaccine trial but which are not assessments about the study vaccine, ISCAT = NON-STUDY-RELATED IMMUNOGENICITY.", "figure_ref": null, "candidates": [{"md_atom_id": "md_dmIS_assn_a014", "md_file": "knowledge_base/domains/IS/assumptions.md", "md_atom_type": "LIST_ITEM", "md_parent_section": "§IS [IS — Assumptions]", "md_verbatim": "   b. For immunological data collected during the vaccine trial but which are not assessments about the study vaccine, ISCAT = NON-STUDY-RELATED IMMUNOGENICITY.", "score": 1.0, "match_basis": "verbatim_token+domain_route:IS"}, {"md_atom_id": "md_dmIS_assn_a013", "md_file": "knowledge_base/domains/IS/assumptions.md", "md_atom_type": "LIST_ITEM", "md_parent_section": "§IS [IS — Assumptions]", "md_verbatim": "   a. For immunological data pertaining to the study vaccine, ISCAT = STUDY VACCINE-RELATED IMMUNOGENICITY.", "score": 0.7077, "match_basis": "verbatim_token+domain_route:IS"}, {"md_atom_id": "md_dmIS_assn_a012", "md_file": "knowledge_base/domains/IS/assumptions.md", "md_atom_type": "LIST_ITEM", "md_parent_section": "§IS [IS — Assumptions]", "md_verbatim": "9. For vaccine studies, in order to distinguish collected data between study vaccine-induced immunogenicity and immunogenicity findings unrelated to the study vaccine (i.e., immunity as a result of natural infection or previous vaccination), the following ISCAT and ISSCAT values are recommended (see example 5):", "score": 0.5618, "match_basis": "verbatim_token+domain_route:IS"}, {"md_atom_id": "md_dmIS_assn_a016", "md_file": "knowledge_base/domains/IS/assumptions.md", "md_atom_type": "LIST_ITEM", "md_parent_section": "§IS [IS — Assumptions]", "md_verbatim": "   d. For assessments measuring the induced-cellular response, ISSCAT = CELLULAR IMMUNITY.", "score": 0.525, "match_basis": "verbatim_token+domain_route:IS"}, {"md_atom_id": "md_dmIS_assn_a002", "md_file": "knowledge_base/domains/IS/assumptions.md", "md_atom_type": "LIST_ITEM", "md_parent_section": "§IS [IS — Assumptions]", "md_verbatim": "1. The Immunogenicity Specimen Assessments (IS) domain holds assessments that describe whether a therapy (e.g., biologic, drug, vaccine) provoked/caused/induced an immune response in a subject. The response can be either positive or negative. For example, a vaccine is expected to induce a beneficial immune response, whereas a cellular therapy (e.g., erythropoiesis-stimulating agents) may cause an adverse immune response.", "score": 0.5219, "match_basis": "verbatim_token+domain_route:IS"}], "candidate_count": 5, "zero_candidate": false}
{"pdf_atom_id": "ig34_p0232_a012", "pdf_atom_type": "LIST_ITEM", "pdf_source": "SDTMIG_v3.4", "pdf_page": 232, "pdf_parent_section": "§6.3.5.5 Immunogenicity Specimen Assessments (IS)", "pdf_verbatim": "c. For assessments measuring the induced-antibody response, ISSCAT = HUMORAL IMMUNITY.", "figure_ref": null, "candidates": [{"md_atom_id": "md_dmIS_assn_a015", "md_file": "knowledge_base/domains/IS/assumptions.md", "md_atom_type": "LIST_ITEM", "md_parent_section": "§IS [IS — Assumptions]", "md_verbatim": "   c. For assessments measuring the induced-antibody response, ISSCAT = HUMORAL IMMUNITY.", "score": 1.0, "match_basis": "verbatim_token+domain_route:IS"}, {"md_atom_id": "md_dmIS_assn_a016", "md_file": "knowledge_base/domains/IS/assumptions.md", "md_atom_type": "LIST_ITEM", "md_parent_section": "§IS [IS — Assumptions]", "md_verbatim": "   d. For assessments measuring the induced-cellular response, ISSCAT = CELLULAR IMMUNITY.", "score": 0.8179, "match_basis": "verbatim_token+domain_route:IS"}, {"md_atom_id": "md_dmIS_assn_a004", "md_file": "knowledge_base/domains/IS/assumptions.md", "md_atom_type": "LIST_ITEM", "md_parent_section": "§IS [IS — Assumptions]", "md_verbatim": "3. Assessments about all other types of \"induced\" humoral (antibody) immune response in a subject (e.g., antibodies against human leukocyte antigen (HLA) proteins) will also be represented in the IS domain.", "score": 0.6, "match_basis": "verbatim_token+domain_route:IS"}, {"md_atom_id": "md_dmIS_assn_a014", "md_file": "knowledge_base/domains/IS/assumptions.md", "md_atom_type": "LIST_ITEM", "md_parent_section": "§IS [IS — Assumptions]", "md_verbatim": "   b. For immunological data collected during the vaccine trial but which are not assessments about the study vaccine, ISCAT = NON-STUDY-RELATED IMMUNOGENICITY.", "score": 0.5188, "match_basis": "verbatim_token+domain_route:IS"}, {"md_atom_id": "md_dmIS_assn_a002", "md_file": "knowledge_base/domains/IS/assumptions.md", "md_atom_type": "LIST_ITEM", "md_parent_section": "§IS [IS — Assumptions]", "md_verbatim": "1. The Immunogenicity Specimen Assessments (IS) domain holds assessments that describe whether a therapy (e.g., biologic, drug, vaccine) provoked/caused/induced an immune response in a subject. The response can be either positive or negative. For example, a vaccine is expected to induce a beneficial immune response, whereas a cellular therapy (e.g., erythropoiesis-stimulating agents) may cause an adverse immune response.", "score": 0.4955, "match_basis": "verbatim_token+domain_route:IS"}], "candidate_count": 5, "zero_candidate": false}
{"pdf_atom_id": "ig34_p0232_a013", "pdf_atom_type": "LIST_ITEM", "pdf_source": "SDTMIG_v3.4", "pdf_page": 232, "pdf_parent_section": "§6.3.5.5 Immunogenicity Specimen Assessments (IS)", "pdf_verbatim": "d. For assessments measuring the induced-cellular response, ISSCAT = CELLULAR IMMUNITY.", "figure_ref": null, "candidates": [{"md_atom_id": "md_dmIS_assn_a016", "md_file": "knowledge_base/domains/IS/assumptions.md", "md_atom_type": "LIST_ITEM", "md_parent_section": "§IS [IS — Assumptions]", "md_verbatim": "   d. For assessments measuring the induced-cellular response, ISSCAT = CELLULAR IMMUNITY.", "score": 1.0, "match_basis": "verbatim_token+domain_route:IS"}, {"md_atom_id": "md_dmIS_assn_a015", "md_file": "knowledge_base/domains/IS/assumptions.md", "md_atom_type": "LIST_ITEM", "md_parent_section": "§IS [IS — Assumptions]", "md_verbatim": "   c. For assessments measuring the induced-antibody response, ISSCAT = HUMORAL IMMUNITY.", "score": 0.8179, "match_basis": "verbatim_token+domain_route:IS"}, {"md_atom_id": "md_dmIS_assn_a004", "md_file": "knowledge_base/domains/IS/assumptions.md", "md_atom_type": "LIST_ITEM", "md_parent_section": "§IS [IS — Assumptions]", "md_verbatim": "3. Assessments about all other types of \"induced\" humoral (antibody) immune response in a subject (e.g., antibodies against human leukocyte antigen (HLA) proteins) will also be represented in the IS domain.", "score": 0.5297, "match_basis": "verbatim_token+domain_route:IS"}, {"md_atom_id": "md_dmIS_assn_a014", "md_file": "knowledge_base/domains/IS/assumptions.md", "md_atom_type": "LIST_ITEM", "md_parent_section": "§IS [IS — Assumptions]", "md_verbatim": "   b. For immunological data collected during the vaccine trial but which are not assessments about the study vaccine, ISCAT = NON-STUDY-RELATED IMMUNOGENICITY.", "score": 0.525, "match_basis": "verbatim_token+domain_route:IS"}, {"md_atom_id": "md_dmIS_assn_a002", "md_file": "knowledge_base/domains/IS/assumptions.md", "md_atom_type": "LIST_ITEM", "md_parent_section": "§IS [IS — Assumptions]", "md_verbatim": "1. The Immunogenicity Specimen Assessments (IS) domain holds assessments that describe whether a therapy (e.g., biologic, drug, vaccine) provoked/caused/induced an immune response in a subject. The response can be either positive or negative. For example, a vaccine is expected to induce a beneficial immune response, whereas a cellular therapy (e.g., erythropoiesis-stimulating agents) may cause an adverse immune response.", "score": 0.5236, "match_basis": "verbatim_token+domain_route:IS"}], "candidate_count": 5, "zero_candidate": false}
{"pdf_atom_id": "ig34_p0232_a014", "pdf_atom_type": "LIST_ITEM", "pdf_source": "SDTMIG_v3.4", "pdf_page": 232, "pdf_parent_section": "§6.3.5.5 Immunogenicity Specimen Assessments (IS)", "pdf_verbatim": "10. Any Identifier variables, Timing variables, or Findings general observation class qualifiers may be added to the IS domain.", "figure_ref": null, "candidates": [{"md_atom_id": "md_dmIS_assn_a017", "md_file": "knowledge_base/domains/IS/assumptions.md", "md_atom_type": "LIST_ITEM", "md_parent_section": "§IS [IS — Assumptions]", "md_verbatim": "10. Any Identifier variables, Timing variables, or Findings general observation class qualifiers may be added to the IS domain.", "score": 1.0, "match_basis": "verbatim_token+domain_route:IS"}, {"md_atom_id": "md_dmIS_assn_a011", "md_file": "knowledge_base/domains/IS/assumptions.md", "md_atom_type": "LIST_ITEM", "md_parent_section": "§IS [IS — Assumptions]", "md_verbatim": "8. The IS domain variable ISTSTOPO (Test Operational Objective) is supported by a nonextensible Controlled Terminology codelist containing the values SCREEN, CONFIRM, and QUANTIFY.", "score": 0.4896, "match_basis": "verbatim_token+domain_route:IS"}, {"md_atom_id": "md_dmIS_assn_a008", "md_file": "knowledge_base/domains/IS/assumptions.md", "md_atom_type": "LIST_ITEM", "md_parent_section": "§IS [IS — Assumptions]", "md_verbatim": "7. The IS domain variable ISBDAGNT (Binding Agent) is currently supported by 2 Controlled Terminology codelists: Microorganism (MICROORG) and Binding Agent for Immunogenicity Tests (ISBDAGT). Controlled Terminology Rules for Immunogenicity Tests describes how and when to use each codelist (see https://www.cdisc.org/standards/terminology/controlled-terminology).", "score": 0.4731, "match_basis": "verbatim_token+domain_route:IS"}, {"md_atom_id": "md_dmIS_assn_a009", "md_file": "knowledge_base/domains/IS/assumptions.md", "md_atom_type": "LIST_ITEM", "md_parent_section": "§IS [IS — Assumptions]", "md_verbatim": "   a. For antidrug antibody (ADA) tests, the ISBDAGNT variable is used to represent the free-text description of the name/identity of the therapy the antidrug antibody targets. CDISC does not control study therapy names (e.g., drugs, biologics). For ADA tests as a part of regulatory agency submissions, the proprietary binding study therapy name(s) should be considered as extended values of the ISBDAGT codelist when represented in Define-XML.", "score": 0.4656, "match_basis": "verbatim_token+domain_route:IS"}, {"md_atom_id": "md_dmIS_assn_a006", "md_file": "knowledge_base/domains/IS/assumptions.md", "md_atom_type": "LIST_ITEM", "md_parent_section": "§IS [IS — Assumptions]", "md_verbatim": "5. An exception is made to the class of antigen/antibody (Ag/Ab) combination assays. Microbial antigen/antibody (Ag/Ab) combination tests should be represented in the Microbiology Specimen (MB) domain. An example is fourth-generation HIV Ag/Ab combination tests, which are commonly seen as HIV identification or detection assays rather than tests that provide additional details on and characterization of a subject's immunological responses. The outputs of these assays can be expected as reactive, non-reactive, or indeterminate. Whereas some tests generate separate outputs for antigen and antibody, others just indicate \"reactive\" when either or both are detected. Output is generally based on relative light units, where a result of \"reactive\" typically requires the signal to cutoff ratio to be greater than 1.", "score": 0.4625, "match_basis": "verbatim_token+domain_route:IS"}], "candidate_count": 5, "zero_candidate": false}
{"pdf_atom_id": "ig34_p0233_a001", "pdf_atom_type": "HEADING", "pdf_source": "SDTMIG_v3.4", "pdf_page": 233, "pdf_parent_section": "§6.3.5.5 Immunogenicity Specimen Assessments (IS)", "pdf_verbatim": "IS – Examples", "figure_ref": null, "candidates": [{"md_atom_id": "md_dmIS_ex_a001", "md_file": "knowledge_base/domains/IS/examples.md", "md_atom_type": "HEADING", "md_parent_section": "§IS [IS — Examples]", "md_verbatim": "# IS — Examples", "score": 1.0, "match_basis": "verbatim_token+domain_route:IS"}, {"md_atom_id": "md_dmIS_ex_a002", "md_file": "knowledge_base/domains/IS/examples.md", "md_atom_type": "HEADING", "md_parent_section": "§IS [IS — Examples]", "md_verbatim": "## Example 1", "score": 0.9, "match_basis": "verbatim_token+domain_route:IS"}, {"md_atom_id": "md_dmIS_ex_a014", "md_file": "knowledge_base/domains/IS/examples.md", "md_atom_type": "HEADING", "md_parent_section": "§IS [IS — Examples]", "md_verbatim": "## Example 2", "score": 0.9, "match_basis": "verbatim_token+domain_route:IS"}, {"md_atom_id": "md_dmIS_ex_a033", "md_file": "knowledge_base/domains/IS/examples.md", "md_atom_type": "HEADING", "md_parent_section": "§IS [IS — Examples]", "md_verbatim": "## Example 3", "score": 0.9, "match_basis": "verbatim_token+domain_route:IS"}, {"md_atom_id": "md_dmIS_ex_a044", "md_file": "knowledge_base/domains/IS/examples.md", "md_atom_type": "HEADING", "md_parent_section": "§IS [IS — Examples]", "md_verbatim": "## Example 4", "score": 0.9, "match_basis": "verbatim_token+domain_route:IS"}], "candidate_count": 5, "zero_candidate": false}
