{"pdf_atom_id": "ig34_p0249_a001", "pdf_atom_type": "HEADING", "pdf_source": "SDTMIG_v3.4", "pdf_page": 249, "pdf_parent_section": "§6.3.5.7.1 Microbiology Specimen (MB)", "pdf_verbatim": "MB – Specification", "figure_ref": null, "candidates": [{"md_atom_id": "md_dmMB_assn_a001", "md_file": "knowledge_base/domains/MB/assumptions.md", "md_atom_type": "HEADING", "md_parent_section": "§MB [MB — Assumptions]", "md_verbatim": "# MB — Assumptions", "score": 0.4667, "match_basis": "verbatim_token+domain_route:MB"}, {"md_atom_id": "md_dmMB_ex_a001", "md_file": "knowledge_base/domains/MB/examples.md", "md_atom_type": "HEADING", "md_parent_section": "§MB [MB — Examples]", "md_verbatim": "# MB — Examples", "score": 0.4, "match_basis": "verbatim_token+domain_route:MB"}, {"md_atom_id": "md_dmMB_ex_a004", "md_file": "knowledge_base/domains/MB/examples.md", "md_atom_type": "HEADING", "md_parent_section": "§MB [MB — Examples]", "md_verbatim": "## Example 1", "score": 0.4, "match_basis": "verbatim_token+domain_route:MB"}, {"md_atom_id": "md_dmMB_ex_a027", "md_file": "knowledge_base/domains/MB/examples.md", "md_atom_type": "HEADING", "md_parent_section": "§MB [MB — Examples]", "md_verbatim": "## Example 2", "score": 0.4, "match_basis": "verbatim_token+domain_route:MB"}, {"md_atom_id": "md_dmMB_ex_a066", "md_file": "knowledge_base/domains/MB/examples.md", "md_atom_type": "HEADING", "md_parent_section": "§MB [MB — Examples]", "md_verbatim": "## Example 3", "score": 0.4, "match_basis": "verbatim_token+domain_route:MB"}], "candidate_count": 5, "zero_candidate": false}
{"pdf_atom_id": "ig34_p0249_a002", "pdf_atom_type": "CODE_LITERAL", "pdf_source": "SDTMIG_v3.4", "pdf_page": 249, "pdf_parent_section": "§6.3.5.7.1 Microbiology Specimen (MB)", "pdf_verbatim": "mb.xpt, Microbiology Specimen — Findings. One record per microbiology specimen finding per time point per visit per subject, Tabulation.", "figure_ref": null, "candidates": [{"md_atom_id": "md_dmMB_assn_a002", "md_file": "knowledge_base/domains/MB/assumptions.md", "md_atom_type": "LIST_ITEM", "md_parent_section": "§MB [MB — Assumptions]", "md_verbatim": "1. Representation of findings in the Microbiology Specimen domain should be handled as follows:", "score": 0.3848, "match_basis": "verbatim_token+domain_route:MB"}, {"md_atom_id": "md_dmMB_ex_a002", "md_file": "knowledge_base/domains/MB/examples.md", "md_atom_type": "SENTENCE", "md_parent_section": "§MB [MB — Examples]", "md_verbatim": "*Note: MB and MS share a combined examples section (6.3.5.7.3 Microbiology Specimen/Microbiology Susceptibility Examples).", "score": 0.3307, "match_basis": "verbatim_token+domain_route:MB"}, {"md_atom_id": "md_dmMB_ex_a110", "md_file": "knowledge_base/domains/MB/examples.md", "md_atom_type": "SENTENCE", "md_parent_section": "§MB.3 [Example 3]", "md_verbatim": "Findings data captured about the specimen during collection, preparation, and handling are represented in the BS domain.", "score": 0.2943, "match_basis": "verbatim_token+domain_route:MB"}, {"md_atom_id": "md_dmMB_ex_a052", "md_file": "knowledge_base/domains/MB/examples.md", "md_atom_type": "SENTENCE", "md_parent_section": "§MB.2 [Example 2]", "md_verbatim": "**Row 8:** Shows that microbial culture of a third subject sample at the third visit indicated \"NO GROWTH\" (MBORRES) of any organisms.", "score": 0.2889, "match_basis": "verbatim_token+domain_route:MB"}, {"md_atom_id": "md_dmMB_ex_a039", "md_file": "knowledge_base/domains/MB/examples.md", "md_atom_type": "SENTENCE", "md_parent_section": "§MB.2 [Example 2]", "md_verbatim": "**Rows 4-6:** Show that all 3 sputum samples were collected via expectoration, as indicated by QVAL where QNAM=\"Specimen Collection Method\". QVAL is populated using the CDISC Controlled Terminology codelist, \"Specimen Collection Method\".", "score": 0.2785, "match_basis": "verbatim_token+domain_route:MB"}], "candidate_count": 5, "zero_candidate": false}
{"pdf_atom_id": "ig34_p0249_a003", "pdf_atom_type": "TABLE_HEADER", "pdf_source": "SDTMIG_v3.4", "pdf_page": 249, "pdf_parent_section": "§6.3.5.7.1 Microbiology Specimen (MB)", "pdf_verbatim": "| Variable Name | Variable Label | Type | Controlled Terms, Codelist or Format¹ | Role | CDISC Notes | Core |", "figure_ref": null, "candidates": [{"md_atom_id": "md_dmMB_ex_a041", "md_file": "knowledge_base/domains/MB/examples.md", "md_atom_type": "TABLE_HEADER", "md_parent_section": "§MB.2 [Example 2]", "md_verbatim": "| Row | STUDYID | RDOMAIN | USUBJID | IDVAR | IDVARVAL | QNAM | QLABEL | QVAL | QORIG |\n|-----|---------|---------|---------|-------|----------|------|--------|------|-------|", "score": 0.4429, "match_basis": "verbatim_token+domain_route:MB"}, {"md_atom_id": "md_dmMB_ex_a064", "md_file": "knowledge_base/domains/MB/examples.md", "md_atom_type": "TABLE_HEADER", "md_parent_section": "§MB.2 [Example 2]", "md_verbatim": "| Row | STUDYID | RDOMAIN | USUBJID | IDVAR | IDVARVAL | QNAM | QLABEL | QVAL | QORIG |\n|-----|---------|---------|---------|-------|----------|------|--------|------|-------|", "score": 0.4429, "match_basis": "verbatim_token+domain_route:MB"}, {"md_atom_id": "md_dmMB_ex_a142", "md_file": "knowledge_base/domains/MB/examples.md", "md_atom_type": "TABLE_HEADER", "md_parent_section": "§MB.3 [Example 3]", "md_verbatim": "| Row | STUDYID | RDOMAIN | USUBJID | IDVAR | IDVARVAL | QNAM | QLABEL | QVAL | QORIG |\n|-----|---------|---------|---------|-------|----------|------|--------|------|-------|", "score": 0.4429, "match_basis": "verbatim_token+domain_route:MB"}, {"md_atom_id": "md_dmMB_ex_a024", "md_file": "knowledge_base/domains/MB/examples.md", "md_atom_type": "TABLE_HEADER", "md_parent_section": "§MB.1 [Example 1]", "md_verbatim": "| Row | STUDYID | RDOMAIN | USUBJID | IDVAR | IDVARVAL | RELTYPE | RELID |\n|-----|---------|---------|---------|-------|----------|---------|-------|", "score": 0.4353, "match_basis": "verbatim_token+domain_route:MB"}, {"md_atom_id": "md_dmMB_ex_a086", "md_file": "knowledge_base/domains/MB/examples.md", "md_atom_type": "TABLE_HEADER", "md_parent_section": "§MB.3 [Example 3]", "md_verbatim": "| Row | STUDYID | DOMAIN | USUBJID | BESEQ | BEREFID | BELNKID | BETERM | BECAT | BEDTC | BESTDTC | BEENDTC |\n|-----|---------|--------|---------|-------|---------|---------|--------|-------|-------|---------|---------|", "score": 0.4212, "match_basis": "verbatim_token+domain_route:MB"}], "candidate_count": 5, "zero_candidate": false}
{"pdf_atom_id": "ig34_p0249_a004", "pdf_atom_type": "TABLE_ROW", "pdf_source": "SDTMIG_v3.4", "pdf_page": 249, "pdf_parent_section": "§6.3.5.7.1 Microbiology Specimen (MB)", "pdf_verbatim": "| STUDYID | Study Identifier | Char | | Identifier | Unique identifier for a study. | Req |", "figure_ref": null, "candidates": [{"md_atom_id": "md_dmMB_ex_a144", "md_file": "knowledge_base/domains/MB/examples.md", "md_atom_type": "TABLE_ROW", "md_parent_section": "§MB.3 [Example 3]", "md_verbatim": "| 2 | ABC | MB | ABC-01-101 | MBSEQ | 3 | MBMICERT | Microbial Identification Certainty | DEFINITIVE | Collected |", "score": 0.4562, "match_basis": "verbatim_token+domain_route:MB"}, {"md_atom_id": "md_dmMB_ex_a145", "md_file": "knowledge_base/domains/MB/examples.md", "md_atom_type": "TABLE_ROW", "md_parent_section": "§MB.3 [Example 3]", "md_verbatim": "| 3 | ABC | MB | ABC-01-101 | MBSEQ | 4 | MBMICERT | Microbial Identification Certainty | PRESUMPTIVE | Collected |", "score": 0.4554, "match_basis": "verbatim_token+domain_route:MB"}, {"md_atom_id": "md_dmMB_ex_a062", "md_file": "knowledge_base/domains/MB/examples.md", "md_atom_type": "TABLE_ROW", "md_parent_section": "§MB.2 [Example 2]", "md_verbatim": "| 8 | ABC | MB | ABC-001-001 | 8 | SP03 | MCORGIDN | Microbial Organism Identification | | NO GROWTH | Nom | NO GROWTH | LUNG | | MICROBIAL CULTURE, SOLID | 3 | VISIT 3 | 2005-07-06T08:00 |", "score": 0.45, "match_basis": "verbatim_token+domain_route:MB"}, {"md_atom_id": "md_dmMB_ex_a060", "md_file": "knowledge_base/domains/MB/examples.md", "md_atom_type": "TABLE_ROW", "md_parent_section": "§MB.2 [Example 2]", "md_verbatim": "| 6 | ABC | MB | ABC-001-001 | 6 | SP01 | MCORGIDN | Microbial Organism Identification | | KLEBSIELLA PNEUMONIAE | Nom | KLEBSIELLA PNEUMONIAE | LUNG | | MICROBIAL CULTURE, SOLID | 1 | VISIT 1 | 2005-06-19T08:00 |", "score": 0.4429, "match_basis": "verbatim_token+domain_route:MB"}, {"md_atom_id": "md_dmMB_ex_a061", "md_file": "knowledge_base/domains/MB/examples.md", "md_atom_type": "TABLE_ROW", "md_parent_section": "§MB.2 [Example 2]", "md_verbatim": "| 7 | ABC | MB | ABC-001-001 | 7 | SP02 | MCORGIDN | Microbial Organism Identification | | KLEBSIELLA PNEUMONIAE | Nom | KLEBSIELLA PNEUMONIAE | LUNG | | MICROBIAL CULTURE, SOLID | 2 | VISIT 2 | 2005-06-26T08:00 |", "score": 0.4429, "match_basis": "verbatim_token+domain_route:MB"}], "candidate_count": 5, "zero_candidate": false}
{"pdf_atom_id": "ig34_p0249_a005", "pdf_atom_type": "TABLE_ROW", "pdf_source": "SDTMIG_v3.4", "pdf_page": 249, "pdf_parent_section": "§6.3.5.7.1 Microbiology Specimen (MB)", "pdf_verbatim": "| DOMAIN | Domain Abbreviation | Char | MB | Identifier | Two-character abbreviation for the domain. | Req |", "figure_ref": null, "candidates": [{"md_atom_id": "md_dmMB_ex_a144", "md_file": "knowledge_base/domains/MB/examples.md", "md_atom_type": "TABLE_ROW", "md_parent_section": "§MB.3 [Example 3]", "md_verbatim": "| 2 | ABC | MB | ABC-01-101 | MBSEQ | 3 | MBMICERT | Microbial Identification Certainty | DEFINITIVE | Collected |", "score": 0.493, "match_basis": "verbatim_token+domain_route:MB"}, {"md_atom_id": "md_dmMB_ex_a145", "md_file": "knowledge_base/domains/MB/examples.md", "md_atom_type": "TABLE_ROW", "md_parent_section": "§MB.3 [Example 3]", "md_verbatim": "| 3 | ABC | MB | ABC-01-101 | MBSEQ | 4 | MBMICERT | Microbial Identification Certainty | PRESUMPTIVE | Collected |", "score": 0.4917, "match_basis": "verbatim_token+domain_route:MB"}, {"md_atom_id": "md_dmMB_ex_a148", "md_file": "knowledge_base/domains/MB/examples.md", "md_atom_type": "TABLE_ROW", "md_parent_section": "§MB.3 [Example 3]", "md_verbatim": "| 6 | ABC | MB | ABC-01-101 | MBSEQ | 6 | MBQSCAL | Quantification Scale | Solid Media Result: Centers for Disease Control (CDC) Quantification Scale | Collected |", "score": 0.475, "match_basis": "verbatim_token+domain_route:MB"}, {"md_atom_id": "md_dmMB_ex_a065", "md_file": "knowledge_base/domains/MB/examples.md", "md_atom_type": "TABLE_ROW", "md_parent_section": "§MB.2 [Example 2]", "md_verbatim": "| 1 | ABC | MB | ABC-01-101 | MBSEQ | 2 | MBQSCAL | Quantification Scale | CDC semi-quantitative score for gram staining | CRF |", "score": 0.4696, "match_basis": "verbatim_token+domain_route:MB"}, {"md_atom_id": "md_dmMB_ex_a143", "md_file": "knowledge_base/domains/MB/examples.md", "md_atom_type": "TABLE_ROW", "md_parent_section": "§MB.3 [Example 3]", "md_verbatim": "| 1 | ABC | MB | ABC-01-101 | MBSEQ | 2 | MBQSCAL | Quantification Scale | Smear Quantitation: Centers for Disease Control Method for Carbol Fuchsin Staining (1000X) | Collected |", "score": 0.4688, "match_basis": "verbatim_token+domain_route:MB"}], "candidate_count": 5, "zero_candidate": false}
{"pdf_atom_id": "ig34_p0249_a006", "pdf_atom_type": "TABLE_ROW", "pdf_source": "SDTMIG_v3.4", "pdf_page": 249, "pdf_parent_section": "§6.3.5.7.1 Microbiology Specimen (MB)", "pdf_verbatim": "| USUBJID | Unique Subject Identifier | Char | | Identifier | Identifier used to uniquely identify a subject across all studies for all applications or submissions involving the product. | Req |", "figure_ref": null, "candidates": [{"md_atom_id": "md_dmMB_ex_a144", "md_file": "knowledge_base/domains/MB/examples.md", "md_atom_type": "TABLE_ROW", "md_parent_section": "§MB.3 [Example 3]", "md_verbatim": "| 2 | ABC | MB | ABC-01-101 | MBSEQ | 3 | MBMICERT | Microbial Identification Certainty | DEFINITIVE | Collected |", "score": 0.4816, "match_basis": "verbatim_token+domain_route:MB"}, {"md_atom_id": "md_dmMB_ex_a145", "md_file": "knowledge_base/domains/MB/examples.md", "md_atom_type": "TABLE_ROW", "md_parent_section": "§MB.3 [Example 3]", "md_verbatim": "| 3 | ABC | MB | ABC-01-101 | MBSEQ | 4 | MBMICERT | Microbial Identification Certainty | PRESUMPTIVE | Collected |", "score": 0.4808, "match_basis": "verbatim_token+domain_route:MB"}, {"md_atom_id": "md_dmMB_ex_a062", "md_file": "knowledge_base/domains/MB/examples.md", "md_atom_type": "TABLE_ROW", "md_parent_section": "§MB.2 [Example 2]", "md_verbatim": "| 8 | ABC | MB | ABC-001-001 | 8 | SP03 | MCORGIDN | Microbial Organism Identification | | NO GROWTH | Nom | NO GROWTH | LUNG | | MICROBIAL CULTURE, SOLID | 3 | VISIT 3 | 2005-07-06T08:00 |", "score": 0.4637, "match_basis": "verbatim_token+domain_route:MB"}, {"md_atom_id": "md_dmMB_ex_a020", "md_file": "knowledge_base/domains/MB/examples.md", "md_atom_type": "TABLE_ROW", "md_parent_section": "§MB.1 [Example 1]", "md_verbatim": "| 1 | ABC | MB | ABC-001-002 | 1 | SPEC01 | | MCORGIDN | Microbial Organism Identification | DETECTION | PRESENT | PRESENT | FLUID | SKIN | MICROBIAL CULTURE, SOLID | CENTRAL LAB ABC | 1 | VISIT 1 | 2005-06-19T08:00 |", "score": 0.4614, "match_basis": "verbatim_token+domain_route:MB"}, {"md_atom_id": "md_dmMB_ex_a021", "md_file": "knowledge_base/domains/MB/examples.md", "md_atom_type": "TABLE_ROW", "md_parent_section": "§MB.1 [Example 1]", "md_verbatim": "| 2 | ABC | MB | ABC-001-002 | 2 | SPEC01 | | MCORGIDN | Microbial Organism Identification | DETECTION | PRESENT | PRESENT | FLUID | SKIN | MICROBIAL CULTURE, SOLID | LOCAL LAB XYZ | 1 | VISIT 1 | 2005-06-19T08:00 |", "score": 0.4614, "match_basis": "verbatim_token+domain_route:MB"}], "candidate_count": 5, "zero_candidate": false}
{"pdf_atom_id": "ig34_p0249_a007", "pdf_atom_type": "TABLE_ROW", "pdf_source": "SDTMIG_v3.4", "pdf_page": 249, "pdf_parent_section": "§6.3.5.7.1 Microbiology Specimen (MB)", "pdf_verbatim": "| FOCID | Focus of Study-Specific Interest | Char | | Identifier | Identification of a focus of study-specific interest on or within a subject or specimen as called out in the protocol for which a measurement, test, or examination was performed. The value in this variable should have inherent semantic meaning. | Perm |", "figure_ref": null, "candidates": [{"md_atom_id": "md_dmMB_ex_a148", "md_file": "knowledge_base/domains/MB/examples.md", "md_atom_type": "TABLE_ROW", "md_parent_section": "§MB.3 [Example 3]", "md_verbatim": "| 6 | ABC | MB | ABC-01-101 | MBSEQ | 6 | MBQSCAL | Quantification Scale | Solid Media Result: Centers for Disease Control (CDC) Quantification Scale | Collected |", "score": 0.4846, "match_basis": "verbatim_token+domain_route:MB"}, {"md_atom_id": "md_dmMB_ex_a143", "md_file": "knowledge_base/domains/MB/examples.md", "md_atom_type": "TABLE_ROW", "md_parent_section": "§MB.3 [Example 3]", "md_verbatim": "| 1 | ABC | MB | ABC-01-101 | MBSEQ | 2 | MBQSCAL | Quantification Scale | Smear Quantitation: Centers for Disease Control Method for Carbol Fuchsin Staining (1000X) | Collected |", "score": 0.48, "match_basis": "verbatim_token+domain_route:MB"}, {"md_atom_id": "md_dmMB_ex_a145", "md_file": "knowledge_base/domains/MB/examples.md", "md_atom_type": "TABLE_ROW", "md_parent_section": "§MB.3 [Example 3]", "md_verbatim": "| 3 | ABC | MB | ABC-01-101 | MBSEQ | 4 | MBMICERT | Microbial Identification Certainty | PRESUMPTIVE | Collected |", "score": 0.4699, "match_basis": "verbatim_token+domain_route:MB"}, {"md_atom_id": "md_dmMB_ex_a021", "md_file": "knowledge_base/domains/MB/examples.md", "md_atom_type": "TABLE_ROW", "md_parent_section": "§MB.1 [Example 1]", "md_verbatim": "| 2 | ABC | MB | ABC-001-002 | 2 | SPEC01 | | MCORGIDN | Microbial Organism Identification | DETECTION | PRESENT | PRESENT | FLUID | SKIN | MICROBIAL CULTURE, SOLID | LOCAL LAB XYZ | 1 | VISIT 1 | 2005-06-19T08:00 |", "score": 0.4687, "match_basis": "verbatim_token+domain_route:MB"}, {"md_atom_id": "md_dmMB_ex_a144", "md_file": "knowledge_base/domains/MB/examples.md", "md_atom_type": "TABLE_ROW", "md_parent_section": "§MB.3 [Example 3]", "md_verbatim": "| 2 | ABC | MB | ABC-01-101 | MBSEQ | 3 | MBMICERT | Microbial Identification Certainty | DEFINITIVE | Collected |", "score": 0.4658, "match_basis": "verbatim_token+domain_route:MB"}], "candidate_count": 5, "zero_candidate": false}
{"pdf_atom_id": "ig34_p0249_a008", "pdf_atom_type": "TABLE_ROW", "pdf_source": "SDTMIG_v3.4", "pdf_page": 249, "pdf_parent_section": "§6.3.5.7.1 Microbiology Specimen (MB)", "pdf_verbatim": "| MBSEQ | Sequence Number | Num | | Identifier | Sequence number to ensure uniqueness of records within a dataset for a subject. May be any valid number. | Req |", "figure_ref": null, "candidates": [{"md_atom_id": "md_dmMB_ex_a148", "md_file": "knowledge_base/domains/MB/examples.md", "md_atom_type": "TABLE_ROW", "md_parent_section": "§MB.3 [Example 3]", "md_verbatim": "| 6 | ABC | MB | ABC-01-101 | MBSEQ | 6 | MBQSCAL | Quantification Scale | Solid Media Result: Centers for Disease Control (CDC) Quantification Scale | Collected |", "score": 0.4647, "match_basis": "verbatim_token+domain_route:MB"}, {"md_atom_id": "md_dmMB_ex_a144", "md_file": "knowledge_base/domains/MB/examples.md", "md_atom_type": "TABLE_ROW", "md_parent_section": "§MB.3 [Example 3]", "md_verbatim": "| 2 | ABC | MB | ABC-01-101 | MBSEQ | 3 | MBMICERT | Microbial Identification Certainty | DEFINITIVE | Collected |", "score": 0.4632, "match_basis": "verbatim_token+domain_route:MB"}, {"md_atom_id": "md_dmMB_ex_a145", "md_file": "knowledge_base/domains/MB/examples.md", "md_atom_type": "TABLE_ROW", "md_parent_section": "§MB.3 [Example 3]", "md_verbatim": "| 3 | ABC | MB | ABC-01-101 | MBSEQ | 4 | MBMICERT | Microbial Identification Certainty | PRESUMPTIVE | Collected |", "score": 0.4625, "match_basis": "verbatim_token+domain_route:MB"}, {"md_atom_id": "md_dmMB_ex_a065", "md_file": "knowledge_base/domains/MB/examples.md", "md_atom_type": "TABLE_ROW", "md_parent_section": "§MB.2 [Example 2]", "md_verbatim": "| 1 | ABC | MB | ABC-01-101 | MBSEQ | 2 | MBQSCAL | Quantification Scale | CDC semi-quantitative score for gram staining | CRF |", "score": 0.4522, "match_basis": "verbatim_token+domain_route:MB"}, {"md_atom_id": "md_dmMB_ex_a062", "md_file": "knowledge_base/domains/MB/examples.md", "md_atom_type": "TABLE_ROW", "md_parent_section": "§MB.2 [Example 2]", "md_verbatim": "| 8 | ABC | MB | ABC-001-001 | 8 | SP03 | MCORGIDN | Microbial Organism Identification | | NO GROWTH | Nom | NO GROWTH | LUNG | | MICROBIAL CULTURE, SOLID | 3 | VISIT 3 | 2005-07-06T08:00 |", "score": 0.4519, "match_basis": "verbatim_token+domain_route:MB"}], "candidate_count": 5, "zero_candidate": false}
{"pdf_atom_id": "ig34_p0249_a009", "pdf_atom_type": "TABLE_ROW", "pdf_source": "SDTMIG_v3.4", "pdf_page": 249, "pdf_parent_section": "§6.3.5.7.1 Microbiology Specimen (MB)", "pdf_verbatim": "| MBGRPID | Group ID | Char | | Identifier | Optional group identifier, used to link together a block of related records within a subject in a domain. | Perm |", "figure_ref": null, "candidates": [{"md_atom_id": "md_dmMB_ex_a145", "md_file": "knowledge_base/domains/MB/examples.md", "md_atom_type": "TABLE_ROW", "md_parent_section": "§MB.3 [Example 3]", "md_verbatim": "| 3 | ABC | MB | ABC-01-101 | MBSEQ | 4 | MBMICERT | Microbial Identification Certainty | PRESUMPTIVE | Collected |", "score": 0.472, "match_basis": "verbatim_token+domain_route:MB"}, {"md_atom_id": "md_dmMB_ex_a144", "md_file": "knowledge_base/domains/MB/examples.md", "md_atom_type": "TABLE_ROW", "md_parent_section": "§MB.3 [Example 3]", "md_verbatim": "| 2 | ABC | MB | ABC-01-101 | MBSEQ | 3 | MBMICERT | Microbial Identification Certainty | DEFINITIVE | Collected |", "score": 0.466, "match_basis": "verbatim_token+domain_route:MB"}, {"md_atom_id": "md_dmMB_ex_a062", "md_file": "knowledge_base/domains/MB/examples.md", "md_atom_type": "TABLE_ROW", "md_parent_section": "§MB.2 [Example 2]", "md_verbatim": "| 8 | ABC | MB | ABC-001-001 | 8 | SP03 | MCORGIDN | Microbial Organism Identification | | NO GROWTH | Nom | NO GROWTH | LUNG | | MICROBIAL CULTURE, SOLID | 3 | VISIT 3 | 2005-07-06T08:00 |", "score": 0.455, "match_basis": "verbatim_token+domain_route:MB"}, {"md_atom_id": "md_dmMB_ex_a021", "md_file": "knowledge_base/domains/MB/examples.md", "md_atom_type": "TABLE_ROW", "md_parent_section": "§MB.1 [Example 1]", "md_verbatim": "| 2 | ABC | MB | ABC-001-002 | 2 | SPEC01 | | MCORGIDN | Microbial Organism Identification | DETECTION | PRESENT | PRESENT | FLUID | SKIN | MICROBIAL CULTURE, SOLID | LOCAL LAB XYZ | 1 | VISIT 1 | 2005-06-19T08:00 |", "score": 0.4537, "match_basis": "verbatim_token+domain_route:MB"}, {"md_atom_id": "md_dmMB_ex_a020", "md_file": "knowledge_base/domains/MB/examples.md", "md_atom_type": "TABLE_ROW", "md_parent_section": "§MB.1 [Example 1]", "md_verbatim": "| 1 | ABC | MB | ABC-001-002 | 1 | SPEC01 | | MCORGIDN | Microbial Organism Identification | DETECTION | PRESENT | PRESENT | FLUID | SKIN | MICROBIAL CULTURE, SOLID | CENTRAL LAB ABC | 1 | VISIT 1 | 2005-06-19T08:00 |", "score": 0.4484, "match_basis": "verbatim_token+domain_route:MB"}], "candidate_count": 5, "zero_candidate": false}
{"pdf_atom_id": "ig34_p0249_a010", "pdf_atom_type": "TABLE_ROW", "pdf_source": "SDTMIG_v3.4", "pdf_page": 249, "pdf_parent_section": "§6.3.5.7.1 Microbiology Specimen (MB)", "pdf_verbatim": "| MBREFID | Reference ID | Char | | Identifier | Internal or external specimen identifier (e.g., a sample ID for a subject sample from which a microbial culture was generated). | Perm |", "figure_ref": null, "candidates": [{"md_atom_id": "md_dmMB_ex_a020", "md_file": "knowledge_base/domains/MB/examples.md", "md_atom_type": "TABLE_ROW", "md_parent_section": "§MB.1 [Example 1]", "md_verbatim": "| 1 | ABC | MB | ABC-001-002 | 1 | SPEC01 | | MCORGIDN | Microbial Organism Identification | DETECTION | PRESENT | PRESENT | FLUID | SKIN | MICROBIAL CULTURE, SOLID | CENTRAL LAB ABC | 1 | VISIT 1 | 2005-06-19T08:00 |", "score": 0.5024, "match_basis": "verbatim_token+domain_route:MB"}, {"md_atom_id": "md_dmMB_ex_a021", "md_file": "knowledge_base/domains/MB/examples.md", "md_atom_type": "TABLE_ROW", "md_parent_section": "§MB.1 [Example 1]", "md_verbatim": "| 2 | ABC | MB | ABC-001-002 | 2 | SPEC01 | | MCORGIDN | Microbial Organism Identification | DETECTION | PRESENT | PRESENT | FLUID | SKIN | MICROBIAL CULTURE, SOLID | LOCAL LAB XYZ | 1 | VISIT 1 | 2005-06-19T08:00 |", "score": 0.5024, "match_basis": "verbatim_token+domain_route:MB"}, {"md_atom_id": "md_dmMB_ex_a144", "md_file": "knowledge_base/domains/MB/examples.md", "md_atom_type": "TABLE_ROW", "md_parent_section": "§MB.3 [Example 3]", "md_verbatim": "| 2 | ABC | MB | ABC-01-101 | MBSEQ | 3 | MBMICERT | Microbial Identification Certainty | DEFINITIVE | Collected |", "score": 0.4981, "match_basis": "verbatim_token+domain_route:MB"}, {"md_atom_id": "md_dmMB_ex_a062", "md_file": "knowledge_base/domains/MB/examples.md", "md_atom_type": "TABLE_ROW", "md_parent_section": "§MB.2 [Example 2]", "md_verbatim": "| 8 | ABC | MB | ABC-001-001 | 8 | SP03 | MCORGIDN | Microbial Organism Identification | | NO GROWTH | Nom | NO GROWTH | LUNG | | MICROBIAL CULTURE, SOLID | 3 | VISIT 3 | 2005-07-06T08:00 |", "score": 0.4973, "match_basis": "verbatim_token+domain_route:MB"}, {"md_atom_id": "md_dmMB_ex_a145", "md_file": "knowledge_base/domains/MB/examples.md", "md_atom_type": "TABLE_ROW", "md_parent_section": "§MB.3 [Example 3]", "md_verbatim": "| 3 | ABC | MB | ABC-01-101 | MBSEQ | 4 | MBMICERT | Microbial Identification Certainty | PRESUMPTIVE | Collected |", "score": 0.4906, "match_basis": "verbatim_token+domain_route:MB"}], "candidate_count": 5, "zero_candidate": false}
{"pdf_atom_id": "ig34_p0249_a011", "pdf_atom_type": "TABLE_ROW", "pdf_source": "SDTMIG_v3.4", "pdf_page": 249, "pdf_parent_section": "§6.3.5.7.1 Microbiology Specimen (MB)", "pdf_verbatim": "| MBSPID | Sponsor-Defined Identifier | Char | | Identifier | Sponsor-defined reference number. May be preprinted on the CRF as an explicit line identifier or defined in the sponsor's operational database. | Perm |", "figure_ref": null, "candidates": [{"md_atom_id": "md_dmMB_ex_a144", "md_file": "knowledge_base/domains/MB/examples.md", "md_atom_type": "TABLE_ROW", "md_parent_section": "§MB.3 [Example 3]", "md_verbatim": "| 2 | ABC | MB | ABC-01-101 | MBSEQ | 3 | MBMICERT | Microbial Identification Certainty | DEFINITIVE | Collected |", "score": 0.4874, "match_basis": "verbatim_token+domain_route:MB"}, {"md_atom_id": "md_dmMB_ex_a145", "md_file": "knowledge_base/domains/MB/examples.md", "md_atom_type": "TABLE_ROW", "md_parent_section": "§MB.3 [Example 3]", "md_verbatim": "| 3 | ABC | MB | ABC-01-101 | MBSEQ | 4 | MBMICERT | Microbial Identification Certainty | PRESUMPTIVE | Collected |", "score": 0.4736, "match_basis": "verbatim_token+domain_route:MB"}, {"md_atom_id": "md_dmMB_ex_a045", "md_file": "knowledge_base/domains/MB/examples.md", "md_atom_type": "TABLE_ROW", "md_parent_section": "§MB.2 [Example 2]", "md_verbatim": "| 4 | ABC | BE | ABC-01-101 | BEREFID | SP01 | BECLMETH | Specimen Collection Method | EXPECTORATION | CRF |", "score": 0.4612, "match_basis": "verbatim_token+domain_route:MB"}, {"md_atom_id": "md_dmMB_ex_a046", "md_file": "knowledge_base/domains/MB/examples.md", "md_atom_type": "TABLE_ROW", "md_parent_section": "§MB.2 [Example 2]", "md_verbatim": "| 5 | ABC | BE | ABC-01-101 | BEREFID | SP02 | BECLMETH | Specimen Collection Method | EXPECTORATION | CRF |", "score": 0.4612, "match_basis": "verbatim_token+domain_route:MB"}, {"md_atom_id": "md_dmMB_ex_a047", "md_file": "knowledge_base/domains/MB/examples.md", "md_atom_type": "TABLE_ROW", "md_parent_section": "§MB.2 [Example 2]", "md_verbatim": "| 6 | ABC | BE | ABC-01-101 | BEREFID | SP03 | BECLMETH | Specimen Collection Method | EXPECTORATION | CRF |", "score": 0.4612, "match_basis": "verbatim_token+domain_route:MB"}], "candidate_count": 5, "zero_candidate": false}
{"pdf_atom_id": "ig34_p0249_a012", "pdf_atom_type": "TABLE_ROW", "pdf_source": "SDTMIG_v3.4", "pdf_page": 249, "pdf_parent_section": "§6.3.5.7.1 Microbiology Specimen (MB)", "pdf_verbatim": "| MBLNKID | Link ID | Char | | Identifier | Identifier used to link related records across domains. This may be a one-to-one or a one-to-many relationship. For example, it may be used to link genetic findings (in the PF domain) about a microbe to the original culture of that microbe (in MB), or to susceptibility records (in MS) if needed. | Perm |", "figure_ref": null, "candidates": [{"md_atom_id": "md_dmMB_ex_a062", "md_file": "knowledge_base/domains/MB/examples.md", "md_atom_type": "TABLE_ROW", "md_parent_section": "§MB.2 [Example 2]", "md_verbatim": "| 8 | ABC | MB | ABC-001-001 | 8 | SP03 | MCORGIDN | Microbial Organism Identification | | NO GROWTH | Nom | NO GROWTH | LUNG | | MICROBIAL CULTURE, SOLID | 3 | VISIT 3 | 2005-07-06T08:00 |", "score": 0.4786, "match_basis": "verbatim_token+domain_route:MB"}, {"md_atom_id": "md_dmMB_ex_a059", "md_file": "knowledge_base/domains/MB/examples.md", "md_atom_type": "TABLE_ROW", "md_parent_section": "§MB.2 [Example 2]", "md_verbatim": "| 5 | ABC | MB | ABC-001-001 | 5 | SP01 | MCORGIDN | Microbial Organism Identification | | STREPTOCOCCUS PNEUMONIAE | Nom | STREPTOCOCCUS PNEUMONIAE | LUNG | | MICROBIAL CULTURE, SOLID | 1 | VISIT 1 | 2005-06-19T08:00 |", "score": 0.4755, "match_basis": "verbatim_token+domain_route:MB"}, {"md_atom_id": "md_dmMB_ex_a060", "md_file": "knowledge_base/domains/MB/examples.md", "md_atom_type": "TABLE_ROW", "md_parent_section": "§MB.2 [Example 2]", "md_verbatim": "| 6 | ABC | MB | ABC-001-001 | 6 | SP01 | MCORGIDN | Microbial Organism Identification | | KLEBSIELLA PNEUMONIAE | Nom | KLEBSIELLA PNEUMONIAE | LUNG | | MICROBIAL CULTURE, SOLID | 1 | VISIT 1 | 2005-06-19T08:00 |", "score": 0.4726, "match_basis": "verbatim_token+domain_route:MB"}, {"md_atom_id": "md_dmMB_ex_a061", "md_file": "knowledge_base/domains/MB/examples.md", "md_atom_type": "TABLE_ROW", "md_parent_section": "§MB.2 [Example 2]", "md_verbatim": "| 7 | ABC | MB | ABC-001-001 | 7 | SP02 | MCORGIDN | Microbial Organism Identification | | KLEBSIELLA PNEUMONIAE | Nom | KLEBSIELLA PNEUMONIAE | LUNG | | MICROBIAL CULTURE, SOLID | 2 | VISIT 2 | 2005-06-26T08:00 |", "score": 0.4726, "match_basis": "verbatim_token+domain_route:MB"}, {"md_atom_id": "md_dmMB_ex_a020", "md_file": "knowledge_base/domains/MB/examples.md", "md_atom_type": "TABLE_ROW", "md_parent_section": "§MB.1 [Example 1]", "md_verbatim": "| 1 | ABC | MB | ABC-001-002 | 1 | SPEC01 | | MCORGIDN | Microbial Organism Identification | DETECTION | PRESENT | PRESENT | FLUID | SKIN | MICROBIAL CULTURE, SOLID | CENTRAL LAB ABC | 1 | VISIT 1 | 2005-06-19T08:00 |", "score": 0.4712, "match_basis": "verbatim_token+domain_route:MB"}], "candidate_count": 5, "zero_candidate": false}
{"pdf_atom_id": "ig34_p0249_a013", "pdf_atom_type": "TABLE_ROW", "pdf_source": "SDTMIG_v3.4", "pdf_page": 249, "pdf_parent_section": "§6.3.5.7.1 Microbiology Specimen (MB)", "pdf_verbatim": "| MBLNKGRP | Link Group ID | Char | | Identifier | Identifier used to link related records across domains. This will usually be a many-to-one relationship. | Perm |", "figure_ref": null, "candidates": [{"md_atom_id": "md_dmMB_ex_a144", "md_file": "knowledge_base/domains/MB/examples.md", "md_atom_type": "TABLE_ROW", "md_parent_section": "§MB.3 [Example 3]", "md_verbatim": "| 2 | ABC | MB | ABC-01-101 | MBSEQ | 3 | MBMICERT | Microbial Identification Certainty | DEFINITIVE | Collected |", "score": 0.472, "match_basis": "verbatim_token+domain_route:MB"}, {"md_atom_id": "md_dmMB_ex_a145", "md_file": "knowledge_base/domains/MB/examples.md", "md_atom_type": "TABLE_ROW", "md_parent_section": "§MB.3 [Example 3]", "md_verbatim": "| 3 | ABC | MB | ABC-01-101 | MBSEQ | 4 | MBMICERT | Microbial Identification Certainty | PRESUMPTIVE | Collected |", "score": 0.4713, "match_basis": "verbatim_token+domain_route:MB"}, {"md_atom_id": "md_dmMB_ex_a062", "md_file": "knowledge_base/domains/MB/examples.md", "md_atom_type": "TABLE_ROW", "md_parent_section": "§MB.2 [Example 2]", "md_verbatim": "| 8 | ABC | MB | ABC-001-001 | 8 | SP03 | MCORGIDN | Microbial Organism Identification | | NO GROWTH | Nom | NO GROWTH | LUNG | | MICROBIAL CULTURE, SOLID | 3 | VISIT 3 | 2005-07-06T08:00 |", "score": 0.4667, "match_basis": "verbatim_token+domain_route:MB"}, {"md_atom_id": "md_dmMB_ex_a026", "md_file": "knowledge_base/domains/MB/examples.md", "md_atom_type": "TABLE_ROW", "md_parent_section": "§MB.1 [Example 1]", "md_verbatim": "| 2 | ABC | MS | | MSLNKGRP | | MANY | A |", "score": 0.4545, "match_basis": "verbatim_token+domain_route:MB"}, {"md_atom_id": "md_dmMB_ex_a060", "md_file": "knowledge_base/domains/MB/examples.md", "md_atom_type": "TABLE_ROW", "md_parent_section": "§MB.2 [Example 2]", "md_verbatim": "| 6 | ABC | MB | ABC-001-001 | 6 | SP01 | MCORGIDN | Microbial Organism Identification | | KLEBSIELLA PNEUMONIAE | Nom | KLEBSIELLA PNEUMONIAE | LUNG | | MICROBIAL CULTURE, SOLID | 1 | VISIT 1 | 2005-06-19T08:00 |", "score": 0.4545, "match_basis": "verbatim_token+domain_route:MB"}], "candidate_count": 5, "zero_candidate": false}
{"pdf_atom_id": "ig34_p0249_a014", "pdf_atom_type": "TABLE_ROW", "pdf_source": "SDTMIG_v3.4", "pdf_page": 249, "pdf_parent_section": "§6.3.5.7.1 Microbiology Specimen (MB)", "pdf_verbatim": "| MBTESTCD | Microbiology Test or Finding Short Name | Char | (MBTESTCD) | Topic | Short name of the measurement, test, or finding described in MBTEST. It can be used as a column name when converting a dataset from a vertical to a horizontal format. The value in MBTESTCD cannot be longer than 8 characters, nor can it start with a number (e.g., \"1TEST\" is not valid). MBTESTCD cannot contain characters other than letters, numbers, or underscores. Examples: \"MCORGIDN\" for Microbial Organism Identification \"GMNCOC\" for Gram Negative Cocci. | Req |", "figure_ref": null, "candidates": [{"md_atom_id": "md_dmMB_ex_a062", "md_file": "knowledge_base/domains/MB/examples.md", "md_atom_type": "TABLE_ROW", "md_parent_section": "§MB.2 [Example 2]", "md_verbatim": "| 8 | ABC | MB | ABC-001-001 | 8 | SP03 | MCORGIDN | Microbial Organism Identification | | NO GROWTH | Nom | NO GROWTH | LUNG | | MICROBIAL CULTURE, SOLID | 3 | VISIT 3 | 2005-07-06T08:00 |", "score": 0.497, "match_basis": "verbatim_token+domain_route:MB"}, {"md_atom_id": "md_dmMB_ex_a021", "md_file": "knowledge_base/domains/MB/examples.md", "md_atom_type": "TABLE_ROW", "md_parent_section": "§MB.1 [Example 1]", "md_verbatim": "| 2 | ABC | MB | ABC-001-002 | 2 | SPEC01 | | MCORGIDN | Microbial Organism Identification | DETECTION | PRESENT | PRESENT | FLUID | SKIN | MICROBIAL CULTURE, SOLID | LOCAL LAB XYZ | 1 | VISIT 1 | 2005-06-19T08:00 |", "score": 0.4967, "match_basis": "verbatim_token+domain_route:MB"}, {"md_atom_id": "md_dmMB_ex_a059", "md_file": "knowledge_base/domains/MB/examples.md", "md_atom_type": "TABLE_ROW", "md_parent_section": "§MB.2 [Example 2]", "md_verbatim": "| 5 | ABC | MB | ABC-001-001 | 5 | SP01 | MCORGIDN | Microbial Organism Identification | | STREPTOCOCCUS PNEUMONIAE | Nom | STREPTOCOCCUS PNEUMONIAE | LUNG | | MICROBIAL CULTURE, SOLID | 1 | VISIT 1 | 2005-06-19T08:00 |", "score": 0.4967, "match_basis": "verbatim_token+domain_route:MB"}, {"md_atom_id": "md_dmMB_ex_a020", "md_file": "knowledge_base/domains/MB/examples.md", "md_atom_type": "TABLE_ROW", "md_parent_section": "§MB.1 [Example 1]", "md_verbatim": "| 1 | ABC | MB | ABC-001-002 | 1 | SPEC01 | | MCORGIDN | Microbial Organism Identification | DETECTION | PRESENT | PRESENT | FLUID | SKIN | MICROBIAL CULTURE, SOLID | CENTRAL LAB ABC | 1 | VISIT 1 | 2005-06-19T08:00 |", "score": 0.4934, "match_basis": "verbatim_token+domain_route:MB"}, {"md_atom_id": "md_dmMB_ex_a060", "md_file": "knowledge_base/domains/MB/examples.md", "md_atom_type": "TABLE_ROW", "md_parent_section": "§MB.2 [Example 2]", "md_verbatim": "| 6 | ABC | MB | ABC-001-001 | 6 | SP01 | MCORGIDN | Microbial Organism Identification | | KLEBSIELLA PNEUMONIAE | Nom | KLEBSIELLA PNEUMONIAE | LUNG | | MICROBIAL CULTURE, SOLID | 1 | VISIT 1 | 2005-06-19T08:00 |", "score": 0.4914, "match_basis": "verbatim_token+domain_route:MB"}], "candidate_count": 5, "zero_candidate": false}
{"pdf_atom_id": "ig34_p0249_a015", "pdf_atom_type": "TABLE_ROW", "pdf_source": "SDTMIG_v3.4", "pdf_page": 249, "pdf_parent_section": "§6.3.5.7.1 Microbiology Specimen (MB)", "pdf_verbatim": "| MBTEST | Microbiology Test or Finding Name | Char | (MBTEST) | Synonym Qualifier | Verbatim name of the test or examination used to obtain the measurement or finding. The value in MBTEST cannot be longer than 40 characters. Examples: \"Microbial Organism Identification\", \"Gram Negative Cocci\", \"HIV-1 RNA\". | Req |", "figure_ref": null, "candidates": [{"md_atom_id": "md_dmMB_ex_a144", "md_file": "knowledge_base/domains/MB/examples.md", "md_atom_type": "TABLE_ROW", "md_parent_section": "§MB.3 [Example 3]", "md_verbatim": "| 2 | ABC | MB | ABC-01-101 | MBSEQ | 3 | MBMICERT | Microbial Identification Certainty | DEFINITIVE | Collected |", "score": 0.5071, "match_basis": "verbatim_token+domain_route:MB"}, {"md_atom_id": "md_dmMB_ex_a062", "md_file": "knowledge_base/domains/MB/examples.md", "md_atom_type": "TABLE_ROW", "md_parent_section": "§MB.2 [Example 2]", "md_verbatim": "| 8 | ABC | MB | ABC-001-001 | 8 | SP03 | MCORGIDN | Microbial Organism Identification | | NO GROWTH | Nom | NO GROWTH | LUNG | | MICROBIAL CULTURE, SOLID | 3 | VISIT 3 | 2005-07-06T08:00 |", "score": 0.5061, "match_basis": "verbatim_token+domain_route:MB"}, {"md_atom_id": "md_dmMB_ex_a059", "md_file": "knowledge_base/domains/MB/examples.md", "md_atom_type": "TABLE_ROW", "md_parent_section": "§MB.2 [Example 2]", "md_verbatim": "| 5 | ABC | MB | ABC-001-001 | 5 | SP01 | MCORGIDN | Microbial Organism Identification | | STREPTOCOCCUS PNEUMONIAE | Nom | STREPTOCOCCUS PNEUMONIAE | LUNG | | MICROBIAL CULTURE, SOLID | 1 | VISIT 1 | 2005-06-19T08:00 |", "score": 0.505, "match_basis": "verbatim_token+domain_route:MB"}, {"md_atom_id": "md_dmMB_ex_a145", "md_file": "knowledge_base/domains/MB/examples.md", "md_atom_type": "TABLE_ROW", "md_parent_section": "§MB.3 [Example 3]", "md_verbatim": "| 3 | ABC | MB | ABC-01-101 | MBSEQ | 4 | MBMICERT | Microbial Identification Certainty | PRESUMPTIVE | Collected |", "score": 0.5014, "match_basis": "verbatim_token+domain_route:MB"}, {"md_atom_id": "md_dmMB_ex_a060", "md_file": "knowledge_base/domains/MB/examples.md", "md_atom_type": "TABLE_ROW", "md_parent_section": "§MB.2 [Example 2]", "md_verbatim": "| 6 | ABC | MB | ABC-001-001 | 6 | SP01 | MCORGIDN | Microbial Organism Identification | | KLEBSIELLA PNEUMONIAE | Nom | KLEBSIELLA PNEUMONIAE | LUNG | | MICROBIAL CULTURE, SOLID | 1 | VISIT 1 | 2005-06-19T08:00 |", "score": 0.4981, "match_basis": "verbatim_token+domain_route:MB"}], "candidate_count": 5, "zero_candidate": false}
{"pdf_atom_id": "ig34_p0249_a016", "pdf_atom_type": "TABLE_ROW", "pdf_source": "SDTMIG_v3.4", "pdf_page": 249, "pdf_parent_section": "§6.3.5.7.1 Microbiology Specimen (MB)", "pdf_verbatim": "| MBTSTDTL | Measurement, Test or Examination Detail | Char | (MBFTSDTL) | Variable Qualifier | Further description of MBTESTCD and MBTEST. Example: \"VIRAL LOAD\" when MBTESTCD represents viral genetic material, such as \"HCRNA\", \"QUANTIFICATION\" when MBTESTCD represents any organism being quantified. | Perm |", "figure_ref": null, "candidates": [{"md_atom_id": "md_dmMB_ex_a020", "md_file": "knowledge_base/domains/MB/examples.md", "md_atom_type": "TABLE_ROW", "md_parent_section": "§MB.1 [Example 1]", "md_verbatim": "| 1 | ABC | MB | ABC-001-002 | 1 | SPEC01 | | MCORGIDN | Microbial Organism Identification | DETECTION | PRESENT | PRESENT | FLUID | SKIN | MICROBIAL CULTURE, SOLID | CENTRAL LAB ABC | 1 | VISIT 1 | 2005-06-19T08:00 |", "score": 0.4867, "match_basis": "verbatim_token+domain_route:MB"}, {"md_atom_id": "md_dmMB_ex_a021", "md_file": "knowledge_base/domains/MB/examples.md", "md_atom_type": "TABLE_ROW", "md_parent_section": "§MB.1 [Example 1]", "md_verbatim": "| 2 | ABC | MB | ABC-001-002 | 2 | SPEC01 | | MCORGIDN | Microbial Organism Identification | DETECTION | PRESENT | PRESENT | FLUID | SKIN | MICROBIAL CULTURE, SOLID | LOCAL LAB XYZ | 1 | VISIT 1 | 2005-06-19T08:00 |", "score": 0.4826, "match_basis": "verbatim_token+domain_route:MB"}, {"md_atom_id": "md_dmMB_ex_a137", "md_file": "knowledge_base/domains/MB/examples.md", "md_atom_type": "TABLE_ROW", "md_parent_section": "§MB.3 [Example 3]", "md_verbatim": "| 3 | ABC | MB | ABC-01-101 | ABC765 | 3 | | 100.2 | | MTBCMPLX | Mycobacterium Tuberculosis Complex | DETECTION | PRESENT | Ord | PRESENT | | | | LAVAGE FLUID | STOMACH | NUCLEIC ACID AMPLIFICATION TEST | 1 | WEEK 1 | 2011-01-17T06:00 |", "score": 0.4689, "match_basis": "verbatim_token+domain_route:MB"}, {"md_atom_id": "md_dmMB_ex_a062", "md_file": "knowledge_base/domains/MB/examples.md", "md_atom_type": "TABLE_ROW", "md_parent_section": "§MB.2 [Example 2]", "md_verbatim": "| 8 | ABC | MB | ABC-001-001 | 8 | SP03 | MCORGIDN | Microbial Organism Identification | | NO GROWTH | Nom | NO GROWTH | LUNG | | MICROBIAL CULTURE, SOLID | 3 | VISIT 3 | 2005-07-06T08:00 |", "score": 0.4688, "match_basis": "verbatim_token+domain_route:MB"}, {"md_atom_id": "md_dmMB_ex_a059", "md_file": "knowledge_base/domains/MB/examples.md", "md_atom_type": "TABLE_ROW", "md_parent_section": "§MB.2 [Example 2]", "md_verbatim": "| 5 | ABC | MB | ABC-001-001 | 5 | SP01 | MCORGIDN | Microbial Organism Identification | | STREPTOCOCCUS PNEUMONIAE | Nom | STREPTOCOCCUS PNEUMONIAE | LUNG | | MICROBIAL CULTURE, SOLID | 1 | VISIT 1 | 2005-06-19T08:00 |", "score": 0.4667, "match_basis": "verbatim_token+domain_route:MB"}], "candidate_count": 5, "zero_candidate": false}
{"pdf_atom_id": "ig34_p0249_a017", "pdf_atom_type": "TABLE_ROW", "pdf_source": "SDTMIG_v3.4", "pdf_page": 249, "pdf_parent_section": "§6.3.5.7.1 Microbiology Specimen (MB)", "pdf_verbatim": "| MBCAT | Category | Char | * | Grouping Qualifier | Used to define a category of related records. | Perm |", "figure_ref": null, "candidates": [{"md_atom_id": "md_dmMB_ex_a144", "md_file": "knowledge_base/domains/MB/examples.md", "md_atom_type": "TABLE_ROW", "md_parent_section": "§MB.3 [Example 3]", "md_verbatim": "| 2 | ABC | MB | ABC-01-101 | MBSEQ | 3 | MBMICERT | Microbial Identification Certainty | DEFINITIVE | Collected |", "score": 0.4434, "match_basis": "verbatim_token+domain_route:MB"}, {"md_atom_id": "md_dmMB_ex_a065", "md_file": "knowledge_base/domains/MB/examples.md", "md_atom_type": "TABLE_ROW", "md_parent_section": "§MB.2 [Example 2]", "md_verbatim": "| 1 | ABC | MB | ABC-01-101 | MBSEQ | 2 | MBQSCAL | Quantification Scale | CDC semi-quantitative score for gram staining | CRF |", "score": 0.438, "match_basis": "verbatim_token+domain_route:MB"}, {"md_atom_id": "md_dmMB_ex_a143", "md_file": "knowledge_base/domains/MB/examples.md", "md_atom_type": "TABLE_ROW", "md_parent_section": "§MB.3 [Example 3]", "md_verbatim": "| 1 | ABC | MB | ABC-01-101 | MBSEQ | 2 | MBQSCAL | Quantification Scale | Smear Quantitation: Centers for Disease Control Method for Carbol Fuchsin Staining (1000X) | Collected |", "score": 0.4275, "match_basis": "verbatim_token+domain_route:MB"}, {"md_atom_id": "md_dmMB_ex_a062", "md_file": "knowledge_base/domains/MB/examples.md", "md_atom_type": "TABLE_ROW", "md_parent_section": "§MB.2 [Example 2]", "md_verbatim": "| 8 | ABC | MB | ABC-001-001 | 8 | SP03 | MCORGIDN | Microbial Organism Identification | | NO GROWTH | Nom | NO GROWTH | LUNG | | MICROBIAL CULTURE, SOLID | 3 | VISIT 3 | 2005-07-06T08:00 |", "score": 0.4258, "match_basis": "verbatim_token+domain_route:MB"}, {"md_atom_id": "md_dmMB_ex_a148", "md_file": "knowledge_base/domains/MB/examples.md", "md_atom_type": "TABLE_ROW", "md_parent_section": "§MB.3 [Example 3]", "md_verbatim": "| 6 | ABC | MB | ABC-01-101 | MBSEQ | 6 | MBQSCAL | Quantification Scale | Solid Media Result: Centers for Disease Control (CDC) Quantification Scale | Collected |", "score": 0.4258, "match_basis": "verbatim_token+domain_route:MB"}], "candidate_count": 5, "zero_candidate": false}
{"pdf_atom_id": "ig34_p0249_a018", "pdf_atom_type": "TABLE_ROW", "pdf_source": "SDTMIG_v3.4", "pdf_page": 249, "pdf_parent_section": "§6.3.5.7.1 Microbiology Specimen (MB)", "pdf_verbatim": "| MBSCAT | Subcategory | Char | * | Grouping Qualifier | Used to define a further categorization of MBCAT values. | Perm |", "figure_ref": null, "candidates": [{"md_atom_id": "md_dmMB_ex_a065", "md_file": "knowledge_base/domains/MB/examples.md", "md_atom_type": "TABLE_ROW", "md_parent_section": "§MB.2 [Example 2]", "md_verbatim": "| 1 | ABC | MB | ABC-01-101 | MBSEQ | 2 | MBQSCAL | Quantification Scale | CDC semi-quantitative score for gram staining | CRF |", "score": 0.4621, "match_basis": "verbatim_token+domain_route:MB"}, {"md_atom_id": "md_dmMB_ex_a144", "md_file": "knowledge_base/domains/MB/examples.md", "md_atom_type": "TABLE_ROW", "md_parent_section": "§MB.3 [Example 3]", "md_verbatim": "| 2 | ABC | MB | ABC-01-101 | MBSEQ | 3 | MBMICERT | Microbial Identification Certainty | DEFINITIVE | Collected |", "score": 0.4587, "match_basis": "verbatim_token+domain_route:MB"}, {"md_atom_id": "md_dmMB_ex_a148", "md_file": "knowledge_base/domains/MB/examples.md", "md_atom_type": "TABLE_ROW", "md_parent_section": "§MB.3 [Example 3]", "md_verbatim": "| 6 | ABC | MB | ABC-01-101 | MBSEQ | 6 | MBQSCAL | Quantification Scale | Solid Media Result: Centers for Disease Control (CDC) Quantification Scale | Collected |", "score": 0.4475, "match_basis": "verbatim_token+domain_route:MB"}, {"md_atom_id": "md_dmMB_ex_a143", "md_file": "knowledge_base/domains/MB/examples.md", "md_atom_type": "TABLE_ROW", "md_parent_section": "§MB.3 [Example 3]", "md_verbatim": "| 1 | ABC | MB | ABC-01-101 | MBSEQ | 2 | MBQSCAL | Quantification Scale | Smear Quantitation: Centers for Disease Control Method for Carbol Fuchsin Staining (1000X) | Collected |", "score": 0.4462, "match_basis": "verbatim_token+domain_route:MB"}, {"md_atom_id": "md_dmMB_ex_a088", "md_file": "knowledge_base/domains/MB/examples.md", "md_atom_type": "TABLE_ROW", "md_parent_section": "§MB.3 [Example 3]", "md_verbatim": "| 2 | ABC | BE | ABC-01-101 | 2 | 100.1 | | Aliquoting | PREPARATION | 2011-01-17T06:00 | 2011-01-17T09:00 | |", "score": 0.4411, "match_basis": "verbatim_token+domain_route:MB"}], "candidate_count": 5, "zero_candidate": false}
{"pdf_atom_id": "ig34_p0249_a019", "pdf_atom_type": "TABLE_ROW", "pdf_source": "SDTMIG_v3.4", "pdf_page": 249, "pdf_parent_section": "§6.3.5.7.1 Microbiology Specimen (MB)", "pdf_verbatim": "| MBORRES | Result or Finding in Original Units | Char | | Result Qualifier | Result of the microbiology measurement or finding as originally received or collected. Examples for \"GRAM STAIN\" findings: \"+3 MODERATE\", \"+2 FEW\", \"<10\". Examples for \"CULTURE PLATE\" findings: \"PNEUMONIAE\", \"STREPTOCOCCUS PNEUMONIAE\". | Exp |", "figure_ref": null, "candidates": [{"md_atom_id": "md_dmMB_ex_a059", "md_file": "knowledge_base/domains/MB/examples.md", "md_atom_type": "TABLE_ROW", "md_parent_section": "§MB.2 [Example 2]", "md_verbatim": "| 5 | ABC | MB | ABC-001-001 | 5 | SP01 | MCORGIDN | Microbial Organism Identification | | STREPTOCOCCUS PNEUMONIAE | Nom | STREPTOCOCCUS PNEUMONIAE | LUNG | | MICROBIAL CULTURE, SOLID | 1 | VISIT 1 | 2005-06-19T08:00 |", "score": 0.5224, "match_basis": "verbatim_token+domain_route:MB"}, {"md_atom_id": "md_dmMB_ex_a144", "md_file": "knowledge_base/domains/MB/examples.md", "md_atom_type": "TABLE_ROW", "md_parent_section": "§MB.3 [Example 3]", "md_verbatim": "| 2 | ABC | MB | ABC-01-101 | MBSEQ | 3 | MBMICERT | Microbial Identification Certainty | DEFINITIVE | Collected |", "score": 0.4809, "match_basis": "verbatim_token+domain_route:MB"}, {"md_atom_id": "md_dmMB_ex_a145", "md_file": "knowledge_base/domains/MB/examples.md", "md_atom_type": "TABLE_ROW", "md_parent_section": "§MB.3 [Example 3]", "md_verbatim": "| 3 | ABC | MB | ABC-01-101 | MBSEQ | 4 | MBMICERT | Microbial Identification Certainty | PRESUMPTIVE | Collected |", "score": 0.4803, "match_basis": "verbatim_token+domain_route:MB"}, {"md_atom_id": "md_dmMB_ex_a060", "md_file": "knowledge_base/domains/MB/examples.md", "md_atom_type": "TABLE_ROW", "md_parent_section": "§MB.2 [Example 2]", "md_verbatim": "| 6 | ABC | MB | ABC-001-001 | 6 | SP01 | MCORGIDN | Microbial Organism Identification | | KLEBSIELLA PNEUMONIAE | Nom | KLEBSIELLA PNEUMONIAE | LUNG | | MICROBIAL CULTURE, SOLID | 1 | VISIT 1 | 2005-06-19T08:00 |", "score": 0.475, "match_basis": "verbatim_token+domain_route:MB"}, {"md_atom_id": "md_dmMB_ex_a061", "md_file": "knowledge_base/domains/MB/examples.md", "md_atom_type": "TABLE_ROW", "md_parent_section": "§MB.2 [Example 2]", "md_verbatim": "| 7 | ABC | MB | ABC-001-001 | 7 | SP02 | MCORGIDN | Microbial Organism Identification | | KLEBSIELLA PNEUMONIAE | Nom | KLEBSIELLA PNEUMONIAE | LUNG | | MICROBIAL CULTURE, SOLID | 2 | VISIT 2 | 2005-06-26T08:00 |", "score": 0.475, "match_basis": "verbatim_token+domain_route:MB"}], "candidate_count": 5, "zero_candidate": false}
{"pdf_atom_id": "ig34_p0249_a020", "pdf_atom_type": "TABLE_ROW", "pdf_source": "SDTMIG_v3.4", "pdf_page": 249, "pdf_parent_section": "§6.3.5.7.1 Microbiology Specimen (MB)", "pdf_verbatim": "| MBORRESU | Original Units | Char | (UNIT) | Variable Qualifier | Original unit for MBORRES. Example: \"mcg/mL\". | Perm |", "figure_ref": null, "candidates": [{"md_atom_id": "md_dmMB_ex_a148", "md_file": "knowledge_base/domains/MB/examples.md", "md_atom_type": "TABLE_ROW", "md_parent_section": "§MB.3 [Example 3]", "md_verbatim": "| 6 | ABC | MB | ABC-01-101 | MBSEQ | 6 | MBQSCAL | Quantification Scale | Solid Media Result: Centers for Disease Control (CDC) Quantification Scale | Collected |", "score": 0.433, "match_basis": "verbatim_token+domain_route:MB"}, {"md_atom_id": "md_dmMB_ex_a137", "md_file": "knowledge_base/domains/MB/examples.md", "md_atom_type": "TABLE_ROW", "md_parent_section": "§MB.3 [Example 3]", "md_verbatim": "| 3 | ABC | MB | ABC-01-101 | ABC765 | 3 | | 100.2 | | MTBCMPLX | Mycobacterium Tuberculosis Complex | DETECTION | PRESENT | Ord | PRESENT | | | | LAVAGE FLUID | STOMACH | NUCLEIC ACID AMPLIFICATION TEST | 1 | WEEK 1 | 2011-01-17T06:00 |", "score": 0.4303, "match_basis": "verbatim_token+domain_route:MB"}, {"md_atom_id": "md_dmMB_ex_a065", "md_file": "knowledge_base/domains/MB/examples.md", "md_atom_type": "TABLE_ROW", "md_parent_section": "§MB.2 [Example 2]", "md_verbatim": "| 1 | ABC | MB | ABC-01-101 | MBSEQ | 2 | MBQSCAL | Quantification Scale | CDC semi-quantitative score for gram staining | CRF |", "score": 0.4225, "match_basis": "verbatim_token+domain_route:MB"}, {"md_atom_id": "md_dmMB_ex_a145", "md_file": "knowledge_base/domains/MB/examples.md", "md_atom_type": "TABLE_ROW", "md_parent_section": "§MB.3 [Example 3]", "md_verbatim": "| 3 | ABC | MB | ABC-01-101 | MBSEQ | 4 | MBMICERT | Microbial Identification Certainty | PRESUMPTIVE | Collected |", "score": 0.4209, "match_basis": "verbatim_token+domain_route:MB"}, {"md_atom_id": "md_dmMB_ex_a143", "md_file": "knowledge_base/domains/MB/examples.md", "md_atom_type": "TABLE_ROW", "md_parent_section": "§MB.3 [Example 3]", "md_verbatim": "| 1 | ABC | MB | ABC-01-101 | MBSEQ | 2 | MBQSCAL | Quantification Scale | Smear Quantitation: Centers for Disease Control Method for Carbol Fuchsin Staining (1000X) | Collected |", "score": 0.4164, "match_basis": "verbatim_token+domain_route:MB"}], "candidate_count": 5, "zero_candidate": false}
{"pdf_atom_id": "ig34_p0249_a021", "pdf_atom_type": "TABLE_ROW", "pdf_source": "SDTMIG_v3.4", "pdf_page": 249, "pdf_parent_section": "§6.3.5.7.1 Microbiology Specimen (MB)", "pdf_verbatim": "| MBSTRESC | Result or Finding in Standard Format | Char | | Result Qualifier | Contains the result value for all findings copied or derived from MBORRES, in a standard format or standard units. MBSTRESC should store all results or findings in character format; if results are numeric, they should also be stored in numeric format in MBSTRESN. For example, if a test has results \"+3 MODERATE\", \"MOD\", and \"MODERATE\" in MBORRES and these results effectively have the same meaning, they could be represented in standard format in MBSTRESC as \"MODERATE\". | Exp |", "figure_ref": null, "candidates": [{"md_atom_id": "md_dmMB_ex_a143", "md_file": "knowledge_base/domains/MB/examples.md", "md_atom_type": "TABLE_ROW", "md_parent_section": "§MB.3 [Example 3]", "md_verbatim": "| 1 | ABC | MB | ABC-01-101 | MBSEQ | 2 | MBQSCAL | Quantification Scale | Smear Quantitation: Centers for Disease Control Method for Carbol Fuchsin Staining (1000X) | Collected |", "score": 0.4593, "match_basis": "verbatim_token+domain_route:MB"}, {"md_atom_id": "md_dmMB_ex_a137", "md_file": "knowledge_base/domains/MB/examples.md", "md_atom_type": "TABLE_ROW", "md_parent_section": "§MB.3 [Example 3]", "md_verbatim": "| 3 | ABC | MB | ABC-01-101 | ABC765 | 3 | | 100.2 | | MTBCMPLX | Mycobacterium Tuberculosis Complex | DETECTION | PRESENT | Ord | PRESENT | | | | LAVAGE FLUID | STOMACH | NUCLEIC ACID AMPLIFICATION TEST | 1 | WEEK 1 | 2011-01-17T06:00 |", "score": 0.4591, "match_basis": "verbatim_token+domain_route:MB"}, {"md_atom_id": "md_dmMB_ex_a148", "md_file": "knowledge_base/domains/MB/examples.md", "md_atom_type": "TABLE_ROW", "md_parent_section": "§MB.3 [Example 3]", "md_verbatim": "| 6 | ABC | MB | ABC-01-101 | MBSEQ | 6 | MBQSCAL | Quantification Scale | Solid Media Result: Centers for Disease Control (CDC) Quantification Scale | Collected |", "score": 0.4575, "match_basis": "verbatim_token+domain_route:MB"}, {"md_atom_id": "md_dmMB_ex_a135", "md_file": "knowledge_base/domains/MB/examples.md", "md_atom_type": "TABLE_ROW", "md_parent_section": "§MB.3 [Example 3]", "md_verbatim": "| 1 | ABC | MB | ABC-01-101 | | 1 | 1 | 100.1 | | AFB | Acid-Fast Bacilli | DETECTION | PRESENT | Ord | PRESENT | | | CONCENTRATED | LAVAGE FLUID | STOMACH | ZIEHL-NEELSEN ACID FAST STAIN | 1 | WEEK 1 | 2011-01-17T06:00 |", "score": 0.4517, "match_basis": "verbatim_token+domain_route:MB"}, {"md_atom_id": "md_dmMB_ex_a145", "md_file": "knowledge_base/domains/MB/examples.md", "md_atom_type": "TABLE_ROW", "md_parent_section": "§MB.3 [Example 3]", "md_verbatim": "| 3 | ABC | MB | ABC-01-101 | MBSEQ | 4 | MBMICERT | Microbial Identification Certainty | PRESUMPTIVE | Collected |", "score": 0.4479, "match_basis": "verbatim_token+domain_route:MB"}], "candidate_count": 5, "zero_candidate": false}
{"pdf_atom_id": "ig34_p0250_a001", "pdf_atom_type": "TABLE_ROW", "pdf_source": "SDTMIG_v3.4", "pdf_page": 250, "pdf_parent_section": "§6.3.5.7.1 Microbiology Specimen (MB)", "pdf_verbatim": "| MBSTRESN | Numeric Result/Finding in Standard Units | Num | | Result Qualifier | Used for continuous or numeric results or findings in standard format; copied in numeric format from MBSTRESC. MBSTRESN should store all numeric test results or findings. | Perm |", "figure_ref": null, "candidates": [{"md_atom_id": "md_dmMB_ex_a148", "md_file": "knowledge_base/domains/MB/examples.md", "md_atom_type": "TABLE_ROW", "md_parent_section": "§MB.3 [Example 3]", "md_verbatim": "| 6 | ABC | MB | ABC-01-101 | MBSEQ | 6 | MBQSCAL | Quantification Scale | Solid Media Result: Centers for Disease Control (CDC) Quantification Scale | Collected |", "score": 0.4569, "match_basis": "verbatim_token+domain_route:MB"}, {"md_atom_id": "md_dmMB_ex_a065", "md_file": "knowledge_base/domains/MB/examples.md", "md_atom_type": "TABLE_ROW", "md_parent_section": "§MB.2 [Example 2]", "md_verbatim": "| 1 | ABC | MB | ABC-01-101 | MBSEQ | 2 | MBQSCAL | Quantification Scale | CDC semi-quantitative score for gram staining | CRF |", "score": 0.4453, "match_basis": "verbatim_token+domain_route:MB"}, {"md_atom_id": "md_dmMB_ex_a143", "md_file": "knowledge_base/domains/MB/examples.md", "md_atom_type": "TABLE_ROW", "md_parent_section": "§MB.3 [Example 3]", "md_verbatim": "| 1 | ABC | MB | ABC-01-101 | MBSEQ | 2 | MBQSCAL | Quantification Scale | Smear Quantitation: Centers for Disease Control Method for Carbol Fuchsin Staining (1000X) | Collected |", "score": 0.44, "match_basis": "verbatim_token+domain_route:MB"}, {"md_atom_id": "md_dmMB_ex_a137", "md_file": "knowledge_base/domains/MB/examples.md", "md_atom_type": "TABLE_ROW", "md_parent_section": "§MB.3 [Example 3]", "md_verbatim": "| 3 | ABC | MB | ABC-01-101 | ABC765 | 3 | | 100.2 | | MTBCMPLX | Mycobacterium Tuberculosis Complex | DETECTION | PRESENT | Ord | PRESENT | | | | LAVAGE FLUID | STOMACH | NUCLEIC ACID AMPLIFICATION TEST | 1 | WEEK 1 | 2011-01-17T06:00 |", "score": 0.4282, "match_basis": "verbatim_token+domain_route:MB"}, {"md_atom_id": "md_dmMB_ex_a144", "md_file": "knowledge_base/domains/MB/examples.md", "md_atom_type": "TABLE_ROW", "md_parent_section": "§MB.3 [Example 3]", "md_verbatim": "| 2 | ABC | MB | ABC-01-101 | MBSEQ | 3 | MBMICERT | Microbial Identification Certainty | DEFINITIVE | Collected |", "score": 0.4263, "match_basis": "verbatim_token+domain_route:MB"}], "candidate_count": 5, "zero_candidate": false}
{"pdf_atom_id": "ig34_p0250_a002", "pdf_atom_type": "TABLE_ROW", "pdf_source": "SDTMIG_v3.4", "pdf_page": 250, "pdf_parent_section": "§6.3.5.7.1 Microbiology Specimen (MB)", "pdf_verbatim": "| MBSTRESU | Standard Units | Char | (UNIT) | Variable Qualifier | Standardized units used for MBSTRESC and MBSTRESN. | Perm |", "figure_ref": null, "candidates": [{"md_atom_id": "md_dmMB_ex_a148", "md_file": "knowledge_base/domains/MB/examples.md", "md_atom_type": "TABLE_ROW", "md_parent_section": "§MB.3 [Example 3]", "md_verbatim": "| 6 | ABC | MB | ABC-01-101 | MBSEQ | 6 | MBQSCAL | Quantification Scale | Solid Media Result: Centers for Disease Control (CDC) Quantification Scale | Collected |", "score": 0.4391, "match_basis": "verbatim_token+domain_route:MB"}, {"md_atom_id": "md_dmMB_ex_a065", "md_file": "knowledge_base/domains/MB/examples.md", "md_atom_type": "TABLE_ROW", "md_parent_section": "§MB.2 [Example 2]", "md_verbatim": "| 1 | ABC | MB | ABC-01-101 | MBSEQ | 2 | MBQSCAL | Quantification Scale | CDC semi-quantitative score for gram staining | CRF |", "score": 0.4375, "match_basis": "verbatim_token+domain_route:MB"}, {"md_atom_id": "md_dmMB_ex_a145", "md_file": "knowledge_base/domains/MB/examples.md", "md_atom_type": "TABLE_ROW", "md_parent_section": "§MB.3 [Example 3]", "md_verbatim": "| 3 | ABC | MB | ABC-01-101 | MBSEQ | 4 | MBMICERT | Microbial Identification Certainty | PRESUMPTIVE | Collected |", "score": 0.4276, "match_basis": "verbatim_token+domain_route:MB"}, {"md_atom_id": "md_dmMB_ex_a143", "md_file": "knowledge_base/domains/MB/examples.md", "md_atom_type": "TABLE_ROW", "md_parent_section": "§MB.3 [Example 3]", "md_verbatim": "| 1 | ABC | MB | ABC-01-101 | MBSEQ | 2 | MBQSCAL | Quantification Scale | Smear Quantitation: Centers for Disease Control Method for Carbol Fuchsin Staining (1000X) | Collected |", "score": 0.4273, "match_basis": "verbatim_token+domain_route:MB"}, {"md_atom_id": "md_dmMB_ex_a144", "md_file": "knowledge_base/domains/MB/examples.md", "md_atom_type": "TABLE_ROW", "md_parent_section": "§MB.3 [Example 3]", "md_verbatim": "| 2 | ABC | MB | ABC-01-101 | MBSEQ | 3 | MBMICERT | Microbial Identification Certainty | DEFINITIVE | Collected |", "score": 0.4207, "match_basis": "verbatim_token+domain_route:MB"}], "candidate_count": 5, "zero_candidate": false}
{"pdf_atom_id": "ig34_p0250_a003", "pdf_atom_type": "TABLE_ROW", "pdf_source": "SDTMIG_v3.4", "pdf_page": 250, "pdf_parent_section": "§6.3.5.7.1 Microbiology Specimen (MB)", "pdf_verbatim": "| MBRESCAT | Result Category | Char | | Variable Qualifier | Used to categorize the result of a finding in a standard format. | Perm |", "figure_ref": null, "candidates": [{"md_atom_id": "md_dmMB_ex_a148", "md_file": "knowledge_base/domains/MB/examples.md", "md_atom_type": "TABLE_ROW", "md_parent_section": "§MB.3 [Example 3]", "md_verbatim": "| 6 | ABC | MB | ABC-01-101 | MBSEQ | 6 | MBQSCAL | Quantification Scale | Solid Media Result: Centers for Disease Control (CDC) Quantification Scale | Collected |", "score": 0.454, "match_basis": "verbatim_token+domain_route:MB"}, {"md_atom_id": "md_dmMB_ex_a065", "md_file": "knowledge_base/domains/MB/examples.md", "md_atom_type": "TABLE_ROW", "md_parent_section": "§MB.2 [Example 2]", "md_verbatim": "| 1 | ABC | MB | ABC-01-101 | MBSEQ | 2 | MBQSCAL | Quantification Scale | CDC semi-quantitative score for gram staining | CRF |", "score": 0.4472, "match_basis": "verbatim_token+domain_route:MB"}, {"md_atom_id": "md_dmMB_ex_a143", "md_file": "knowledge_base/domains/MB/examples.md", "md_atom_type": "TABLE_ROW", "md_parent_section": "§MB.3 [Example 3]", "md_verbatim": "| 1 | ABC | MB | ABC-01-101 | MBSEQ | 2 | MBQSCAL | Quantification Scale | Smear Quantitation: Centers for Disease Control Method for Carbol Fuchsin Staining (1000X) | Collected |", "score": 0.4353, "match_basis": "verbatim_token+domain_route:MB"}, {"md_atom_id": "md_dmMB_ex_a145", "md_file": "knowledge_base/domains/MB/examples.md", "md_atom_type": "TABLE_ROW", "md_parent_section": "§MB.3 [Example 3]", "md_verbatim": "| 3 | ABC | MB | ABC-01-101 | MBSEQ | 4 | MBMICERT | Microbial Identification Certainty | PRESUMPTIVE | Collected |", "score": 0.4245, "match_basis": "verbatim_token+domain_route:MB"}, {"md_atom_id": "md_dmMB_ex_a020", "md_file": "knowledge_base/domains/MB/examples.md", "md_atom_type": "TABLE_ROW", "md_parent_section": "§MB.1 [Example 1]", "md_verbatim": "| 1 | ABC | MB | ABC-001-002 | 1 | SPEC01 | | MCORGIDN | Microbial Organism Identification | DETECTION | PRESENT | PRESENT | FLUID | SKIN | MICROBIAL CULTURE, SOLID | CENTRAL LAB ABC | 1 | VISIT 1 | 2005-06-19T08:00 |", "score": 0.42, "match_basis": "verbatim_token+domain_route:MB"}], "candidate_count": 5, "zero_candidate": false}
{"pdf_atom_id": "ig34_p0250_a004", "pdf_atom_type": "TABLE_ROW", "pdf_source": "SDTMIG_v3.4", "pdf_page": 250, "pdf_parent_section": "§6.3.5.7.1 Microbiology Specimen (MB)", "pdf_verbatim": "| MBSTAT | Completion Status | Char | (ND) | Record Qualifier | Used to indicate that a question was not asked or a test was not done, or that a test was attempted but did not generate a result. Should be null or have a value of \"NOT DONE\". | Perm |", "figure_ref": null, "candidates": [{"md_atom_id": "md_dmMB_ex_a148", "md_file": "knowledge_base/domains/MB/examples.md", "md_atom_type": "TABLE_ROW", "md_parent_section": "§MB.3 [Example 3]", "md_verbatim": "| 6 | ABC | MB | ABC-01-101 | MBSEQ | 6 | MBQSCAL | Quantification Scale | Solid Media Result: Centers for Disease Control (CDC) Quantification Scale | Collected |", "score": 0.4576, "match_basis": "verbatim_token+domain_route:MB"}, {"md_atom_id": "md_dmMB_ex_a137", "md_file": "knowledge_base/domains/MB/examples.md", "md_atom_type": "TABLE_ROW", "md_parent_section": "§MB.3 [Example 3]", "md_verbatim": "| 3 | ABC | MB | ABC-01-101 | ABC765 | 3 | | 100.2 | | MTBCMPLX | Mycobacterium Tuberculosis Complex | DETECTION | PRESENT | Ord | PRESENT | | | | LAVAGE FLUID | STOMACH | NUCLEIC ACID AMPLIFICATION TEST | 1 | WEEK 1 | 2011-01-17T06:00 |", "score": 0.4553, "match_basis": "verbatim_token+domain_route:MB"}, {"md_atom_id": "md_dmMB_ex_a065", "md_file": "knowledge_base/domains/MB/examples.md", "md_atom_type": "TABLE_ROW", "md_parent_section": "§MB.2 [Example 2]", "md_verbatim": "| 1 | ABC | MB | ABC-01-101 | MBSEQ | 2 | MBQSCAL | Quantification Scale | CDC semi-quantitative score for gram staining | CRF |", "score": 0.4526, "match_basis": "verbatim_token+domain_route:MB"}, {"md_atom_id": "md_dmMB_ex_a145", "md_file": "knowledge_base/domains/MB/examples.md", "md_atom_type": "TABLE_ROW", "md_parent_section": "§MB.3 [Example 3]", "md_verbatim": "| 3 | ABC | MB | ABC-01-101 | MBSEQ | 4 | MBMICERT | Microbial Identification Certainty | PRESUMPTIVE | Collected |", "score": 0.45, "match_basis": "verbatim_token+domain_route:MB"}, {"md_atom_id": "md_dmMB_ex_a143", "md_file": "knowledge_base/domains/MB/examples.md", "md_atom_type": "TABLE_ROW", "md_parent_section": "§MB.3 [Example 3]", "md_verbatim": "| 1 | ABC | MB | ABC-01-101 | MBSEQ | 2 | MBQSCAL | Quantification Scale | Smear Quantitation: Centers for Disease Control Method for Carbol Fuchsin Staining (1000X) | Collected |", "score": 0.4417, "match_basis": "verbatim_token+domain_route:MB"}], "candidate_count": 5, "zero_candidate": false}
{"pdf_atom_id": "ig34_p0250_a005", "pdf_atom_type": "TABLE_ROW", "pdf_source": "SDTMIG_v3.4", "pdf_page": 250, "pdf_parent_section": "§6.3.5.7.1 Microbiology Specimen (MB)", "pdf_verbatim": "| MBREASND | Reason Not Done | Char | | Record Qualifier | Reason not done. Used in conjunction with MBSTAT when value is NOT DONE. Examples: \"BROKEN EQUIPMENT\", \"SUBJECT REFUSED\". | Perm |", "figure_ref": null, "candidates": [{"md_atom_id": "md_dmMB_ex_a143", "md_file": "knowledge_base/domains/MB/examples.md", "md_atom_type": "TABLE_ROW", "md_parent_section": "§MB.3 [Example 3]", "md_verbatim": "| 1 | ABC | MB | ABC-01-101 | MBSEQ | 2 | MBQSCAL | Quantification Scale | Smear Quantitation: Centers for Disease Control Method for Carbol Fuchsin Staining (1000X) | Collected |", "score": 0.4485, "match_basis": "verbatim_token+domain_route:MB"}, {"md_atom_id": "md_dmMB_ex_a148", "md_file": "knowledge_base/domains/MB/examples.md", "md_atom_type": "TABLE_ROW", "md_parent_section": "§MB.3 [Example 3]", "md_verbatim": "| 6 | ABC | MB | ABC-01-101 | MBSEQ | 6 | MBQSCAL | Quantification Scale | Solid Media Result: Centers for Disease Control (CDC) Quantification Scale | Collected |", "score": 0.4446, "match_basis": "verbatim_token+domain_route:MB"}, {"md_atom_id": "md_dmMB_ex_a137", "md_file": "knowledge_base/domains/MB/examples.md", "md_atom_type": "TABLE_ROW", "md_parent_section": "§MB.3 [Example 3]", "md_verbatim": "| 3 | ABC | MB | ABC-01-101 | ABC765 | 3 | | 100.2 | | MTBCMPLX | Mycobacterium Tuberculosis Complex | DETECTION | PRESENT | Ord | PRESENT | | | | LAVAGE FLUID | STOMACH | NUCLEIC ACID AMPLIFICATION TEST | 1 | WEEK 1 | 2011-01-17T06:00 |", "score": 0.4446, "match_basis": "verbatim_token+domain_route:MB"}, {"md_atom_id": "md_dmMB_ex_a065", "md_file": "knowledge_base/domains/MB/examples.md", "md_atom_type": "TABLE_ROW", "md_parent_section": "§MB.2 [Example 2]", "md_verbatim": "| 1 | ABC | MB | ABC-01-101 | MBSEQ | 2 | MBQSCAL | Quantification Scale | CDC semi-quantitative score for gram staining | CRF |", "score": 0.444, "match_basis": "verbatim_token+domain_route:MB"}, {"md_atom_id": "md_dmMB_ex_a057", "md_file": "knowledge_base/domains/MB/examples.md", "md_atom_type": "TABLE_ROW", "md_parent_section": "§MB.2 [Example 2]", "md_verbatim": "| 3 | ABC | MB | ABC-001-001 | 3 | SP01 | GMNROD | Gram Negative Rods | DETECTION | PRESENT | Ord | PRESENT | LUNG | | GRAM STAIN | 1 | VISIT 1 | 2005-06-19T08:00 |", "score": 0.4385, "match_basis": "verbatim_token+domain_route:MB"}], "candidate_count": 5, "zero_candidate": false}
{"pdf_atom_id": "ig34_p0250_a006", "pdf_atom_type": "TABLE_ROW", "pdf_source": "SDTMIG_v3.4", "pdf_page": 250, "pdf_parent_section": "§6.3.5.7.1 Microbiology Specimen (MB)", "pdf_verbatim": "| MBNAM | Laboratory/Vendor Name | Char | | Record Qualifier | Name or identifier of the vendor (e.g., laboratory) that provided the test results. | Perm |", "figure_ref": null, "candidates": [{"md_atom_id": "md_dmMB_ex_a148", "md_file": "knowledge_base/domains/MB/examples.md", "md_atom_type": "TABLE_ROW", "md_parent_section": "§MB.3 [Example 3]", "md_verbatim": "| 6 | ABC | MB | ABC-01-101 | MBSEQ | 6 | MBQSCAL | Quantification Scale | Solid Media Result: Centers for Disease Control (CDC) Quantification Scale | Collected |", "score": 0.4545, "match_basis": "verbatim_token+domain_route:MB"}, {"md_atom_id": "md_dmMB_ex_a020", "md_file": "knowledge_base/domains/MB/examples.md", "md_atom_type": "TABLE_ROW", "md_parent_section": "§MB.1 [Example 1]", "md_verbatim": "| 1 | ABC | MB | ABC-001-002 | 1 | SPEC01 | | MCORGIDN | Microbial Organism Identification | DETECTION | PRESENT | PRESENT | FLUID | SKIN | MICROBIAL CULTURE, SOLID | CENTRAL LAB ABC | 1 | VISIT 1 | 2005-06-19T08:00 |", "score": 0.4531, "match_basis": "verbatim_token+domain_route:MB"}, {"md_atom_id": "md_dmMB_ex_a021", "md_file": "knowledge_base/domains/MB/examples.md", "md_atom_type": "TABLE_ROW", "md_parent_section": "§MB.1 [Example 1]", "md_verbatim": "| 2 | ABC | MB | ABC-001-002 | 2 | SPEC01 | | MCORGIDN | Microbial Organism Identification | DETECTION | PRESENT | PRESENT | FLUID | SKIN | MICROBIAL CULTURE, SOLID | LOCAL LAB XYZ | 1 | VISIT 1 | 2005-06-19T08:00 |", "score": 0.4531, "match_basis": "verbatim_token+domain_route:MB"}, {"md_atom_id": "md_dmMB_ex_a145", "md_file": "knowledge_base/domains/MB/examples.md", "md_atom_type": "TABLE_ROW", "md_parent_section": "§MB.3 [Example 3]", "md_verbatim": "| 3 | ABC | MB | ABC-01-101 | MBSEQ | 4 | MBMICERT | Microbial Identification Certainty | PRESUMPTIVE | Collected |", "score": 0.4516, "match_basis": "verbatim_token+domain_route:MB"}, {"md_atom_id": "md_dmMB_ex_a062", "md_file": "knowledge_base/domains/MB/examples.md", "md_atom_type": "TABLE_ROW", "md_parent_section": "§MB.2 [Example 2]", "md_verbatim": "| 8 | ABC | MB | ABC-001-001 | 8 | SP03 | MCORGIDN | Microbial Organism Identification | | NO GROWTH | Nom | NO GROWTH | LUNG | | MICROBIAL CULTURE, SOLID | 3 | VISIT 3 | 2005-07-06T08:00 |", "score": 0.448, "match_basis": "verbatim_token+domain_route:MB"}], "candidate_count": 5, "zero_candidate": false}
{"pdf_atom_id": "ig34_p0250_a007", "pdf_atom_type": "TABLE_ROW", "pdf_source": "SDTMIG_v3.4", "pdf_page": 250, "pdf_parent_section": "§6.3.5.7.1 Microbiology Specimen (MB)", "pdf_verbatim": "| MBLOINC | LOINC Code | Char | | Synonym Qualifier | Logical Observation Identifiers Names and Codes (LOINC) code for the topic variable (e.g., lab test). | Perm |", "figure_ref": null, "candidates": [{"md_atom_id": "md_dmMB_ex_a148", "md_file": "knowledge_base/domains/MB/examples.md", "md_atom_type": "TABLE_ROW", "md_parent_section": "§MB.3 [Example 3]", "md_verbatim": "| 6 | ABC | MB | ABC-01-101 | MBSEQ | 6 | MBQSCAL | Quantification Scale | Solid Media Result: Centers for Disease Control (CDC) Quantification Scale | Collected |", "score": 0.4736, "match_basis": "verbatim_token+domain_route:MB"}, {"md_atom_id": "md_dmMB_ex_a065", "md_file": "knowledge_base/domains/MB/examples.md", "md_atom_type": "TABLE_ROW", "md_parent_section": "§MB.2 [Example 2]", "md_verbatim": "| 1 | ABC | MB | ABC-01-101 | MBSEQ | 2 | MBQSCAL | Quantification Scale | CDC semi-quantitative score for gram staining | CRF |", "score": 0.4695, "match_basis": "verbatim_token+domain_route:MB"}, {"md_atom_id": "md_dmMB_ex_a144", "md_file": "knowledge_base/domains/MB/examples.md", "md_atom_type": "TABLE_ROW", "md_parent_section": "§MB.3 [Example 3]", "md_verbatim": "| 2 | ABC | MB | ABC-01-101 | MBSEQ | 3 | MBMICERT | Microbial Identification Certainty | DEFINITIVE | Collected |", "score": 0.466, "match_basis": "verbatim_token+domain_route:MB"}, {"md_atom_id": "md_dmMB_ex_a145", "md_file": "knowledge_base/domains/MB/examples.md", "md_atom_type": "TABLE_ROW", "md_parent_section": "§MB.3 [Example 3]", "md_verbatim": "| 3 | ABC | MB | ABC-01-101 | MBSEQ | 4 | MBMICERT | Microbial Identification Certainty | PRESUMPTIVE | Collected |", "score": 0.4653, "match_basis": "verbatim_token+domain_route:MB"}, {"md_atom_id": "md_dmMB_ex_a143", "md_file": "knowledge_base/domains/MB/examples.md", "md_atom_type": "TABLE_ROW", "md_parent_section": "§MB.3 [Example 3]", "md_verbatim": "| 1 | ABC | MB | ABC-01-101 | MBSEQ | 2 | MBQSCAL | Quantification Scale | Smear Quantitation: Centers for Disease Control Method for Carbol Fuchsin Staining (1000X) | Collected |", "score": 0.4634, "match_basis": "verbatim_token+domain_route:MB"}], "candidate_count": 5, "zero_candidate": false}
{"pdf_atom_id": "ig34_p0250_a008", "pdf_atom_type": "TABLE_ROW", "pdf_source": "SDTMIG_v3.4", "pdf_page": 250, "pdf_parent_section": "§6.3.5.7.1 Microbiology Specimen (MB)", "pdf_verbatim": "| MBSPEC | Specimen Material Type | Char | (SPECTYPE) | Record Qualifier | Defines the type of specimen used for a measurement. Examples: \"SPUTUM\", \"BLOOD\", \"PUS\". | Perm |", "figure_ref": null, "candidates": [{"md_atom_id": "md_dmMB_ex_a042", "md_file": "knowledge_base/domains/MB/examples.md", "md_atom_type": "TABLE_ROW", "md_parent_section": "§MB.2 [Example 2]", "md_verbatim": "| 1 | ABC | BE | ABC-01-101 | BEREFID | SP01 | BESPEC | Specimen Type | SPUTUM | CRF |", "score": 0.504, "match_basis": "verbatim_token+domain_route:MB"}, {"md_atom_id": "md_dmMB_ex_a043", "md_file": "knowledge_base/domains/MB/examples.md", "md_atom_type": "TABLE_ROW", "md_parent_section": "§MB.2 [Example 2]", "md_verbatim": "| 2 | ABC | BE | ABC-01-101 | BEREFID | SP02 | BESPEC | Specimen Type | SPUTUM | CRF |", "score": 0.504, "match_basis": "verbatim_token+domain_route:MB"}, {"md_atom_id": "md_dmMB_ex_a044", "md_file": "knowledge_base/domains/MB/examples.md", "md_atom_type": "TABLE_ROW", "md_parent_section": "§MB.2 [Example 2]", "md_verbatim": "| 3 | ABC | BE | ABC-01-101 | BEREFID | SP03 | BESPEC | Specimen Type | SPUTUM | CRF |", "score": 0.504, "match_basis": "verbatim_token+domain_route:MB"}, {"md_atom_id": "md_dmMB_ex_a045", "md_file": "knowledge_base/domains/MB/examples.md", "md_atom_type": "TABLE_ROW", "md_parent_section": "§MB.2 [Example 2]", "md_verbatim": "| 4 | ABC | BE | ABC-01-101 | BEREFID | SP01 | BECLMETH | Specimen Collection Method | EXPECTORATION | CRF |", "score": 0.4505, "match_basis": "verbatim_token+domain_route:MB"}, {"md_atom_id": "md_dmMB_ex_a046", "md_file": "knowledge_base/domains/MB/examples.md", "md_atom_type": "TABLE_ROW", "md_parent_section": "§MB.2 [Example 2]", "md_verbatim": "| 5 | ABC | BE | ABC-01-101 | BEREFID | SP02 | BECLMETH | Specimen Collection Method | EXPECTORATION | CRF |", "score": 0.4505, "match_basis": "verbatim_token+domain_route:MB"}], "candidate_count": 5, "zero_candidate": false}
{"pdf_atom_id": "ig34_p0250_a009", "pdf_atom_type": "TABLE_ROW", "pdf_source": "SDTMIG_v3.4", "pdf_page": 250, "pdf_parent_section": "§6.3.5.7.1 Microbiology Specimen (MB)", "pdf_verbatim": "| MBSPCCND | Specimen Condition | Char | (SPECCOND) | Record Qualifier | Free or standardized text describing the condition of the specimen. Example: \"CONTAMINATED\". | Perm |", "figure_ref": null, "candidates": [{"md_atom_id": "md_dmMB_ex_a045", "md_file": "knowledge_base/domains/MB/examples.md", "md_atom_type": "TABLE_ROW", "md_parent_section": "§MB.2 [Example 2]", "md_verbatim": "| 4 | ABC | BE | ABC-01-101 | BEREFID | SP01 | BECLMETH | Specimen Collection Method | EXPECTORATION | CRF |", "score": 0.4462, "match_basis": "verbatim_token+domain_route:MB"}, {"md_atom_id": "md_dmMB_ex_a046", "md_file": "knowledge_base/domains/MB/examples.md", "md_atom_type": "TABLE_ROW", "md_parent_section": "§MB.2 [Example 2]", "md_verbatim": "| 5 | ABC | BE | ABC-01-101 | BEREFID | SP02 | BECLMETH | Specimen Collection Method | EXPECTORATION | CRF |", "score": 0.4462, "match_basis": "verbatim_token+domain_route:MB"}, {"md_atom_id": "md_dmMB_ex_a047", "md_file": "knowledge_base/domains/MB/examples.md", "md_atom_type": "TABLE_ROW", "md_parent_section": "§MB.2 [Example 2]", "md_verbatim": "| 6 | ABC | BE | ABC-01-101 | BEREFID | SP03 | BECLMETH | Specimen Collection Method | EXPECTORATION | CRF |", "score": 0.4462, "match_basis": "verbatim_token+domain_route:MB"}, {"md_atom_id": "md_dmMB_ex_a065", "md_file": "knowledge_base/domains/MB/examples.md", "md_atom_type": "TABLE_ROW", "md_parent_section": "§MB.2 [Example 2]", "md_verbatim": "| 1 | ABC | MB | ABC-01-101 | MBSEQ | 2 | MBQSCAL | Quantification Scale | CDC semi-quantitative score for gram staining | CRF |", "score": 0.444, "match_basis": "verbatim_token+domain_route:MB"}, {"md_atom_id": "md_dmMB_ex_a143", "md_file": "knowledge_base/domains/MB/examples.md", "md_atom_type": "TABLE_ROW", "md_parent_section": "§MB.3 [Example 3]", "md_verbatim": "| 1 | ABC | MB | ABC-01-101 | MBSEQ | 2 | MBQSCAL | Quantification Scale | Smear Quantitation: Centers for Disease Control Method for Carbol Fuchsin Staining (1000X) | Collected |", "score": 0.4438, "match_basis": "verbatim_token+domain_route:MB"}], "candidate_count": 5, "zero_candidate": false}
{"pdf_atom_id": "ig34_p0250_a010", "pdf_atom_type": "TABLE_ROW", "pdf_source": "SDTMIG_v3.4", "pdf_page": 250, "pdf_parent_section": "§6.3.5.7.1 Microbiology Specimen (MB)", "pdf_verbatim": "| MBLOC | Specimen Collection Location | Char | (LOC) | Record Qualifier | Anatomical location relevant to the collection of the measurement. | Perm |", "figure_ref": null, "candidates": [{"md_atom_id": "md_dmMB_ex_a045", "md_file": "knowledge_base/domains/MB/examples.md", "md_atom_type": "TABLE_ROW", "md_parent_section": "§MB.2 [Example 2]", "md_verbatim": "| 4 | ABC | BE | ABC-01-101 | BEREFID | SP01 | BECLMETH | Specimen Collection Method | EXPECTORATION | CRF |", "score": 0.5098, "match_basis": "verbatim_token+domain_route:MB"}, {"md_atom_id": "md_dmMB_ex_a046", "md_file": "knowledge_base/domains/MB/examples.md", "md_atom_type": "TABLE_ROW", "md_parent_section": "§MB.2 [Example 2]", "md_verbatim": "| 5 | ABC | BE | ABC-01-101 | BEREFID | SP02 | BECLMETH | Specimen Collection Method | EXPECTORATION | CRF |", "score": 0.5098, "match_basis": "verbatim_token+domain_route:MB"}, {"md_atom_id": "md_dmMB_ex_a047", "md_file": "knowledge_base/domains/MB/examples.md", "md_atom_type": "TABLE_ROW", "md_parent_section": "§MB.2 [Example 2]", "md_verbatim": "| 6 | ABC | BE | ABC-01-101 | BEREFID | SP03 | BECLMETH | Specimen Collection Method | EXPECTORATION | CRF |", "score": 0.5098, "match_basis": "verbatim_token+domain_route:MB"}, {"md_atom_id": "md_dmMB_ex_a148", "md_file": "knowledge_base/domains/MB/examples.md", "md_atom_type": "TABLE_ROW", "md_parent_section": "§MB.3 [Example 3]", "md_verbatim": "| 6 | ABC | MB | ABC-01-101 | MBSEQ | 6 | MBQSCAL | Quantification Scale | Solid Media Result: Centers for Disease Control (CDC) Quantification Scale | Collected |", "score": 0.497, "match_basis": "verbatim_token+domain_route:MB"}, {"md_atom_id": "md_dmMB_ex_a021", "md_file": "knowledge_base/domains/MB/examples.md", "md_atom_type": "TABLE_ROW", "md_parent_section": "§MB.1 [Example 1]", "md_verbatim": "| 2 | ABC | MB | ABC-001-002 | 2 | SPEC01 | | MCORGIDN | Microbial Organism Identification | DETECTION | PRESENT | PRESENT | FLUID | SKIN | MICROBIAL CULTURE, SOLID | LOCAL LAB XYZ | 1 | VISIT 1 | 2005-06-19T08:00 |", "score": 0.4903, "match_basis": "verbatim_token+domain_route:MB"}], "candidate_count": 5, "zero_candidate": false}
{"pdf_atom_id": "ig34_p0250_a011", "pdf_atom_type": "TABLE_ROW", "pdf_source": "SDTMIG_v3.4", "pdf_page": 250, "pdf_parent_section": "§6.3.5.7.1 Microbiology Specimen (MB)", "pdf_verbatim": "| MBLAT | Laterality | Char | (LAT) | Variable Qualifier | Qualifier for specimen collection location further detailing laterality. Examples: \"RIGHT\", \"LEFT\", \"BILATERAL\". | Perm |", "figure_ref": null, "candidates": [{"md_atom_id": "md_dmMB_ex_a045", "md_file": "knowledge_base/domains/MB/examples.md", "md_atom_type": "TABLE_ROW", "md_parent_section": "§MB.2 [Example 2]", "md_verbatim": "| 4 | ABC | BE | ABC-01-101 | BEREFID | SP01 | BECLMETH | Specimen Collection Method | EXPECTORATION | CRF |", "score": 0.4957, "match_basis": "verbatim_token+domain_route:MB"}, {"md_atom_id": "md_dmMB_ex_a046", "md_file": "knowledge_base/domains/MB/examples.md", "md_atom_type": "TABLE_ROW", "md_parent_section": "§MB.2 [Example 2]", "md_verbatim": "| 5 | ABC | BE | ABC-01-101 | BEREFID | SP02 | BECLMETH | Specimen Collection Method | EXPECTORATION | CRF |", "score": 0.4957, "match_basis": "verbatim_token+domain_route:MB"}, {"md_atom_id": "md_dmMB_ex_a047", "md_file": "knowledge_base/domains/MB/examples.md", "md_atom_type": "TABLE_ROW", "md_parent_section": "§MB.2 [Example 2]", "md_verbatim": "| 6 | ABC | BE | ABC-01-101 | BEREFID | SP03 | BECLMETH | Specimen Collection Method | EXPECTORATION | CRF |", "score": 0.4957, "match_basis": "verbatim_token+domain_route:MB"}, {"md_atom_id": "md_dmMB_ex_a143", "md_file": "knowledge_base/domains/MB/examples.md", "md_atom_type": "TABLE_ROW", "md_parent_section": "§MB.3 [Example 3]", "md_verbatim": "| 1 | ABC | MB | ABC-01-101 | MBSEQ | 2 | MBQSCAL | Quantification Scale | Smear Quantitation: Centers for Disease Control Method for Carbol Fuchsin Staining (1000X) | Collected |", "score": 0.4698, "match_basis": "verbatim_token+domain_route:MB"}, {"md_atom_id": "md_dmMB_ex_a148", "md_file": "knowledge_base/domains/MB/examples.md", "md_atom_type": "TABLE_ROW", "md_parent_section": "§MB.3 [Example 3]", "md_verbatim": "| 6 | ABC | MB | ABC-01-101 | MBSEQ | 6 | MBQSCAL | Quantification Scale | Solid Media Result: Centers for Disease Control (CDC) Quantification Scale | Collected |", "score": 0.4684, "match_basis": "verbatim_token+domain_route:MB"}], "candidate_count": 5, "zero_candidate": false}
{"pdf_atom_id": "ig34_p0250_a012", "pdf_atom_type": "TABLE_ROW", "pdf_source": "SDTMIG_v3.4", "pdf_page": 250, "pdf_parent_section": "§6.3.5.7.1 Microbiology Specimen (MB)", "pdf_verbatim": "| MBDIR | Directionality | Char | (DIR) | Variable Qualifier | Qualifier for specimen collection location further detailing directionality. Examples: \"ANTERIOR\", \"LOWER\", \"PROXIMAL\". | Perm |", "figure_ref": null, "candidates": [{"md_atom_id": "md_dmMB_ex_a045", "md_file": "knowledge_base/domains/MB/examples.md", "md_atom_type": "TABLE_ROW", "md_parent_section": "§MB.2 [Example 2]", "md_verbatim": "| 4 | ABC | BE | ABC-01-101 | BEREFID | SP01 | BECLMETH | Specimen Collection Method | EXPECTORATION | CRF |", "score": 0.4882, "match_basis": "verbatim_token+domain_route:MB"}, {"md_atom_id": "md_dmMB_ex_a046", "md_file": "knowledge_base/domains/MB/examples.md", "md_atom_type": "TABLE_ROW", "md_parent_section": "§MB.2 [Example 2]", "md_verbatim": "| 5 | ABC | BE | ABC-01-101 | BEREFID | SP02 | BECLMETH | Specimen Collection Method | EXPECTORATION | CRF |", "score": 0.4882, "match_basis": "verbatim_token+domain_route:MB"}, {"md_atom_id": "md_dmMB_ex_a047", "md_file": "knowledge_base/domains/MB/examples.md", "md_atom_type": "TABLE_ROW", "md_parent_section": "§MB.2 [Example 2]", "md_verbatim": "| 6 | ABC | BE | ABC-01-101 | BEREFID | SP03 | BECLMETH | Specimen Collection Method | EXPECTORATION | CRF |", "score": 0.4882, "match_basis": "verbatim_token+domain_route:MB"}, {"md_atom_id": "md_dmMB_ex_a143", "md_file": "knowledge_base/domains/MB/examples.md", "md_atom_type": "TABLE_ROW", "md_parent_section": "§MB.3 [Example 3]", "md_verbatim": "| 1 | ABC | MB | ABC-01-101 | MBSEQ | 2 | MBQSCAL | Quantification Scale | Smear Quantitation: Centers for Disease Control Method for Carbol Fuchsin Staining (1000X) | Collected |", "score": 0.4756, "match_basis": "verbatim_token+domain_route:MB"}, {"md_atom_id": "md_dmMB_ex_a148", "md_file": "knowledge_base/domains/MB/examples.md", "md_atom_type": "TABLE_ROW", "md_parent_section": "§MB.3 [Example 3]", "md_verbatim": "| 6 | ABC | MB | ABC-01-101 | MBSEQ | 6 | MBQSCAL | Quantification Scale | Solid Media Result: Centers for Disease Control (CDC) Quantification Scale | Collected |", "score": 0.475, "match_basis": "verbatim_token+domain_route:MB"}], "candidate_count": 5, "zero_candidate": false}
{"pdf_atom_id": "ig34_p0250_a013", "pdf_atom_type": "TABLE_ROW", "pdf_source": "SDTMIG_v3.4", "pdf_page": 250, "pdf_parent_section": "§6.3.5.7.1 Microbiology Specimen (MB)", "pdf_verbatim": "| MBMETHOD | Method of Test or Examination | Char | (METHOD) | Record Qualifier | Method of the test or examination. Examples: \"GRAM STAIN\", \"MICROBIAL CULTURE, LIQUID\", \"QUANTITATIVE REVERSE TRANSCRIPTASE POLYMERASE CHAIN REACTION\". | Exp |", "figure_ref": null, "candidates": [{"md_atom_id": "md_dmMB_ex_a065", "md_file": "knowledge_base/domains/MB/examples.md", "md_atom_type": "TABLE_ROW", "md_parent_section": "§MB.2 [Example 2]", "md_verbatim": "| 1 | ABC | MB | ABC-01-101 | MBSEQ | 2 | MBQSCAL | Quantification Scale | CDC semi-quantitative score for gram staining | CRF |", "score": 0.4966, "match_basis": "verbatim_token+domain_route:MB"}, {"md_atom_id": "md_dmMB_ex_a020", "md_file": "knowledge_base/domains/MB/examples.md", "md_atom_type": "TABLE_ROW", "md_parent_section": "§MB.1 [Example 1]", "md_verbatim": "| 1 | ABC | MB | ABC-001-002 | 1 | SPEC01 | | MCORGIDN | Microbial Organism Identification | DETECTION | PRESENT | PRESENT | FLUID | SKIN | MICROBIAL CULTURE, SOLID | CENTRAL LAB ABC | 1 | VISIT 1 | 2005-06-19T08:00 |", "score": 0.4875, "match_basis": "verbatim_token+domain_route:MB"}, {"md_atom_id": "md_dmMB_ex_a021", "md_file": "knowledge_base/domains/MB/examples.md", "md_atom_type": "TABLE_ROW", "md_parent_section": "§MB.1 [Example 1]", "md_verbatim": "| 2 | ABC | MB | ABC-001-002 | 2 | SPEC01 | | MCORGIDN | Microbial Organism Identification | DETECTION | PRESENT | PRESENT | FLUID | SKIN | MICROBIAL CULTURE, SOLID | LOCAL LAB XYZ | 1 | VISIT 1 | 2005-06-19T08:00 |", "score": 0.4828, "match_basis": "verbatim_token+domain_route:MB"}, {"md_atom_id": "md_dmMB_ex_a062", "md_file": "knowledge_base/domains/MB/examples.md", "md_atom_type": "TABLE_ROW", "md_parent_section": "§MB.2 [Example 2]", "md_verbatim": "| 8 | ABC | MB | ABC-001-001 | 8 | SP03 | MCORGIDN | Microbial Organism Identification | | NO GROWTH | Nom | NO GROWTH | LUNG | | MICROBIAL CULTURE, SOLID | 3 | VISIT 3 | 2005-07-06T08:00 |", "score": 0.4818, "match_basis": "verbatim_token+domain_route:MB"}, {"md_atom_id": "md_dmMB_ex_a143", "md_file": "knowledge_base/domains/MB/examples.md", "md_atom_type": "TABLE_ROW", "md_parent_section": "§MB.3 [Example 3]", "md_verbatim": "| 1 | ABC | MB | ABC-01-101 | MBSEQ | 2 | MBQSCAL | Quantification Scale | Smear Quantitation: Centers for Disease Control Method for Carbol Fuchsin Staining (1000X) | Collected |", "score": 0.4816, "match_basis": "verbatim_token+domain_route:MB"}], "candidate_count": 5, "zero_candidate": false}
{"pdf_atom_id": "ig34_p0250_a014", "pdf_atom_type": "TABLE_ROW", "pdf_source": "SDTMIG_v3.4", "pdf_page": 250, "pdf_parent_section": "§6.3.5.7.1 Microbiology Specimen (MB)", "pdf_verbatim": "| MBLOBXFL | Last Observation Before Exposure Flag | Char | (NY) | Record Qualifier | Operationally derived indicator used to identify the last non-missing value prior to RFXSTDTC. The value should be \"Y\" or null. | Perm |", "figure_ref": null, "candidates": [{"md_atom_id": "md_dmMB_ex_a065", "md_file": "knowledge_base/domains/MB/examples.md", "md_atom_type": "TABLE_ROW", "md_parent_section": "§MB.2 [Example 2]", "md_verbatim": "| 1 | ABC | MB | ABC-01-101 | MBSEQ | 2 | MBQSCAL | Quantification Scale | CDC semi-quantitative score for gram staining | CRF |", "score": 0.472, "match_basis": "verbatim_token+domain_route:MB"}, {"md_atom_id": "md_dmMB_ex_a144", "md_file": "knowledge_base/domains/MB/examples.md", "md_atom_type": "TABLE_ROW", "md_parent_section": "§MB.3 [Example 3]", "md_verbatim": "| 2 | ABC | MB | ABC-01-101 | MBSEQ | 3 | MBMICERT | Microbial Identification Certainty | DEFINITIVE | Collected |", "score": 0.4591, "match_basis": "verbatim_token+domain_route:MB"}, {"md_atom_id": "md_dmMB_ex_a145", "md_file": "knowledge_base/domains/MB/examples.md", "md_atom_type": "TABLE_ROW", "md_parent_section": "§MB.3 [Example 3]", "md_verbatim": "| 3 | ABC | MB | ABC-01-101 | MBSEQ | 4 | MBMICERT | Microbial Identification Certainty | PRESUMPTIVE | Collected |", "score": 0.4586, "match_basis": "verbatim_token+domain_route:MB"}, {"md_atom_id": "md_dmMB_ex_a062", "md_file": "knowledge_base/domains/MB/examples.md", "md_atom_type": "TABLE_ROW", "md_parent_section": "§MB.2 [Example 2]", "md_verbatim": "| 8 | ABC | MB | ABC-001-001 | 8 | SP03 | MCORGIDN | Microbial Organism Identification | | NO GROWTH | Nom | NO GROWTH | LUNG | | MICROBIAL CULTURE, SOLID | 3 | VISIT 3 | 2005-07-06T08:00 |", "score": 0.4557, "match_basis": "verbatim_token+domain_route:MB"}, {"md_atom_id": "md_dmMB_ex_a143", "md_file": "knowledge_base/domains/MB/examples.md", "md_atom_type": "TABLE_ROW", "md_parent_section": "§MB.3 [Example 3]", "md_verbatim": "| 1 | ABC | MB | ABC-01-101 | MBSEQ | 2 | MBQSCAL | Quantification Scale | Smear Quantitation: Centers for Disease Control Method for Carbol Fuchsin Staining (1000X) | Collected |", "score": 0.4538, "match_basis": "verbatim_token+domain_route:MB"}], "candidate_count": 5, "zero_candidate": false}
{"pdf_atom_id": "ig34_p0250_a015", "pdf_atom_type": "TABLE_ROW", "pdf_source": "SDTMIG_v3.4", "pdf_page": 250, "pdf_parent_section": "§6.3.5.7.1 Microbiology Specimen (MB)", "pdf_verbatim": "| MBBLFL | Baseline Flag | Char | (NY) | Record Qualifier | Indicator used to identify a baseline value. Should be \"Y\" or null. Note that MBBLFL is retained for backward compatibility. The authoritative baseline for statistical analysis is in an ADaM dataset. | Perm |", "figure_ref": null, "candidates": [{"md_atom_id": "md_dmMB_ex_a065", "md_file": "knowledge_base/domains/MB/examples.md", "md_atom_type": "TABLE_ROW", "md_parent_section": "§MB.2 [Example 2]", "md_verbatim": "| 1 | ABC | MB | ABC-01-101 | MBSEQ | 2 | MBQSCAL | Quantification Scale | CDC semi-quantitative score for gram staining | CRF |", "score": 0.4761, "match_basis": "verbatim_token+domain_route:MB"}, {"md_atom_id": "md_dmMB_ex_a143", "md_file": "knowledge_base/domains/MB/examples.md", "md_atom_type": "TABLE_ROW", "md_parent_section": "§MB.3 [Example 3]", "md_verbatim": "| 1 | ABC | MB | ABC-01-101 | MBSEQ | 2 | MBQSCAL | Quantification Scale | Smear Quantitation: Centers for Disease Control Method for Carbol Fuchsin Staining (1000X) | Collected |", "score": 0.4622, "match_basis": "verbatim_token+domain_route:MB"}, {"md_atom_id": "md_dmMB_ex_a144", "md_file": "knowledge_base/domains/MB/examples.md", "md_atom_type": "TABLE_ROW", "md_parent_section": "§MB.3 [Example 3]", "md_verbatim": "| 2 | ABC | MB | ABC-01-101 | MBSEQ | 3 | MBMICERT | Microbial Identification Certainty | DEFINITIVE | Collected |", "score": 0.4545, "match_basis": "verbatim_token+domain_route:MB"}, {"md_atom_id": "md_dmMB_ex_a145", "md_file": "knowledge_base/domains/MB/examples.md", "md_atom_type": "TABLE_ROW", "md_parent_section": "§MB.3 [Example 3]", "md_verbatim": "| 3 | ABC | MB | ABC-01-101 | MBSEQ | 4 | MBMICERT | Microbial Identification Certainty | PRESUMPTIVE | Collected |", "score": 0.4542, "match_basis": "verbatim_token+domain_route:MB"}, {"md_atom_id": "md_dmMB_ex_a148", "md_file": "knowledge_base/domains/MB/examples.md", "md_atom_type": "TABLE_ROW", "md_parent_section": "§MB.3 [Example 3]", "md_verbatim": "| 6 | ABC | MB | ABC-01-101 | MBSEQ | 6 | MBQSCAL | Quantification Scale | Solid Media Result: Centers for Disease Control (CDC) Quantification Scale | Collected |", "score": 0.4431, "match_basis": "verbatim_token+domain_route:MB"}], "candidate_count": 5, "zero_candidate": false}
{"pdf_atom_id": "ig34_p0250_a016", "pdf_atom_type": "TABLE_ROW", "pdf_source": "SDTMIG_v3.4", "pdf_page": 250, "pdf_parent_section": "§6.3.5.7.1 Microbiology Specimen (MB)", "pdf_verbatim": "| MBFAST | Fasting Status | Char | (NY) | Record Qualifier | Indicator used to identify fasting status. Valid values include \"Y\", \"N\", \"U\", or null if not relevant. | Perm |", "figure_ref": null, "candidates": [{"md_atom_id": "md_dmMB_ex_a065", "md_file": "knowledge_base/domains/MB/examples.md", "md_atom_type": "TABLE_ROW", "md_parent_section": "§MB.2 [Example 2]", "md_verbatim": "| 1 | ABC | MB | ABC-01-101 | MBSEQ | 2 | MBQSCAL | Quantification Scale | CDC semi-quantitative score for gram staining | CRF |", "score": 0.471, "match_basis": "verbatim_token+domain_route:MB"}, {"md_atom_id": "md_dmMB_ex_a062", "md_file": "knowledge_base/domains/MB/examples.md", "md_atom_type": "TABLE_ROW", "md_parent_section": "§MB.2 [Example 2]", "md_verbatim": "| 8 | ABC | MB | ABC-001-001 | 8 | SP03 | MCORGIDN | Microbial Organism Identification | | NO GROWTH | Nom | NO GROWTH | LUNG | | MICROBIAL CULTURE, SOLID | 3 | VISIT 3 | 2005-07-06T08:00 |", "score": 0.4561, "match_basis": "verbatim_token+domain_route:MB"}, {"md_atom_id": "md_dmMB_ex_a143", "md_file": "knowledge_base/domains/MB/examples.md", "md_atom_type": "TABLE_ROW", "md_parent_section": "§MB.3 [Example 3]", "md_verbatim": "| 1 | ABC | MB | ABC-01-101 | MBSEQ | 2 | MBQSCAL | Quantification Scale | Smear Quantitation: Centers for Disease Control Method for Carbol Fuchsin Staining (1000X) | Collected |", "score": 0.4537, "match_basis": "verbatim_token+domain_route:MB"}, {"md_atom_id": "md_dmMB_ex_a060", "md_file": "knowledge_base/domains/MB/examples.md", "md_atom_type": "TABLE_ROW", "md_parent_section": "§MB.2 [Example 2]", "md_verbatim": "| 6 | ABC | MB | ABC-001-001 | 6 | SP01 | MCORGIDN | Microbial Organism Identification | | KLEBSIELLA PNEUMONIAE | Nom | KLEBSIELLA PNEUMONIAE | LUNG | | MICROBIAL CULTURE, SOLID | 1 | VISIT 1 | 2005-06-19T08:00 |", "score": 0.4504, "match_basis": "verbatim_token+domain_route:MB"}, {"md_atom_id": "md_dmMB_ex_a061", "md_file": "knowledge_base/domains/MB/examples.md", "md_atom_type": "TABLE_ROW", "md_parent_section": "§MB.2 [Example 2]", "md_verbatim": "| 7 | ABC | MB | ABC-001-001 | 7 | SP02 | MCORGIDN | Microbial Organism Identification | | KLEBSIELLA PNEUMONIAE | Nom | KLEBSIELLA PNEUMONIAE | LUNG | | MICROBIAL CULTURE, SOLID | 2 | VISIT 2 | 2005-06-26T08:00 |", "score": 0.4504, "match_basis": "verbatim_token+domain_route:MB"}], "candidate_count": 5, "zero_candidate": false}
{"pdf_atom_id": "ig34_p0250_a017", "pdf_atom_type": "TABLE_ROW", "pdf_source": "SDTMIG_v3.4", "pdf_page": 250, "pdf_parent_section": "§6.3.5.7.1 Microbiology Specimen (MB)", "pdf_verbatim": "| MBDRVFL | Derived Flag | Char | (NY) | Record Qualifier | Used to indicate a derived record (e.g., a record that represents the average of other records such as a computed baseline). Should be \"Y\" or null. | Perm |", "figure_ref": null, "candidates": [{"md_atom_id": "md_dmMB_ex_a137", "md_file": "knowledge_base/domains/MB/examples.md", "md_atom_type": "TABLE_ROW", "md_parent_section": "§MB.3 [Example 3]", "md_verbatim": "| 3 | ABC | MB | ABC-01-101 | ABC765 | 3 | | 100.2 | | MTBCMPLX | Mycobacterium Tuberculosis Complex | DETECTION | PRESENT | Ord | PRESENT | | | | LAVAGE FLUID | STOMACH | NUCLEIC ACID AMPLIFICATION TEST | 1 | WEEK 1 | 2011-01-17T06:00 |", "score": 0.4575, "match_basis": "verbatim_token+domain_route:MB"}, {"md_atom_id": "md_dmMB_ex_a135", "md_file": "knowledge_base/domains/MB/examples.md", "md_atom_type": "TABLE_ROW", "md_parent_section": "§MB.3 [Example 3]", "md_verbatim": "| 1 | ABC | MB | ABC-01-101 | | 1 | 1 | 100.1 | | AFB | Acid-Fast Bacilli | DETECTION | PRESENT | Ord | PRESENT | | | CONCENTRATED | LAVAGE FLUID | STOMACH | ZIEHL-NEELSEN ACID FAST STAIN | 1 | WEEK 1 | 2011-01-17T06:00 |", "score": 0.4422, "match_basis": "verbatim_token+domain_route:MB"}, {"md_atom_id": "md_dmMB_ex_a145", "md_file": "knowledge_base/domains/MB/examples.md", "md_atom_type": "TABLE_ROW", "md_parent_section": "§MB.3 [Example 3]", "md_verbatim": "| 3 | ABC | MB | ABC-01-101 | MBSEQ | 4 | MBMICERT | Microbial Identification Certainty | PRESUMPTIVE | Collected |", "score": 0.4414, "match_basis": "verbatim_token+domain_route:MB"}, {"md_atom_id": "md_dmMB_ex_a020", "md_file": "knowledge_base/domains/MB/examples.md", "md_atom_type": "TABLE_ROW", "md_parent_section": "§MB.1 [Example 1]", "md_verbatim": "| 1 | ABC | MB | ABC-001-002 | 1 | SPEC01 | | MCORGIDN | Microbial Organism Identification | DETECTION | PRESENT | PRESENT | FLUID | SKIN | MICROBIAL CULTURE, SOLID | CENTRAL LAB ABC | 1 | VISIT 1 | 2005-06-19T08:00 |", "score": 0.4394, "match_basis": "verbatim_token+domain_route:MB"}, {"md_atom_id": "md_dmMB_ex_a021", "md_file": "knowledge_base/domains/MB/examples.md", "md_atom_type": "TABLE_ROW", "md_parent_section": "§MB.1 [Example 1]", "md_verbatim": "| 2 | ABC | MB | ABC-001-002 | 2 | SPEC01 | | MCORGIDN | Microbial Organism Identification | DETECTION | PRESENT | PRESENT | FLUID | SKIN | MICROBIAL CULTURE, SOLID | LOCAL LAB XYZ | 1 | VISIT 1 | 2005-06-19T08:00 |", "score": 0.4394, "match_basis": "verbatim_token+domain_route:MB"}], "candidate_count": 5, "zero_candidate": false}
{"pdf_atom_id": "ig34_p0250_a018", "pdf_atom_type": "TABLE_ROW", "pdf_source": "SDTMIG_v3.4", "pdf_page": 250, "pdf_parent_section": "§6.3.5.7.1 Microbiology Specimen (MB)", "pdf_verbatim": "| VISITNUM | Visit Number | Num | | Timing | Clinical encounter number. Numeric version of VISIT, used for sorting. | Exp |", "figure_ref": null, "candidates": [{"md_atom_id": "md_dmMB_ex_a056", "md_file": "knowledge_base/domains/MB/examples.md", "md_atom_type": "TABLE_ROW", "md_parent_section": "§MB.2 [Example 2]", "md_verbatim": "| 2 | ABC | MB | ABC-001-001 | 2 | SP01 | GMNCOC | Gram Negative Cocci | CELL COUNT | 2+ | Ord | FEW | LUNG | | GRAM STAIN | 1 | VISIT 1 | 2005-06-19T08:00 |", "score": 0.4568, "match_basis": "verbatim_token+domain_route:MB"}, {"md_atom_id": "md_dmMB_ex_a143", "md_file": "knowledge_base/domains/MB/examples.md", "md_atom_type": "TABLE_ROW", "md_parent_section": "§MB.3 [Example 3]", "md_verbatim": "| 1 | ABC | MB | ABC-01-101 | MBSEQ | 2 | MBQSCAL | Quantification Scale | Smear Quantitation: Centers for Disease Control Method for Carbol Fuchsin Staining (1000X) | Collected |", "score": 0.45, "match_basis": "verbatim_token+domain_route:MB"}, {"md_atom_id": "md_dmMB_ex_a058", "md_file": "knowledge_base/domains/MB/examples.md", "md_atom_type": "TABLE_ROW", "md_parent_section": "§MB.2 [Example 2]", "md_verbatim": "| 4 | ABC | MB | ABC-001-001 | 4 | SP01 | GMNROD | Gram Negative Rods | CELL COUNT | 2+ | Ord | FEW | LUNG | | GRAM STAIN | 1 | VISIT 1 | 2005-06-19T08:00 |", "score": 0.4486, "match_basis": "verbatim_token+domain_route:MB"}, {"md_atom_id": "md_dmMB_ex_a148", "md_file": "knowledge_base/domains/MB/examples.md", "md_atom_type": "TABLE_ROW", "md_parent_section": "§MB.3 [Example 3]", "md_verbatim": "| 6 | ABC | MB | ABC-01-101 | MBSEQ | 6 | MBQSCAL | Quantification Scale | Solid Media Result: Centers for Disease Control (CDC) Quantification Scale | Collected |", "score": 0.4452, "match_basis": "verbatim_token+domain_route:MB"}, {"md_atom_id": "md_dmMB_ex_a065", "md_file": "knowledge_base/domains/MB/examples.md", "md_atom_type": "TABLE_ROW", "md_parent_section": "§MB.2 [Example 2]", "md_verbatim": "| 1 | ABC | MB | ABC-01-101 | MBSEQ | 2 | MBQSCAL | Quantification Scale | CDC semi-quantitative score for gram staining | CRF |", "score": 0.4444, "match_basis": "verbatim_token+domain_route:MB"}], "candidate_count": 5, "zero_candidate": false}
{"pdf_atom_id": "ig34_p0250_a019", "pdf_atom_type": "TABLE_ROW", "pdf_source": "SDTMIG_v3.4", "pdf_page": 250, "pdf_parent_section": "§6.3.5.7.1 Microbiology Specimen (MB)", "pdf_verbatim": "| VISIT | Visit Name | Char | | Timing | Protocol-defined description of a clinical encounter. | Perm |", "figure_ref": null, "candidates": [{"md_atom_id": "md_dmMB_ex_a144", "md_file": "knowledge_base/domains/MB/examples.md", "md_atom_type": "TABLE_ROW", "md_parent_section": "§MB.3 [Example 3]", "md_verbatim": "| 2 | ABC | MB | ABC-01-101 | MBSEQ | 3 | MBMICERT | Microbial Identification Certainty | DEFINITIVE | Collected |", "score": 0.4552, "match_basis": "verbatim_token+domain_route:MB"}, {"md_atom_id": "md_dmMB_ex_a056", "md_file": "knowledge_base/domains/MB/examples.md", "md_atom_type": "TABLE_ROW", "md_parent_section": "§MB.2 [Example 2]", "md_verbatim": "| 2 | ABC | MB | ABC-001-001 | 2 | SP01 | GMNCOC | Gram Negative Cocci | CELL COUNT | 2+ | Ord | FEW | LUNG | | GRAM STAIN | 1 | VISIT 1 | 2005-06-19T08:00 |", "score": 0.4545, "match_basis": "verbatim_token+domain_route:MB"}, {"md_atom_id": "md_dmMB_ex_a143", "md_file": "knowledge_base/domains/MB/examples.md", "md_atom_type": "TABLE_ROW", "md_parent_section": "§MB.3 [Example 3]", "md_verbatim": "| 1 | ABC | MB | ABC-01-101 | MBSEQ | 2 | MBQSCAL | Quantification Scale | Smear Quantitation: Centers for Disease Control Method for Carbol Fuchsin Staining (1000X) | Collected |", "score": 0.4486, "match_basis": "verbatim_token+domain_route:MB"}, {"md_atom_id": "md_dmMB_ex_a058", "md_file": "knowledge_base/domains/MB/examples.md", "md_atom_type": "TABLE_ROW", "md_parent_section": "§MB.2 [Example 2]", "md_verbatim": "| 4 | ABC | MB | ABC-001-001 | 4 | SP01 | GMNROD | Gram Negative Rods | CELL COUNT | 2+ | Ord | FEW | LUNG | | GRAM STAIN | 1 | VISIT 1 | 2005-06-19T08:00 |", "score": 0.4468, "match_basis": "verbatim_token+domain_route:MB"}, {"md_atom_id": "md_dmMB_ex_a148", "md_file": "knowledge_base/domains/MB/examples.md", "md_atom_type": "TABLE_ROW", "md_parent_section": "§MB.3 [Example 3]", "md_verbatim": "| 6 | ABC | MB | ABC-01-101 | MBSEQ | 6 | MBQSCAL | Quantification Scale | Solid Media Result: Centers for Disease Control (CDC) Quantification Scale | Collected |", "score": 0.4437, "match_basis": "verbatim_token+domain_route:MB"}], "candidate_count": 5, "zero_candidate": false}
{"pdf_atom_id": "ig34_p0250_a020", "pdf_atom_type": "TABLE_ROW", "pdf_source": "SDTMIG_v3.4", "pdf_page": 250, "pdf_parent_section": "§6.3.5.7.1 Microbiology Specimen (MB)", "pdf_verbatim": "| VISITDY | Planned Study Day of Visit | Num | | Timing | Planned study day of VISIT. Should be an integer. | Perm |", "figure_ref": null, "candidates": [{"md_atom_id": "md_dmMB_ex_a058", "md_file": "knowledge_base/domains/MB/examples.md", "md_atom_type": "TABLE_ROW", "md_parent_section": "§MB.2 [Example 2]", "md_verbatim": "| 4 | ABC | MB | ABC-001-001 | 4 | SP01 | GMNROD | Gram Negative Rods | CELL COUNT | 2+ | Ord | FEW | LUNG | | GRAM STAIN | 1 | VISIT 1 | 2005-06-19T08:00 |", "score": 0.4281, "match_basis": "verbatim_token+domain_route:MB"}, {"md_atom_id": "md_dmMB_ex_a056", "md_file": "knowledge_base/domains/MB/examples.md", "md_atom_type": "TABLE_ROW", "md_parent_section": "§MB.2 [Example 2]", "md_verbatim": "| 2 | ABC | MB | ABC-001-001 | 2 | SP01 | GMNCOC | Gram Negative Cocci | CELL COUNT | 2+ | Ord | FEW | LUNG | | GRAM STAIN | 1 | VISIT 1 | 2005-06-19T08:00 |", "score": 0.4277, "match_basis": "verbatim_token+domain_route:MB"}, {"md_atom_id": "md_dmMB_ex_a057", "md_file": "knowledge_base/domains/MB/examples.md", "md_atom_type": "TABLE_ROW", "md_parent_section": "§MB.2 [Example 2]", "md_verbatim": "| 3 | ABC | MB | ABC-001-001 | 3 | SP01 | GMNROD | Gram Negative Rods | DETECTION | PRESENT | Ord | PRESENT | LUNG | | GRAM STAIN | 1 | VISIT 1 | 2005-06-19T08:00 |", "score": 0.4257, "match_basis": "verbatim_token+domain_route:MB"}, {"md_atom_id": "md_dmMB_ex_a055", "md_file": "knowledge_base/domains/MB/examples.md", "md_atom_type": "TABLE_ROW", "md_parent_section": "§MB.2 [Example 2]", "md_verbatim": "| 1 | ABC | MB | ABC-001-001 | 1 | SP01 | GMNCOC | Gram Negative Cocci | DETECTION | PRESENT | Ord | PRESENT | LUNG | | GRAM STAIN | 1 | VISIT 1 | 2005-06-19T08:00 |", "score": 0.4254, "match_basis": "verbatim_token+domain_route:MB"}, {"md_atom_id": "md_dmMB_ex_a062", "md_file": "knowledge_base/domains/MB/examples.md", "md_atom_type": "TABLE_ROW", "md_parent_section": "§MB.2 [Example 2]", "md_verbatim": "| 8 | ABC | MB | ABC-001-001 | 8 | SP03 | MCORGIDN | Microbial Organism Identification | | NO GROWTH | Nom | NO GROWTH | LUNG | | MICROBIAL CULTURE, SOLID | 3 | VISIT 3 | 2005-07-06T08:00 |", "score": 0.4214, "match_basis": "verbatim_token+domain_route:MB"}], "candidate_count": 5, "zero_candidate": false}
{"pdf_atom_id": "ig34_p0250_a021", "pdf_atom_type": "TABLE_ROW", "pdf_source": "SDTMIG_v3.4", "pdf_page": 250, "pdf_parent_section": "§6.3.5.7.1 Microbiology Specimen (MB)", "pdf_verbatim": "| TAETORD | Planned Order of Element within Arm | Num | | Timing | Number that gives the planned order of the element within the arm for the element which the specimen collection occurred. | Perm |", "figure_ref": null, "candidates": [{"md_atom_id": "md_dmMB_ex_a045", "md_file": "knowledge_base/domains/MB/examples.md", "md_atom_type": "TABLE_ROW", "md_parent_section": "§MB.2 [Example 2]", "md_verbatim": "| 4 | ABC | BE | ABC-01-101 | BEREFID | SP01 | BECLMETH | Specimen Collection Method | EXPECTORATION | CRF |", "score": 0.5143, "match_basis": "verbatim_token+domain_route:MB"}, {"md_atom_id": "md_dmMB_ex_a046", "md_file": "knowledge_base/domains/MB/examples.md", "md_atom_type": "TABLE_ROW", "md_parent_section": "§MB.2 [Example 2]", "md_verbatim": "| 5 | ABC | BE | ABC-01-101 | BEREFID | SP02 | BECLMETH | Specimen Collection Method | EXPECTORATION | CRF |", "score": 0.5143, "match_basis": "verbatim_token+domain_route:MB"}, {"md_atom_id": "md_dmMB_ex_a047", "md_file": "knowledge_base/domains/MB/examples.md", "md_atom_type": "TABLE_ROW", "md_parent_section": "§MB.2 [Example 2]", "md_verbatim": "| 6 | ABC | BE | ABC-01-101 | BEREFID | SP03 | BECLMETH | Specimen Collection Method | EXPECTORATION | CRF |", "score": 0.5143, "match_basis": "verbatim_token+domain_route:MB"}, {"md_atom_id": "md_dmMB_ex_a087", "md_file": "knowledge_base/domains/MB/examples.md", "md_atom_type": "TABLE_ROW", "md_parent_section": "§MB.3 [Example 3]", "md_verbatim": "| 1 | ABC | BE | ABC-01-101 | 1 | 100 | | Collecting | COLLECTION | 2011-01-17T06:00 | 2011-01-17T05:00 | |", "score": 0.4761, "match_basis": "verbatim_token+domain_route:MB"}, {"md_atom_id": "md_dmMB_ex_a147", "md_file": "knowledge_base/domains/MB/examples.md", "md_atom_type": "TABLE_ROW", "md_parent_section": "§MB.3 [Example 3]", "md_verbatim": "| 5 | ABC | MB | ABC-01-101 | MBSEQ | 5 | MBDILFCT | Dilution Factor | 10^-2 | Collected |", "score": 0.46, "match_basis": "verbatim_token+domain_route:MB"}], "candidate_count": 5, "zero_candidate": false}
{"pdf_atom_id": "ig34_p0250_a022", "pdf_atom_type": "TABLE_ROW", "pdf_source": "SDTMIG_v3.4", "pdf_page": 250, "pdf_parent_section": "§6.3.5.7.1 Microbiology Specimen (MB)", "pdf_verbatim": "| EPOCH | Epoch | Char | (EPOCH) | Timing | Epoch associated with the date/time at which the specimen was collected. | Perm |", "figure_ref": null, "candidates": [{"md_atom_id": "md_dmMB_ex_a045", "md_file": "knowledge_base/domains/MB/examples.md", "md_atom_type": "TABLE_ROW", "md_parent_section": "§MB.2 [Example 2]", "md_verbatim": "| 4 | ABC | BE | ABC-01-101 | BEREFID | SP01 | BECLMETH | Specimen Collection Method | EXPECTORATION | CRF |", "score": 0.4985, "match_basis": "verbatim_token+domain_route:MB"}, {"md_atom_id": "md_dmMB_ex_a046", "md_file": "knowledge_base/domains/MB/examples.md", "md_atom_type": "TABLE_ROW", "md_parent_section": "§MB.2 [Example 2]", "md_verbatim": "| 5 | ABC | BE | ABC-01-101 | BEREFID | SP02 | BECLMETH | Specimen Collection Method | EXPECTORATION | CRF |", "score": 0.4985, "match_basis": "verbatim_token+domain_route:MB"}, {"md_atom_id": "md_dmMB_ex_a047", "md_file": "knowledge_base/domains/MB/examples.md", "md_atom_type": "TABLE_ROW", "md_parent_section": "§MB.2 [Example 2]", "md_verbatim": "| 6 | ABC | BE | ABC-01-101 | BEREFID | SP03 | BECLMETH | Specimen Collection Method | EXPECTORATION | CRF |", "score": 0.4985, "match_basis": "verbatim_token+domain_route:MB"}, {"md_atom_id": "md_dmMB_ex_a034", "md_file": "knowledge_base/domains/MB/examples.md", "md_atom_type": "TABLE_ROW", "md_parent_section": "§MB.2 [Example 2]", "md_verbatim": "| 1 | ABC | BE | ABC-01-001 | 1 | SP01 | Collecting | 2005-06-19T08:00 |", "score": 0.472, "match_basis": "verbatim_token+domain_route:MB"}, {"md_atom_id": "md_dmMB_ex_a035", "md_file": "knowledge_base/domains/MB/examples.md", "md_atom_type": "TABLE_ROW", "md_parent_section": "§MB.2 [Example 2]", "md_verbatim": "| 2 | ABC | BE | ABC-01-001 | 2 | SP02 | Collecting | 2005-06-26T08:00 |", "score": 0.472, "match_basis": "verbatim_token+domain_route:MB"}], "candidate_count": 5, "zero_candidate": false}
{"pdf_atom_id": "ig34_p0250_a023", "pdf_atom_type": "TABLE_ROW", "pdf_source": "SDTMIG_v3.4", "pdf_page": 250, "pdf_parent_section": "§6.3.5.7.1 Microbiology Specimen (MB)", "pdf_verbatim": "| MBDTC | Date/Time of Collection | Char | ISO 8601 datetime or interval | Timing | Date/time of specimen collection. | Exp |", "figure_ref": null, "candidates": [{"md_atom_id": "md_dmMB_ex_a045", "md_file": "knowledge_base/domains/MB/examples.md", "md_atom_type": "TABLE_ROW", "md_parent_section": "§MB.2 [Example 2]", "md_verbatim": "| 4 | ABC | BE | ABC-01-101 | BEREFID | SP01 | BECLMETH | Specimen Collection Method | EXPECTORATION | CRF |", "score": 0.5475, "match_basis": "verbatim_token+domain_route:MB"}, {"md_atom_id": "md_dmMB_ex_a046", "md_file": "knowledge_base/domains/MB/examples.md", "md_atom_type": "TABLE_ROW", "md_parent_section": "§MB.2 [Example 2]", "md_verbatim": "| 5 | ABC | BE | ABC-01-101 | BEREFID | SP02 | BECLMETH | Specimen Collection Method | EXPECTORATION | CRF |", "score": 0.5475, "match_basis": "verbatim_token+domain_route:MB"}, {"md_atom_id": "md_dmMB_ex_a047", "md_file": "knowledge_base/domains/MB/examples.md", "md_atom_type": "TABLE_ROW", "md_parent_section": "§MB.2 [Example 2]", "md_verbatim": "| 6 | ABC | BE | ABC-01-101 | BEREFID | SP03 | BECLMETH | Specimen Collection Method | EXPECTORATION | CRF |", "score": 0.5475, "match_basis": "verbatim_token+domain_route:MB"}, {"md_atom_id": "md_dmMB_ex_a087", "md_file": "knowledge_base/domains/MB/examples.md", "md_atom_type": "TABLE_ROW", "md_parent_section": "§MB.3 [Example 3]", "md_verbatim": "| 1 | ABC | BE | ABC-01-101 | 1 | 100 | | Collecting | COLLECTION | 2011-01-17T06:00 | 2011-01-17T05:00 | |", "score": 0.5149, "match_basis": "verbatim_token+domain_route:MB"}, {"md_atom_id": "md_dmMB_ex_a034", "md_file": "knowledge_base/domains/MB/examples.md", "md_atom_type": "TABLE_ROW", "md_parent_section": "§MB.2 [Example 2]", "md_verbatim": "| 1 | ABC | BE | ABC-01-001 | 1 | SP01 | Collecting | 2005-06-19T08:00 |", "score": 0.4894, "match_basis": "verbatim_token+domain_route:MB"}], "candidate_count": 5, "zero_candidate": false}
{"pdf_atom_id": "ig34_p0250_a024", "pdf_atom_type": "TABLE_ROW", "pdf_source": "SDTMIG_v3.4", "pdf_page": 250, "pdf_parent_section": "§6.3.5.7.1 Microbiology Specimen (MB)", "pdf_verbatim": "| MBDY | Study Day of Visit/Collection/Exam | Num | | Timing | Study day of the specimen collection, measured as integer days. Algorithm for calculations must be relative to the sponsor-defined RFSTDTC variable in Demographics. This formula should be consistent across the submission. | Perm |", "figure_ref": null, "candidates": [{"md_atom_id": "md_dmMB_ex_a144", "md_file": "knowledge_base/domains/MB/examples.md", "md_atom_type": "TABLE_ROW", "md_parent_section": "§MB.3 [Example 3]", "md_verbatim": "| 2 | ABC | MB | ABC-01-101 | MBSEQ | 3 | MBMICERT | Microbial Identification Certainty | DEFINITIVE | Collected |", "score": 0.4654, "match_basis": "verbatim_token+domain_route:MB"}, {"md_atom_id": "md_dmMB_ex_a045", "md_file": "knowledge_base/domains/MB/examples.md", "md_atom_type": "TABLE_ROW", "md_parent_section": "§MB.2 [Example 2]", "md_verbatim": "| 4 | ABC | BE | ABC-01-101 | BEREFID | SP01 | BECLMETH | Specimen Collection Method | EXPECTORATION | CRF |", "score": 0.4653, "match_basis": "verbatim_token+domain_route:MB"}, {"md_atom_id": "md_dmMB_ex_a046", "md_file": "knowledge_base/domains/MB/examples.md", "md_atom_type": "TABLE_ROW", "md_parent_section": "§MB.2 [Example 2]", "md_verbatim": "| 5 | ABC | BE | ABC-01-101 | BEREFID | SP02 | BECLMETH | Specimen Collection Method | EXPECTORATION | CRF |", "score": 0.4653, "match_basis": "verbatim_token+domain_route:MB"}, {"md_atom_id": "md_dmMB_ex_a047", "md_file": "knowledge_base/domains/MB/examples.md", "md_atom_type": "TABLE_ROW", "md_parent_section": "§MB.2 [Example 2]", "md_verbatim": "| 6 | ABC | BE | ABC-01-101 | BEREFID | SP03 | BECLMETH | Specimen Collection Method | EXPECTORATION | CRF |", "score": 0.4653, "match_basis": "verbatim_token+domain_route:MB"}, {"md_atom_id": "md_dmMB_ex_a143", "md_file": "knowledge_base/domains/MB/examples.md", "md_atom_type": "TABLE_ROW", "md_parent_section": "§MB.3 [Example 3]", "md_verbatim": "| 1 | ABC | MB | ABC-01-101 | MBSEQ | 2 | MBQSCAL | Quantification Scale | Smear Quantitation: Centers for Disease Control Method for Carbol Fuchsin Staining (1000X) | Collected |", "score": 0.4527, "match_basis": "verbatim_token+domain_route:MB"}], "candidate_count": 5, "zero_candidate": false}
{"pdf_atom_id": "ig34_p0250_a025", "pdf_atom_type": "TABLE_ROW", "pdf_source": "SDTMIG_v3.4", "pdf_page": 250, "pdf_parent_section": "§6.3.5.7.1 Microbiology Specimen (MB)", "pdf_verbatim": "| MBTPT | Planned Time Point Name | Char | | Timing | Text description of time when specimen should be taken. This may be represented as an elapsed time relative to a fixed reference point, such as time of last dose. See MBTPTNUM and MBTPTREF. Examples: \"Start\", \"5 min post\". | Perm |", "figure_ref": null, "candidates": [{"md_atom_id": "md_dmMB_ex_a045", "md_file": "knowledge_base/domains/MB/examples.md", "md_atom_type": "TABLE_ROW", "md_parent_section": "§MB.2 [Example 2]", "md_verbatim": "| 4 | ABC | BE | ABC-01-101 | BEREFID | SP01 | BECLMETH | Specimen Collection Method | EXPECTORATION | CRF |", "score": 0.4504, "match_basis": "verbatim_token+domain_route:MB"}, {"md_atom_id": "md_dmMB_ex_a046", "md_file": "knowledge_base/domains/MB/examples.md", "md_atom_type": "TABLE_ROW", "md_parent_section": "§MB.2 [Example 2]", "md_verbatim": "| 5 | ABC | BE | ABC-01-101 | BEREFID | SP02 | BECLMETH | Specimen Collection Method | EXPECTORATION | CRF |", "score": 0.4504, "match_basis": "verbatim_token+domain_route:MB"}, {"md_atom_id": "md_dmMB_ex_a047", "md_file": "knowledge_base/domains/MB/examples.md", "md_atom_type": "TABLE_ROW", "md_parent_section": "§MB.2 [Example 2]", "md_verbatim": "| 6 | ABC | BE | ABC-01-101 | BEREFID | SP03 | BECLMETH | Specimen Collection Method | EXPECTORATION | CRF |", "score": 0.4504, "match_basis": "verbatim_token+domain_route:MB"}, {"md_atom_id": "md_dmMB_ex_a057", "md_file": "knowledge_base/domains/MB/examples.md", "md_atom_type": "TABLE_ROW", "md_parent_section": "§MB.2 [Example 2]", "md_verbatim": "| 3 | ABC | MB | ABC-001-001 | 3 | SP01 | GMNROD | Gram Negative Rods | DETECTION | PRESENT | Ord | PRESENT | LUNG | | GRAM STAIN | 1 | VISIT 1 | 2005-06-19T08:00 |", "score": 0.4489, "match_basis": "verbatim_token+domain_route:MB"}, {"md_atom_id": "md_dmMB_ex_a055", "md_file": "knowledge_base/domains/MB/examples.md", "md_atom_type": "TABLE_ROW", "md_parent_section": "§MB.2 [Example 2]", "md_verbatim": "| 1 | ABC | MB | ABC-001-001 | 1 | SP01 | GMNCOC | Gram Negative Cocci | DETECTION | PRESENT | Ord | PRESENT | LUNG | | GRAM STAIN | 1 | VISIT 1 | 2005-06-19T08:00 |", "score": 0.4485, "match_basis": "verbatim_token+domain_route:MB"}], "candidate_count": 5, "zero_candidate": false}
{"pdf_atom_id": "ig34_p0251_a001", "pdf_atom_type": "TABLE_ROW", "pdf_source": "SDTMIG_v3.4", "pdf_page": 251, "pdf_parent_section": "§6.3.5.7.1 Microbiology Specimen (MB)", "pdf_verbatim": "| MBTPTNUM | Planned Time Point Number | Num | | Timing | Numeric version of MBTPT used in sorting. | Perm |", "figure_ref": null, "candidates": [{"md_atom_id": "md_dmMB_ex_a087", "md_file": "knowledge_base/domains/MB/examples.md", "md_atom_type": "TABLE_ROW", "md_parent_section": "§MB.3 [Example 3]", "md_verbatim": "| 1 | ABC | BE | ABC-01-101 | 1 | 100 | | Collecting | COLLECTION | 2011-01-17T06:00 | 2011-01-17T05:00 | |", "score": 0.4327, "match_basis": "verbatim_token+domain_route:MB"}, {"md_atom_id": "md_dmMB_ex_a088", "md_file": "knowledge_base/domains/MB/examples.md", "md_atom_type": "TABLE_ROW", "md_parent_section": "§MB.3 [Example 3]", "md_verbatim": "| 2 | ABC | BE | ABC-01-101 | 2 | 100.1 | | Aliquoting | PREPARATION | 2011-01-17T06:00 | 2011-01-17T09:00 | |", "score": 0.429, "match_basis": "verbatim_token+domain_route:MB"}, {"md_atom_id": "md_dmMB_ex_a089", "md_file": "knowledge_base/domains/MB/examples.md", "md_atom_type": "TABLE_ROW", "md_parent_section": "§MB.3 [Example 3]", "md_verbatim": "| 3 | ABC | BE | ABC-01-101 | 3 | 100.2 | | Aliquoting | PREPARATION | 2011-01-17T06:00 | 2011-01-17T09:00 | |", "score": 0.429, "match_basis": "verbatim_token+domain_route:MB"}, {"md_atom_id": "md_dmMB_ex_a090", "md_file": "knowledge_base/domains/MB/examples.md", "md_atom_type": "TABLE_ROW", "md_parent_section": "§MB.3 [Example 3]", "md_verbatim": "| 4 | ABC | BE | ABC-01-101 | 4 | 100.3 | | Aliquoting | PREPARATION | 2011-01-17T06:00 | 2011-01-17T09:00 | |", "score": 0.429, "match_basis": "verbatim_token+domain_route:MB"}, {"md_atom_id": "md_dmMB_ex_a091", "md_file": "knowledge_base/domains/MB/examples.md", "md_atom_type": "TABLE_ROW", "md_parent_section": "§MB.3 [Example 3]", "md_verbatim": "| 5 | ABC | BE | ABC-01-101 | 5 | 100.4 | | Aliquoting | PREPARATION | 2011-01-17T06:00 | 2011-01-17T09:00 | |", "score": 0.429, "match_basis": "verbatim_token+domain_route:MB"}], "candidate_count": 5, "zero_candidate": false}
{"pdf_atom_id": "ig34_p0251_a002", "pdf_atom_type": "TABLE_ROW", "pdf_source": "SDTMIG_v3.4", "pdf_page": 251, "pdf_parent_section": "§6.3.5.7.1 Microbiology Specimen (MB)", "pdf_verbatim": "| MBELTM | Planned Elapsed Time from Time Point Ref | Char | ISO 8601 duration | Timing | Planned elapsed time (in ISO 8601 duration format) relative to a fixed reference point, MBTPTREF, (e.g., previous dose, previous meal). This variable is useful where there are repetitive measures. Not a clock time or a date time variable. Represented as ISO 8601 duration. | Perm |", "figure_ref": null, "candidates": [{"md_atom_id": "md_dmMB_ex_a096", "md_file": "knowledge_base/domains/MB/examples.md", "md_atom_type": "TABLE_ROW", "md_parent_section": "§MB.3 [Example 3]", "md_verbatim": "| 10 | ABC | BE | ABC-01-101 | 10 | 100.1 | | Concentrating | PREPARATION | 2011-01-17T06:00 | 2011-01-17T09:15 | |", "score": 0.4425, "match_basis": "verbatim_token+domain_route:MB"}, {"md_atom_id": "md_dmMB_ex_a057", "md_file": "knowledge_base/domains/MB/examples.md", "md_atom_type": "TABLE_ROW", "md_parent_section": "§MB.2 [Example 2]", "md_verbatim": "| 3 | ABC | MB | ABC-001-001 | 3 | SP01 | GMNROD | Gram Negative Rods | DETECTION | PRESENT | Ord | PRESENT | LUNG | | GRAM STAIN | 1 | VISIT 1 | 2005-06-19T08:00 |", "score": 0.4423, "match_basis": "verbatim_token+domain_route:MB"}, {"md_atom_id": "md_dmMB_ex_a055", "md_file": "knowledge_base/domains/MB/examples.md", "md_atom_type": "TABLE_ROW", "md_parent_section": "§MB.2 [Example 2]", "md_verbatim": "| 1 | ABC | MB | ABC-001-001 | 1 | SP01 | GMNCOC | Gram Negative Cocci | DETECTION | PRESENT | Ord | PRESENT | LUNG | | GRAM STAIN | 1 | VISIT 1 | 2005-06-19T08:00 |", "score": 0.442, "match_basis": "verbatim_token+domain_route:MB"}, {"md_atom_id": "md_dmMB_ex_a135", "md_file": "knowledge_base/domains/MB/examples.md", "md_atom_type": "TABLE_ROW", "md_parent_section": "§MB.3 [Example 3]", "md_verbatim": "| 1 | ABC | MB | ABC-01-101 | | 1 | 1 | 100.1 | | AFB | Acid-Fast Bacilli | DETECTION | PRESENT | Ord | PRESENT | | | CONCENTRATED | LAVAGE FLUID | STOMACH | ZIEHL-NEELSEN ACID FAST STAIN | 1 | WEEK 1 | 2011-01-17T06:00 |", "score": 0.441, "match_basis": "verbatim_token+domain_route:MB"}, {"md_atom_id": "md_dmMB_ex_a145", "md_file": "knowledge_base/domains/MB/examples.md", "md_atom_type": "TABLE_ROW", "md_parent_section": "§MB.3 [Example 3]", "md_verbatim": "| 3 | ABC | MB | ABC-01-101 | MBSEQ | 4 | MBMICERT | Microbial Identification Certainty | PRESUMPTIVE | Collected |", "score": 0.4403, "match_basis": "verbatim_token+domain_route:MB"}], "candidate_count": 5, "zero_candidate": false}
{"pdf_atom_id": "ig34_p0251_a003", "pdf_atom_type": "TABLE_ROW", "pdf_source": "SDTMIG_v3.4", "pdf_page": 251, "pdf_parent_section": "§6.3.5.7.1 Microbiology Specimen (MB)", "pdf_verbatim": "| MBTPTREF | Time Point Reference | Char | | Timing | Name of the fixed reference point referred to by MBELTM, MBTPTNUM, and MBTPT. Example: \"PREVIOUS DOSE\". | Perm |", "figure_ref": null, "candidates": [{"md_atom_id": "md_dmMB_ex_a042", "md_file": "knowledge_base/domains/MB/examples.md", "md_atom_type": "TABLE_ROW", "md_parent_section": "§MB.2 [Example 2]", "md_verbatim": "| 1 | ABC | BE | ABC-01-101 | BEREFID | SP01 | BESPEC | Specimen Type | SPUTUM | CRF |", "score": 0.424, "match_basis": "verbatim_token+domain_route:MB"}, {"md_atom_id": "md_dmMB_ex_a043", "md_file": "knowledge_base/domains/MB/examples.md", "md_atom_type": "TABLE_ROW", "md_parent_section": "§MB.2 [Example 2]", "md_verbatim": "| 2 | ABC | BE | ABC-01-101 | BEREFID | SP02 | BESPEC | Specimen Type | SPUTUM | CRF |", "score": 0.424, "match_basis": "verbatim_token+domain_route:MB"}, {"md_atom_id": "md_dmMB_ex_a044", "md_file": "knowledge_base/domains/MB/examples.md", "md_atom_type": "TABLE_ROW", "md_parent_section": "§MB.2 [Example 2]", "md_verbatim": "| 3 | ABC | BE | ABC-01-101 | BEREFID | SP03 | BESPEC | Specimen Type | SPUTUM | CRF |", "score": 0.424, "match_basis": "verbatim_token+domain_route:MB"}, {"md_atom_id": "md_dmMB_ex_a096", "md_file": "knowledge_base/domains/MB/examples.md", "md_atom_type": "TABLE_ROW", "md_parent_section": "§MB.3 [Example 3]", "md_verbatim": "| 10 | ABC | BE | ABC-01-101 | 10 | 100.1 | | Concentrating | PREPARATION | 2011-01-17T06:00 | 2011-01-17T09:15 | |", "score": 0.4231, "match_basis": "verbatim_token+domain_route:MB"}, {"md_atom_id": "md_dmMB_ex_a045", "md_file": "knowledge_base/domains/MB/examples.md", "md_atom_type": "TABLE_ROW", "md_parent_section": "§MB.2 [Example 2]", "md_verbatim": "| 4 | ABC | BE | ABC-01-101 | BEREFID | SP01 | BECLMETH | Specimen Collection Method | EXPECTORATION | CRF |", "score": 0.42, "match_basis": "verbatim_token+domain_route:MB"}], "candidate_count": 5, "zero_candidate": false}
{"pdf_atom_id": "ig34_p0251_a004", "pdf_atom_type": "TABLE_ROW", "pdf_source": "SDTMIG_v3.4", "pdf_page": 251, "pdf_parent_section": "§6.3.5.7.1 Microbiology Specimen (MB)", "pdf_verbatim": "| MBRFTDTC | Date/Time of Reference Time Point | Char | ISO 8601 datetime or interval | Timing | Date/time for a fixed reference time point, MBTPTREF. | Perm |", "figure_ref": null, "candidates": [{"md_atom_id": "md_dmMB_ex_a042", "md_file": "knowledge_base/domains/MB/examples.md", "md_atom_type": "TABLE_ROW", "md_parent_section": "§MB.2 [Example 2]", "md_verbatim": "| 1 | ABC | BE | ABC-01-101 | BEREFID | SP01 | BESPEC | Specimen Type | SPUTUM | CRF |", "score": 0.4269, "match_basis": "verbatim_token+domain_route:MB"}, {"md_atom_id": "md_dmMB_ex_a043", "md_file": "knowledge_base/domains/MB/examples.md", "md_atom_type": "TABLE_ROW", "md_parent_section": "§MB.2 [Example 2]", "md_verbatim": "| 2 | ABC | BE | ABC-01-101 | BEREFID | SP02 | BESPEC | Specimen Type | SPUTUM | CRF |", "score": 0.4269, "match_basis": "verbatim_token+domain_route:MB"}, {"md_atom_id": "md_dmMB_ex_a044", "md_file": "knowledge_base/domains/MB/examples.md", "md_atom_type": "TABLE_ROW", "md_parent_section": "§MB.2 [Example 2]", "md_verbatim": "| 3 | ABC | BE | ABC-01-101 | BEREFID | SP03 | BESPEC | Specimen Type | SPUTUM | CRF |", "score": 0.4269, "match_basis": "verbatim_token+domain_route:MB"}, {"md_atom_id": "md_dmMB_ex_a045", "md_file": "knowledge_base/domains/MB/examples.md", "md_atom_type": "TABLE_ROW", "md_parent_section": "§MB.2 [Example 2]", "md_verbatim": "| 4 | ABC | BE | ABC-01-101 | BEREFID | SP01 | BECLMETH | Specimen Collection Method | EXPECTORATION | CRF |", "score": 0.422, "match_basis": "verbatim_token+domain_route:MB"}, {"md_atom_id": "md_dmMB_ex_a046", "md_file": "knowledge_base/domains/MB/examples.md", "md_atom_type": "TABLE_ROW", "md_parent_section": "§MB.2 [Example 2]", "md_verbatim": "| 5 | ABC | BE | ABC-01-101 | BEREFID | SP02 | BECLMETH | Specimen Collection Method | EXPECTORATION | CRF |", "score": 0.422, "match_basis": "verbatim_token+domain_route:MB"}], "candidate_count": 5, "zero_candidate": false}
{"pdf_atom_id": "ig34_p0251_a005", "pdf_atom_type": "NOTE", "pdf_source": "SDTMIG_v3.4", "pdf_page": 251, "pdf_parent_section": "§6.3.5.7.1 Microbiology Specimen (MB)", "pdf_verbatim": "1In this column, an asterisk (*) indicates that the variable may be subject to controlled terminology. CDISC/NCI codelist values are enclosed in parentheses.", "figure_ref": null, "candidates": [{"md_atom_id": "md_dmMB_ex_a039", "md_file": "knowledge_base/domains/MB/examples.md", "md_atom_type": "SENTENCE", "md_parent_section": "§MB.2 [Example 2]", "md_verbatim": "**Rows 4-6:** Show that all 3 sputum samples were collected via expectoration, as indicated by QVAL where QNAM=\"Specimen Collection Method\". QVAL is populated using the CDISC Controlled Terminology codelist, \"Specimen Collection Method\".", "score": 0.4827, "match_basis": "verbatim_token+domain_route:MB"}, {"md_atom_id": "md_dmMB_ex_a098", "md_file": "knowledge_base/domains/MB/examples.md", "md_atom_type": "SENTENCE", "md_parent_section": "§MB.3 [Example 3]", "md_verbatim": "The LEVEL variable indicates that the sample has been subsampled.", "score": 0.4287, "match_basis": "verbatim_token+domain_route:MB"}, {"md_atom_id": "md_dmMB_ex_a009", "md_file": "knowledge_base/domains/MB/examples.md", "md_atom_type": "SENTENCE", "md_parent_section": "§MB.1 [Example 1]", "md_verbatim": "Because an identified organism is the subject of the test, the NHOID variable is populated with \"ENTEROCOCCUS FAECALIS\".", "score": 0.3943, "match_basis": "verbatim_token+domain_route:MB"}, {"md_atom_id": "md_dmMB_ex_a048", "md_file": "knowledge_base/domains/MB/examples.md", "md_atom_type": "SENTENCE", "md_parent_section": "§MB.2 [Example 2]", "md_verbatim": "**Rows 1-2:** Show that a gram stain was used on a subject sputum sample to identify the presence of gram negative cocci (row 1) and to quantify the bacteria (row 2). MBORRES in row 2 represents an ordinal result (MBRSLSCL = \"Ord\"), such as from a published quantification scale. This value decodes to \"FEW\" as shown in MBSTRESC. The quantification scale used is represented as Supplemental Qualifiers of MB.", "score": 0.3902, "match_basis": "verbatim_token+domain_route:MB"}, {"md_atom_id": "md_dmMB_ex_a111", "md_file": "knowledge_base/domains/MB/examples.md", "md_atom_type": "SENTENCE", "md_parent_section": "§MB.3 [Example 3]", "md_verbatim": "**Row 1:** Shows the total volume of lavage fluid collected during the gastric lavage by using the same values for BSREFID and BEREFID. This is the parent (collected) sample from which further aliquots were generated.", "score": 0.3897, "match_basis": "verbatim_token+domain_route:MB"}], "candidate_count": 5, "zero_candidate": false}
{"pdf_atom_id": "ig34_p0251_a006", "pdf_atom_type": "HEADING", "pdf_source": "SDTMIG_v3.4", "pdf_page": 251, "pdf_parent_section": "§6.3.5.7.1 Microbiology Specimen (MB)", "pdf_verbatim": "MB – Assumptions", "figure_ref": null, "candidates": [{"md_atom_id": "md_dmMB_assn_a001", "md_file": "knowledge_base/domains/MB/assumptions.md", "md_atom_type": "HEADING", "md_parent_section": "§MB [MB — Assumptions]", "md_verbatim": "# MB — Assumptions", "score": 1.0, "match_basis": "verbatim_token+domain_route:MB"}, {"md_atom_id": "md_dmMB_ex_a001", "md_file": "knowledge_base/domains/MB/examples.md", "md_atom_type": "HEADING", "md_parent_section": "§MB [MB — Examples]", "md_verbatim": "# MB — Examples", "score": 0.4, "match_basis": "verbatim_token+domain_route:MB"}, {"md_atom_id": "md_dmMB_ex_a004", "md_file": "knowledge_base/domains/MB/examples.md", "md_atom_type": "HEADING", "md_parent_section": "§MB [MB — Examples]", "md_verbatim": "## Example 1", "score": 0.4, "match_basis": "verbatim_token+domain_route:MB"}, {"md_atom_id": "md_dmMB_ex_a027", "md_file": "knowledge_base/domains/MB/examples.md", "md_atom_type": "HEADING", "md_parent_section": "§MB [MB — Examples]", "md_verbatim": "## Example 2", "score": 0.4, "match_basis": "verbatim_token+domain_route:MB"}, {"md_atom_id": "md_dmMB_ex_a066", "md_file": "knowledge_base/domains/MB/examples.md", "md_atom_type": "HEADING", "md_parent_section": "§MB [MB — Examples]", "md_verbatim": "## Example 3", "score": 0.4, "match_basis": "verbatim_token+domain_route:MB"}], "candidate_count": 5, "zero_candidate": false}
{"pdf_atom_id": "ig34_p0251_a007", "pdf_atom_type": "LIST_ITEM", "pdf_source": "SDTMIG_v3.4", "pdf_page": 251, "pdf_parent_section": "§6.3.5.7.1 Microbiology Specimen (MB)", "pdf_verbatim": "1. Representation of findings in the Microbiology Specimen domain should be handled as follows:", "figure_ref": null, "candidates": [{"md_atom_id": "md_dmMB_assn_a002", "md_file": "knowledge_base/domains/MB/assumptions.md", "md_atom_type": "LIST_ITEM", "md_parent_section": "§MB [MB — Assumptions]", "md_verbatim": "1. Representation of findings in the Microbiology Specimen domain should be handled as follows:", "score": 1.0, "match_basis": "verbatim_token+domain_route:MB"}, {"md_atom_id": "md_dmMB_ex_a110", "md_file": "knowledge_base/domains/MB/examples.md", "md_atom_type": "SENTENCE", "md_parent_section": "§MB.3 [Example 3]", "md_verbatim": "Findings data captured about the specimen during collection, preparation, and handling are represented in the BS domain.", "score": 0.5396, "match_basis": "verbatim_token+domain_route:MB"}, {"md_atom_id": "md_dmMB_assn_a012", "md_file": "knowledge_base/domains/MB/assumptions.md", "md_atom_type": "LIST_ITEM", "md_parent_section": "§MB [MB — Assumptions]", "md_verbatim": "2. MBDTC represents the date the specimen was collected.", "score": 0.5364, "match_basis": "verbatim_token+domain_route:MB"}, {"md_atom_id": "md_dmMB_assn_a007", "md_file": "knowledge_base/domains/MB/assumptions.md", "md_atom_type": "LIST_ITEM", "md_parent_section": "§MB [MB — Assumptions]", "md_verbatim": "   c. Culture characteristics covers concepts such as growth/no growth, colony quantification measures, colony color, colony morphology, and so on. **Note that this does not include drug susceptibility testing, which is represented in the Microbiology Susceptibility (MS) domain.**", "score": 0.5141, "match_basis": "verbatim_token+domain_route:MB"}, {"md_atom_id": "md_dmMB_assn_a011", "md_file": "knowledge_base/domains/MB/assumptions.md", "md_atom_type": "LIST_ITEM", "md_parent_section": "§MB [MB — Assumptions]", "md_verbatim": "      iv. CDISC Controlled Terminology Rules for Microbiology (MB/MS) domains are available at https://www.cdisc.org/standards/terminology/controlled-terminology.", "score": 0.5109, "match_basis": "verbatim_token+domain_route:MB"}], "candidate_count": 5, "zero_candidate": false}
{"pdf_atom_id": "ig34_p0251_a008", "pdf_atom_type": "LIST_ITEM", "pdf_source": "SDTMIG_v3.4", "pdf_page": 251, "pdf_parent_section": "§6.3.5.7.1 Microbiology Specimen (MB)", "pdf_verbatim": "a. In cases of tests that target an organism, group of organisms, or antigen for identification, MBTEST equals the name of the organism/antigen targeted by the identification assay, and", "figure_ref": null, "candidates": [{"md_atom_id": "md_dmMB_assn_a003", "md_file": "knowledge_base/domains/MB/assumptions.md", "md_atom_type": "LIST_ITEM", "md_parent_section": "§MB [MB — Assumptions]", "md_verbatim": "   a. In cases of tests that target an organism, group of organisms, or antigen for identification, MBTEST equals the name of the organism/antigen targeted by the identification assay, and", "score": 1.0, "match_basis": "verbatim_token+domain_route:MB"}, {"md_atom_id": "md_dmMB_assn_a010", "md_file": "knowledge_base/domains/MB/assumptions.md", "md_atom_type": "LIST_ITEM", "md_parent_section": "§MB [MB — Assumptions]", "md_verbatim": "      iii. MBGRPID should be used to group characteristic records with the identification record of the organism to which the characteristics apply.", "score": 0.5435, "match_basis": "verbatim_token+domain_route:MB"}, {"md_atom_id": "md_dmMB_assn_a006", "md_file": "knowledge_base/domains/MB/assumptions.md", "md_atom_type": "LIST_ITEM", "md_parent_section": "§MB [MB — Assumptions]", "md_verbatim": "   b. For non-targeted identification of organisms (i.e., tests that have the ability to identify a range of organisms without specifically targeting any), the value for MBTESTCD/MBTEST should be \"MCORGIDN\"/\"Microbial Organism Identification\", and the result should be the name of the organism or group of organisms found to be present (e.g., \"INFLUENZA A VIRUS SUBTYPE H1N1\"; \"CLONORCHIS SINENSIS\"). In this scenario MBORRES is populated with values from the Microorganism Codelist (C85491).", "score": 0.5379, "match_basis": "verbatim_token+domain_route:MB"}, {"md_atom_id": "md_dmMB_assn_a008", "md_file": "knowledge_base/domains/MB/assumptions.md", "md_atom_type": "LIST_ITEM", "md_parent_section": "§MB [MB — Assumptions]", "md_verbatim": "      i. MBTESTCD/MBTEST should be the name of the organism or group of organisms being characterized.", "score": 0.5378, "match_basis": "verbatim_token+domain_route:MB"}, {"md_atom_id": "md_dmMB_assn_a005", "md_file": "knowledge_base/domains/MB/assumptions.md", "md_atom_type": "LIST_ITEM", "md_parent_section": "§MB [MB — Assumptions]", "md_verbatim": "      ii. The result should generally be \"PRESENT\"/\"ABSENT\", \"POSITIVE\"/\"NEGATIVE\", or \"INDETERMINATE\". However, there may be cases where a test differentiates between 2 or more similar organisms, in which case it would be appropriate for the result to be the name of the organism detected. For example, a test may look for influenza A or influenza B antigen. In this case, MBTEST would be \"Influenza A/B Antigen\"; the result could be \"INFLUENZA A ANTIGEN\", \"INFLUENZA B ANTIGEN\", or \"INFLUENZA A/B ANTIGEN\".", "score": 0.5073, "match_basis": "verbatim_token+domain_route:MB"}], "candidate_count": 5, "zero_candidate": false}
{"pdf_atom_id": "ig34_p0251_a009", "pdf_atom_type": "LIST_ITEM", "pdf_source": "SDTMIG_v3.4", "pdf_page": 251, "pdf_parent_section": "§6.3.5.7.1 Microbiology Specimen (MB)", "pdf_verbatim": "i. MBTSTDTL should be \"DETECTION\".", "figure_ref": null, "candidates": [{"md_atom_id": "md_dmMB_assn_a004", "md_file": "knowledge_base/domains/MB/assumptions.md", "md_atom_type": "LIST_ITEM", "md_parent_section": "§MB [MB — Assumptions]", "md_verbatim": "      i. MBTSTDTL should be \"DETECTION\".", "score": 1.0, "match_basis": "verbatim_token+domain_route:MB"}, {"md_atom_id": "md_dmMB_assn_a009", "md_file": "knowledge_base/domains/MB/assumptions.md", "md_atom_type": "LIST_ITEM", "md_parent_section": "§MB [MB — Assumptions]", "md_verbatim": "      ii. MBTSTDTL should be the name of the characteristic being described (e.g., \"COLONY COUNT\", \"VIRAL LOAD\").", "score": 0.5111, "match_basis": "verbatim_token+domain_route:MB"}, {"md_atom_id": "md_dmMB_assn_a008", "md_file": "knowledge_base/domains/MB/assumptions.md", "md_atom_type": "LIST_ITEM", "md_parent_section": "§MB [MB — Assumptions]", "md_verbatim": "      i. MBTESTCD/MBTEST should be the name of the organism or group of organisms being characterized.", "score": 0.4612, "match_basis": "verbatim_token+domain_route:MB"}, {"md_atom_id": "md_dmMB_assn_a002", "md_file": "knowledge_base/domains/MB/assumptions.md", "md_atom_type": "LIST_ITEM", "md_parent_section": "§MB [MB — Assumptions]", "md_verbatim": "1. Representation of findings in the Microbiology Specimen domain should be handled as follows:", "score": 0.4562, "match_basis": "verbatim_token+domain_route:MB"}, {"md_atom_id": "md_dmMB_assn_a010", "md_file": "knowledge_base/domains/MB/assumptions.md", "md_atom_type": "LIST_ITEM", "md_parent_section": "§MB [MB — Assumptions]", "md_verbatim": "      iii. MBGRPID should be used to group characteristic records with the identification record of the organism to which the characteristics apply.", "score": 0.4507, "match_basis": "verbatim_token+domain_route:MB"}], "candidate_count": 5, "zero_candidate": false}
{"pdf_atom_id": "ig34_p0251_a010", "pdf_atom_type": "CODE_LITERAL", "pdf_source": "SDTMIG_v3.4", "pdf_page": 251, "pdf_parent_section": "§6.3.5.7.1 Microbiology Specimen (MB)", "pdf_verbatim": "MBTSTDTL", "figure_ref": null, "candidates": [{"md_atom_id": "md_dmMB_assn_a004", "md_file": "knowledge_base/domains/MB/assumptions.md", "md_atom_type": "LIST_ITEM", "md_parent_section": "§MB [MB — Assumptions]", "md_verbatim": "      i. MBTSTDTL should be \"DETECTION\".", "score": 0.4018, "match_basis": "verbatim_token+domain_route:MB"}, {"md_atom_id": "md_dmMB_assn_a009", "md_file": "knowledge_base/domains/MB/assumptions.md", "md_atom_type": "LIST_ITEM", "md_parent_section": "§MB [MB — Assumptions]", "md_verbatim": "      ii. MBTSTDTL should be the name of the characteristic being described (e.g., \"COLONY COUNT\", \"VIRAL LOAD\").", "score": 0.2666, "match_basis": "verbatim_token+domain_route:MB"}, {"md_atom_id": "md_dmMB_ex_a125", "md_file": "knowledge_base/domains/MB/examples.md", "md_atom_type": "SENTENCE", "md_parent_section": "§MB.3 [Example 3]", "md_verbatim": "The variable MBTSTDTL is used to provide further description of the test performed in producing the MB result.", "score": 0.2592, "match_basis": "verbatim_token+domain_route:MB"}, {"md_atom_id": "md_dmMB_ex_a054", "md_file": "knowledge_base/domains/MB/examples.md", "md_atom_type": "TABLE_HEADER", "md_parent_section": "§MB.2 [Example 2]", "md_verbatim": "| Row | STUDYID | DOMAIN | USUBJID | MBSEQ | MBREFID | MBTESTCD | MBTEST | MBTSTDTL | MBORRES | MBRSLSCL | MBSTRESC | MBSPEC | MBLOC | MBMETHOD | VISITNUM | VISIT | MBDTC |\n|-----|---------|--------|---------|-------|---------|----------|--------|----------|---------|----------|----------|--------|-------|----------|----------|-------|-------|", "score": 0.2422, "match_basis": "verbatim_token+domain_route:MB"}, {"md_atom_id": "md_dmMB_ex_a019", "md_file": "knowledge_base/domains/MB/examples.md", "md_atom_type": "TABLE_HEADER", "md_parent_section": "§MB.1 [Example 1]", "md_verbatim": "| Row | STUDYID | DOMAIN | USUBJID | MBSEQ | MBREFID | MBLNKID | MBTESTCD | MBTEST | MBTSTDTL | MBORRES | MBSTRESC | MBSPEC | MBLOC | MBMETHOD | MBNAM | VISITNUM | VISIT | MBDTC |\n|-----|---------|--------|---------|-------|---------|---------|----------|--------|----------|---------|----------|--------|-------|----------|-------|----------|-------|-------|", "score": 0.2407, "match_basis": "verbatim_token+domain_route:MB"}], "candidate_count": 5, "zero_candidate": false}
{"pdf_atom_id": "ig34_p0251_a011", "pdf_atom_type": "CODE_LITERAL", "pdf_source": "SDTMIG_v3.4", "pdf_page": 251, "pdf_parent_section": "§6.3.5.7.1 Microbiology Specimen (MB)", "pdf_verbatim": "\"DETECTION\"", "figure_ref": null, "candidates": [{"md_atom_id": "md_dmMB_assn_a004", "md_file": "knowledge_base/domains/MB/assumptions.md", "md_atom_type": "LIST_ITEM", "md_parent_section": "§MB [MB — Assumptions]", "md_verbatim": "      i. MBTSTDTL should be \"DETECTION\".", "score": 0.4371, "match_basis": "verbatim_token+domain_route:MB"}, {"md_atom_id": "md_dmMB_ex_a087", "md_file": "knowledge_base/domains/MB/examples.md", "md_atom_type": "TABLE_ROW", "md_parent_section": "§MB.3 [Example 3]", "md_verbatim": "| 1 | ABC | BE | ABC-01-101 | 1 | 100 | | Collecting | COLLECTION | 2011-01-17T06:00 | 2011-01-17T05:00 | |", "score": 0.2991, "match_basis": "verbatim_token+domain_route:MB"}, {"md_atom_id": "md_dmMB_ex_a057", "md_file": "knowledge_base/domains/MB/examples.md", "md_atom_type": "TABLE_ROW", "md_parent_section": "§MB.2 [Example 2]", "md_verbatim": "| 3 | ABC | MB | ABC-001-001 | 3 | SP01 | GMNROD | Gram Negative Rods | DETECTION | PRESENT | Ord | PRESENT | LUNG | | GRAM STAIN | 1 | VISIT 1 | 2005-06-19T08:00 |", "score": 0.2877, "match_basis": "verbatim_token+domain_route:MB"}, {"md_atom_id": "md_dmMB_ex_a121", "md_file": "knowledge_base/domains/MB/examples.md", "md_atom_type": "SENTENCE", "md_parent_section": "§MB.3 [Example 3]", "md_verbatim": "Results from detection tests performed on samples are represented in the MB domain.", "score": 0.2877, "match_basis": "verbatim_token+domain_route:MB"}, {"md_atom_id": "md_dmMB_ex_a055", "md_file": "knowledge_base/domains/MB/examples.md", "md_atom_type": "TABLE_ROW", "md_parent_section": "§MB.2 [Example 2]", "md_verbatim": "| 1 | ABC | MB | ABC-001-001 | 1 | SP01 | GMNCOC | Gram Negative Cocci | DETECTION | PRESENT | Ord | PRESENT | LUNG | | GRAM STAIN | 1 | VISIT 1 | 2005-06-19T08:00 |", "score": 0.2855, "match_basis": "verbatim_token+domain_route:MB"}], "candidate_count": 5, "zero_candidate": false}
{"pdf_atom_id": "ig34_p0251_a012", "pdf_atom_type": "LIST_ITEM", "pdf_source": "SDTMIG_v3.4", "pdf_page": 251, "pdf_parent_section": "§6.3.5.7.1 Microbiology Specimen (MB)", "pdf_verbatim": "ii. The result should generally be \"PRESENT\"/\"ABSENT\", \"POSITIVE\"/\"NEGATIVE\", or \"INDETERMINATE\". However, there may be cases where a test differentiates between 2 or more similar organisms, in which case it would be appropriate for the result to be the name of the organism detected. For example, a test may look for influenza A or influenza B antigen. In this case, MBTEST would be \"Influenza A/B Antigen\"; the result could be \"INFLUENZA A ANTIGEN\", \"INFLUENZA B ANTIGEN\", or \"INFLUENZA A/B ANTIGEN\".", "figure_ref": null, "candidates": [{"md_atom_id": "md_dmMB_assn_a005", "md_file": "knowledge_base/domains/MB/assumptions.md", "md_atom_type": "LIST_ITEM", "md_parent_section": "§MB [MB — Assumptions]", "md_verbatim": "      ii. The result should generally be \"PRESENT\"/\"ABSENT\", \"POSITIVE\"/\"NEGATIVE\", or \"INDETERMINATE\". However, there may be cases where a test differentiates between 2 or more similar organisms, in which case it would be appropriate for the result to be the name of the organism detected. For example, a test may look for influenza A or influenza B antigen. In this case, MBTEST would be \"Influenza A/B Antigen\"; the result could be \"INFLUENZA A ANTIGEN\", \"INFLUENZA B ANTIGEN\", or \"INFLUENZA A/B ANTIGEN\".", "score": 1.0, "match_basis": "verbatim_token+domain_route:MB"}, {"md_atom_id": "md_dmMB_assn_a003", "md_file": "knowledge_base/domains/MB/assumptions.md", "md_atom_type": "LIST_ITEM", "md_parent_section": "§MB [MB — Assumptions]", "md_verbatim": "   a. In cases of tests that target an organism, group of organisms, or antigen for identification, MBTEST equals the name of the organism/antigen targeted by the identification assay, and", "score": 0.5073, "match_basis": "verbatim_token+domain_route:MB"}, {"md_atom_id": "md_dmMB_assn_a006", "md_file": "knowledge_base/domains/MB/assumptions.md", "md_atom_type": "LIST_ITEM", "md_parent_section": "§MB [MB — Assumptions]", "md_verbatim": "   b. For non-targeted identification of organisms (i.e., tests that have the ability to identify a range of organisms without specifically targeting any), the value for MBTESTCD/MBTEST should be \"MCORGIDN\"/\"Microbial Organism Identification\", and the result should be the name of the organism or group of organisms found to be present (e.g., \"INFLUENZA A VIRUS SUBTYPE H1N1\"; \"CLONORCHIS SINENSIS\"). In this scenario MBORRES is populated with values from the Microorganism Codelist (C85491).", "score": 0.5071, "match_basis": "verbatim_token+domain_route:MB"}, {"md_atom_id": "md_dmMB_assn_a008", "md_file": "knowledge_base/domains/MB/assumptions.md", "md_atom_type": "LIST_ITEM", "md_parent_section": "§MB [MB — Assumptions]", "md_verbatim": "      i. MBTESTCD/MBTEST should be the name of the organism or group of organisms being characterized.", "score": 0.4851, "match_basis": "verbatim_token+domain_route:MB"}, {"md_atom_id": "md_dmMB_assn_a016", "md_file": "knowledge_base/domains/MB/assumptions.md", "md_atom_type": "LIST_ITEM", "md_parent_section": "§MB [MB — Assumptions]", "md_verbatim": "4. The variable NHOID is not allowed for use in the MB domain. Any additional Identifiers, Timing variables, or Findings general observation class qualifiers may be added to the MB domain, but the following variables would not generally be used: --MODIFY, --BODSYS, --FAST, --TOX, --TOXGR, --SEV.", "score": 0.4735, "match_basis": "verbatim_token+domain_route:MB"}], "candidate_count": 5, "zero_candidate": false}
{"pdf_atom_id": "ig34_p0251_a013", "pdf_atom_type": "CODE_LITERAL", "pdf_source": "SDTMIG_v3.4", "pdf_page": 251, "pdf_parent_section": "§6.3.5.7.1 Microbiology Specimen (MB)", "pdf_verbatim": "\"PRESENT\"", "figure_ref": null, "candidates": [{"md_atom_id": "md_dmMB_assn_a012", "md_file": "knowledge_base/domains/MB/assumptions.md", "md_atom_type": "LIST_ITEM", "md_parent_section": "§MB [MB — Assumptions]", "md_verbatim": "2. MBDTC represents the date the specimen was collected.", "score": 0.2971, "match_basis": "verbatim_token+domain_route:MB"}, {"md_atom_id": "md_dmMB_ex_a037", "md_file": "knowledge_base/domains/MB/examples.md", "md_atom_type": "SENTENCE", "md_parent_section": "§MB.2 [Example 2]", "md_verbatim": "The SUPPBE table is used to represent 2 non-standard variables of BE.", "score": 0.2934, "match_basis": "verbatim_token+domain_route:MB"}, {"md_atom_id": "md_dmMB_ex_a078", "md_file": "knowledge_base/domains/MB/examples.md", "md_atom_type": "SENTENCE", "md_parent_section": "§MB.3 [Example 3]", "md_verbatim": "In the BE, BS, MB, and MS domains, --DTC represents the date of sample collection.", "score": 0.29, "match_basis": "verbatim_token+domain_route:MB"}, {"md_atom_id": "md_dmMB_ex_a031", "md_file": "knowledge_base/domains/MB/examples.md", "md_atom_type": "SENTENCE", "md_parent_section": "§MB.2 [Example 2]", "md_verbatim": "Specimen collection was represented in the Biospecimen Events (BE) domain.", "score": 0.2757, "match_basis": "verbatim_token+domain_route:MB"}, {"md_atom_id": "md_dmMB_ex_a017", "md_file": "knowledge_base/domains/MB/examples.md", "md_atom_type": "SENTENCE", "md_parent_section": "§MB.1 [Example 1]", "md_verbatim": "The variables MSCONC and MSCONCU represent the concentration and units of the drug being used.", "score": 0.2669, "match_basis": "verbatim_token+domain_route:MB"}, {"md_atom_id": "md_dmMB_ex_a057", "md_file": "knowledge_base/domains/MB/examples.md", "md_atom_type": "TABLE_ROW", "md_parent_section": "§MB.2 [Example 2]", "md_verbatim": "| 3 | ABC | MB | ABC-001-001 | 3 | SP01 | GMNROD | Gram Negative Rods | DETECTION | PRESENT | Ord | PRESENT | LUNG | | GRAM STAIN | 1 | VISIT 1 | 2005-06-19T08:00 |", "score": 0.2598, "match_basis": "verbatim_token+domain_route:MB"}, {"md_atom_id": "md_dmMB_ex_a121", "md_file": "knowledge_base/domains/MB/examples.md", "md_atom_type": "SENTENCE", "md_parent_section": "§MB.3 [Example 3]", "md_verbatim": "Results from detection tests performed on samples are represented in the MB domain.", "score": 0.2598, "match_basis": "verbatim_token+domain_route:MB"}, {"md_atom_id": "md_dmMB_ex_a055", "md_file": "knowledge_base/domains/MB/examples.md", "md_atom_type": "TABLE_ROW", "md_parent_section": "§MB.2 [Example 2]", "md_verbatim": "| 1 | ABC | MB | ABC-001-001 | 1 | SP01 | GMNCOC | Gram Negative Cocci | DETECTION | PRESENT | Ord | PRESENT | LUNG | | GRAM STAIN | 1 | VISIT 1 | 2005-06-19T08:00 |", "score": 0.2582, "match_basis": "verbatim_token+domain_route:MB"}, {"md_atom_id": "md_dmMB_ex_a049", "md_file": "knowledge_base/domains/MB/examples.md", "md_atom_type": "SENTENCE", "md_parent_section": "§MB.2 [Example 2]", "md_verbatim": "**Rows 3-4:** Show that the same gram-stained sample was used to identify and quantify the presence of gram negative rods.", "score": 0.2552, "match_basis": "verbatim_token+domain_route:MB"}, {"md_atom_id": "md_dmMB_assn_a002", "md_file": "knowledge_base/domains/MB/assumptions.md", "md_atom_type": "LIST_ITEM", "md_parent_section": "§MB [MB — Assumptions]", "md_verbatim": "1. Representation of findings in the Microbiology Specimen domain should be handled as follows:", "score": 0.2466, "match_basis": "verbatim_token+domain_route:MB"}], "candidate_count": 10, "zero_candidate": false}
{"pdf_atom_id": "ig34_p0251_a014", "pdf_atom_type": "CODE_LITERAL", "pdf_source": "SDTMIG_v3.4", "pdf_page": 251, "pdf_parent_section": "§6.3.5.7.1 Microbiology Specimen (MB)", "pdf_verbatim": "\"ABSENT\"", "figure_ref": null, "candidates": [{"md_atom_id": "md_dmMB_assn_a012", "md_file": "knowledge_base/domains/MB/assumptions.md", "md_atom_type": "LIST_ITEM", "md_parent_section": "§MB [MB — Assumptions]", "md_verbatim": "2. MBDTC represents the date the specimen was collected.", "score": 0.23, "match_basis": "verbatim_token+domain_route:MB"}, {"md_atom_id": "md_dmMB_ex_a037", "md_file": "knowledge_base/domains/MB/examples.md", "md_atom_type": "SENTENCE", "md_parent_section": "§MB.2 [Example 2]", "md_verbatim": "The SUPPBE table is used to represent 2 non-standard variables of BE.", "score": 0.2287, "match_basis": "verbatim_token+domain_route:MB"}, {"md_atom_id": "md_dmMB_ex_a078", "md_file": "knowledge_base/domains/MB/examples.md", "md_atom_type": "SENTENCE", "md_parent_section": "§MB.3 [Example 3]", "md_verbatim": "In the BE, BS, MB, and MS domains, --DTC represents the date of sample collection.", "score": 0.2275, "match_basis": "verbatim_token+domain_route:MB"}, {"md_atom_id": "md_dmMB_ex_a031", "md_file": "knowledge_base/domains/MB/examples.md", "md_atom_type": "SENTENCE", "md_parent_section": "§MB.2 [Example 2]", "md_verbatim": "Specimen collection was represented in the Biospecimen Events (BE) domain.", "score": 0.2224, "match_basis": "verbatim_token+domain_route:MB"}, {"md_atom_id": "md_dmMB_ex_a017", "md_file": "knowledge_base/domains/MB/examples.md", "md_atom_type": "SENTENCE", "md_parent_section": "§MB.1 [Example 1]", "md_verbatim": "The variables MSCONC and MSCONCU represent the concentration and units of the drug being used.", "score": 0.2193, "match_basis": "verbatim_token+domain_route:MB"}, {"md_atom_id": "md_dmMB_ex_a057", "md_file": "knowledge_base/domains/MB/examples.md", "md_atom_type": "TABLE_ROW", "md_parent_section": "§MB.2 [Example 2]", "md_verbatim": "| 3 | ABC | MB | ABC-001-001 | 3 | SP01 | GMNROD | Gram Negative Rods | DETECTION | PRESENT | Ord | PRESENT | LUNG | | GRAM STAIN | 1 | VISIT 1 | 2005-06-19T08:00 |", "score": 0.2167, "match_basis": "verbatim_token+domain_route:MB"}, {"md_atom_id": "md_dmMB_ex_a121", "md_file": "knowledge_base/domains/MB/examples.md", "md_atom_type": "SENTENCE", "md_parent_section": "§MB.3 [Example 3]", "md_verbatim": "Results from detection tests performed on samples are represented in the MB domain.", "score": 0.2167, "match_basis": "verbatim_token+domain_route:MB"}, {"md_atom_id": "md_dmMB_ex_a055", "md_file": "knowledge_base/domains/MB/examples.md", "md_atom_type": "TABLE_ROW", "md_parent_section": "§MB.2 [Example 2]", "md_verbatim": "| 1 | ABC | MB | ABC-001-001 | 1 | SP01 | GMNCOC | Gram Negative Cocci | DETECTION | PRESENT | Ord | PRESENT | LUNG | | GRAM STAIN | 1 | VISIT 1 | 2005-06-19T08:00 |", "score": 0.2161, "match_basis": "verbatim_token+domain_route:MB"}, {"md_atom_id": "md_dmMB_ex_a049", "md_file": "knowledge_base/domains/MB/examples.md", "md_atom_type": "SENTENCE", "md_parent_section": "§MB.2 [Example 2]", "md_verbatim": "**Rows 3-4:** Show that the same gram-stained sample was used to identify and quantify the presence of gram negative rods.", "score": 0.215, "match_basis": "verbatim_token+domain_route:MB"}, {"md_atom_id": "md_dmMB_ex_a051", "md_file": "knowledge_base/domains/MB/examples.md", "md_atom_type": "SENTENCE", "md_parent_section": "§MB.2 [Example 2]", "md_verbatim": "**Row 7:** Shows that microbial culture of a subsequent sample at a later visit indicated only the presence of \"KLEBSIELLA PNEUMONIAE\" (MBORRES).", "score": 0.215, "match_basis": "verbatim_token+domain_route:MB"}], "candidate_count": 10, "zero_candidate": false}
{"pdf_atom_id": "ig34_p0251_a015", "pdf_atom_type": "CODE_LITERAL", "pdf_source": "SDTMIG_v3.4", "pdf_page": 251, "pdf_parent_section": "§6.3.5.7.1 Microbiology Specimen (MB)", "pdf_verbatim": "\"POSITIVE\"", "figure_ref": null, "candidates": [{"md_atom_id": "md_dmMB_ex_a058", "md_file": "knowledge_base/domains/MB/examples.md", "md_atom_type": "TABLE_ROW", "md_parent_section": "§MB.2 [Example 2]", "md_verbatim": "| 4 | ABC | MB | ABC-001-001 | 4 | SP01 | GMNROD | Gram Negative Rods | CELL COUNT | 2+ | Ord | FEW | LUNG | | GRAM STAIN | 1 | VISIT 1 | 2005-06-19T08:00 |", "score": 0.235, "match_basis": "verbatim_token+domain_route:MB"}, {"md_atom_id": "md_dmMB_ex_a056", "md_file": "knowledge_base/domains/MB/examples.md", "md_atom_type": "TABLE_ROW", "md_parent_section": "§MB.2 [Example 2]", "md_verbatim": "| 2 | ABC | MB | ABC-001-001 | 2 | SP01 | GMNCOC | Gram Negative Cocci | CELL COUNT | 2+ | Ord | FEW | LUNG | | GRAM STAIN | 1 | VISIT 1 | 2005-06-19T08:00 |", "score": 0.2339, "match_basis": "verbatim_token+domain_route:MB"}, {"md_atom_id": "md_dmMB_ex_a057", "md_file": "knowledge_base/domains/MB/examples.md", "md_atom_type": "TABLE_ROW", "md_parent_section": "§MB.2 [Example 2]", "md_verbatim": "| 3 | ABC | MB | ABC-001-001 | 3 | SP01 | GMNROD | Gram Negative Rods | DETECTION | PRESENT | Ord | PRESENT | LUNG | | GRAM STAIN | 1 | VISIT 1 | 2005-06-19T08:00 |", "score": 0.2291, "match_basis": "verbatim_token+domain_route:MB"}, {"md_atom_id": "md_dmMB_ex_a055", "md_file": "knowledge_base/domains/MB/examples.md", "md_atom_type": "TABLE_ROW", "md_parent_section": "§MB.2 [Example 2]", "md_verbatim": "| 1 | ABC | MB | ABC-001-001 | 1 | SP01 | GMNCOC | Gram Negative Cocci | DETECTION | PRESENT | Ord | PRESENT | LUNG | | GRAM STAIN | 1 | VISIT 1 | 2005-06-19T08:00 |", "score": 0.2283, "match_basis": "verbatim_token+domain_route:MB"}, {"md_atom_id": "md_dmMB_ex_a144", "md_file": "knowledge_base/domains/MB/examples.md", "md_atom_type": "TABLE_ROW", "md_parent_section": "§MB.3 [Example 3]", "md_verbatim": "| 2 | ABC | MB | ABC-01-101 | MBSEQ | 3 | MBMICERT | Microbial Identification Certainty | DEFINITIVE | Collected |", "score": 0.2246, "match_basis": "verbatim_token+domain_route:MB"}], "candidate_count": 5, "zero_candidate": false}
{"pdf_atom_id": "ig34_p0251_a016", "pdf_atom_type": "CODE_LITERAL", "pdf_source": "SDTMIG_v3.4", "pdf_page": 251, "pdf_parent_section": "§6.3.5.7.1 Microbiology Specimen (MB)", "pdf_verbatim": "\"NEGATIVE\"", "figure_ref": null, "candidates": [{"md_atom_id": "md_dmMB_ex_a058", "md_file": "knowledge_base/domains/MB/examples.md", "md_atom_type": "TABLE_ROW", "md_parent_section": "§MB.2 [Example 2]", "md_verbatim": "| 4 | ABC | MB | ABC-001-001 | 4 | SP01 | GMNROD | Gram Negative Rods | CELL COUNT | 2+ | Ord | FEW | LUNG | | GRAM STAIN | 1 | VISIT 1 | 2005-06-19T08:00 |", "score": 0.2873, "match_basis": "verbatim_token+domain_route:MB"}, {"md_atom_id": "md_dmMB_ex_a056", "md_file": "knowledge_base/domains/MB/examples.md", "md_atom_type": "TABLE_ROW", "md_parent_section": "§MB.2 [Example 2]", "md_verbatim": "| 2 | ABC | MB | ABC-001-001 | 2 | SP01 | GMNCOC | Gram Negative Cocci | CELL COUNT | 2+ | Ord | FEW | LUNG | | GRAM STAIN | 1 | VISIT 1 | 2005-06-19T08:00 |", "score": 0.2847, "match_basis": "verbatim_token+domain_route:MB"}, {"md_atom_id": "md_dmMB_ex_a057", "md_file": "knowledge_base/domains/MB/examples.md", "md_atom_type": "TABLE_ROW", "md_parent_section": "§MB.2 [Example 2]", "md_verbatim": "| 3 | ABC | MB | ABC-001-001 | 3 | SP01 | GMNROD | Gram Negative Rods | DETECTION | PRESENT | Ord | PRESENT | LUNG | | GRAM STAIN | 1 | VISIT 1 | 2005-06-19T08:00 |", "score": 0.2737, "match_basis": "verbatim_token+domain_route:MB"}, {"md_atom_id": "md_dmMB_ex_a055", "md_file": "knowledge_base/domains/MB/examples.md", "md_atom_type": "TABLE_ROW", "md_parent_section": "§MB.2 [Example 2]", "md_verbatim": "| 1 | ABC | MB | ABC-001-001 | 1 | SP01 | GMNCOC | Gram Negative Cocci | DETECTION | PRESENT | Ord | PRESENT | LUNG | | GRAM STAIN | 1 | VISIT 1 | 2005-06-19T08:00 |", "score": 0.2718, "match_basis": "verbatim_token+domain_route:MB"}, {"md_atom_id": "md_dmMB_ex_a049", "md_file": "knowledge_base/domains/MB/examples.md", "md_atom_type": "SENTENCE", "md_parent_section": "§MB.2 [Example 2]", "md_verbatim": "**Rows 3-4:** Show that the same gram-stained sample was used to identify and quantify the presence of gram negative rods.", "score": 0.2683, "match_basis": "verbatim_token+domain_route:MB"}], "candidate_count": 5, "zero_candidate": false}
{"pdf_atom_id": "ig34_p0251_a017", "pdf_atom_type": "CODE_LITERAL", "pdf_source": "SDTMIG_v3.4", "pdf_page": 251, "pdf_parent_section": "§6.3.5.7.1 Microbiology Specimen (MB)", "pdf_verbatim": "\"INDETERMINATE\"", "figure_ref": null, "candidates": [{"md_atom_id": "md_dmMB_assn_a005", "md_file": "knowledge_base/domains/MB/assumptions.md", "md_atom_type": "LIST_ITEM", "md_parent_section": "§MB [MB — Assumptions]", "md_verbatim": "      ii. The result should generally be \"PRESENT\"/\"ABSENT\", \"POSITIVE\"/\"NEGATIVE\", or \"INDETERMINATE\". However, there may be cases where a test differentiates between 2 or more similar organisms, in which case it would be appropriate for the result to be the name of the organism detected. For example, a test may look for influenza A or influenza B antigen. In this case, MBTEST would be \"Influenza A/B Antigen\"; the result could be \"INFLUENZA A ANTIGEN\", \"INFLUENZA B ANTIGEN\", or \"INFLUENZA A/B ANTIGEN\".", "score": 0.2432, "match_basis": "verbatim_token+domain_route:MB"}, {"md_atom_id": "md_dmMB_ex_a033", "md_file": "knowledge_base/domains/MB/examples.md", "md_atom_type": "TABLE_HEADER", "md_parent_section": "§MB.2 [Example 2]", "md_verbatim": "| Row | STUDYID | DOMAIN | USUBJID | BESEQ | BEREFID | BETERM | BEDTC |\n|-----|---------|--------|---------|-------|---------|--------|-------|", "score": 0.2374, "match_basis": "verbatim_token+domain_route:MB"}, {"md_atom_id": "md_dmMB_assn_a004", "md_file": "knowledge_base/domains/MB/assumptions.md", "md_atom_type": "LIST_ITEM", "md_parent_section": "§MB [MB — Assumptions]", "md_verbatim": "      i. MBTSTDTL should be \"DETECTION\".", "score": 0.2362, "match_basis": "verbatim_token+domain_route:MB"}, {"md_atom_id": "md_dmMB_assn_a011", "md_file": "knowledge_base/domains/MB/assumptions.md", "md_atom_type": "LIST_ITEM", "md_parent_section": "§MB [MB — Assumptions]", "md_verbatim": "      iv. CDISC Controlled Terminology Rules for Microbiology (MB/MS) domains are available at https://www.cdisc.org/standards/terminology/controlled-terminology.", "score": 0.2281, "match_basis": "verbatim_token+domain_route:MB"}, {"md_atom_id": "md_dmMB_ex_a039", "md_file": "knowledge_base/domains/MB/examples.md", "md_atom_type": "SENTENCE", "md_parent_section": "§MB.2 [Example 2]", "md_verbatim": "**Rows 4-6:** Show that all 3 sputum samples were collected via expectoration, as indicated by QVAL where QNAM=\"Specimen Collection Method\". QVAL is populated using the CDISC Controlled Terminology codelist, \"Specimen Collection Method\".", "score": 0.2275, "match_basis": "verbatim_token+domain_route:MB"}], "candidate_count": 5, "zero_candidate": false}
{"pdf_atom_id": "ig34_p0251_a018", "pdf_atom_type": "CODE_LITERAL", "pdf_source": "SDTMIG_v3.4", "pdf_page": 251, "pdf_parent_section": "§6.3.5.7.1 Microbiology Specimen (MB)", "pdf_verbatim": "\"Influenza A/B Antigen\"", "figure_ref": null, "candidates": [{"md_atom_id": "md_dmMB_assn_a005", "md_file": "knowledge_base/domains/MB/assumptions.md", "md_atom_type": "LIST_ITEM", "md_parent_section": "§MB [MB — Assumptions]", "md_verbatim": "      ii. The result should generally be \"PRESENT\"/\"ABSENT\", \"POSITIVE\"/\"NEGATIVE\", or \"INDETERMINATE\". However, there may be cases where a test differentiates between 2 or more similar organisms, in which case it would be appropriate for the result to be the name of the organism detected. For example, a test may look for influenza A or influenza B antigen. In this case, MBTEST would be \"Influenza A/B Antigen\"; the result could be \"INFLUENZA A ANTIGEN\", \"INFLUENZA B ANTIGEN\", or \"INFLUENZA A/B ANTIGEN\".", "score": 0.2481, "match_basis": "verbatim_token+domain_route:MB"}, {"md_atom_id": "md_dmMB_assn_a003", "md_file": "knowledge_base/domains/MB/assumptions.md", "md_atom_type": "LIST_ITEM", "md_parent_section": "§MB [MB — Assumptions]", "md_verbatim": "   a. In cases of tests that target an organism, group of organisms, or antigen for identification, MBTEST equals the name of the organism/antigen targeted by the identification assay, and", "score": 0.2392, "match_basis": "verbatim_token+domain_route:MB"}, {"md_atom_id": "md_dmMB_assn_a006", "md_file": "knowledge_base/domains/MB/assumptions.md", "md_atom_type": "LIST_ITEM", "md_parent_section": "§MB [MB — Assumptions]", "md_verbatim": "   b. For non-targeted identification of organisms (i.e., tests that have the ability to identify a range of organisms without specifically targeting any), the value for MBTESTCD/MBTEST should be \"MCORGIDN\"/\"Microbial Organism Identification\", and the result should be the name of the organism or group of organisms found to be present (e.g., \"INFLUENZA A VIRUS SUBTYPE H1N1\"; \"CLONORCHIS SINENSIS\"). In this scenario MBORRES is populated with values from the Microorganism Codelist (C85491).", "score": 0.2193, "match_basis": "verbatim_token+domain_route:MB"}, {"md_atom_id": "md_dmMB_ex_a104", "md_file": "knowledge_base/domains/MB/examples.md", "md_atom_type": "TABLE_ROW", "md_parent_section": "§MB.3 [Example 3]", "md_verbatim": "| 1 | ABC | ABC-01-101 | 100 | LAVAGE FLUID | | 1 |", "score": 0.2186, "match_basis": "verbatim_token+domain_route:MB"}, {"md_atom_id": "md_dmMB_ex_a105", "md_file": "knowledge_base/domains/MB/examples.md", "md_atom_type": "TABLE_ROW", "md_parent_section": "§MB.3 [Example 3]", "md_verbatim": "| 2 | ABC | ABC-01-101 | 100.1 | LAVAGE FLUID | 100 | 2 |", "score": 0.2186, "match_basis": "verbatim_token+domain_route:MB"}], "candidate_count": 5, "zero_candidate": false}
{"pdf_atom_id": "ig34_p0251_a019", "pdf_atom_type": "CODE_LITERAL", "pdf_source": "SDTMIG_v3.4", "pdf_page": 251, "pdf_parent_section": "§6.3.5.7.1 Microbiology Specimen (MB)", "pdf_verbatim": "\"INFLUENZA A ANTIGEN\"", "figure_ref": null, "candidates": [{"md_atom_id": "md_dmMB_assn_a005", "md_file": "knowledge_base/domains/MB/assumptions.md", "md_atom_type": "LIST_ITEM", "md_parent_section": "§MB [MB — Assumptions]", "md_verbatim": "      ii. The result should generally be \"PRESENT\"/\"ABSENT\", \"POSITIVE\"/\"NEGATIVE\", or \"INDETERMINATE\". However, there may be cases where a test differentiates between 2 or more similar organisms, in which case it would be appropriate for the result to be the name of the organism detected. For example, a test may look for influenza A or influenza B antigen. In this case, MBTEST would be \"Influenza A/B Antigen\"; the result could be \"INFLUENZA A ANTIGEN\", \"INFLUENZA B ANTIGEN\", or \"INFLUENZA A/B ANTIGEN\".", "score": 0.2481, "match_basis": "verbatim_token+domain_route:MB"}, {"md_atom_id": "md_dmMB_assn_a003", "md_file": "knowledge_base/domains/MB/assumptions.md", "md_atom_type": "LIST_ITEM", "md_parent_section": "§MB [MB — Assumptions]", "md_verbatim": "   a. In cases of tests that target an organism, group of organisms, or antigen for identification, MBTEST equals the name of the organism/antigen targeted by the identification assay, and", "score": 0.2392, "match_basis": "verbatim_token+domain_route:MB"}, {"md_atom_id": "md_dmMB_assn_a006", "md_file": "knowledge_base/domains/MB/assumptions.md", "md_atom_type": "LIST_ITEM", "md_parent_section": "§MB [MB — Assumptions]", "md_verbatim": "   b. For non-targeted identification of organisms (i.e., tests that have the ability to identify a range of organisms without specifically targeting any), the value for MBTESTCD/MBTEST should be \"MCORGIDN\"/\"Microbial Organism Identification\", and the result should be the name of the organism or group of organisms found to be present (e.g., \"INFLUENZA A VIRUS SUBTYPE H1N1\"; \"CLONORCHIS SINENSIS\"). In this scenario MBORRES is populated with values from the Microorganism Codelist (C85491).", "score": 0.2193, "match_basis": "verbatim_token+domain_route:MB"}, {"md_atom_id": "md_dmMB_ex_a104", "md_file": "knowledge_base/domains/MB/examples.md", "md_atom_type": "TABLE_ROW", "md_parent_section": "§MB.3 [Example 3]", "md_verbatim": "| 1 | ABC | ABC-01-101 | 100 | LAVAGE FLUID | | 1 |", "score": 0.2186, "match_basis": "verbatim_token+domain_route:MB"}, {"md_atom_id": "md_dmMB_ex_a105", "md_file": "knowledge_base/domains/MB/examples.md", "md_atom_type": "TABLE_ROW", "md_parent_section": "§MB.3 [Example 3]", "md_verbatim": "| 2 | ABC | ABC-01-101 | 100.1 | LAVAGE FLUID | 100 | 2 |", "score": 0.2186, "match_basis": "verbatim_token+domain_route:MB"}], "candidate_count": 5, "zero_candidate": false}
{"pdf_atom_id": "ig34_p0251_a020", "pdf_atom_type": "CODE_LITERAL", "pdf_source": "SDTMIG_v3.4", "pdf_page": 251, "pdf_parent_section": "§6.3.5.7.1 Microbiology Specimen (MB)", "pdf_verbatim": "\"INFLUENZA B ANTIGEN\"", "figure_ref": null, "candidates": [{"md_atom_id": "md_dmMB_assn_a005", "md_file": "knowledge_base/domains/MB/assumptions.md", "md_atom_type": "LIST_ITEM", "md_parent_section": "§MB [MB — Assumptions]", "md_verbatim": "      ii. The result should generally be \"PRESENT\"/\"ABSENT\", \"POSITIVE\"/\"NEGATIVE\", or \"INDETERMINATE\". However, there may be cases where a test differentiates between 2 or more similar organisms, in which case it would be appropriate for the result to be the name of the organism detected. For example, a test may look for influenza A or influenza B antigen. In this case, MBTEST would be \"Influenza A/B Antigen\"; the result could be \"INFLUENZA A ANTIGEN\", \"INFLUENZA B ANTIGEN\", or \"INFLUENZA A/B ANTIGEN\".", "score": 0.2481, "match_basis": "verbatim_token+domain_route:MB"}, {"md_atom_id": "md_dmMB_assn_a003", "md_file": "knowledge_base/domains/MB/assumptions.md", "md_atom_type": "LIST_ITEM", "md_parent_section": "§MB [MB — Assumptions]", "md_verbatim": "   a. In cases of tests that target an organism, group of organisms, or antigen for identification, MBTEST equals the name of the organism/antigen targeted by the identification assay, and", "score": 0.2392, "match_basis": "verbatim_token+domain_route:MB"}, {"md_atom_id": "md_dmMB_assn_a006", "md_file": "knowledge_base/domains/MB/assumptions.md", "md_atom_type": "LIST_ITEM", "md_parent_section": "§MB [MB — Assumptions]", "md_verbatim": "   b. For non-targeted identification of organisms (i.e., tests that have the ability to identify a range of organisms without specifically targeting any), the value for MBTESTCD/MBTEST should be \"MCORGIDN\"/\"Microbial Organism Identification\", and the result should be the name of the organism or group of organisms found to be present (e.g., \"INFLUENZA A VIRUS SUBTYPE H1N1\"; \"CLONORCHIS SINENSIS\"). In this scenario MBORRES is populated with values from the Microorganism Codelist (C85491).", "score": 0.2193, "match_basis": "verbatim_token+domain_route:MB"}, {"md_atom_id": "md_dmMB_ex_a104", "md_file": "knowledge_base/domains/MB/examples.md", "md_atom_type": "TABLE_ROW", "md_parent_section": "§MB.3 [Example 3]", "md_verbatim": "| 1 | ABC | ABC-01-101 | 100 | LAVAGE FLUID | | 1 |", "score": 0.2186, "match_basis": "verbatim_token+domain_route:MB"}, {"md_atom_id": "md_dmMB_ex_a105", "md_file": "knowledge_base/domains/MB/examples.md", "md_atom_type": "TABLE_ROW", "md_parent_section": "§MB.3 [Example 3]", "md_verbatim": "| 2 | ABC | ABC-01-101 | 100.1 | LAVAGE FLUID | 100 | 2 |", "score": 0.2186, "match_basis": "verbatim_token+domain_route:MB"}], "candidate_count": 5, "zero_candidate": false}
{"pdf_atom_id": "ig34_p0251_a021", "pdf_atom_type": "CODE_LITERAL", "pdf_source": "SDTMIG_v3.4", "pdf_page": 251, "pdf_parent_section": "§6.3.5.7.1 Microbiology Specimen (MB)", "pdf_verbatim": "\"INFLUENZA A/B ANTIGEN\"", "figure_ref": null, "candidates": [{"md_atom_id": "md_dmMB_assn_a005", "md_file": "knowledge_base/domains/MB/assumptions.md", "md_atom_type": "LIST_ITEM", "md_parent_section": "§MB [MB — Assumptions]", "md_verbatim": "      ii. The result should generally be \"PRESENT\"/\"ABSENT\", \"POSITIVE\"/\"NEGATIVE\", or \"INDETERMINATE\". However, there may be cases where a test differentiates between 2 or more similar organisms, in which case it would be appropriate for the result to be the name of the organism detected. For example, a test may look for influenza A or influenza B antigen. In this case, MBTEST would be \"Influenza A/B Antigen\"; the result could be \"INFLUENZA A ANTIGEN\", \"INFLUENZA B ANTIGEN\", or \"INFLUENZA A/B ANTIGEN\".", "score": 0.2481, "match_basis": "verbatim_token+domain_route:MB"}, {"md_atom_id": "md_dmMB_assn_a003", "md_file": "knowledge_base/domains/MB/assumptions.md", "md_atom_type": "LIST_ITEM", "md_parent_section": "§MB [MB — Assumptions]", "md_verbatim": "   a. In cases of tests that target an organism, group of organisms, or antigen for identification, MBTEST equals the name of the organism/antigen targeted by the identification assay, and", "score": 0.2392, "match_basis": "verbatim_token+domain_route:MB"}, {"md_atom_id": "md_dmMB_assn_a006", "md_file": "knowledge_base/domains/MB/assumptions.md", "md_atom_type": "LIST_ITEM", "md_parent_section": "§MB [MB — Assumptions]", "md_verbatim": "   b. For non-targeted identification of organisms (i.e., tests that have the ability to identify a range of organisms without specifically targeting any), the value for MBTESTCD/MBTEST should be \"MCORGIDN\"/\"Microbial Organism Identification\", and the result should be the name of the organism or group of organisms found to be present (e.g., \"INFLUENZA A VIRUS SUBTYPE H1N1\"; \"CLONORCHIS SINENSIS\"). In this scenario MBORRES is populated with values from the Microorganism Codelist (C85491).", "score": 0.2193, "match_basis": "verbatim_token+domain_route:MB"}, {"md_atom_id": "md_dmMB_ex_a104", "md_file": "knowledge_base/domains/MB/examples.md", "md_atom_type": "TABLE_ROW", "md_parent_section": "§MB.3 [Example 3]", "md_verbatim": "| 1 | ABC | ABC-01-101 | 100 | LAVAGE FLUID | | 1 |", "score": 0.2186, "match_basis": "verbatim_token+domain_route:MB"}, {"md_atom_id": "md_dmMB_ex_a105", "md_file": "knowledge_base/domains/MB/examples.md", "md_atom_type": "TABLE_ROW", "md_parent_section": "§MB.3 [Example 3]", "md_verbatim": "| 2 | ABC | ABC-01-101 | 100.1 | LAVAGE FLUID | 100 | 2 |", "score": 0.2186, "match_basis": "verbatim_token+domain_route:MB"}], "candidate_count": 5, "zero_candidate": false}
{"pdf_atom_id": "ig34_p0251_a022", "pdf_atom_type": "LIST_ITEM", "pdf_source": "SDTMIG_v3.4", "pdf_page": 251, "pdf_parent_section": "§6.3.5.7.1 Microbiology Specimen (MB)", "pdf_verbatim": "b. For non-targeted identification of organisms (i.e., tests that have the ability to identify a range of organisms without specifically targeting any), the value for MBTESTCD/MBTEST should be \"MCORGIDN\"/\"Microbial Organism Identification\", and the result should be the name of the organism or group of organisms found to be present (e.g., \"INFLUENZA A VIRUS SUBTYPE H1N1\", \"CLONORCHIS SINENSIS\"). In this scenario MBORRES is populated with values from the Microorganism Codelist (C85491).", "figure_ref": null, "candidates": [{"md_atom_id": "md_dmMB_assn_a006", "md_file": "knowledge_base/domains/MB/assumptions.md", "md_atom_type": "LIST_ITEM", "md_parent_section": "§MB [MB — Assumptions]", "md_verbatim": "   b. For non-targeted identification of organisms (i.e., tests that have the ability to identify a range of organisms without specifically targeting any), the value for MBTESTCD/MBTEST should be \"MCORGIDN\"/\"Microbial Organism Identification\", and the result should be the name of the organism or group of organisms found to be present (e.g., \"INFLUENZA A VIRUS SUBTYPE H1N1\"; \"CLONORCHIS SINENSIS\"). In this scenario MBORRES is populated with values from the Microorganism Codelist (C85491).", "score": 1.0, "match_basis": "verbatim_token+domain_route:MB"}, {"md_atom_id": "md_dmMB_assn_a003", "md_file": "knowledge_base/domains/MB/assumptions.md", "md_atom_type": "LIST_ITEM", "md_parent_section": "§MB [MB — Assumptions]", "md_verbatim": "   a. In cases of tests that target an organism, group of organisms, or antigen for identification, MBTEST equals the name of the organism/antigen targeted by the identification assay, and", "score": 0.5379, "match_basis": "verbatim_token+domain_route:MB"}, {"md_atom_id": "md_dmMB_assn_a005", "md_file": "knowledge_base/domains/MB/assumptions.md", "md_atom_type": "LIST_ITEM", "md_parent_section": "§MB [MB — Assumptions]", "md_verbatim": "      ii. The result should generally be \"PRESENT\"/\"ABSENT\", \"POSITIVE\"/\"NEGATIVE\", or \"INDETERMINATE\". However, there may be cases where a test differentiates between 2 or more similar organisms, in which case it would be appropriate for the result to be the name of the organism detected. For example, a test may look for influenza A or influenza B antigen. In this case, MBTEST would be \"Influenza A/B Antigen\"; the result could be \"INFLUENZA A ANTIGEN\", \"INFLUENZA B ANTIGEN\", or \"INFLUENZA A/B ANTIGEN\".", "score": 0.5071, "match_basis": "verbatim_token+domain_route:MB"}, {"md_atom_id": "md_dmMB_ex_a007", "md_file": "knowledge_base/domains/MB/examples.md", "md_atom_type": "SENTENCE", "md_parent_section": "§MB.1 [Example 1]", "md_verbatim": "Because the culture was not targeted to encourage the growth of a specific organism, MBTESTCD/MBTEST = \"MCORGIDN\"/\"Microbial Organism Identification\" and MBORRES represents the name of the organism identified.", "score": 0.5035, "match_basis": "verbatim_token+domain_route:MB"}, {"md_atom_id": "md_dmMB_assn_a007", "md_file": "knowledge_base/domains/MB/assumptions.md", "md_atom_type": "LIST_ITEM", "md_parent_section": "§MB [MB — Assumptions]", "md_verbatim": "   c. Culture characteristics covers concepts such as growth/no growth, colony quantification measures, colony color, colony morphology, and so on. **Note that this does not include drug susceptibility testing, which is represented in the Microbiology Susceptibility (MS) domain.**", "score": 0.4987, "match_basis": "verbatim_token+domain_route:MB"}], "candidate_count": 5, "zero_candidate": false}
{"pdf_atom_id": "ig34_p0251_a023", "pdf_atom_type": "CODE_LITERAL", "pdf_source": "SDTMIG_v3.4", "pdf_page": 251, "pdf_parent_section": "§6.3.5.7.1 Microbiology Specimen (MB)", "pdf_verbatim": "MBTESTCD", "figure_ref": null, "candidates": [{"md_atom_id": "md_dmMB_assn_a008", "md_file": "knowledge_base/domains/MB/assumptions.md", "md_atom_type": "LIST_ITEM", "md_parent_section": "§MB [MB — Assumptions]", "md_verbatim": "      i. MBTESTCD/MBTEST should be the name of the organism or group of organisms being characterized.", "score": 0.2873, "match_basis": "verbatim_token+domain_route:MB"}, {"md_atom_id": "md_dmMB_ex_a124", "md_file": "knowledge_base/domains/MB/examples.md", "md_atom_type": "SENTENCE", "md_parent_section": "§MB.3 [Example 3]", "md_verbatim": "MBTESTCD/MBTEST represents the organism being investigated, MBMETHOD represents the testing method, and MBREFID represents which aliquot was tested.", "score": 0.2543, "match_basis": "verbatim_token+domain_route:MB"}, {"md_atom_id": "md_dmMB_ex_a054", "md_file": "knowledge_base/domains/MB/examples.md", "md_atom_type": "TABLE_HEADER", "md_parent_section": "§MB.2 [Example 2]", "md_verbatim": "| Row | STUDYID | DOMAIN | USUBJID | MBSEQ | MBREFID | MBTESTCD | MBTEST | MBTSTDTL | MBORRES | MBRSLSCL | MBSTRESC | MBSPEC | MBLOC | MBMETHOD | VISITNUM | VISIT | MBDTC |\n|-----|---------|--------|---------|-------|---------|----------|--------|----------|---------|----------|----------|--------|-------|----------|----------|-------|-------|", "score": 0.2422, "match_basis": "verbatim_token+domain_route:MB"}, {"md_atom_id": "md_dmMB_ex_a019", "md_file": "knowledge_base/domains/MB/examples.md", "md_atom_type": "TABLE_HEADER", "md_parent_section": "§MB.1 [Example 1]", "md_verbatim": "| Row | STUDYID | DOMAIN | USUBJID | MBSEQ | MBREFID | MBLNKID | MBTESTCD | MBTEST | MBTSTDTL | MBORRES | MBSTRESC | MBSPEC | MBLOC | MBMETHOD | MBNAM | VISITNUM | VISIT | MBDTC |\n|-----|---------|--------|---------|-------|---------|---------|----------|--------|----------|---------|----------|--------|-------|----------|-------|----------|-------|-------|", "score": 0.2407, "match_basis": "verbatim_token+domain_route:MB"}, {"md_atom_id": "md_dmMB_ex_a114", "md_file": "knowledge_base/domains/MB/examples.md", "md_atom_type": "TABLE_HEADER", "md_parent_section": "§MB.3 [Example 3]", "md_verbatim": "| Row | STUDYID | DOMAIN | USUBJID | BSSEQ | BSREFID | BSTESTCD | BSTEST | BSORRES | BSORRESU | BSSTRESC | BSSTRESN | BSSTRESU | BSSPEC | BSLOC | BSDTC |\n|-----|---------|--------|---------|-------|---------|----------|--------|---------|----------|----------|----------|----------|--------|-------|-------|", "score": 0.2371, "match_basis": "verbatim_token+domain_route:MB"}], "candidate_count": 5, "zero_candidate": false}
{"pdf_atom_id": "ig34_p0251_a024", "pdf_atom_type": "CODE_LITERAL", "pdf_source": "SDTMIG_v3.4", "pdf_page": 251, "pdf_parent_section": "§6.3.5.7.1 Microbiology Specimen (MB)", "pdf_verbatim": "MBTEST", "figure_ref": null, "candidates": [{"md_atom_id": "md_dmMB_assn_a008", "md_file": "knowledge_base/domains/MB/assumptions.md", "md_atom_type": "LIST_ITEM", "md_parent_section": "§MB [MB — Assumptions]", "md_verbatim": "      i. MBTESTCD/MBTEST should be the name of the organism or group of organisms being characterized.", "score": 0.2549, "match_basis": "verbatim_token+domain_route:MB"}, {"md_atom_id": "md_dmMB_assn_a003", "md_file": "knowledge_base/domains/MB/assumptions.md", "md_atom_type": "LIST_ITEM", "md_parent_section": "§MB [MB — Assumptions]", "md_verbatim": "   a. In cases of tests that target an organism, group of organisms, or antigen for identification, MBTEST equals the name of the organism/antigen targeted by the identification assay, and", "score": 0.2344, "match_basis": "verbatim_token+domain_route:MB"}, {"md_atom_id": "md_dmMB_ex_a124", "md_file": "knowledge_base/domains/MB/examples.md", "md_atom_type": "SENTENCE", "md_parent_section": "§MB.3 [Example 3]", "md_verbatim": "MBTESTCD/MBTEST represents the organism being investigated, MBMETHOD represents the testing method, and MBREFID represents which aliquot was tested.", "score": 0.2329, "match_basis": "verbatim_token+domain_route:MB"}, {"md_atom_id": "md_dmMB_ex_a054", "md_file": "knowledge_base/domains/MB/examples.md", "md_atom_type": "TABLE_HEADER", "md_parent_section": "§MB.2 [Example 2]", "md_verbatim": "| Row | STUDYID | DOMAIN | USUBJID | MBSEQ | MBREFID | MBTESTCD | MBTEST | MBTSTDTL | MBORRES | MBRSLSCL | MBSTRESC | MBSPEC | MBLOC | MBMETHOD | VISITNUM | VISIT | MBDTC |\n|-----|---------|--------|---------|-------|---------|----------|--------|----------|---------|----------|----------|--------|-------|----------|----------|-------|-------|", "score": 0.2248, "match_basis": "verbatim_token+domain_route:MB"}, {"md_atom_id": "md_dmMB_ex_a125", "md_file": "knowledge_base/domains/MB/examples.md", "md_atom_type": "SENTENCE", "md_parent_section": "§MB.3 [Example 3]", "md_verbatim": "The variable MBTSTDTL is used to provide further description of the test performed in producing the MB result.", "score": 0.224, "match_basis": "verbatim_token+domain_route:MB"}, {"md_atom_id": "md_dmMB_ex_a019", "md_file": "knowledge_base/domains/MB/examples.md", "md_atom_type": "TABLE_HEADER", "md_parent_section": "§MB.1 [Example 1]", "md_verbatim": "| Row | STUDYID | DOMAIN | USUBJID | MBSEQ | MBREFID | MBLNKID | MBTESTCD | MBTEST | MBTSTDTL | MBORRES | MBSTRESC | MBSPEC | MBLOC | MBMETHOD | MBNAM | VISITNUM | VISIT | MBDTC |\n|-----|---------|--------|---------|-------|---------|---------|----------|--------|----------|---------|----------|--------|-------|----------|-------|----------|-------|-------|", "score": 0.2238, "match_basis": "verbatim_token+domain_route:MB"}, {"md_atom_id": "md_dmMB_assn_a004", "md_file": "knowledge_base/domains/MB/assumptions.md", "md_atom_type": "LIST_ITEM", "md_parent_section": "§MB [MB — Assumptions]", "md_verbatim": "      i. MBTSTDTL should be \"DETECTION\".", "score": 0.22, "match_basis": "verbatim_token+domain_route:MB"}, {"md_atom_id": "md_dmMB_ex_a007", "md_file": "knowledge_base/domains/MB/examples.md", "md_atom_type": "SENTENCE", "md_parent_section": "§MB.1 [Example 1]", "md_verbatim": "Because the culture was not targeted to encourage the growth of a specific organism, MBTESTCD/MBTEST = \"MCORGIDN\"/\"Microbial Organism Identification\" and MBORRES represents the name of the organism identified.", "score": 0.2179, "match_basis": "verbatim_token+domain_route:MB"}, {"md_atom_id": "md_dmMB_ex_a134", "md_file": "knowledge_base/domains/MB/examples.md", "md_atom_type": "TABLE_HEADER", "md_parent_section": "§MB.3 [Example 3]", "md_verbatim": "| Row | STUDYID | DOMAIN | USUBJID | SPDEVID | MBSEQ | MBGRPID | MBREFID | MBLNKGRP | MBTESTCD | MBTEST | MBTSTDTL | MBORRES | MBRSLSCL | MBSTRESC | MBSTRESN | MBSTRESU | MBSPCND | MBSPEC | MBLOC | MBMETHOD | VISITNUM | VISIT | MBDTC |\n|-----|---------|--------|---------|---------|-------|---------|---------|----------|----------|--------|----------|---------|----------|----------|----------|----------|---------|--------|-------|----------|----------|-------|-------|", "score": 0.2173, "match_basis": "verbatim_token+domain_route:MB"}, {"md_atom_id": "md_dmMB_ex_a121", "md_file": "knowledge_base/domains/MB/examples.md", "md_atom_type": "SENTENCE", "md_parent_section": "§MB.3 [Example 3]", "md_verbatim": "Results from detection tests performed on samples are represented in the MB domain.", "score": 0.2167, "match_basis": "verbatim_token+domain_route:MB"}], "candidate_count": 10, "zero_candidate": false}
{"pdf_atom_id": "ig34_p0251_a025", "pdf_atom_type": "CODE_LITERAL", "pdf_source": "SDTMIG_v3.4", "pdf_page": 251, "pdf_parent_section": "§6.3.5.7.1 Microbiology Specimen (MB)", "pdf_verbatim": "\"MCORGIDN\"", "figure_ref": null, "candidates": [{"md_atom_id": "md_dmMB_ex_a062", "md_file": "knowledge_base/domains/MB/examples.md", "md_atom_type": "TABLE_ROW", "md_parent_section": "§MB.2 [Example 2]", "md_verbatim": "| 8 | ABC | MB | ABC-001-001 | 8 | SP03 | MCORGIDN | Microbial Organism Identification | | NO GROWTH | Nom | NO GROWTH | LUNG | | MICROBIAL CULTURE, SOLID | 3 | VISIT 3 | 2005-07-06T08:00 |", "score": 0.2532, "match_basis": "verbatim_token+domain_route:MB"}, {"md_atom_id": "md_dmMB_ex_a060", "md_file": "knowledge_base/domains/MB/examples.md", "md_atom_type": "TABLE_ROW", "md_parent_section": "§MB.2 [Example 2]", "md_verbatim": "| 6 | ABC | MB | ABC-001-001 | 6 | SP01 | MCORGIDN | Microbial Organism Identification | | KLEBSIELLA PNEUMONIAE | Nom | KLEBSIELLA PNEUMONIAE | LUNG | | MICROBIAL CULTURE, SOLID | 1 | VISIT 1 | 2005-06-19T08:00 |", "score": 0.2422, "match_basis": "verbatim_token+domain_route:MB"}, {"md_atom_id": "md_dmMB_ex_a061", "md_file": "knowledge_base/domains/MB/examples.md", "md_atom_type": "TABLE_ROW", "md_parent_section": "§MB.2 [Example 2]", "md_verbatim": "| 7 | ABC | MB | ABC-001-001 | 7 | SP02 | MCORGIDN | Microbial Organism Identification | | KLEBSIELLA PNEUMONIAE | Nom | KLEBSIELLA PNEUMONIAE | LUNG | | MICROBIAL CULTURE, SOLID | 2 | VISIT 2 | 2005-06-26T08:00 |", "score": 0.2422, "match_basis": "verbatim_token+domain_route:MB"}, {"md_atom_id": "md_dmMB_ex_a020", "md_file": "knowledge_base/domains/MB/examples.md", "md_atom_type": "TABLE_ROW", "md_parent_section": "§MB.1 [Example 1]", "md_verbatim": "| 1 | ABC | MB | ABC-001-002 | 1 | SPEC01 | | MCORGIDN | Microbial Organism Identification | DETECTION | PRESENT | PRESENT | FLUID | SKIN | MICROBIAL CULTURE, SOLID | CENTRAL LAB ABC | 1 | VISIT 1 | 2005-06-19T08:00 |", "score": 0.24, "match_basis": "verbatim_token+domain_route:MB"}, {"md_atom_id": "md_dmMB_ex_a021", "md_file": "knowledge_base/domains/MB/examples.md", "md_atom_type": "TABLE_ROW", "md_parent_section": "§MB.1 [Example 1]", "md_verbatim": "| 2 | ABC | MB | ABC-001-002 | 2 | SPEC01 | | MCORGIDN | Microbial Organism Identification | DETECTION | PRESENT | PRESENT | FLUID | SKIN | MICROBIAL CULTURE, SOLID | LOCAL LAB XYZ | 1 | VISIT 1 | 2005-06-19T08:00 |", "score": 0.24, "match_basis": "verbatim_token+domain_route:MB"}], "candidate_count": 5, "zero_candidate": false}
{"pdf_atom_id": "ig34_p0251_a026", "pdf_atom_type": "CODE_LITERAL", "pdf_source": "SDTMIG_v3.4", "pdf_page": 251, "pdf_parent_section": "§6.3.5.7.1 Microbiology Specimen (MB)", "pdf_verbatim": "\"Microbial Organism Identification\"", "figure_ref": null, "candidates": [{"md_atom_id": "md_dmMB_ex_a062", "md_file": "knowledge_base/domains/MB/examples.md", "md_atom_type": "TABLE_ROW", "md_parent_section": "§MB.2 [Example 2]", "md_verbatim": "| 8 | ABC | MB | ABC-001-001 | 8 | SP03 | MCORGIDN | Microbial Organism Identification | | NO GROWTH | Nom | NO GROWTH | LUNG | | MICROBIAL CULTURE, SOLID | 3 | VISIT 3 | 2005-07-06T08:00 |", "score": 0.4532, "match_basis": "verbatim_token+domain_route:MB"}, {"md_atom_id": "md_dmMB_ex_a060", "md_file": "knowledge_base/domains/MB/examples.md", "md_atom_type": "TABLE_ROW", "md_parent_section": "§MB.2 [Example 2]", "md_verbatim": "| 6 | ABC | MB | ABC-001-001 | 6 | SP01 | MCORGIDN | Microbial Organism Identification | | KLEBSIELLA PNEUMONIAE | Nom | KLEBSIELLA PNEUMONIAE | LUNG | | MICROBIAL CULTURE, SOLID | 1 | VISIT 1 | 2005-06-19T08:00 |", "score": 0.4074, "match_basis": "verbatim_token+domain_route:MB"}, {"md_atom_id": "md_dmMB_ex_a061", "md_file": "knowledge_base/domains/MB/examples.md", "md_atom_type": "TABLE_ROW", "md_parent_section": "§MB.2 [Example 2]", "md_verbatim": "| 7 | ABC | MB | ABC-001-001 | 7 | SP02 | MCORGIDN | Microbial Organism Identification | | KLEBSIELLA PNEUMONIAE | Nom | KLEBSIELLA PNEUMONIAE | LUNG | | MICROBIAL CULTURE, SOLID | 2 | VISIT 2 | 2005-06-26T08:00 |", "score": 0.4074, "match_basis": "verbatim_token+domain_route:MB"}, {"md_atom_id": "md_dmMB_ex_a020", "md_file": "knowledge_base/domains/MB/examples.md", "md_atom_type": "TABLE_ROW", "md_parent_section": "§MB.1 [Example 1]", "md_verbatim": "| 1 | ABC | MB | ABC-001-002 | 1 | SPEC01 | | MCORGIDN | Microbial Organism Identification | DETECTION | PRESENT | PRESENT | FLUID | SKIN | MICROBIAL CULTURE, SOLID | CENTRAL LAB ABC | 1 | VISIT 1 | 2005-06-19T08:00 |", "score": 0.3983, "match_basis": "verbatim_token+domain_route:MB"}, {"md_atom_id": "md_dmMB_ex_a021", "md_file": "knowledge_base/domains/MB/examples.md", "md_atom_type": "TABLE_ROW", "md_parent_section": "§MB.1 [Example 1]", "md_verbatim": "| 2 | ABC | MB | ABC-001-002 | 2 | SPEC01 | | MCORGIDN | Microbial Organism Identification | DETECTION | PRESENT | PRESENT | FLUID | SKIN | MICROBIAL CULTURE, SOLID | LOCAL LAB XYZ | 1 | VISIT 1 | 2005-06-19T08:00 |", "score": 0.3983, "match_basis": "verbatim_token+domain_route:MB"}], "candidate_count": 5, "zero_candidate": false}
{"pdf_atom_id": "ig34_p0251_a027", "pdf_atom_type": "CODE_LITERAL", "pdf_source": "SDTMIG_v3.4", "pdf_page": 251, "pdf_parent_section": "§6.3.5.7.1 Microbiology Specimen (MB)", "pdf_verbatim": "\"INFLUENZA A VIRUS SUBTYPE H1N1\"", "figure_ref": null, "candidates": [{"md_atom_id": "md_dmMB_assn_a006", "md_file": "knowledge_base/domains/MB/assumptions.md", "md_atom_type": "LIST_ITEM", "md_parent_section": "§MB [MB — Assumptions]", "md_verbatim": "   b. For non-targeted identification of organisms (i.e., tests that have the ability to identify a range of organisms without specifically targeting any), the value for MBTESTCD/MBTEST should be \"MCORGIDN\"/\"Microbial Organism Identification\", and the result should be the name of the organism or group of organisms found to be present (e.g., \"INFLUENZA A VIRUS SUBTYPE H1N1\"; \"CLONORCHIS SINENSIS\"). In this scenario MBORRES is populated with values from the Microorganism Codelist (C85491).", "score": 0.2538, "match_basis": "verbatim_token+domain_route:MB"}, {"md_atom_id": "md_dmMB_ex_a024", "md_file": "knowledge_base/domains/MB/examples.md", "md_atom_type": "TABLE_HEADER", "md_parent_section": "§MB.1 [Example 1]", "md_verbatim": "| Row | STUDYID | RDOMAIN | USUBJID | IDVAR | IDVARVAL | RELTYPE | RELID |\n|-----|---------|---------|---------|-------|----------|---------|-------|", "score": 0.2319, "match_basis": "verbatim_token+domain_route:MB"}, {"md_atom_id": "md_dmMB_assn_a005", "md_file": "knowledge_base/domains/MB/assumptions.md", "md_atom_type": "LIST_ITEM", "md_parent_section": "§MB [MB — Assumptions]", "md_verbatim": "      ii. The result should generally be \"PRESENT\"/\"ABSENT\", \"POSITIVE\"/\"NEGATIVE\", or \"INDETERMINATE\". However, there may be cases where a test differentiates between 2 or more similar organisms, in which case it would be appropriate for the result to be the name of the organism detected. For example, a test may look for influenza A or influenza B antigen. In this case, MBTEST would be \"Influenza A/B Antigen\"; the result could be \"INFLUENZA A ANTIGEN\", \"INFLUENZA B ANTIGEN\", or \"INFLUENZA A/B ANTIGEN\".", "score": 0.2213, "match_basis": "verbatim_token+domain_route:MB"}, {"md_atom_id": "md_dmMB_ex_a042", "md_file": "knowledge_base/domains/MB/examples.md", "md_atom_type": "TABLE_ROW", "md_parent_section": "§MB.2 [Example 2]", "md_verbatim": "| 1 | ABC | BE | ABC-01-101 | BEREFID | SP01 | BESPEC | Specimen Type | SPUTUM | CRF |", "score": 0.2208, "match_basis": "verbatim_token+domain_route:MB"}, {"md_atom_id": "md_dmMB_ex_a043", "md_file": "knowledge_base/domains/MB/examples.md", "md_atom_type": "TABLE_ROW", "md_parent_section": "§MB.2 [Example 2]", "md_verbatim": "| 2 | ABC | BE | ABC-01-101 | BEREFID | SP02 | BESPEC | Specimen Type | SPUTUM | CRF |", "score": 0.2208, "match_basis": "verbatim_token+domain_route:MB"}], "candidate_count": 5, "zero_candidate": false}
{"pdf_atom_id": "ig34_p0251_a028", "pdf_atom_type": "CODE_LITERAL", "pdf_source": "SDTMIG_v3.4", "pdf_page": 251, "pdf_parent_section": "§6.3.5.7.1 Microbiology Specimen (MB)", "pdf_verbatim": "\"CLONORCHIS SINENSIS\"", "figure_ref": null, "candidates": [{"md_atom_id": "md_dmMB_assn_a006", "md_file": "knowledge_base/domains/MB/assumptions.md", "md_atom_type": "LIST_ITEM", "md_parent_section": "§MB [MB — Assumptions]", "md_verbatim": "   b. For non-targeted identification of organisms (i.e., tests that have the ability to identify a range of organisms without specifically targeting any), the value for MBTESTCD/MBTEST should be \"MCORGIDN\"/\"Microbial Organism Identification\", and the result should be the name of the organism or group of organisms found to be present (e.g., \"INFLUENZA A VIRUS SUBTYPE H1N1\"; \"CLONORCHIS SINENSIS\"). In this scenario MBORRES is populated with values from the Microorganism Codelist (C85491).", "score": 0.2425, "match_basis": "verbatim_token+domain_route:MB"}, {"md_atom_id": "md_dmMB_ex_a067", "md_file": "knowledge_base/domains/MB/examples.md", "md_atom_type": "SENTENCE", "md_parent_section": "§MB.3 [Example 3]", "md_verbatim": "This example shows the microorganisms detected from a gastric aspirate specimen from a child with suspected tuberculosis (TB).", "score": 0.2137, "match_basis": "verbatim_token+domain_route:MB"}, {"md_atom_id": "md_dmMB_ex_a140", "md_file": "knowledge_base/domains/MB/examples.md", "md_atom_type": "TABLE_ROW", "md_parent_section": "§MB.3 [Example 3]", "md_verbatim": "| 6 | ABC | MB | ABC-01-101 | | 6 | 2 | 100.3 | 1 | MTB | Mycobacterium Tuberculosis | COLONY COUNT | 2+ | Ord | 2+ | | | | LAVAGE FLUID | STOMACH | MICROBIAL CULTURE, SOLID | 1 | WEEK 1 | 2011-01-17T06:00 |", "score": 0.2054, "match_basis": "verbatim_token+domain_route:MB"}, {"md_atom_id": "md_dmMB_ex_a123", "md_file": "knowledge_base/domains/MB/examples.md", "md_atom_type": "SENTENCE", "md_parent_section": "§MB.3 [Example 3]", "md_verbatim": "Three of these aliquots underwent detection testing using 3 separate tests: 1 for acid-fast bacillus (AFB), 1 for M. tuberculosis complex, and 1 for M. tuberculosis.", "score": 0.2052, "match_basis": "verbatim_token+domain_route:MB"}, {"md_atom_id": "md_dmMB_ex_a068", "md_file": "knowledge_base/domains/MB/examples.md", "md_atom_type": "SENTENCE", "md_parent_section": "§MB.3 [Example 3]", "md_verbatim": "In this example, gastric lavage is only performed once.", "score": 0.205, "match_basis": "verbatim_token+domain_route:MB"}], "candidate_count": 5, "zero_candidate": false}
{"pdf_atom_id": "ig34_p0251_a029", "pdf_atom_type": "CODE_LITERAL", "pdf_source": "SDTMIG_v3.4", "pdf_page": 251, "pdf_parent_section": "§6.3.5.7.1 Microbiology Specimen (MB)", "pdf_verbatim": "MBORRES", "figure_ref": null, "candidates": [{"md_atom_id": "md_dmMB_ex_a052", "md_file": "knowledge_base/domains/MB/examples.md", "md_atom_type": "SENTENCE", "md_parent_section": "§MB.2 [Example 2]", "md_verbatim": "**Row 8:** Shows that microbial culture of a third subject sample at the third visit indicated \"NO GROWTH\" (MBORRES) of any organisms.", "score": 0.2426, "match_basis": "verbatim_token+domain_route:MB"}, {"md_atom_id": "md_dmMB_ex_a054", "md_file": "knowledge_base/domains/MB/examples.md", "md_atom_type": "TABLE_HEADER", "md_parent_section": "§MB.2 [Example 2]", "md_verbatim": "| Row | STUDYID | DOMAIN | USUBJID | MBSEQ | MBREFID | MBTESTCD | MBTEST | MBTSTDTL | MBORRES | MBRSLSCL | MBSTRESC | MBSPEC | MBLOC | MBMETHOD | VISITNUM | VISIT | MBDTC |\n|-----|---------|--------|---------|-------|---------|----------|--------|----------|---------|----------|----------|--------|-------|----------|----------|-------|-------|", "score": 0.2335, "match_basis": "verbatim_token+domain_route:MB"}, {"md_atom_id": "md_dmMB_ex_a019", "md_file": "knowledge_base/domains/MB/examples.md", "md_atom_type": "TABLE_HEADER", "md_parent_section": "§MB.1 [Example 1]", "md_verbatim": "| Row | STUDYID | DOMAIN | USUBJID | MBSEQ | MBREFID | MBLNKID | MBTESTCD | MBTEST | MBTSTDTL | MBORRES | MBSTRESC | MBSPEC | MBLOC | MBMETHOD | MBNAM | VISITNUM | VISIT | MBDTC |\n|-----|---------|--------|---------|-------|---------|---------|----------|--------|----------|---------|----------|--------|-------|----------|-------|----------|-------|-------|", "score": 0.2323, "match_basis": "verbatim_token+domain_route:MB"}, {"md_atom_id": "md_dmMB_ex_a051", "md_file": "knowledge_base/domains/MB/examples.md", "md_atom_type": "SENTENCE", "md_parent_section": "§MB.2 [Example 2]", "md_verbatim": "**Row 7:** Shows that microbial culture of a subsequent sample at a later visit indicated only the presence of \"KLEBSIELLA PNEUMONIAE\" (MBORRES).", "score": 0.2323, "match_basis": "verbatim_token+domain_route:MB"}, {"md_atom_id": "md_dmMB_ex_a050", "md_file": "knowledge_base/domains/MB/examples.md", "md_atom_type": "SENTENCE", "md_parent_section": "§MB.2 [Example 2]", "md_verbatim": "**Rows 5-6:** Show that microbial culture of the same sample was used at the same visit to identify the presence of two organisms, \"STREPTOCOCCUS PNEUMONIAE\" and \"KLEBSIELLA PNEUMONIAE\" (MBORRES).", "score": 0.2266, "match_basis": "verbatim_token+domain_route:MB"}, {"md_atom_id": "md_dmMB_ex_a005", "md_file": "knowledge_base/domains/MB/examples.md", "md_atom_type": "SENTENCE", "md_parent_section": "§MB.1 [Example 1]", "md_verbatim": "In this example, both a central and a local lab (MBNAM) independently identified Enterococcus faecalis (MBORRES) in a fluid specimen (MBSPEC) taken from the skin (MBLOC) of a subject at visit 1.", "score": 0.2253, "match_basis": "verbatim_token+domain_route:MB"}, {"md_atom_id": "md_dmMB_ex_a114", "md_file": "knowledge_base/domains/MB/examples.md", "md_atom_type": "TABLE_HEADER", "md_parent_section": "§MB.3 [Example 3]", "md_verbatim": "| Row | STUDYID | DOMAIN | USUBJID | BSSEQ | BSREFID | BSTESTCD | BSTEST | BSORRES | BSORRESU | BSSTRESC | BSSTRESN | BSSTRESU | BSSPEC | BSLOC | BSDTC |\n|-----|---------|--------|---------|-------|---------|----------|--------|---------|----------|----------|----------|----------|--------|-------|-------|", "score": 0.2253, "match_basis": "verbatim_token+domain_route:MB"}, {"md_atom_id": "md_dmMB_ex_a007", "md_file": "knowledge_base/domains/MB/examples.md", "md_atom_type": "SENTENCE", "md_parent_section": "§MB.1 [Example 1]", "md_verbatim": "Because the culture was not targeted to encourage the growth of a specific organism, MBTESTCD/MBTEST = \"MCORGIDN\"/\"Microbial Organism Identification\" and MBORRES represents the name of the organism identified.", "score": 0.2249, "match_basis": "verbatim_token+domain_route:MB"}, {"md_atom_id": "md_dmMB_ex_a134", "md_file": "knowledge_base/domains/MB/examples.md", "md_atom_type": "TABLE_HEADER", "md_parent_section": "§MB.3 [Example 3]", "md_verbatim": "| Row | STUDYID | DOMAIN | USUBJID | SPDEVID | MBSEQ | MBGRPID | MBREFID | MBLNKGRP | MBTESTCD | MBTEST | MBTSTDTL | MBORRES | MBRSLSCL | MBSTRESC | MBSTRESN | MBSTRESU | MBSPCND | MBSPEC | MBLOC | MBMETHOD | VISITNUM | VISIT | MBDTC |\n|-----|---------|--------|---------|---------|-------|---------|---------|----------|----------|--------|----------|---------|----------|----------|----------|----------|---------|--------|-------|----------|----------|-------|-------|", "score": 0.2241, "match_basis": "verbatim_token+domain_route:MB"}, {"md_atom_id": "md_dmMB_ex_a080", "md_file": "knowledge_base/domains/MB/examples.md", "md_atom_type": "SENTENCE", "md_parent_section": "§MB.3 [Example 3]", "md_verbatim": "MBGRPID is used to connect the detection record in MB with the corresponding culture characteristics shown in rows 5-7.", "score": 0.22, "match_basis": "verbatim_token+domain_route:MB"}], "candidate_count": 10, "zero_candidate": false}
{"pdf_atom_id": "ig34_p0251_a030", "pdf_atom_type": "CODE_LITERAL", "pdf_source": "SDTMIG_v3.4", "pdf_page": 251, "pdf_parent_section": "§6.3.5.7.1 Microbiology Specimen (MB)", "pdf_verbatim": "C85491", "figure_ref": null, "candidates": [{"md_atom_id": "md_dmMB_assn_a006", "md_file": "knowledge_base/domains/MB/assumptions.md", "md_atom_type": "LIST_ITEM", "md_parent_section": "§MB [MB — Assumptions]", "md_verbatim": "   b. For non-targeted identification of organisms (i.e., tests that have the ability to identify a range of organisms without specifically targeting any), the value for MBTESTCD/MBTEST should be \"MCORGIDN\"/\"Microbial Organism Identification\", and the result should be the name of the organism or group of organisms found to be present (e.g., \"INFLUENZA A VIRUS SUBTYPE H1N1\"; \"CLONORCHIS SINENSIS\"). In this scenario MBORRES is populated with values from the Microorganism Codelist (C85491).", "score": 0.205, "match_basis": "verbatim_token+domain_route:MB"}, {"md_atom_id": "md_dmMB_assn_a001", "md_file": "knowledge_base/domains/MB/assumptions.md", "md_atom_type": "HEADING", "md_parent_section": "§MB [MB — Assumptions]", "md_verbatim": "# MB — Assumptions", "score": 0.19, "match_basis": "verbatim_token+domain_route:MB"}, {"md_atom_id": "md_dmMB_assn_a002", "md_file": "knowledge_base/domains/MB/assumptions.md", "md_atom_type": "LIST_ITEM", "md_parent_section": "§MB [MB — Assumptions]", "md_verbatim": "1. Representation of findings in the Microbiology Specimen domain should be handled as follows:", "score": 0.19, "match_basis": "verbatim_token+domain_route:MB"}, {"md_atom_id": "md_dmMB_assn_a003", "md_file": "knowledge_base/domains/MB/assumptions.md", "md_atom_type": "LIST_ITEM", "md_parent_section": "§MB [MB — Assumptions]", "md_verbatim": "   a. In cases of tests that target an organism, group of organisms, or antigen for identification, MBTEST equals the name of the organism/antigen targeted by the identification assay, and", "score": 0.19, "match_basis": "verbatim_token+domain_route:MB"}, {"md_atom_id": "md_dmMB_assn_a004", "md_file": "knowledge_base/domains/MB/assumptions.md", "md_atom_type": "LIST_ITEM", "md_parent_section": "§MB [MB — Assumptions]", "md_verbatim": "      i. MBTSTDTL should be \"DETECTION\".", "score": 0.19, "match_basis": "verbatim_token+domain_route:MB"}, {"md_atom_id": "md_dmMB_assn_a005", "md_file": "knowledge_base/domains/MB/assumptions.md", "md_atom_type": "LIST_ITEM", "md_parent_section": "§MB [MB — Assumptions]", "md_verbatim": "      ii. The result should generally be \"PRESENT\"/\"ABSENT\", \"POSITIVE\"/\"NEGATIVE\", or \"INDETERMINATE\". However, there may be cases where a test differentiates between 2 or more similar organisms, in which case it would be appropriate for the result to be the name of the organism detected. For example, a test may look for influenza A or influenza B antigen. In this case, MBTEST would be \"Influenza A/B Antigen\"; the result could be \"INFLUENZA A ANTIGEN\", \"INFLUENZA B ANTIGEN\", or \"INFLUENZA A/B ANTIGEN\".", "score": 0.19, "match_basis": "verbatim_token+domain_route:MB"}, {"md_atom_id": "md_dmMB_assn_a007", "md_file": "knowledge_base/domains/MB/assumptions.md", "md_atom_type": "LIST_ITEM", "md_parent_section": "§MB [MB — Assumptions]", "md_verbatim": "   c. Culture characteristics covers concepts such as growth/no growth, colony quantification measures, colony color, colony morphology, and so on. **Note that this does not include drug susceptibility testing, which is represented in the Microbiology Susceptibility (MS) domain.**", "score": 0.19, "match_basis": "verbatim_token+domain_route:MB"}, {"md_atom_id": "md_dmMB_assn_a008", "md_file": "knowledge_base/domains/MB/assumptions.md", "md_atom_type": "LIST_ITEM", "md_parent_section": "§MB [MB — Assumptions]", "md_verbatim": "      i. MBTESTCD/MBTEST should be the name of the organism or group of organisms being characterized.", "score": 0.19, "match_basis": "verbatim_token+domain_route:MB"}, {"md_atom_id": "md_dmMB_assn_a009", "md_file": "knowledge_base/domains/MB/assumptions.md", "md_atom_type": "LIST_ITEM", "md_parent_section": "§MB [MB — Assumptions]", "md_verbatim": "      ii. MBTSTDTL should be the name of the characteristic being described (e.g., \"COLONY COUNT\", \"VIRAL LOAD\").", "score": 0.19, "match_basis": "verbatim_token+domain_route:MB"}, {"md_atom_id": "md_dmMB_assn_a010", "md_file": "knowledge_base/domains/MB/assumptions.md", "md_atom_type": "LIST_ITEM", "md_parent_section": "§MB [MB — Assumptions]", "md_verbatim": "      iii. MBGRPID should be used to group characteristic records with the identification record of the organism to which the characteristics apply.", "score": 0.19, "match_basis": "verbatim_token+domain_route:MB"}],