{"pdf_atom_id": "ig34_p0220_a024", "pdf_atom_type": "SENTENCE", "pdf_source": "SDTMIG_v3.4", "pdf_page": 220, "pdf_parent_section": "§6.3.5.4 Genomics Findings (GF)", "pdf_verbatim": "This domain includes but is not limited to assessments and results for genetic variation and transcription, and summary measures derived from these assessments.", "figure_ref": null, "candidates": [{"md_atom_id": "md_dmGF_assn_a002", "md_file": "knowledge_base/domains/GF/assumptions.md", "md_atom_type": "LIST_ITEM", "md_parent_section": "§GF [GF — Assumptions]", "md_verbatim": "1. The Genomics Findings domain is used to represent findings related to the structure, function, evolution, mapping, and editing of subject and non-host organism genomic material of interest. This domain includes but is not limited to assessments and results for genetic variation and transcription, and summary measures derived from these assessments. The GF domain is used for findings from characteristics assessed from nucleic acids and may include subsequent inferences and/or predictions about related proteins/amino acids. However, direct assessments of proteins (e.g., assessments of amino acids) are out of scope for this domain.", "score": 0.538, "match_basis": "verbatim_token+domain_route:GF"}, {"md_atom_id": "md_dmGF_ex_a046", "md_file": "knowledge_base/domains/GF/examples.md", "md_atom_type": "SENTENCE", "md_parent_section": "§GF.3 [Example 3]", "md_verbatim": "**Rows 15-16:** Show gene signature scores from summarization of genetic data based on the methods noted in variable GFANMETH.", "score": 0.52, "match_basis": "verbatim_token+domain_route:GF"}, {"md_atom_id": "md_dmGF_ex_a040", "md_file": "knowledge_base/domains/GF/examples.md", "md_atom_type": "SENTENCE", "md_parent_section": "§GF.3 [Example 3]", "md_verbatim": "This example shows transcription levels of genes ACTB and GAPDH and summarized scores from the transcription levels. Transcription levels and scores were determined using biocomputational analysis with wet laboratory methodology targeted transcriptome sequencing. Specific formulas used in biocomputational analyses to generate normalized and summarized score results are respresented when applicable.", "score": 0.5045, "match_basis": "verbatim_token+domain_route:GF"}, {"md_atom_id": "md_dmGF_ex_a042", "md_file": "knowledge_base/domains/GF/examples.md", "md_atom_type": "SENTENCE", "md_parent_section": "§GF.3 [Example 3]", "md_verbatim": "**Rows 2-4, 8-10:** Show normalized transcription levels based on the normalization methods noted in variable GFANMETH and the raw fragment count reported in rows 1 and 7.", "score": 0.5024, "match_basis": "verbatim_token+domain_route:GF"}, {"md_atom_id": "md_dmGF_ex_a045", "md_file": "knowledge_base/domains/GF/examples.md", "md_atom_type": "SENTENCE", "md_parent_section": "§GF.3 [Example 3]", "md_verbatim": "**Rows 13-14:** Show normalized transcription levels based on the normalization methods noted in variable GFANMETH and the raw fragment count reported in rows 1 and 7.", "score": 0.5024, "match_basis": "verbatim_token+domain_route:GF"}], "candidate_count": 5, "zero_candidate": false}
{"pdf_atom_id": "ig34_p0220_a025", "pdf_atom_type": "SENTENCE", "pdf_source": "SDTMIG_v3.4", "pdf_page": 220, "pdf_parent_section": "§6.3.5.4 Genomics Findings (GF)", "pdf_verbatim": "The GF domain is used for findings from characteristics assessed from nucleic acids and may include subsequent inferences and/or predictions about related proteins/amino acids.", "figure_ref": null, "candidates": [{"md_atom_id": "md_dmGF_assn_a002", "md_file": "knowledge_base/domains/GF/assumptions.md", "md_atom_type": "LIST_ITEM", "md_parent_section": "§GF [GF — Assumptions]", "md_verbatim": "1. The Genomics Findings domain is used to represent findings related to the structure, function, evolution, mapping, and editing of subject and non-host organism genomic material of interest. This domain includes but is not limited to assessments and results for genetic variation and transcription, and summary measures derived from these assessments. The GF domain is used for findings from characteristics assessed from nucleic acids and may include subsequent inferences and/or predictions about related proteins/amino acids. However, direct assessments of proteins (e.g., assessments of amino acids) are out of scope for this domain.", "score": 0.58, "match_basis": "verbatim_token+domain_route:GF"}, {"md_atom_id": "md_dmGF_ex_a005", "md_file": "knowledge_base/domains/GF/examples.md", "md_atom_type": "SENTENCE", "md_parent_section": "§GF.1 [Example 1]", "md_verbatim": "**Row 2:** Shows the predicted coding sequence change due to the single nucleotide variant.", "score": 0.5062, "match_basis": "verbatim_token+domain_route:GF"}, {"md_atom_id": "md_dmGF_ex_a089", "md_file": "knowledge_base/domains/GF/examples.md", "md_atom_type": "SENTENCE", "md_parent_section": "§GF.5 [Example 5]", "md_verbatim": "Next, a series of virus samples extracted from the subject underwent targeted single nucleotide polymorphism (SNP) testing to determine the feasibility of using the neuraminidase inhibitor oseltamivir to treat the infection (i.e., drug susceptibility testing). Findings from this testing provide both genetic data in the form of the genotype identified and the susceptibility/resistance data as inferred phenotype. Genotypic findings are represented in the GF domain, and inferred susceptibility/resistance in MS.", "score": 0.5056, "match_basis": "verbatim_token+domain_route:GF"}, {"md_atom_id": "md_dmGF_ex_a003", "md_file": "knowledge_base/domains/GF/examples.md", "md_atom_type": "SENTENCE", "md_parent_section": "§GF.1 [Example 1]", "md_verbatim": "This example shows findings from an assessment of single nucleotide and copy number variation generated from biocomputational analysis with wet laboratory methodology targeted genome sequencing. Findings from this assessment show variation from DNA extracted from an individual's tumor tissue. As the DNA specimen was extracted from tumor tissue, the inheritability of the variation is considered to be somatic.", "score": 0.5052, "match_basis": "verbatim_token+domain_route:GF"}, {"md_atom_id": "md_dmGF_ex_a004", "md_file": "knowledge_base/domains/GF/examples.md", "md_atom_type": "SENTENCE", "md_parent_section": "§GF.1 [Example 1]", "md_verbatim": "**Row 1:** Shows the predicted amino acid change due to the single nucleotide variant.", "score": 0.4973, "match_basis": "verbatim_token+domain_route:GF"}], "candidate_count": 5, "zero_candidate": false}
{"pdf_atom_id": "ig34_p0221_a001", "pdf_atom_type": "HEADING", "pdf_source": "SDTMIG_v3.4", "pdf_page": 221, "pdf_parent_section": "§6.3.5.4 Genomics Findings (GF)", "pdf_verbatim": "GF – Specification", "figure_ref": null, "candidates": [{"md_atom_id": "md_dmGF_assn_a001", "md_file": "knowledge_base/domains/GF/assumptions.md", "md_atom_type": "HEADING", "md_parent_section": "§GF [GF — Assumptions]", "md_verbatim": "# GF — Assumptions", "score": 0.4667, "match_basis": "verbatim_token+domain_route:GF"}, {"md_atom_id": "md_dmGF_ex_a001", "md_file": "knowledge_base/domains/GF/examples.md", "md_atom_type": "HEADING", "md_parent_section": "§GF [GF — Examples]", "md_verbatim": "# GF — Examples", "score": 0.4, "match_basis": "verbatim_token+domain_route:GF"}, {"md_atom_id": "md_dmGF_ex_a002", "md_file": "knowledge_base/domains/GF/examples.md", "md_atom_type": "HEADING", "md_parent_section": "§GF [GF — Examples]", "md_verbatim": "## Example 1", "score": 0.4, "match_basis": "verbatim_token+domain_route:GF"}, {"md_atom_id": "md_dmGF_ex_a029", "md_file": "knowledge_base/domains/GF/examples.md", "md_atom_type": "HEADING", "md_parent_section": "§GF [GF — Examples]", "md_verbatim": "## Example 2", "score": 0.4, "match_basis": "verbatim_token+domain_route:GF"}, {"md_atom_id": "md_dmGF_ex_a039", "md_file": "knowledge_base/domains/GF/examples.md", "md_atom_type": "HEADING", "md_parent_section": "§GF [GF — Examples]", "md_verbatim": "## Example 3", "score": 0.4, "match_basis": "verbatim_token+domain_route:GF"}], "candidate_count": 5, "zero_candidate": false}
{"pdf_atom_id": "ig34_p0221_a002", "pdf_atom_type": "CODE_LITERAL", "pdf_source": "SDTMIG_v3.4", "pdf_page": 221, "pdf_parent_section": "§6.3.5.4 Genomics Findings (GF)", "pdf_verbatim": "gf.xpt", "figure_ref": null, "candidates": [{"md_atom_id": "md_dmGF_ex_a013", "md_file": "knowledge_base/domains/GF/examples.md", "md_atom_type": "SENTENCE", "md_parent_section": "§GF.1 [Example 1]", "md_verbatim": "**gf.xpt**", "score": 0.79, "match_basis": "verbatim_token+domain_route:GF"}, {"md_atom_id": "md_dmGF_ex_a025", "md_file": "knowledge_base/domains/GF/examples.md", "md_atom_type": "SENTENCE", "md_parent_section": "§GF.1 [Example 1]", "md_verbatim": "**di.xpt**", "score": 0.79, "match_basis": "verbatim_token+domain_route:GF"}, {"md_atom_id": "md_dmGF_ex_a034", "md_file": "knowledge_base/domains/GF/examples.md", "md_atom_type": "SENTENCE", "md_parent_section": "§GF.2 [Example 2]", "md_verbatim": "**gf.xpt**", "score": 0.79, "match_basis": "verbatim_token+domain_route:GF"}, {"md_atom_id": "md_dmGF_ex_a047", "md_file": "knowledge_base/domains/GF/examples.md", "md_atom_type": "SENTENCE", "md_parent_section": "§GF.3 [Example 3]", "md_verbatim": "**gf.xpt**", "score": 0.79, "match_basis": "verbatim_token+domain_route:GF"}, {"md_atom_id": "md_dmGF_ex_a067", "md_file": "knowledge_base/domains/GF/examples.md", "md_atom_type": "SENTENCE", "md_parent_section": "§GF.3 [Example 3]", "md_verbatim": "**di.xpt**", "score": 0.79, "match_basis": "verbatim_token+domain_route:GF"}, {"md_atom_id": "md_dmGF_ex_a075", "md_file": "knowledge_base/domains/GF/examples.md", "md_atom_type": "SENTENCE", "md_parent_section": "§GF.4 [Example 4]", "md_verbatim": "**gf.xpt**", "score": 0.79, "match_basis": "verbatim_token+domain_route:GF"}, {"md_atom_id": "md_dmGF_ex_a086", "md_file": "knowledge_base/domains/GF/examples.md", "md_atom_type": "SENTENCE", "md_parent_section": "§GF.5 [Example 5]", "md_verbatim": "**mb.xpt**", "score": 0.79, "match_basis": "verbatim_token+domain_route:GF"}, {"md_atom_id": "md_dmGF_ex_a093", "md_file": "knowledge_base/domains/GF/examples.md", "md_atom_type": "SENTENCE", "md_parent_section": "§GF.5 [Example 5]", "md_verbatim": "**gf.xpt**", "score": 0.79, "match_basis": "verbatim_token+domain_route:GF"}, {"md_atom_id": "md_dmGF_ex_a101", "md_file": "knowledge_base/domains/GF/examples.md", "md_atom_type": "SENTENCE", "md_parent_section": "§GF.5 [Example 5]", "md_verbatim": "**ms.xpt**", "score": 0.79, "match_basis": "verbatim_token+domain_route:GF"}, {"md_atom_id": "md_dmGF_ex_a107", "md_file": "knowledge_base/domains/GF/examples.md", "md_atom_type": "SENTENCE", "md_parent_section": "§GF.5 [Example 5]", "md_verbatim": "**relrec.xpt**", "score": 0.31, "match_basis": "verbatim_token+domain_route:GF"}], "candidate_count": 10, "zero_candidate": false}
{"pdf_atom_id": "ig34_p0221_a003", "pdf_atom_type": "SENTENCE", "pdf_source": "SDTMIG_v3.4", "pdf_page": 221, "pdf_parent_section": "§6.3.5.4 Genomics Findings (GF)", "pdf_verbatim": "gf.xpt, Genomics Findings — Findings. One record per finding per observation per biospecimen per subject, Tabulation.", "figure_ref": null, "candidates": [{"md_atom_id": "md_dmGF_ex_a003", "md_file": "knowledge_base/domains/GF/examples.md", "md_atom_type": "SENTENCE", "md_parent_section": "§GF.1 [Example 1]", "md_verbatim": "This example shows findings from an assessment of single nucleotide and copy number variation generated from biocomputational analysis with wet laboratory methodology targeted genome sequencing. Findings from this assessment show variation from DNA extracted from an individual's tumor tissue. As the DNA specimen was extracted from tumor tissue, the inheritability of the variation is considered to be somatic.", "score": 0.4649, "match_basis": "verbatim_token+domain_route:GF"}, {"md_atom_id": "md_dmGF_ex_a007", "md_file": "knowledge_base/domains/GF/examples.md", "md_atom_type": "SENTENCE", "md_parent_section": "§GF.1 [Example 1]", "md_verbatim": "**Row 4:** Shows the number of times the locus specified in variables GFCHROM and GFGENLOC was observed.", "score": 0.4635, "match_basis": "verbatim_token+domain_route:GF"}, {"md_atom_id": "md_dmGF_ex_a030", "md_file": "knowledge_base/domains/GF/examples.md", "md_atom_type": "SENTENCE", "md_parent_section": "§GF.2 [Example 2]", "md_verbatim": "This example shows findings from an assessment of a known single nucleotide variant in gene ABCG2 using wet laboratory methodology real-time polymerase chain reaction. Findings from this assessment show the genotypes from DNA extracted from the blood of 3 individuals, each with a different genotype at the genetic locus of interest. Because the DNA specimen was extracted from normal blood, the inheritability of the variation is considered to be in the germline.", "score": 0.4535, "match_basis": "verbatim_token+domain_route:GF"}, {"md_atom_id": "md_dmGF_ex_a041", "md_file": "knowledge_base/domains/GF/examples.md", "md_atom_type": "SENTENCE", "md_parent_section": "§GF.3 [Example 3]", "md_verbatim": "**Rows 1, 7:** Show the number of fragments counted corresponding to the indicated gene.", "score": 0.4532, "match_basis": "verbatim_token+domain_route:GF"}, {"md_atom_id": "md_dmGF_ex_a074", "md_file": "knowledge_base/domains/GF/examples.md", "md_atom_type": "SENTENCE", "md_parent_section": "§GF.4 [Example 4]", "md_verbatim": "**Rows 2-6:** Show whether microsatellite instability is detected in the genetic subregions indicated.", "score": 0.4522, "match_basis": "verbatim_token+domain_route:GF"}], "candidate_count": 5, "zero_candidate": false}
{"pdf_atom_id": "ig34_p0221_a004", "pdf_atom_type": "TABLE_HEADER", "pdf_source": "SDTMIG_v3.4", "pdf_page": 221, "pdf_parent_section": "§6.3.5.4 Genomics Findings (GF)", "pdf_verbatim": "| Variable Name | Variable Label | Type | Controlled Terms, Codelist or Format¹ | Role | CDISC Notes | Core |", "figure_ref": null, "candidates": [{"md_atom_id": "md_dmGF_ex_a108", "md_file": "knowledge_base/domains/GF/examples.md", "md_atom_type": "TABLE_HEADER", "md_parent_section": "§GF.5 [Example 5]", "md_verbatim": "| Row | STUDYID | RDOMAIN | USUBJID | IDVAR | IDVARVAL | RELTYPE | RELID |\n|-----|---------|---------|---------|-------|----------|---------|-------|", "score": 0.4353, "match_basis": "verbatim_token+domain_route:GF"}, {"md_atom_id": "md_dmGF_ex_a048", "md_file": "knowledge_base/domains/GF/examples.md", "md_atom_type": "TABLE_HEADER", "md_parent_section": "§GF.3 [Example 3]", "md_verbatim": "| Row | STUDYID | DOMAIN | USUBJID | SPDEVID | GFSEQ | GFGRPID | GFREFID | GFSPID | GFTESTCD | GFTEST | GFTSTDTL | GFORRES | GFORRESU | GFSTRESC | GFSTRESN | GFSTRESU | GFGENREF | GFCHROM | GFSYM | GFSYMTYP | GFSEQID | GFXFN | GFNAM | GFSPEC | GFMETHOD | GFANMETH | VISITNUM | VISIT | VISITDY | GFDTC | GFDY |\n|-----|---------|--------|---------|---------|-------|---------|---------|--------|----------|--------|----------|---------|----------|----------|----------|----------|----------|---------|-------|----------|---------|-------|-------|--------|----------|----------|----------|-------|---------|-------|------|", "score": 0.4169, "match_basis": "verbatim_token+domain_route:GF"}, {"md_atom_id": "md_dmGF_ex_a014", "md_file": "knowledge_base/domains/GF/examples.md", "md_atom_type": "TABLE_HEADER", "md_parent_section": "§GF.1 [Example 1]", "md_verbatim": "| Row | STUDYID | DOMAIN | USUBJID | GFSEQ | GFREFID | GFTESTCD | GFTEST | GFTSTDTL | GFORRES | GFSTRESC | GFSTREFN | GFSTRESU | GFINHERTG | GFGENREF | GFCHROM | GFSYM | GFSYMTYP | GFGENLOC | GFGENSR | GFSEQID | GFPVRID | GFCOPYID | GFNAM | GFSPEC | GFMETHOD | GFRUNID | VISITNUM | VISIT | VISITDY | GFDTC | GFDY |\n|-----|---------|--------|---------|-------|---------|----------|--------|----------|---------|----------|----------|----------|-----------|----------|---------|-------|----------|----------|---------|---------|---------|----------|-------|--------|----------|---------|----------|-------|---------|-------|------|", "score": 0.416, "match_basis": "verbatim_token+domain_route:GF"}, {"md_atom_id": "md_dmGF_ex_a076", "md_file": "knowledge_base/domains/GF/examples.md", "md_atom_type": "TABLE_HEADER", "md_parent_section": "§GF.4 [Example 4]", "md_verbatim": "| Row | STUDYID | DOMAIN | USUBJID | GFSEQ | GFREFID | GFTESTCD | GFTEST | GFTSTDTL | GFORRES | GFSTRESC | GFXFN | GFNAM | GFSPEC | GFMETHOD | GFRUNID | VISITNUM | VISIT | VISITDY | GFDTC | GFDY |\n|-----|---------|--------|---------|-------|---------|----------|--------|----------|---------|----------|-------|-------|--------|----------|---------|----------|-------|---------|-------|------|", "score": 0.4158, "match_basis": "verbatim_token+domain_route:GF"}, {"md_atom_id": "md_dmGF_ex_a035", "md_file": "knowledge_base/domains/GF/examples.md", "md_atom_type": "TABLE_HEADER", "md_parent_section": "§GF.2 [Example 2]", "md_verbatim": "| Row | STUDYID | DOMAIN | USUBJID | GFSEQ | GFREFID | GFTESTCD | GFTEST | GFTSTDTL | GFORRES | GFSTRESC | GFSTREFN | GFINHERTG | GFGENREF | GFCHROM | GFSYM | GFGENLOC | GFGENSR | GFSEQID | GFPVRID | GFNAM | GFSPEC | GFMETHOD | VISITNUM | VISIT | VISITDY | GFDTC | GFDY |\n|-----|---------|--------|---------|-------|---------|----------|--------|----------|---------|----------|----------|-----------|----------|---------|-------|----------|---------|---------|---------|-------|--------|----------|----------|-------|---------|-------|------|", "score": 0.4129, "match_basis": "verbatim_token+domain_route:GF"}], "candidate_count": 5, "zero_candidate": false}
{"pdf_atom_id": "ig34_p0221_a005", "pdf_atom_type": "TABLE_ROW", "pdf_source": "SDTMIG_v3.4", "pdf_page": 221, "pdf_parent_section": "§6.3.5.4 Genomics Findings (GF)", "pdf_verbatim": "| STUDYID | Study Identifier | Char | | Identifier | Unique identifier for a study. | Req |", "figure_ref": null, "candidates": [{"md_atom_id": "md_dmGF_ex_a088", "md_file": "knowledge_base/domains/GF/examples.md", "md_atom_type": "TABLE_ROW", "md_parent_section": "§GF.5 [Example 5]", "md_verbatim": "| 1 | INFLU122 | MB | INF01-01 | 1 | INFLU0101.1 | MCORGIDN | Microbial Organism Identification | INFLUENZA A VIRUS SUBTYPE | INFLUENZA A VIRUS SUBTYPE H3N2 | MUCUS | NOSTRIL | NUCLEIC ACID AMPLIFICATION TEST | 1 | BASELINE | 2020-06-11 |", "score": 0.436, "match_basis": "verbatim_token+domain_route:GF"}, {"md_atom_id": "md_dmGF_ex_a053", "md_file": "knowledge_base/domains/GF/examples.md", "md_atom_type": "TABLE_ROW", "md_parent_section": "§GF.3 [Example 3]", "md_verbatim": "| 5 | ABC-123 | GF | 123101 | ACME GenePanel 250 | 5 | 1 | ABU3908A52 | AH749754 | TRNSCPTN | Transcription | PERCENTILE RANK | 0.37 | % | 0.37 | 0.37 | % | hs37d5 | 7 | ACTB | GENE WITH PROTEIN PRODUCT | ENST00000646664.1 | AH749754.fastq.gz | ACME | RNA | TARGETED TRANSCRIPTOME SEQUENCING | | 1 | VISIT 1 | 1 | 2018-09-04 | 2 |", "score": 0.4143, "match_basis": "verbatim_token+domain_route:GF"}, {"md_atom_id": "md_dmGF_ex_a096", "md_file": "knowledge_base/domains/GF/examples.md", "md_atom_type": "TABLE_ROW", "md_parent_section": "§GF.5 [Example 5]", "md_verbatim": "| 2 | INFLU122 | GF | INF01-01 | 2 | INFLU0102 | INFLUENZA A H3N2 | GF-MS-02 | SNV | Single Nucleotide Variation | PREDICTED AMINO ACID CHANGE | R292K | R292K | NA | 292 | U43427 | RNA | | 2 | DAY 2 | 2020-06-12 |", "score": 0.4143, "match_basis": "verbatim_token+domain_route:GF"}, {"md_atom_id": "md_dmGF_ex_a097", "md_file": "knowledge_base/domains/GF/examples.md", "md_atom_type": "TABLE_ROW", "md_parent_section": "§GF.5 [Example 5]", "md_verbatim": "| 3 | INFLU122 | GF | INF01-01 | 3 | INFLU0103 | INFLUENZA A H3N2 | GF-MS-03 | SNV | Single Nucleotide Variation | PREDICTED AMINO ACID CHANGE | R292K | R292K | NA | 292 | U43427 | RNA | | 3 | DAY 5 | 2020-06-15 |", "score": 0.4143, "match_basis": "verbatim_token+domain_route:GF"}, {"md_atom_id": "md_dmGF_ex_a059", "md_file": "knowledge_base/domains/GF/examples.md", "md_atom_type": "TABLE_ROW", "md_parent_section": "§GF.3 [Example 3]", "md_verbatim": "| 11 | ABC-123 | GF | 123101 | ACME GenePanel 250 | 11 | 2 | ABU3908A52 | AH749754 | TRNSCPTN | Transcription | PERCENTILE RANK | 0.99 | % | 0.99 | 0.99 | % | hs37d5 | 12 | GAPDH | GENE WITH PROTEIN PRODUCT | ENST00000396861.5 | AH749754.fastq.gz | ACME | RNA | TARGETED TRANSCRIPTOME SEQUENCING | | 1 | VISIT 1 | 1 | 2018-09-18 | 2 |", "score": 0.4142, "match_basis": "verbatim_token+domain_route:GF"}], "candidate_count": 5, "zero_candidate": false}
{"pdf_atom_id": "ig34_p0221_a006", "pdf_atom_type": "TABLE_ROW", "pdf_source": "SDTMIG_v3.4", "pdf_page": 221, "pdf_parent_section": "§6.3.5.4 Genomics Findings (GF)", "pdf_verbatim": "| DOMAIN | Domain Abbreviation | Char | GF | Identifier | Two-character abbreviation for the domain. | Req |", "figure_ref": null, "candidates": [{"md_atom_id": "md_dmGF_ex_a023", "md_file": "knowledge_base/domains/GF/examples.md", "md_atom_type": "TABLE_ROW", "md_parent_section": "§GF.1 [Example 1]", "md_verbatim": "| 9 | ABC-123 | GF | 123101 | 9 | | CNV | Copy Number Variation | INTERPRETATION | AMPLIFICATION | | | | SOMATIC | | 7 | BRAF | Gene with Protein Product | | | ENSG00000157764 | | | ACME Labs | DNA | REAL TIME POLYMERASE CHAIN REACTION | | 1 | Screening | -25 | | |", "score": 0.4504, "match_basis": "verbatim_token+domain_route:GF"}, {"md_atom_id": "md_dmGF_ex_a021", "md_file": "knowledge_base/domains/GF/examples.md", "md_atom_type": "TABLE_ROW", "md_parent_section": "§GF.1 [Example 1]", "md_verbatim": "| 7 | ABC-123 | GF | 123101 | 7 | | CNV | Copy Number Variation | EXON COPY NUMBER ALTERATION | | | 3 | | SOMATIC | | 7 | BRAF | Gene with Protein Product | | | ENSG00000157764 | | | ACME Labs | DNA | REAL TIME POLYMERASE CHAIN REACTION | | 1 | Screening | -25 | | |", "score": 0.4495, "match_basis": "verbatim_token+domain_route:GF"}, {"md_atom_id": "md_dmGF_ex_a088", "md_file": "knowledge_base/domains/GF/examples.md", "md_atom_type": "TABLE_ROW", "md_parent_section": "§GF.5 [Example 5]", "md_verbatim": "| 1 | INFLU122 | MB | INF01-01 | 1 | INFLU0101.1 | MCORGIDN | Microbial Organism Identification | INFLUENZA A VIRUS SUBTYPE | INFLUENZA A VIRUS SUBTYPE H3N2 | MUCUS | NOSTRIL | NUCLEIC ACID AMPLIFICATION TEST | 1 | BASELINE | 2020-06-11 |", "score": 0.4495, "match_basis": "verbatim_token+domain_route:GF"}, {"md_atom_id": "md_dmGF_ex_a020", "md_file": "knowledge_base/domains/GF/examples.md", "md_atom_type": "TABLE_ROW", "md_parent_section": "§GF.1 [Example 1]", "md_verbatim": "| 6 | ABC-123 | GF | 123101 | 6 | | CNV | Copy Number Variation | COPY NUMBER | | | 5 | | SOMATIC | | 7 | BRAF | Gene with Protein Product | | | ENSG00000157764 | | | ACME Labs | DNA | REAL TIME POLYMERASE CHAIN REACTION | | 1 | Screening | -25 | | |", "score": 0.4462, "match_basis": "verbatim_token+domain_route:GF"}, {"md_atom_id": "md_dmGF_ex_a096", "md_file": "knowledge_base/domains/GF/examples.md", "md_atom_type": "TABLE_ROW", "md_parent_section": "§GF.5 [Example 5]", "md_verbatim": "| 2 | INFLU122 | GF | INF01-01 | 2 | INFLU0102 | INFLUENZA A H3N2 | GF-MS-02 | SNV | Single Nucleotide Variation | PREDICTED AMINO ACID CHANGE | R292K | R292K | NA | 292 | U43427 | RNA | | 2 | DAY 2 | 2020-06-12 |", "score": 0.4462, "match_basis": "verbatim_token+domain_route:GF"}], "candidate_count": 5, "zero_candidate": false}
{"pdf_atom_id": "ig34_p0221_a007", "pdf_atom_type": "TABLE_ROW", "pdf_source": "SDTMIG_v3.4", "pdf_page": 221, "pdf_parent_section": "§6.3.5.4 Genomics Findings (GF)", "pdf_verbatim": "| USUBJID | Unique Subject Identifier | Char | | Identifier | Identifier used to uniquely identify a subject across all studies for all applications or submissions involving the product. | Req |", "figure_ref": null, "candidates": [{"md_atom_id": "md_dmGF_ex_a088", "md_file": "knowledge_base/domains/GF/examples.md", "md_atom_type": "TABLE_ROW", "md_parent_section": "§GF.5 [Example 5]", "md_verbatim": "| 1 | INFLU122 | MB | INF01-01 | 1 | INFLU0101.1 | MCORGIDN | Microbial Organism Identification | INFLUENZA A VIRUS SUBTYPE | INFLUENZA A VIRUS SUBTYPE H3N2 | MUCUS | NOSTRIL | NUCLEIC ACID AMPLIFICATION TEST | 1 | BASELINE | 2020-06-11 |", "score": 0.4604, "match_basis": "verbatim_token+domain_route:GF"}, {"md_atom_id": "md_dmGF_ex_a023", "md_file": "knowledge_base/domains/GF/examples.md", "md_atom_type": "TABLE_ROW", "md_parent_section": "§GF.1 [Example 1]", "md_verbatim": "| 9 | ABC-123 | GF | 123101 | 9 | | CNV | Copy Number Variation | INTERPRETATION | AMPLIFICATION | | | | SOMATIC | | 7 | BRAF | Gene with Protein Product | | | ENSG00000157764 | | | ACME Labs | DNA | REAL TIME POLYMERASE CHAIN REACTION | | 1 | Screening | -25 | | |", "score": 0.456, "match_basis": "verbatim_token+domain_route:GF"}, {"md_atom_id": "md_dmGF_ex_a017", "md_file": "knowledge_base/domains/GF/examples.md", "md_atom_type": "TABLE_ROW", "md_parent_section": "§GF.1 [Example 1]", "md_verbatim": "| 3 | ABC-123 | GF | 123101 | 3 | | SNV | Single Nucleotide Variation | VARIANT CLASSIFICATION | Pathogenic | | | | SOMATIC | | 7 | BRAF | Gene with Protein Product | Exon 15 | | ENSG00000157764 | rs121913227 | | ACME Labs | DNA | REAL TIME POLYMERASE CHAIN REACTION | | 1 | Screening | -25 | | |", "score": 0.4545, "match_basis": "verbatim_token+domain_route:GF"}, {"md_atom_id": "md_dmGF_ex_a020", "md_file": "knowledge_base/domains/GF/examples.md", "md_atom_type": "TABLE_ROW", "md_parent_section": "§GF.1 [Example 1]", "md_verbatim": "| 6 | ABC-123 | GF | 123101 | 6 | | CNV | Copy Number Variation | COPY NUMBER | | | 5 | | SOMATIC | | 7 | BRAF | Gene with Protein Product | | | ENSG00000157764 | | | ACME Labs | DNA | REAL TIME POLYMERASE CHAIN REACTION | | 1 | Screening | -25 | | |", "score": 0.4438, "match_basis": "verbatim_token+domain_route:GF"}, {"md_atom_id": "md_dmGF_ex_a022", "md_file": "knowledge_base/domains/GF/examples.md", "md_atom_type": "TABLE_ROW", "md_parent_section": "§GF.1 [Example 1]", "md_verbatim": "| 8 | ABC-123 | GF | 123101 | 8 | | CNV | Copy Number Variation | COPY NUMBER RATIO | | | 2.5 | | SOMATIC | | 7 | BRAF | Gene with Protein Product | | | ENSG00000157764 | | | ACME Labs | DNA | REAL TIME POLYMERASE CHAIN REACTION | | 1 | Screening | -25 | | |", "score": 0.4435, "match_basis": "verbatim_token+domain_route:GF"}], "candidate_count": 5, "zero_candidate": false}
{"pdf_atom_id": "ig34_p0221_a008", "pdf_atom_type": "TABLE_ROW", "pdf_source": "SDTMIG_v3.4", "pdf_page": 221, "pdf_parent_section": "§6.3.5.4 Genomics Findings (GF)", "pdf_verbatim": "| SPDEVID | Sponsor Device Identifier | Char | | Identifier | Sponsor-defined identifier for a device. | Perm |", "figure_ref": null, "candidates": [{"md_atom_id": "md_dmGF_ex_a027", "md_file": "knowledge_base/domains/GF/examples.md", "md_atom_type": "TABLE_ROW", "md_parent_section": "§GF.1 [Example 1]", "md_verbatim": "| 1 | ABC-123 | DI | ACME GenePanel 500 | 1 | DEVTYPE | Device Type | Gene Panel |", "score": 0.4522, "match_basis": "verbatim_token+domain_route:GF"}, {"md_atom_id": "md_dmGF_ex_a069", "md_file": "knowledge_base/domains/GF/examples.md", "md_atom_type": "TABLE_ROW", "md_parent_section": "§GF.3 [Example 3]", "md_verbatim": "| 1 | ABC-123 | DI | ACME GenePanel 250 | 1 | DEVTYPE | Device Type | Gene Panel |", "score": 0.4522, "match_basis": "verbatim_token+domain_route:GF"}, {"md_atom_id": "md_dmGF_ex_a088", "md_file": "knowledge_base/domains/GF/examples.md", "md_atom_type": "TABLE_ROW", "md_parent_section": "§GF.5 [Example 5]", "md_verbatim": "| 1 | INFLU122 | MB | INF01-01 | 1 | INFLU0101.1 | MCORGIDN | Microbial Organism Identification | INFLUENZA A VIRUS SUBTYPE | INFLUENZA A VIRUS SUBTYPE H3N2 | MUCUS | NOSTRIL | NUCLEIC ACID AMPLIFICATION TEST | 1 | BASELINE | 2020-06-11 |", "score": 0.4389, "match_basis": "verbatim_token+domain_route:GF"}, {"md_atom_id": "md_dmGF_ex_a037", "md_file": "knowledge_base/domains/GF/examples.md", "md_atom_type": "TABLE_ROW", "md_parent_section": "§GF.2 [Example 2]", "md_verbatim": "| 2 | C12345 | GF | C12345-002 | 1 | NA01001 | SNV | Single Nucleotide Variation | GENOTYPE | G/G | G/G | | GERMLINE | | | ABCG2 | | 4.88131177 | ENSG00000118777 | rs2231142 | ACME Labs | DNA | REAL TIME POLYMERASE CHAIN REACTION | 1 | SCREENING | -1 | | -25 |", "score": 0.4197, "match_basis": "verbatim_token+domain_route:GF"}, {"md_atom_id": "md_dmGF_ex_a036", "md_file": "knowledge_base/domains/GF/examples.md", "md_atom_type": "TABLE_ROW", "md_parent_section": "§GF.2 [Example 2]", "md_verbatim": "| 1 | C12345 | GF | C12345-001 | 1 | NA01001 | SNV | Single Nucleotide Variation | GENOTYPE | G/G | G/G | | GERMLINE | GRCh38.p13 | 4 | ABCG2 | | 4.88131177 | ENSG00000118777 | rs2231142 | ACME Labs | DNA | REAL TIME POLYMERASE CHAIN REACTION | 1 | SCREENING | -1 | | -25 |", "score": 0.419, "match_basis": "verbatim_token+domain_route:GF"}], "candidate_count": 5, "zero_candidate": false}
{"pdf_atom_id": "ig34_p0221_a009", "pdf_atom_type": "TABLE_ROW", "pdf_source": "SDTMIG_v3.4", "pdf_page": 221, "pdf_parent_section": "§6.3.5.4 Genomics Findings (GF)", "pdf_verbatim": "| NHOID | Non-Host Organism Identifier | Char | | Identifier | Sponsor-defined identifier for a non-host organism which should only be used when the organism is the subject of the TEST. This variable should be populated with an intuitive name based on the identity of the non-host organism as reported by a lab (e.g., \"A/California/7/2009 (H1N1)\"). It is not to be used as a qualifier of the result in the record on which it appears. | Perm |", "figure_ref": null, "candidates": [{"md_atom_id": "md_dmGF_ex_a088", "md_file": "knowledge_base/domains/GF/examples.md", "md_atom_type": "TABLE_ROW", "md_parent_section": "§GF.5 [Example 5]", "md_verbatim": "| 1 | INFLU122 | MB | INF01-01 | 1 | INFLU0101.1 | MCORGIDN | Microbial Organism Identification | INFLUENZA A VIRUS SUBTYPE | INFLUENZA A VIRUS SUBTYPE H3N2 | MUCUS | NOSTRIL | NUCLEIC ACID AMPLIFICATION TEST | 1 | BASELINE | 2020-06-11 |", "score": 0.4689, "match_basis": "verbatim_token+domain_route:GF"}, {"md_atom_id": "md_dmGF_ex_a038", "md_file": "knowledge_base/domains/GF/examples.md", "md_atom_type": "TABLE_ROW", "md_parent_section": "§GF.2 [Example 2]", "md_verbatim": "| 3 | C12345 | GF | C12345-003 | 1 | NA01001 | SNV | Single Nucleotide Variation | GENOTYPE | G/G | G/G | | GERMLINE | GRCh38.p13 | 4 | ABCG2 | GENE WITH PROTEIN PRODUCT | 4.88131177 | ENSG00000118777 | rs2231142 | ACME Labs | DNA | REAL TIME POLYMERASE CHAIN REACTION | 1 | SCREENING | -1 | 2020-06-3 | -3 |", "score": 0.4324, "match_basis": "verbatim_token+domain_route:GF"}, {"md_atom_id": "md_dmGF_ex_a023", "md_file": "knowledge_base/domains/GF/examples.md", "md_atom_type": "TABLE_ROW", "md_parent_section": "§GF.1 [Example 1]", "md_verbatim": "| 9 | ABC-123 | GF | 123101 | 9 | | CNV | Copy Number Variation | INTERPRETATION | AMPLIFICATION | | | | SOMATIC | | 7 | BRAF | Gene with Protein Product | | | ENSG00000157764 | | | ACME Labs | DNA | REAL TIME POLYMERASE CHAIN REACTION | | 1 | Screening | -25 | | |", "score": 0.4324, "match_basis": "verbatim_token+domain_route:GF"}, {"md_atom_id": "md_dmGF_ex_a095", "md_file": "knowledge_base/domains/GF/examples.md", "md_atom_type": "TABLE_ROW", "md_parent_section": "§GF.5 [Example 5]", "md_verbatim": "| 1 | INFLU122 | GF | INF01-01 | 1 | INFLU0101.1 | INFLUENZA A H3N2 | GF-MS-01 | SNV | Single Nucleotide Variation | PREDICTED AMINO ACID CHANGE | R292R | R292R | NA | 292 | U43427 | RNA | | 1 | BASELINE | 2020-06-11 |", "score": 0.43, "match_basis": "verbatim_token+domain_route:GF"}, {"md_atom_id": "md_dmGF_ex_a037", "md_file": "knowledge_base/domains/GF/examples.md", "md_atom_type": "TABLE_ROW", "md_parent_section": "§GF.2 [Example 2]", "md_verbatim": "| 2 | C12345 | GF | C12345-002 | 1 | NA01001 | SNV | Single Nucleotide Variation | GENOTYPE | G/G | G/G | | GERMLINE | | | ABCG2 | | 4.88131177 | ENSG00000118777 | rs2231142 | ACME Labs | DNA | REAL TIME POLYMERASE CHAIN REACTION | 1 | SCREENING | -1 | | -25 |", "score": 0.4293, "match_basis": "verbatim_token+domain_route:GF"}], "candidate_count": 5, "zero_candidate": false}
{"pdf_atom_id": "ig34_p0221_a010", "pdf_atom_type": "TABLE_ROW", "pdf_source": "SDTMIG_v3.4", "pdf_page": 221, "pdf_parent_section": "§6.3.5.4 Genomics Findings (GF)", "pdf_verbatim": "| GFSEQ | Sequence Number | Num | | Identifier | Sequence number to ensure uniqueness of records within a dataset for a subject. May be any valid number (including decimals) and does not have to start at 1. | Req |", "figure_ref": null, "candidates": [{"md_atom_id": "md_dmGF_ex_a050", "md_file": "knowledge_base/domains/GF/examples.md", "md_atom_type": "TABLE_ROW", "md_parent_section": "§GF.3 [Example 3]", "md_verbatim": "| 2 | ABC-123 | GF | 123101 | ACME GenePanel 250 | 2 | 1 | ABU3908A52 | AH749754 | TRNSCPTN | Transcription | NORMALIZED LEVEL | 0.5679 | /MBP | 0.5679 | 0.5679 | /MBP | hs37d5 | 7 | ACTB | GENE WITH PROTEIN PRODUCT | ENST00000646664.1 | AH749754.fastq.gz | ACME | RNA | TARGETED TRANSCRIPTOME SEQUENCING | FRAGMENTS PER KILOBASE MILLION FORMULA | 1 | VISIT 1 | 1 | 2018-09-04 | 2 |", "score": 0.4487, "match_basis": "verbatim_token+domain_route:GF"}, {"md_atom_id": "md_dmGF_ex_a056", "md_file": "knowledge_base/domains/GF/examples.md", "md_atom_type": "TABLE_ROW", "md_parent_section": "§GF.3 [Example 3]", "md_verbatim": "| 8 | ABC-123 | GF | 123101 | ACME GenePanel 250 | 8 | 2 | ABU3908A52 | AH749754 | TRNSCPTN | Transcription | NORMALIZED LEVEL | 148.6268 | /MBP | 148.6268 | 148.6268 | /MBP | hs37d5 | 12 | GAPDH | GENE WITH PROTEIN PRODUCT | ENST00000396861.5 | AH749754.fastq.gz | ACME | RNA | TARGETED TRANSCRIPTOME SEQUENCING | FRAGMENTS PER KILOBASE MILLION FORMULA | 1 | VISIT 1 | 1 | 2018-09-18 | 2 |", "score": 0.4482, "match_basis": "verbatim_token+domain_route:GF"}, {"md_atom_id": "md_dmGF_ex_a064", "md_file": "knowledge_base/domains/GF/examples.md", "md_atom_type": "TABLE_ROW", "md_parent_section": "§GF.3 [Example 3]", "md_verbatim": "| 16 | ABC-123 | GF | 123101 | ACME GenePanel 250 | 16 | 3 | ABC1234567 | AP483910 | GENESIG | Gene Signature | SCORE | -1.126819661 | | -1.126819661 | -1.126819661 | | GRCh38.p12 | | ACTB | GENE WITH PROTEIN PRODUCT | NM_001101.5 | | ACME | RNA | TARGETED TRANSCRIPTOME SEQUENCING | IFN-1 GENE SIGNATURE | 1 | VISIT 1 | 1 | 2018-09-18 | 2 |", "score": 0.4476, "match_basis": "verbatim_token+domain_route:GF"}, {"md_atom_id": "md_dmGF_ex_a061", "md_file": "knowledge_base/domains/GF/examples.md", "md_atom_type": "TABLE_ROW", "md_parent_section": "§GF.3 [Example 3]", "md_verbatim": "| 13 | ABC-123 | GF | 123101 | ACME GenePanel 250 | 13 | 1 | ABC1234567 | AP483910 | TRNSCPTN | Transcription | NORMALIZED LEVEL | -0.056299177 | | -0.056299177 | -0.056299177 | | GRCh38.p12 | | ACTB | GENE WITH PROTEIN PRODUCT | NM_001101.5 | | ACME | RNA | TARGETED TRANSCRIPTOME SEQUENCING | DIFFERENCES OF LOG2 INTENSITIES FORMULA | 1 | VISIT 1 | 1 | 2018-09-18 | 2 |", "score": 0.4474, "match_basis": "verbatim_token+domain_route:GF"}, {"md_atom_id": "md_dmGF_ex_a062", "md_file": "knowledge_base/domains/GF/examples.md", "md_atom_type": "TABLE_ROW", "md_parent_section": "§GF.3 [Example 3]", "md_verbatim": "| 14 | ABC-123 | GF | 123101 | ACME GenePanel 250 | 14 | 1 | ABC1234567 | AP483910 | TRNSCPTN | Transcription | NORMALIZED LEVEL | -0.046787999 | | -0.046787999 | -0.046787999 | | GRCh38.p12 | | GAPDH | GENE WITH PROTEIN PRODUCT | NM_001256799.3 | | ACME | RNA | TARGETED TRANSCRIPTOME SEQUENCING | DIFFERENCES OF LOG2 INTENSITIES FORMULA | 1 | VISIT 1 | 1 | 2018-09-18 | 2 |", "score": 0.4466, "match_basis": "verbatim_token+domain_route:GF"}], "candidate_count": 5, "zero_candidate": false}
{"pdf_atom_id": "ig34_p0221_a011", "pdf_atom_type": "TABLE_ROW", "pdf_source": "SDTMIG_v3.4", "pdf_page": 221, "pdf_parent_section": "§6.3.5.4 Genomics Findings (GF)", "pdf_verbatim": "| GFGRPID | Group ID | Char | | Identifier | Used to link together a block of related records within a subject in a domain. | Perm |", "figure_ref": null, "candidates": [{"md_atom_id": "md_dmGF_ex_a088", "md_file": "knowledge_base/domains/GF/examples.md", "md_atom_type": "TABLE_ROW", "md_parent_section": "§GF.5 [Example 5]", "md_verbatim": "| 1 | INFLU122 | MB | INF01-01 | 1 | INFLU0101.1 | MCORGIDN | Microbial Organism Identification | INFLUENZA A VIRUS SUBTYPE | INFLUENZA A VIRUS SUBTYPE H3N2 | MUCUS | NOSTRIL | NUCLEIC ACID AMPLIFICATION TEST | 1 | BASELINE | 2020-06-11 |", "score": 0.4409, "match_basis": "verbatim_token+domain_route:GF"}, {"md_atom_id": "md_dmGF_ex_a017", "md_file": "knowledge_base/domains/GF/examples.md", "md_atom_type": "TABLE_ROW", "md_parent_section": "§GF.1 [Example 1]", "md_verbatim": "| 3 | ABC-123 | GF | 123101 | 3 | | SNV | Single Nucleotide Variation | VARIANT CLASSIFICATION | Pathogenic | | | | SOMATIC | | 7 | BRAF | Gene with Protein Product | Exon 15 | | ENSG00000157764 | rs121913227 | | ACME Labs | DNA | REAL TIME POLYMERASE CHAIN REACTION | | 1 | Screening | -25 | | |", "score": 0.43, "match_basis": "verbatim_token+domain_route:GF"}, {"md_atom_id": "md_dmGF_ex_a019", "md_file": "knowledge_base/domains/GF/examples.md", "md_atom_type": "TABLE_ROW", "md_parent_section": "§GF.1 [Example 1]", "md_verbatim": "| 5 | ABC-123 | GF | 123101 | 5 | | SNV | Single Nucleotide Variation | PERCENT VARIANT READ DEPTH | | | 50 | % | SOMATIC | GRCh38.p13 | 7 | BRAF | Gene with Protein Product | 140753336 | Exon 15 | ENSG00000157764 | rs121913227 | | ACME Labs | DNA | REAL TIME POLYMERASE CHAIN REACTION | | 1 | Screening | -25 | | |", "score": 0.4289, "match_basis": "verbatim_token+domain_route:GF"}, {"md_atom_id": "md_dmGF_ex_a053", "md_file": "knowledge_base/domains/GF/examples.md", "md_atom_type": "TABLE_ROW", "md_parent_section": "§GF.3 [Example 3]", "md_verbatim": "| 5 | ABC-123 | GF | 123101 | ACME GenePanel 250 | 5 | 1 | ABU3908A52 | AH749754 | TRNSCPTN | Transcription | PERCENTILE RANK | 0.37 | % | 0.37 | 0.37 | % | hs37d5 | 7 | ACTB | GENE WITH PROTEIN PRODUCT | ENST00000646664.1 | AH749754.fastq.gz | ACME | RNA | TARGETED TRANSCRIPTOME SEQUENCING | | 1 | VISIT 1 | 1 | 2018-09-04 | 2 |", "score": 0.4268, "match_basis": "verbatim_token+domain_route:GF"}, {"md_atom_id": "md_dmGF_ex_a059", "md_file": "knowledge_base/domains/GF/examples.md", "md_atom_type": "TABLE_ROW", "md_parent_section": "§GF.3 [Example 3]", "md_verbatim": "| 11 | ABC-123 | GF | 123101 | ACME GenePanel 250 | 11 | 2 | ABU3908A52 | AH749754 | TRNSCPTN | Transcription | PERCENTILE RANK | 0.99 | % | 0.99 | 0.99 | % | hs37d5 | 12 | GAPDH | GENE WITH PROTEIN PRODUCT | ENST00000396861.5 | AH749754.fastq.gz | ACME | RNA | TARGETED TRANSCRIPTOME SEQUENCING | | 1 | VISIT 1 | 1 | 2018-09-18 | 2 |", "score": 0.4266, "match_basis": "verbatim_token+domain_route:GF"}], "candidate_count": 5, "zero_candidate": false}
{"pdf_atom_id": "ig34_p0221_a012", "pdf_atom_type": "TABLE_ROW", "pdf_source": "SDTMIG_v3.4", "pdf_page": 221, "pdf_parent_section": "§6.3.5.4 Genomics Findings (GF)", "pdf_verbatim": "| GFREFID | Reference ID | Char | | Identifier | A unique identifier for the assayed genetic specimen. | Exp |", "figure_ref": null, "candidates": [{"md_atom_id": "md_dmGF_ex_a061", "md_file": "knowledge_base/domains/GF/examples.md", "md_atom_type": "TABLE_ROW", "md_parent_section": "§GF.3 [Example 3]", "md_verbatim": "| 13 | ABC-123 | GF | 123101 | ACME GenePanel 250 | 13 | 1 | ABC1234567 | AP483910 | TRNSCPTN | Transcription | NORMALIZED LEVEL | -0.056299177 | | -0.056299177 | -0.056299177 | | GRCh38.p12 | | ACTB | GENE WITH PROTEIN PRODUCT | NM_001101.5 | | ACME | RNA | TARGETED TRANSCRIPTOME SEQUENCING | DIFFERENCES OF LOG2 INTENSITIES FORMULA | 1 | VISIT 1 | 1 | 2018-09-18 | 2 |", "score": 0.4333, "match_basis": "verbatim_token+domain_route:GF"}, {"md_atom_id": "md_dmGF_ex_a016", "md_file": "knowledge_base/domains/GF/examples.md", "md_atom_type": "TABLE_ROW", "md_parent_section": "§GF.1 [Example 1]", "md_verbatim": "| 2 | ABC-123 | GF | 123101 | 2 | | SNV | Single Nucleotide Variation | PREDICTED CODING SEQUENCE CHANGE | c.1799T>A | | | | SOMATIC | GRCh38.p13 | 7 | BRAF | Gene with Protein Product | 140753336 | Exon 15 | ENSG00000157764 | rs121913227 | | ACME Labs | DNA | REAL TIME POLYMERASE CHAIN REACTION | | 1 | Screening | -25 | | |", "score": 0.4329, "match_basis": "verbatim_token+domain_route:GF"}, {"md_atom_id": "md_dmGF_ex_a062", "md_file": "knowledge_base/domains/GF/examples.md", "md_atom_type": "TABLE_ROW", "md_parent_section": "§GF.3 [Example 3]", "md_verbatim": "| 14 | ABC-123 | GF | 123101 | ACME GenePanel 250 | 14 | 1 | ABC1234567 | AP483910 | TRNSCPTN | Transcription | NORMALIZED LEVEL | -0.046787999 | | -0.046787999 | -0.046787999 | | GRCh38.p12 | | GAPDH | GENE WITH PROTEIN PRODUCT | NM_001256799.3 | | ACME | RNA | TARGETED TRANSCRIPTOME SEQUENCING | DIFFERENCES OF LOG2 INTENSITIES FORMULA | 1 | VISIT 1 | 1 | 2018-09-18 | 2 |", "score": 0.4327, "match_basis": "verbatim_token+domain_route:GF"}, {"md_atom_id": "md_dmGF_ex_a017", "md_file": "knowledge_base/domains/GF/examples.md", "md_atom_type": "TABLE_ROW", "md_parent_section": "§GF.1 [Example 1]", "md_verbatim": "| 3 | ABC-123 | GF | 123101 | 3 | | SNV | Single Nucleotide Variation | VARIANT CLASSIFICATION | Pathogenic | | | | SOMATIC | | 7 | BRAF | Gene with Protein Product | Exon 15 | | ENSG00000157764 | rs121913227 | | ACME Labs | DNA | REAL TIME POLYMERASE CHAIN REACTION | | 1 | Screening | -25 | | |", "score": 0.4324, "match_basis": "verbatim_token+domain_route:GF"}, {"md_atom_id": "md_dmGF_ex_a063", "md_file": "knowledge_base/domains/GF/examples.md", "md_atom_type": "TABLE_ROW", "md_parent_section": "§GF.3 [Example 3]", "md_verbatim": "| 15 | ABC-123 | GF | 123101 | ACME GenePanel 250 | 15 | 2 | ABC1234567 | AP483910 | GENESIG | Gene Signature | GENETIC TRANSCRIPTION INTERPRETATION | LOW | | LOW | | | GRCh38.p12 | | ACTB | GENE WITH PROTEIN PRODUCT | NM_001101.5 | | ACME | RNA | TARGETED TRANSCRIPTOME SEQUENCING | IFN-1 GENE SIGNATURE | 1 | VISIT 1 | 1 | 2018-09-18 | 2 |", "score": 0.4294, "match_basis": "verbatim_token+domain_route:GF"}], "candidate_count": 5, "zero_candidate": false}
{"pdf_atom_id": "ig34_p0221_a013", "pdf_atom_type": "TABLE_ROW", "pdf_source": "SDTMIG_v3.4", "pdf_page": 221, "pdf_parent_section": "§6.3.5.4 Genomics Findings (GF)", "pdf_verbatim": "| GFSPID | Sponsor-Defined Identifier | Char | | Identifier | Sponsor-defined identifier. | Perm |", "figure_ref": null, "candidates": [{"md_atom_id": "md_dmGF_ex_a088", "md_file": "knowledge_base/domains/GF/examples.md", "md_atom_type": "TABLE_ROW", "md_parent_section": "§GF.5 [Example 5]", "md_verbatim": "| 1 | INFLU122 | MB | INF01-01 | 1 | INFLU0101.1 | MCORGIDN | Microbial Organism Identification | INFLUENZA A VIRUS SUBTYPE | INFLUENZA A VIRUS SUBTYPE H3N2 | MUCUS | NOSTRIL | NUCLEIC ACID AMPLIFICATION TEST | 1 | BASELINE | 2020-06-11 |", "score": 0.4404, "match_basis": "verbatim_token+domain_route:GF"}, {"md_atom_id": "md_dmGF_ex_a037", "md_file": "knowledge_base/domains/GF/examples.md", "md_atom_type": "TABLE_ROW", "md_parent_section": "§GF.2 [Example 2]", "md_verbatim": "| 2 | C12345 | GF | C12345-002 | 1 | NA01001 | SNV | Single Nucleotide Variation | GENOTYPE | G/G | G/G | | GERMLINE | | | ABCG2 | | 4.88131177 | ENSG00000118777 | rs2231142 | ACME Labs | DNA | REAL TIME POLYMERASE CHAIN REACTION | 1 | SCREENING | -1 | | -25 |", "score": 0.4203, "match_basis": "verbatim_token+domain_route:GF"}, {"md_atom_id": "md_dmGF_ex_a036", "md_file": "knowledge_base/domains/GF/examples.md", "md_atom_type": "TABLE_ROW", "md_parent_section": "§GF.2 [Example 2]", "md_verbatim": "| 1 | C12345 | GF | C12345-001 | 1 | NA01001 | SNV | Single Nucleotide Variation | GENOTYPE | G/G | G/G | | GERMLINE | GRCh38.p13 | 4 | ABCG2 | | 4.88131177 | ENSG00000118777 | rs2231142 | ACME Labs | DNA | REAL TIME POLYMERASE CHAIN REACTION | 1 | SCREENING | -1 | | -25 |", "score": 0.4197, "match_basis": "verbatim_token+domain_route:GF"}, {"md_atom_id": "md_dmGF_ex_a095", "md_file": "knowledge_base/domains/GF/examples.md", "md_atom_type": "TABLE_ROW", "md_parent_section": "§GF.5 [Example 5]", "md_verbatim": "| 1 | INFLU122 | GF | INF01-01 | 1 | INFLU0101.1 | INFLUENZA A H3N2 | GF-MS-01 | SNV | Single Nucleotide Variation | PREDICTED AMINO ACID CHANGE | R292R | R292R | NA | 292 | U43427 | RNA | | 1 | BASELINE | 2020-06-11 |", "score": 0.4194, "match_basis": "verbatim_token+domain_route:GF"}, {"md_atom_id": "md_dmGF_ex_a038", "md_file": "knowledge_base/domains/GF/examples.md", "md_atom_type": "TABLE_ROW", "md_parent_section": "§GF.2 [Example 2]", "md_verbatim": "| 3 | C12345 | GF | C12345-003 | 1 | NA01001 | SNV | Single Nucleotide Variation | GENOTYPE | G/G | G/G | | GERMLINE | GRCh38.p13 | 4 | ABCG2 | GENE WITH PROTEIN PRODUCT | 4.88131177 | ENSG00000118777 | rs2231142 | ACME Labs | DNA | REAL TIME POLYMERASE CHAIN REACTION | 1 | SCREENING | -1 | 2020-06-3 | -3 |", "score": 0.4175, "match_basis": "verbatim_token+domain_route:GF"}], "candidate_count": 5, "zero_candidate": false}
{"pdf_atom_id": "ig34_p0221_a014", "pdf_atom_type": "TABLE_ROW", "pdf_source": "SDTMIG_v3.4", "pdf_page": 221, "pdf_parent_section": "§6.3.5.4 Genomics Findings (GF)", "pdf_verbatim": "| GFLNKID | Link ID | Char | | Identifier | Identifier used to link related records across domains. This may be a one-to-one or a one-to-many relationship. | Perm |", "figure_ref": null, "candidates": [{"md_atom_id": "md_dmGF_ex_a109", "md_file": "knowledge_base/domains/GF/examples.md", "md_atom_type": "TABLE_ROW", "md_parent_section": "§GF.5 [Example 5]", "md_verbatim": "| 1 | PS001 | GF | | GFLNKID | | ONE | 1 |", "score": 0.4643, "match_basis": "verbatim_token+domain_route:GF"}, {"md_atom_id": "md_dmGF_ex_a088", "md_file": "knowledge_base/domains/GF/examples.md", "md_atom_type": "TABLE_ROW", "md_parent_section": "§GF.5 [Example 5]", "md_verbatim": "| 1 | INFLU122 | MB | INF01-01 | 1 | INFLU0101.1 | MCORGIDN | Microbial Organism Identification | INFLUENZA A VIRUS SUBTYPE | INFLUENZA A VIRUS SUBTYPE H3N2 | MUCUS | NOSTRIL | NUCLEIC ACID AMPLIFICATION TEST | 1 | BASELINE | 2020-06-11 |", "score": 0.4571, "match_basis": "verbatim_token+domain_route:GF"}, {"md_atom_id": "md_dmGF_ex_a110", "md_file": "knowledge_base/domains/GF/examples.md", "md_atom_type": "TABLE_ROW", "md_parent_section": "§GF.5 [Example 5]", "md_verbatim": "| 2 | PS001 | MS | | MSLNKID | | ONE | 1 |", "score": 0.4414, "match_basis": "verbatim_token+domain_route:GF"}, {"md_atom_id": "md_dmGF_ex_a095", "md_file": "knowledge_base/domains/GF/examples.md", "md_atom_type": "TABLE_ROW", "md_parent_section": "§GF.5 [Example 5]", "md_verbatim": "| 1 | INFLU122 | GF | INF01-01 | 1 | INFLU0101.1 | INFLUENZA A H3N2 | GF-MS-01 | SNV | Single Nucleotide Variation | PREDICTED AMINO ACID CHANGE | R292R | R292R | NA | 292 | U43427 | RNA | | 1 | BASELINE | 2020-06-11 |", "score": 0.4362, "match_basis": "verbatim_token+domain_route:GF"}, {"md_atom_id": "md_dmGF_ex_a037", "md_file": "knowledge_base/domains/GF/examples.md", "md_atom_type": "TABLE_ROW", "md_parent_section": "§GF.2 [Example 2]", "md_verbatim": "| 2 | C12345 | GF | C12345-002 | 1 | NA01001 | SNV | Single Nucleotide Variation | GENOTYPE | G/G | G/G | | GERMLINE | | | ABCG2 | | 4.88131177 | ENSG00000118777 | rs2231142 | ACME Labs | DNA | REAL TIME POLYMERASE CHAIN REACTION | 1 | SCREENING | -1 | | -25 |", "score": 0.434, "match_basis": "verbatim_token+domain_route:GF"}], "candidate_count": 5, "zero_candidate": false}
{"pdf_atom_id": "ig34_p0221_a015", "pdf_atom_type": "TABLE_ROW", "pdf_source": "SDTMIG_v3.4", "pdf_page": 221, "pdf_parent_section": "§6.3.5.4 Genomics Findings (GF)", "pdf_verbatim": "| GFLNKGRP | Link Group ID | Char | | Identifier | Identifier used to link related records across domains. This will usually be a many-to-one relationship. | Perm |", "figure_ref": null, "candidates": [{"md_atom_id": "md_dmGF_ex_a088", "md_file": "knowledge_base/domains/GF/examples.md", "md_atom_type": "TABLE_ROW", "md_parent_section": "§GF.5 [Example 5]", "md_verbatim": "| 1 | INFLU122 | MB | INF01-01 | 1 | INFLU0101.1 | MCORGIDN | Microbial Organism Identification | INFLUENZA A VIRUS SUBTYPE | INFLUENZA A VIRUS SUBTYPE H3N2 | MUCUS | NOSTRIL | NUCLEIC ACID AMPLIFICATION TEST | 1 | BASELINE | 2020-06-11 |", "score": 0.4529, "match_basis": "verbatim_token+domain_route:GF"}, {"md_atom_id": "md_dmGF_ex_a109", "md_file": "knowledge_base/domains/GF/examples.md", "md_atom_type": "TABLE_ROW", "md_parent_section": "§GF.5 [Example 5]", "md_verbatim": "| 1 | PS001 | GF | | GFLNKID | | ONE | 1 |", "score": 0.4353, "match_basis": "verbatim_token+domain_route:GF"}, {"md_atom_id": "md_dmGF_ex_a081", "md_file": "knowledge_base/domains/GF/examples.md", "md_atom_type": "TABLE_ROW", "md_parent_section": "§GF.4 [Example 4]", "md_verbatim": "| 5 | ABC123 | GF | 123101 | 5 | 4401470-2-6 | MICRISTB | Microsatellite Instability | DETECTION | Not Detected | Not Detected | NR-21 | msi_abc_gf.csv | ACME Laboratories | DNA | CAPILLARY ELECTROPHORESIS | MS-D10418 | 1 | VISIT 1 | 1 | 2020-02-04 | -2 |", "score": 0.4333, "match_basis": "verbatim_token+domain_route:GF"}, {"md_atom_id": "md_dmGF_ex_a082", "md_file": "knowledge_base/domains/GF/examples.md", "md_atom_type": "TABLE_ROW", "md_parent_section": "§GF.4 [Example 4]", "md_verbatim": "| 6 | ABC123 | GF | 123101 | 6 | 4401470-2-6 | MICRISTB | Microsatellite Instability | DETECTION | Not Detected | Not Detected | NR-24 | msi_abc_gf.csv | ACME Laboratories | DNA | CAPILLARY ELECTROPHORESIS | MS-D10418 | 1 | VISIT 1 | 1 | 2020-02-04 | -2 |", "score": 0.4333, "match_basis": "verbatim_token+domain_route:GF"}, {"md_atom_id": "md_dmGF_ex_a095", "md_file": "knowledge_base/domains/GF/examples.md", "md_atom_type": "TABLE_ROW", "md_parent_section": "§GF.5 [Example 5]", "md_verbatim": "| 1 | INFLU122 | GF | INF01-01 | 1 | INFLU0101.1 | INFLUENZA A H3N2 | GF-MS-01 | SNV | Single Nucleotide Variation | PREDICTED AMINO ACID CHANGE | R292R | R292R | NA | 292 | U43427 | RNA | | 1 | BASELINE | 2020-06-11 |", "score": 0.4333, "match_basis": "verbatim_token+domain_route:GF"}], "candidate_count": 5, "zero_candidate": false}
{"pdf_atom_id": "ig34_p0221_a016", "pdf_atom_type": "TABLE_ROW", "pdf_source": "SDTMIG_v3.4", "pdf_page": 221, "pdf_parent_section": "§6.3.5.4 Genomics Findings (GF)", "pdf_verbatim": "| GFTESTCD | Short Name of Genomic Measurement | Char | (GFTESTCD) | Topic | Short name of the measurement, test, or examination described in GFTEST. It can be used as a column name when converting a dataset from a vertical to a horizontal format. The value in GFTESTCD cannot be longer than 8 characters, nor can it start with a number (e.g., \"1TEST\" is not valid). GFTESTCD cannot contain characters other than letters, numbers, or underscores. | Req |", "figure_ref": null, "candidates": [{"md_atom_id": "md_dmGF_ex_a023", "md_file": "knowledge_base/domains/GF/examples.md", "md_atom_type": "TABLE_ROW", "md_parent_section": "§GF.1 [Example 1]", "md_verbatim": "| 9 | ABC-123 | GF | 123101 | 9 | | CNV | Copy Number Variation | INTERPRETATION | AMPLIFICATION | | | | SOMATIC | | 7 | BRAF | Gene with Protein Product | | | ENSG00000157764 | | | ACME Labs | DNA | REAL TIME POLYMERASE CHAIN REACTION | | 1 | Screening | -25 | | |", "score": 0.4577, "match_basis": "verbatim_token+domain_route:GF"}, {"md_atom_id": "md_dmGF_ex_a021", "md_file": "knowledge_base/domains/GF/examples.md", "md_atom_type": "TABLE_ROW", "md_parent_section": "§GF.1 [Example 1]", "md_verbatim": "| 7 | ABC-123 | GF | 123101 | 7 | | CNV | Copy Number Variation | EXON COPY NUMBER ALTERATION | | | 3 | | SOMATIC | | 7 | BRAF | Gene with Protein Product | | | ENSG00000157764 | | | ACME Labs | DNA | REAL TIME POLYMERASE CHAIN REACTION | | 1 | Screening | -25 | | |", "score": 0.4576, "match_basis": "verbatim_token+domain_route:GF"}, {"md_atom_id": "md_dmGF_ex_a020", "md_file": "knowledge_base/domains/GF/examples.md", "md_atom_type": "TABLE_ROW", "md_parent_section": "§GF.1 [Example 1]", "md_verbatim": "| 6 | ABC-123 | GF | 123101 | 6 | | CNV | Copy Number Variation | COPY NUMBER | | | 5 | | SOMATIC | | 7 | BRAF | Gene with Protein Product | | | ENSG00000157764 | | | ACME Labs | DNA | REAL TIME POLYMERASE CHAIN REACTION | | 1 | Screening | -25 | | |", "score": 0.456, "match_basis": "verbatim_token+domain_route:GF"}, {"md_atom_id": "md_dmGF_ex_a022", "md_file": "knowledge_base/domains/GF/examples.md", "md_atom_type": "TABLE_ROW", "md_parent_section": "§GF.1 [Example 1]", "md_verbatim": "| 8 | ABC-123 | GF | 123101 | 8 | | CNV | Copy Number Variation | COPY NUMBER RATIO | | | 2.5 | | SOMATIC | | 7 | BRAF | Gene with Protein Product | | | ENSG00000157764 | | | ACME Labs | DNA | REAL TIME POLYMERASE CHAIN REACTION | | 1 | Screening | -25 | | |", "score": 0.4557, "match_basis": "verbatim_token+domain_route:GF"}, {"md_atom_id": "md_dmGF_ex_a015", "md_file": "knowledge_base/domains/GF/examples.md", "md_atom_type": "TABLE_ROW", "md_parent_section": "§GF.1 [Example 1]", "md_verbatim": "| 1 | ABC-123 | GF | 123101 | 1 | | SNV | Single Nucleotide Variation | PREDICTED AMINO ACID CHANGE | p.Val600Glu | | | | SOMATIC | | 7 | BRAF | Gene with Protein Product | Exon 15 | | ENSG00000157764 | rs121913227 | | ACME Labs | DNA | REAL TIME POLYMERASE CHAIN REACTION | | 1 | Screening | -25 | | |", "score": 0.4524, "match_basis": "verbatim_token+domain_route:GF"}], "candidate_count": 5, "zero_candidate": false}
{"pdf_atom_id": "ig34_p0221_a017", "pdf_atom_type": "TABLE_ROW", "pdf_source": "SDTMIG_v3.4", "pdf_page": 221, "pdf_parent_section": "§6.3.5.4 Genomics Findings (GF)", "pdf_verbatim": "| GFTEST | Name of Genomic Measurement | Char | (GFTEST) | Synonym Qualifier | Long name for GFTESTCD. The value in GFTEST cannot be longer than 40 characters. | Req |", "figure_ref": null, "candidates": [{"md_atom_id": "md_dmGF_ex_a088", "md_file": "knowledge_base/domains/GF/examples.md", "md_atom_type": "TABLE_ROW", "md_parent_section": "§GF.5 [Example 5]", "md_verbatim": "| 1 | INFLU122 | MB | INF01-01 | 1 | INFLU0101.1 | MCORGIDN | Microbial Organism Identification | INFLUENZA A VIRUS SUBTYPE | INFLUENZA A VIRUS SUBTYPE H3N2 | MUCUS | NOSTRIL | NUCLEIC ACID AMPLIFICATION TEST | 1 | BASELINE | 2020-06-11 |", "score": 0.4309, "match_basis": "verbatim_token+domain_route:GF"}, {"md_atom_id": "md_dmGF_ex_a096", "md_file": "knowledge_base/domains/GF/examples.md", "md_atom_type": "TABLE_ROW", "md_parent_section": "§GF.5 [Example 5]", "md_verbatim": "| 2 | INFLU122 | GF | INF01-01 | 2 | INFLU0102 | INFLUENZA A H3N2 | GF-MS-02 | SNV | Single Nucleotide Variation | PREDICTED AMINO ACID CHANGE | R292K | R292K | NA | 292 | U43427 | RNA | | 2 | DAY 2 | 2020-06-12 |", "score": 0.4254, "match_basis": "verbatim_token+domain_route:GF"}, {"md_atom_id": "md_dmGF_ex_a097", "md_file": "knowledge_base/domains/GF/examples.md", "md_atom_type": "TABLE_ROW", "md_parent_section": "§GF.5 [Example 5]", "md_verbatim": "| 3 | INFLU122 | GF | INF01-01 | 3 | INFLU0103 | INFLUENZA A H3N2 | GF-MS-03 | SNV | Single Nucleotide Variation | PREDICTED AMINO ACID CHANGE | R292K | R292K | NA | 292 | U43427 | RNA | | 3 | DAY 5 | 2020-06-15 |", "score": 0.4254, "match_basis": "verbatim_token+domain_route:GF"}, {"md_atom_id": "md_dmGF_ex_a015", "md_file": "knowledge_base/domains/GF/examples.md", "md_atom_type": "TABLE_ROW", "md_parent_section": "§GF.1 [Example 1]", "md_verbatim": "| 1 | ABC-123 | GF | 123101 | 1 | | SNV | Single Nucleotide Variation | PREDICTED AMINO ACID CHANGE | p.Val600Glu | | | | SOMATIC | | 7 | BRAF | Gene with Protein Product | Exon 15 | | ENSG00000157764 | rs121913227 | | ACME Labs | DNA | REAL TIME POLYMERASE CHAIN REACTION | | 1 | Screening | -25 | | |", "score": 0.425, "match_basis": "verbatim_token+domain_route:GF"}, {"md_atom_id": "md_dmGF_ex_a095", "md_file": "knowledge_base/domains/GF/examples.md", "md_atom_type": "TABLE_ROW", "md_parent_section": "§GF.5 [Example 5]", "md_verbatim": "| 1 | INFLU122 | GF | INF01-01 | 1 | INFLU0101.1 | INFLUENZA A H3N2 | GF-MS-01 | SNV | Single Nucleotide Variation | PREDICTED AMINO ACID CHANGE | R292R | R292R | NA | 292 | U43427 | RNA | | 1 | BASELINE | 2020-06-11 |", "score": 0.4244, "match_basis": "verbatim_token+domain_route:GF"}], "candidate_count": 5, "zero_candidate": false}
{"pdf_atom_id": "ig34_p0221_a018", "pdf_atom_type": "TABLE_ROW", "pdf_source": "SDTMIG_v3.4", "pdf_page": 221, "pdf_parent_section": "§6.3.5.4 Genomics Findings (GF)", "pdf_verbatim": "| GFTSDTL | Measurement, Test, or Examination Detail | Char | (GFTSDTL) | Variable Qualifier | Description of a reportable qualifying the assessment in GFTESTCD and GFTEST. | Perm |", "figure_ref": null, "candidates": [{"md_atom_id": "md_dmGF_ex_a096", "md_file": "knowledge_base/domains/GF/examples.md", "md_atom_type": "TABLE_ROW", "md_parent_section": "§GF.5 [Example 5]", "md_verbatim": "| 2 | INFLU122 | GF | INF01-01 | 2 | INFLU0102 | INFLUENZA A H3N2 | GF-MS-02 | SNV | Single Nucleotide Variation | PREDICTED AMINO ACID CHANGE | R292K | R292K | NA | 292 | U43427 | RNA | | 2 | DAY 2 | 2020-06-12 |", "score": 0.4465, "match_basis": "verbatim_token+domain_route:GF"}, {"md_atom_id": "md_dmGF_ex_a097", "md_file": "knowledge_base/domains/GF/examples.md", "md_atom_type": "TABLE_ROW", "md_parent_section": "§GF.5 [Example 5]", "md_verbatim": "| 3 | INFLU122 | GF | INF01-01 | 3 | INFLU0103 | INFLUENZA A H3N2 | GF-MS-03 | SNV | Single Nucleotide Variation | PREDICTED AMINO ACID CHANGE | R292K | R292K | NA | 292 | U43427 | RNA | | 3 | DAY 5 | 2020-06-15 |", "score": 0.4465, "match_basis": "verbatim_token+domain_route:GF"}, {"md_atom_id": "md_dmGF_ex_a023", "md_file": "knowledge_base/domains/GF/examples.md", "md_atom_type": "TABLE_ROW", "md_parent_section": "§GF.1 [Example 1]", "md_verbatim": "| 9 | ABC-123 | GF | 123101 | 9 | | CNV | Copy Number Variation | INTERPRETATION | AMPLIFICATION | | | | SOMATIC | | 7 | BRAF | Gene with Protein Product | | | ENSG00000157764 | | | ACME Labs | DNA | REAL TIME POLYMERASE CHAIN REACTION | | 1 | Screening | -25 | | |", "score": 0.4456, "match_basis": "verbatim_token+domain_route:GF"}, {"md_atom_id": "md_dmGF_ex_a095", "md_file": "knowledge_base/domains/GF/examples.md", "md_atom_type": "TABLE_ROW", "md_parent_section": "§GF.5 [Example 5]", "md_verbatim": "| 1 | INFLU122 | GF | INF01-01 | 1 | INFLU0101.1 | INFLUENZA A H3N2 | GF-MS-01 | SNV | Single Nucleotide Variation | PREDICTED AMINO ACID CHANGE | R292R | R292R | NA | 292 | U43427 | RNA | | 1 | BASELINE | 2020-06-11 |", "score": 0.4448, "match_basis": "verbatim_token+domain_route:GF"}, {"md_atom_id": "md_dmGF_ex_a063", "md_file": "knowledge_base/domains/GF/examples.md", "md_atom_type": "TABLE_ROW", "md_parent_section": "§GF.3 [Example 3]", "md_verbatim": "| 15 | ABC-123 | GF | 123101 | ACME GenePanel 250 | 15 | 2 | ABC1234567 | AP483910 | GENESIG | Gene Signature | GENETIC TRANSCRIPTION INTERPRETATION | LOW | | LOW | | | GRCh38.p12 | | ACTB | GENE WITH PROTEIN PRODUCT | NM_001101.5 | | ACME | RNA | TARGETED TRANSCRIPTOME SEQUENCING | IFN-1 GENE SIGNATURE | 1 | VISIT 1 | 1 | 2018-09-18 | 2 |", "score": 0.4429, "match_basis": "verbatim_token+domain_route:GF"}], "candidate_count": 5, "zero_candidate": false}
{"pdf_atom_id": "ig34_p0221_a019", "pdf_atom_type": "TABLE_ROW", "pdf_source": "SDTMIG_v3.4", "pdf_page": 221, "pdf_parent_section": "§6.3.5.4 Genomics Findings (GF)", "pdf_verbatim": "| GFCAT | Category for Genomic Finding | Char | | Grouping Qualifier | Used to define a category of topic-variable values. | Perm |", "figure_ref": null, "candidates": [{"md_atom_id": "md_dmGF_ex_a023", "md_file": "knowledge_base/domains/GF/examples.md", "md_atom_type": "TABLE_ROW", "md_parent_section": "§GF.1 [Example 1]", "md_verbatim": "| 9 | ABC-123 | GF | 123101 | 9 | | CNV | Copy Number Variation | INTERPRETATION | AMPLIFICATION | | | | SOMATIC | | 7 | BRAF | Gene with Protein Product | | | ENSG00000157764 | | | ACME Labs | DNA | REAL TIME POLYMERASE CHAIN REACTION | | 1 | Screening | -25 | | |", "score": 0.4386, "match_basis": "verbatim_token+domain_route:GF"}, {"md_atom_id": "md_dmGF_ex_a037", "md_file": "knowledge_base/domains/GF/examples.md", "md_atom_type": "TABLE_ROW", "md_parent_section": "§GF.2 [Example 2]", "md_verbatim": "| 2 | C12345 | GF | C12345-002 | 1 | NA01001 | SNV | Single Nucleotide Variation | GENOTYPE | G/G | G/G | | GERMLINE | | | ABCG2 | | 4.88131177 | ENSG00000118777 | rs2231142 | ACME Labs | DNA | REAL TIME POLYMERASE CHAIN REACTION | 1 | SCREENING | -1 | | -25 |", "score": 0.4386, "match_basis": "verbatim_token+domain_route:GF"}, {"md_atom_id": "md_dmGF_ex_a036", "md_file": "knowledge_base/domains/GF/examples.md", "md_atom_type": "TABLE_ROW", "md_parent_section": "§GF.2 [Example 2]", "md_verbatim": "| 1 | C12345 | GF | C12345-001 | 1 | NA01001 | SNV | Single Nucleotide Variation | GENOTYPE | G/G | G/G | | GERMLINE | GRCh38.p13 | 4 | ABCG2 | | 4.88131177 | ENSG00000118777 | rs2231142 | ACME Labs | DNA | REAL TIME POLYMERASE CHAIN REACTION | 1 | SCREENING | -1 | | -25 |", "score": 0.4375, "match_basis": "verbatim_token+domain_route:GF"}, {"md_atom_id": "md_dmGF_ex_a095", "md_file": "knowledge_base/domains/GF/examples.md", "md_atom_type": "TABLE_ROW", "md_parent_section": "§GF.5 [Example 5]", "md_verbatim": "| 1 | INFLU122 | GF | INF01-01 | 1 | INFLU0101.1 | INFLUENZA A H3N2 | GF-MS-01 | SNV | Single Nucleotide Variation | PREDICTED AMINO ACID CHANGE | R292R | R292R | NA | 292 | U43427 | RNA | | 1 | BASELINE | 2020-06-11 |", "score": 0.4362, "match_basis": "verbatim_token+domain_route:GF"}, {"md_atom_id": "md_dmGF_ex_a038", "md_file": "knowledge_base/domains/GF/examples.md", "md_atom_type": "TABLE_ROW", "md_parent_section": "§GF.2 [Example 2]", "md_verbatim": "| 3 | C12345 | GF | C12345-003 | 1 | NA01001 | SNV | Single Nucleotide Variation | GENOTYPE | G/G | G/G | | GERMLINE | GRCh38.p13 | 4 | ABCG2 | GENE WITH PROTEIN PRODUCT | 4.88131177 | ENSG00000118777 | rs2231142 | ACME Labs | DNA | REAL TIME POLYMERASE CHAIN REACTION | 1 | SCREENING | -1 | 2020-06-3 | -3 |", "score": 0.434, "match_basis": "verbatim_token+domain_route:GF"}], "candidate_count": 5, "zero_candidate": false}
{"pdf_atom_id": "ig34_p0221_a020", "pdf_atom_type": "TABLE_ROW", "pdf_source": "SDTMIG_v3.4", "pdf_page": 221, "pdf_parent_section": "§6.3.5.4 Genomics Findings (GF)", "pdf_verbatim": "| GFSCAT | Subcategory for Genomic Finding | Char | | Grouping Qualifier | Used to define a further categorization of GFCAT values. | Perm |", "figure_ref": null, "candidates": [{"md_atom_id": "md_dmGF_ex_a088", "md_file": "knowledge_base/domains/GF/examples.md", "md_atom_type": "TABLE_ROW", "md_parent_section": "§GF.5 [Example 5]", "md_verbatim": "| 1 | INFLU122 | MB | INF01-01 | 1 | INFLU0101.1 | MCORGIDN | Microbial Organism Identification | INFLUENZA A VIRUS SUBTYPE | INFLUENZA A VIRUS SUBTYPE H3N2 | MUCUS | NOSTRIL | NUCLEIC ACID AMPLIFICATION TEST | 1 | BASELINE | 2020-06-11 |", "score": 0.4438, "match_basis": "verbatim_token+domain_route:GF"}, {"md_atom_id": "md_dmGF_ex_a023", "md_file": "knowledge_base/domains/GF/examples.md", "md_atom_type": "TABLE_ROW", "md_parent_section": "§GF.1 [Example 1]", "md_verbatim": "| 9 | ABC-123 | GF | 123101 | 9 | | CNV | Copy Number Variation | INTERPRETATION | AMPLIFICATION | | | | SOMATIC | | 7 | BRAF | Gene with Protein Product | | | ENSG00000157764 | | | ACME Labs | DNA | REAL TIME POLYMERASE CHAIN REACTION | | 1 | Screening | -25 | | |", "score": 0.4362, "match_basis": "verbatim_token+domain_route:GF"}, {"md_atom_id": "md_dmGF_ex_a037", "md_file": "knowledge_base/domains/GF/examples.md", "md_atom_type": "TABLE_ROW", "md_parent_section": "§GF.2 [Example 2]", "md_verbatim": "| 2 | C12345 | GF | C12345-002 | 1 | NA01001 | SNV | Single Nucleotide Variation | GENOTYPE | G/G | G/G | | GERMLINE | | | ABCG2 | | 4.88131177 | ENSG00000118777 | rs2231142 | ACME Labs | DNA | REAL TIME POLYMERASE CHAIN REACTION | 1 | SCREENING | -1 | | -25 |", "score": 0.4362, "match_basis": "verbatim_token+domain_route:GF"}, {"md_atom_id": "md_dmGF_ex_a036", "md_file": "knowledge_base/domains/GF/examples.md", "md_atom_type": "TABLE_ROW", "md_parent_section": "§GF.2 [Example 2]", "md_verbatim": "| 1 | C12345 | GF | C12345-001 | 1 | NA01001 | SNV | Single Nucleotide Variation | GENOTYPE | G/G | G/G | | GERMLINE | GRCh38.p13 | 4 | ABCG2 | | 4.88131177 | ENSG00000118777 | rs2231142 | ACME Labs | DNA | REAL TIME POLYMERASE CHAIN REACTION | 1 | SCREENING | -1 | | -25 |", "score": 0.4353, "match_basis": "verbatim_token+domain_route:GF"}, {"md_atom_id": "md_dmGF_ex_a095", "md_file": "knowledge_base/domains/GF/examples.md", "md_atom_type": "TABLE_ROW", "md_parent_section": "§GF.5 [Example 5]", "md_verbatim": "| 1 | INFLU122 | GF | INF01-01 | 1 | INFLU0101.1 | INFLUENZA A H3N2 | GF-MS-01 | SNV | Single Nucleotide Variation | PREDICTED AMINO ACID CHANGE | R292R | R292R | NA | 292 | U43427 | RNA | | 1 | BASELINE | 2020-06-11 |", "score": 0.4336, "match_basis": "verbatim_token+domain_route:GF"}], "candidate_count": 5, "zero_candidate": false}
{"pdf_atom_id": "ig34_p0221_a021", "pdf_atom_type": "TABLE_ROW", "pdf_source": "SDTMIG_v3.4", "pdf_page": 221, "pdf_parent_section": "§6.3.5.4 Genomics Findings (GF)", "pdf_verbatim": "| GFORRES | Result or Finding in Original Units | Char | | Result Qualifier | Result of the measurement or finding as originally received or collected. | Exp |", "figure_ref": null, "candidates": [{"md_atom_id": "md_dmGF_ex_a081", "md_file": "knowledge_base/domains/GF/examples.md", "md_atom_type": "TABLE_ROW", "md_parent_section": "§GF.4 [Example 4]", "md_verbatim": "| 5 | ABC123 | GF | 123101 | 5 | 4401470-2-6 | MICRISTB | Microsatellite Instability | DETECTION | Not Detected | Not Detected | NR-21 | msi_abc_gf.csv | ACME Laboratories | DNA | CAPILLARY ELECTROPHORESIS | MS-D10418 | 1 | VISIT 1 | 1 | 2020-02-04 | -2 |", "score": 0.4257, "match_basis": "verbatim_token+domain_route:GF"}, {"md_atom_id": "md_dmGF_ex_a082", "md_file": "knowledge_base/domains/GF/examples.md", "md_atom_type": "TABLE_ROW", "md_parent_section": "§GF.4 [Example 4]", "md_verbatim": "| 6 | ABC123 | GF | 123101 | 6 | 4401470-2-6 | MICRISTB | Microsatellite Instability | DETECTION | Not Detected | Not Detected | NR-24 | msi_abc_gf.csv | ACME Laboratories | DNA | CAPILLARY ELECTROPHORESIS | MS-D10418 | 1 | VISIT 1 | 1 | 2020-02-04 | -2 |", "score": 0.4257, "match_basis": "verbatim_token+domain_route:GF"}, {"md_atom_id": "md_dmGF_ex_a078", "md_file": "knowledge_base/domains/GF/examples.md", "md_atom_type": "TABLE_ROW", "md_parent_section": "§GF.4 [Example 4]", "md_verbatim": "| 2 | ABC123 | GF | 123101 | 2 | 4401470-2-6 | MICRISTB | Microsatellite Instability | DETECTION | Not Detected | Not Detected | BAT-25 | msi_abc_gf.csv | ACME Laboratories | DNA | CAPILLARY ELECTROPHORESIS | MS-D10418 | 1 | VISIT 1 | 1 | 2020-02-04 | -2 |", "score": 0.4255, "match_basis": "verbatim_token+domain_route:GF"}, {"md_atom_id": "md_dmGF_ex_a079", "md_file": "knowledge_base/domains/GF/examples.md", "md_atom_type": "TABLE_ROW", "md_parent_section": "§GF.4 [Example 4]", "md_verbatim": "| 3 | ABC123 | GF | 123101 | 3 | 4401470-2-6 | MICRISTB | Microsatellite Instability | DETECTION | Not Detected | Not Detected | BAT-26 | msi_abc_gf.csv | ACME Laboratories | DNA | CAPILLARY ELECTROPHORESIS | MS-D10418 | 1 | VISIT 1 | 1 | 2020-02-04 | -2 |", "score": 0.4255, "match_basis": "verbatim_token+domain_route:GF"}, {"md_atom_id": "md_dmGF_ex_a080", "md_file": "knowledge_base/domains/GF/examples.md", "md_atom_type": "TABLE_ROW", "md_parent_section": "§GF.4 [Example 4]", "md_verbatim": "| 4 | ABC123 | GF | 123101 | 4 | 4401470-2-6 | MICRISTB | Microsatellite Instability | DETECTION | Not Detected | Not Detected | MONO-27 | msi_abc_gf.csv | ACME Laboratories | DNA | CAPILLARY ELECTROPHORESIS | MS-D10418 | 1 | VISIT 1 | 1 | 2020-02-04 | -2 |", "score": 0.4254, "match_basis": "verbatim_token+domain_route:GF"}], "candidate_count": 5, "zero_candidate": false}
{"pdf_atom_id": "ig34_p0221_a022", "pdf_atom_type": "TABLE_ROW", "pdf_source": "SDTMIG_v3.4", "pdf_page": 221, "pdf_parent_section": "§6.3.5.4 Genomics Findings (GF)", "pdf_verbatim": "| GFORRESU | Original Units | Char | (UNIT) | Variable Qualifier | Unit for GFORRES. | Perm |", "figure_ref": null, "candidates": [{"md_atom_id": "md_dmGF_ex_a023", "md_file": "knowledge_base/domains/GF/examples.md", "md_atom_type": "TABLE_ROW", "md_parent_section": "§GF.1 [Example 1]", "md_verbatim": "| 9 | ABC-123 | GF | 123101 | 9 | | CNV | Copy Number Variation | INTERPRETATION | AMPLIFICATION | | | | SOMATIC | | 7 | BRAF | Gene with Protein Product | | | ENSG00000157764 | | | ACME Labs | DNA | REAL TIME POLYMERASE CHAIN REACTION | | 1 | Screening | -25 | | |", "score": 0.4295, "match_basis": "verbatim_token+domain_route:GF"}, {"md_atom_id": "md_dmGF_ex_a096", "md_file": "knowledge_base/domains/GF/examples.md", "md_atom_type": "TABLE_ROW", "md_parent_section": "§GF.5 [Example 5]", "md_verbatim": "| 2 | INFLU122 | GF | INF01-01 | 2 | INFLU0102 | INFLUENZA A H3N2 | GF-MS-02 | SNV | Single Nucleotide Variation | PREDICTED AMINO ACID CHANGE | R292K | R292K | NA | 292 | U43427 | RNA | | 2 | DAY 2 | 2020-06-12 |", "score": 0.4258, "match_basis": "verbatim_token+domain_route:GF"}, {"md_atom_id": "md_dmGF_ex_a097", "md_file": "knowledge_base/domains/GF/examples.md", "md_atom_type": "TABLE_ROW", "md_parent_section": "§GF.5 [Example 5]", "md_verbatim": "| 3 | INFLU122 | GF | INF01-01 | 3 | INFLU0103 | INFLUENZA A H3N2 | GF-MS-03 | SNV | Single Nucleotide Variation | PREDICTED AMINO ACID CHANGE | R292K | R292K | NA | 292 | U43427 | RNA | | 3 | DAY 5 | 2020-06-15 |", "score": 0.4258, "match_basis": "verbatim_token+domain_route:GF"}, {"md_atom_id": "md_dmGF_ex_a095", "md_file": "knowledge_base/domains/GF/examples.md", "md_atom_type": "TABLE_ROW", "md_parent_section": "§GF.5 [Example 5]", "md_verbatim": "| 1 | INFLU122 | GF | INF01-01 | 1 | INFLU0101.1 | INFLUENZA A H3N2 | GF-MS-01 | SNV | Single Nucleotide Variation | PREDICTED AMINO ACID CHANGE | R292R | R292R | NA | 292 | U43427 | RNA | | 1 | BASELINE | 2020-06-11 |", "score": 0.4245, "match_basis": "verbatim_token+domain_route:GF"}, {"md_atom_id": "md_dmGF_ex_a037", "md_file": "knowledge_base/domains/GF/examples.md", "md_atom_type": "TABLE_ROW", "md_parent_section": "§GF.2 [Example 2]", "md_verbatim": "| 2 | C12345 | GF | C12345-002 | 1 | NA01001 | SNV | Single Nucleotide Variation | GENOTYPE | G/G | G/G | | GERMLINE | | | ABCG2 | | 4.88131177 | ENSG00000118777 | rs2231142 | ACME Labs | DNA | REAL TIME POLYMERASE CHAIN REACTION | 1 | SCREENING | -1 | | -25 |", "score": 0.4244, "match_basis": "verbatim_token+domain_route:GF"}], "candidate_count": 5, "zero_candidate": false}
{"pdf_atom_id": "ig34_p0221_a023", "pdf_atom_type": "TABLE_ROW", "pdf_source": "SDTMIG_v3.4", "pdf_page": 221, "pdf_parent_section": "§6.3.5.4 Genomics Findings (GF)", "pdf_verbatim": "| GFORREF | Reference Result in Original Units | Char | | Variable Qualifier | Reference value for the result or finding as originally received or collected. GFORREF uses the same units as GFORRES, if applicable. | Perm |", "figure_ref": null, "candidates": [{"md_atom_id": "md_dmGF_ex_a096", "md_file": "knowledge_base/domains/GF/examples.md", "md_atom_type": "TABLE_ROW", "md_parent_section": "§GF.5 [Example 5]", "md_verbatim": "| 2 | INFLU122 | GF | INF01-01 | 2 | INFLU0102 | INFLUENZA A H3N2 | GF-MS-02 | SNV | Single Nucleotide Variation | PREDICTED AMINO ACID CHANGE | R292K | R292K | NA | 292 | U43427 | RNA | | 2 | DAY 2 | 2020-06-12 |", "score": 0.4364, "match_basis": "verbatim_token+domain_route:GF"}, {"md_atom_id": "md_dmGF_ex_a097", "md_file": "knowledge_base/domains/GF/examples.md", "md_atom_type": "TABLE_ROW", "md_parent_section": "§GF.5 [Example 5]", "md_verbatim": "| 3 | INFLU122 | GF | INF01-01 | 3 | INFLU0103 | INFLUENZA A H3N2 | GF-MS-03 | SNV | Single Nucleotide Variation | PREDICTED AMINO ACID CHANGE | R292K | R292K | NA | 292 | U43427 | RNA | | 3 | DAY 5 | 2020-06-15 |", "score": 0.4364, "match_basis": "verbatim_token+domain_route:GF"}, {"md_atom_id": "md_dmGF_ex_a095", "md_file": "knowledge_base/domains/GF/examples.md", "md_atom_type": "TABLE_ROW", "md_parent_section": "§GF.5 [Example 5]", "md_verbatim": "| 1 | INFLU122 | GF | INF01-01 | 1 | INFLU0101.1 | INFLUENZA A H3N2 | GF-MS-01 | SNV | Single Nucleotide Variation | PREDICTED AMINO ACID CHANGE | R292R | R292R | NA | 292 | U43427 | RNA | | 1 | BASELINE | 2020-06-11 |", "score": 0.435, "match_basis": "verbatim_token+domain_route:GF"}, {"md_atom_id": "md_dmGF_ex_a023", "md_file": "knowledge_base/domains/GF/examples.md", "md_atom_type": "TABLE_ROW", "md_parent_section": "§GF.1 [Example 1]", "md_verbatim": "| 9 | ABC-123 | GF | 123101 | 9 | | CNV | Copy Number Variation | INTERPRETATION | AMPLIFICATION | | | | SOMATIC | | 7 | BRAF | Gene with Protein Product | | | ENSG00000157764 | | | ACME Labs | DNA | REAL TIME POLYMERASE CHAIN REACTION | | 1 | Screening | -25 | | |", "score": 0.4333, "match_basis": "verbatim_token+domain_route:GF"}, {"md_atom_id": "md_dmGF_ex_a016", "md_file": "knowledge_base/domains/GF/examples.md", "md_atom_type": "TABLE_ROW", "md_parent_section": "§GF.1 [Example 1]", "md_verbatim": "| 2 | ABC-123 | GF | 123101 | 2 | | SNV | Single Nucleotide Variation | PREDICTED CODING SEQUENCE CHANGE | c.1799T>A | | | | SOMATIC | GRCh38.p13 | 7 | BRAF | Gene with Protein Product | 140753336 | Exon 15 | ENSG00000157764 | rs121913227 | | ACME Labs | DNA | REAL TIME POLYMERASE CHAIN REACTION | | 1 | Screening | -25 | | |", "score": 0.4309, "match_basis": "verbatim_token+domain_route:GF"}], "candidate_count": 5, "zero_candidate": false}
{"pdf_atom_id": "ig34_p0221_a024", "pdf_atom_type": "TABLE_ROW", "pdf_source": "SDTMIG_v3.4", "pdf_page": 221, "pdf_parent_section": "§6.3.5.4 Genomics Findings (GF)", "pdf_verbatim": "| GFSTRESC | Result or Finding in Standard Format | Char | | Result Qualifier | Contains the result value for all findings, copied or derived from GFORRES, in a standard format or in standard units. GFSTRESC should store all results or findings in character format; if results are numeric, they should also be stored in numeric format in GFSTRESN. | Exp |", "figure_ref": null, "candidates": [{"md_atom_id": "md_dmGF_ex_a023", "md_file": "knowledge_base/domains/GF/examples.md", "md_atom_type": "TABLE_ROW", "md_parent_section": "§GF.1 [Example 1]", "md_verbatim": "| 9 | ABC-123 | GF | 123101 | 9 | | CNV | Copy Number Variation | INTERPRETATION | AMPLIFICATION | | | | SOMATIC | | 7 | BRAF | Gene with Protein Product | | | ENSG00000157764 | | | ACME Labs | DNA | REAL TIME POLYMERASE CHAIN REACTION | | 1 | Screening | -25 | | |", "score": 0.4386, "match_basis": "verbatim_token+domain_route:GF"}, {"md_atom_id": "md_dmGF_ex_a021", "md_file": "knowledge_base/domains/GF/examples.md", "md_atom_type": "TABLE_ROW", "md_parent_section": "§GF.1 [Example 1]", "md_verbatim": "| 7 | ABC-123 | GF | 123101 | 7 | | CNV | Copy Number Variation | EXON COPY NUMBER ALTERATION | | | 3 | | SOMATIC | | 7 | BRAF | Gene with Protein Product | | | ENSG00000157764 | | | ACME Labs | DNA | REAL TIME POLYMERASE CHAIN REACTION | | 1 | Screening | -25 | | |", "score": 0.4333, "match_basis": "verbatim_token+domain_route:GF"}, {"md_atom_id": "md_dmGF_ex_a020", "md_file": "knowledge_base/domains/GF/examples.md", "md_atom_type": "TABLE_ROW", "md_parent_section": "§GF.1 [Example 1]", "md_verbatim": "| 6 | ABC-123 | GF | 123101 | 6 | | CNV | Copy Number Variation | COPY NUMBER | | | 5 | | SOMATIC | | 7 | BRAF | Gene with Protein Product | | | ENSG00000157764 | | | ACME Labs | DNA | REAL TIME POLYMERASE CHAIN REACTION | | 1 | Screening | -25 | | |", "score": 0.4306, "match_basis": "verbatim_token+domain_route:GF"}, {"md_atom_id": "md_dmGF_ex_a022", "md_file": "knowledge_base/domains/GF/examples.md", "md_atom_type": "TABLE_ROW", "md_parent_section": "§GF.1 [Example 1]", "md_verbatim": "| 8 | ABC-123 | GF | 123101 | 8 | | CNV | Copy Number Variation | COPY NUMBER RATIO | | | 2.5 | | SOMATIC | | 7 | BRAF | Gene with Protein Product | | | ENSG00000157764 | | | ACME Labs | DNA | REAL TIME POLYMERASE CHAIN REACTION | | 1 | Screening | -25 | | |", "score": 0.4304, "match_basis": "verbatim_token+domain_route:GF"}, {"md_atom_id": "md_dmGF_ex_a015", "md_file": "knowledge_base/domains/GF/examples.md", "md_atom_type": "TABLE_ROW", "md_parent_section": "§GF.1 [Example 1]", "md_verbatim": "| 1 | ABC-123 | GF | 123101 | 1 | | SNV | Single Nucleotide Variation | PREDICTED AMINO ACID CHANGE | p.Val600Glu | | | | SOMATIC | | 7 | BRAF | Gene with Protein Product | Exon 15 | | ENSG00000157764 | rs121913227 | | ACME Labs | DNA | REAL TIME POLYMERASE CHAIN REACTION | | 1 | Screening | -25 | | |", "score": 0.4278, "match_basis": "verbatim_token+domain_route:GF"}], "candidate_count": 5, "zero_candidate": false}
{"pdf_atom_id": "ig34_p0221_a025", "pdf_atom_type": "TABLE_ROW", "pdf_source": "SDTMIG_v3.4", "pdf_page": 221, "pdf_parent_section": "§6.3.5.4 Genomics Findings (GF)", "pdf_verbatim": "| GFSTRESN | Numeric Result/Finding in Standard Units | Num | | Result Qualifier | Used for continuous or numeric results or findings in standard format; copied in numeric format from GFSTRESC. GFSTRESN should store all numeric test results or findings. | Perm |", "figure_ref": null, "candidates": [{"md_atom_id": "md_dmGF_ex_a023", "md_file": "knowledge_base/domains/GF/examples.md", "md_atom_type": "TABLE_ROW", "md_parent_section": "§GF.1 [Example 1]", "md_verbatim": "| 9 | ABC-123 | GF | 123101 | 9 | | CNV | Copy Number Variation | INTERPRETATION | AMPLIFICATION | | | | SOMATIC | | 7 | BRAF | Gene with Protein Product | | | ENSG00000157764 | | | ACME Labs | DNA | REAL TIME POLYMERASE CHAIN REACTION | | 1 | Screening | -25 | | |", "score": 0.4264, "match_basis": "verbatim_token+domain_route:GF"}, {"md_atom_id": "md_dmGF_ex_a088", "md_file": "knowledge_base/domains/GF/examples.md", "md_atom_type": "TABLE_ROW", "md_parent_section": "§GF.5 [Example 5]", "md_verbatim": "| 1 | INFLU122 | MB | INF01-01 | 1 | INFLU0101.1 | MCORGIDN | Microbial Organism Identification | INFLUENZA A VIRUS SUBTYPE | INFLUENZA A VIRUS SUBTYPE H3N2 | MUCUS | NOSTRIL | NUCLEIC ACID AMPLIFICATION TEST | 1 | BASELINE | 2020-06-11 |", "score": 0.4242, "match_basis": "verbatim_token+domain_route:GF"}, {"md_atom_id": "md_dmGF_ex_a020", "md_file": "knowledge_base/domains/GF/examples.md", "md_atom_type": "TABLE_ROW", "md_parent_section": "§GF.1 [Example 1]", "md_verbatim": "| 6 | ABC-123 | GF | 123101 | 6 | | CNV | Copy Number Variation | COPY NUMBER | | | 5 | | SOMATIC | | 7 | BRAF | Gene with Protein Product | | | ENSG00000157764 | | | ACME Labs | DNA | REAL TIME POLYMERASE CHAIN REACTION | | 1 | Screening | -25 | | |", "score": 0.4208, "match_basis": "verbatim_token+domain_route:GF"}, {"md_atom_id": "md_dmGF_ex_a022", "md_file": "knowledge_base/domains/GF/examples.md", "md_atom_type": "TABLE_ROW", "md_parent_section": "§GF.1 [Example 1]", "md_verbatim": "| 8 | ABC-123 | GF | 123101 | 8 | | CNV | Copy Number Variation | COPY NUMBER RATIO | | | 2.5 | | SOMATIC | | 7 | BRAF | Gene with Protein Product | | | ENSG00000157764 | | | ACME Labs | DNA | REAL TIME POLYMERASE CHAIN REACTION | | 1 | Screening | -25 | | |", "score": 0.4207, "match_basis": "verbatim_token+domain_route:GF"}, {"md_atom_id": "md_dmGF_ex_a021", "md_file": "knowledge_base/domains/GF/examples.md", "md_atom_type": "TABLE_ROW", "md_parent_section": "§GF.1 [Example 1]", "md_verbatim": "| 7 | ABC-123 | GF | 123101 | 7 | | CNV | Copy Number Variation | EXON COPY NUMBER ALTERATION | | | 3 | | SOMATIC | | 7 | BRAF | Gene with Protein Product | | | ENSG00000157764 | | | ACME Labs | DNA | REAL TIME POLYMERASE CHAIN REACTION | | 1 | Screening | -25 | | |", "score": 0.42, "match_basis": "verbatim_token+domain_route:GF"}], "candidate_count": 5, "zero_candidate": false}
{"pdf_atom_id": "ig34_p0221_a026", "pdf_atom_type": "TABLE_ROW", "pdf_source": "SDTMIG_v3.4", "pdf_page": 221, "pdf_parent_section": "§6.3.5.4 Genomics Findings (GF)", "pdf_verbatim": "| GFSTRESU | Standard Units | Char | (UNIT) | Variable Qualifier | Standardized units used for GFSTRESC, GFSTRESN, GFSTREFC, and GFSTREFN. | Perm |", "figure_ref": null, "candidates": [{"md_atom_id": "md_dmGF_ex_a023", "md_file": "knowledge_base/domains/GF/examples.md", "md_atom_type": "TABLE_ROW", "md_parent_section": "§GF.1 [Example 1]", "md_verbatim": "| 9 | ABC-123 | GF | 123101 | 9 | | CNV | Copy Number Variation | INTERPRETATION | AMPLIFICATION | | | | SOMATIC | | 7 | BRAF | Gene with Protein Product | | | ENSG00000157764 | | | ACME Labs | DNA | REAL TIME POLYMERASE CHAIN REACTION | | 1 | Screening | -25 | | |", "score": 0.4269, "match_basis": "verbatim_token+domain_route:GF"}, {"md_atom_id": "md_dmGF_ex_a096", "md_file": "knowledge_base/domains/GF/examples.md", "md_atom_type": "TABLE_ROW", "md_parent_section": "§GF.5 [Example 5]", "md_verbatim": "| 2 | INFLU122 | GF | INF01-01 | 2 | INFLU0102 | INFLUENZA A H3N2 | GF-MS-02 | SNV | Single Nucleotide Variation | PREDICTED AMINO ACID CHANGE | R292K | R292K | NA | 292 | U43427 | RNA | | 2 | DAY 2 | 2020-06-12 |", "score": 0.4229, "match_basis": "verbatim_token+domain_route:GF"}, {"md_atom_id": "md_dmGF_ex_a097", "md_file": "knowledge_base/domains/GF/examples.md", "md_atom_type": "TABLE_ROW", "md_parent_section": "§GF.5 [Example 5]", "md_verbatim": "| 3 | INFLU122 | GF | INF01-01 | 3 | INFLU0103 | INFLUENZA A H3N2 | GF-MS-03 | SNV | Single Nucleotide Variation | PREDICTED AMINO ACID CHANGE | R292K | R292K | NA | 292 | U43427 | RNA | | 3 | DAY 5 | 2020-06-15 |", "score": 0.4229, "match_basis": "verbatim_token+domain_route:GF"}, {"md_atom_id": "md_dmGF_ex_a037", "md_file": "knowledge_base/domains/GF/examples.md", "md_atom_type": "TABLE_ROW", "md_parent_section": "§GF.2 [Example 2]", "md_verbatim": "| 2 | C12345 | GF | C12345-002 | 1 | NA01001 | SNV | Single Nucleotide Variation | GENOTYPE | G/G | G/G | | GERMLINE | | | ABCG2 | | 4.88131177 | ENSG00000118777 | rs2231142 | ACME Labs | DNA | REAL TIME POLYMERASE CHAIN REACTION | 1 | SCREENING | -1 | | -25 |", "score": 0.4222, "match_basis": "verbatim_token+domain_route:GF"}, {"md_atom_id": "md_dmGF_ex_a095", "md_file": "knowledge_base/domains/GF/examples.md", "md_atom_type": "TABLE_ROW", "md_parent_section": "§GF.5 [Example 5]", "md_verbatim": "| 1 | INFLU122 | GF | INF01-01 | 1 | INFLU0101.1 | INFLUENZA A H3N2 | GF-MS-01 | SNV | Single Nucleotide Variation | PREDICTED AMINO ACID CHANGE | R292R | R292R | NA | 292 | U43427 | RNA | | 1 | BASELINE | 2020-06-11 |", "score": 0.4218, "match_basis": "verbatim_token+domain_route:GF"}], "candidate_count": 5, "zero_candidate": false}
{"pdf_atom_id": "ig34_p0222_a001", "pdf_atom_type": "TABLE_ROW", "pdf_source": "SDTMIG_v3.4", "pdf_page": 222, "pdf_parent_section": "§6.3.5.4 Genomics Findings (GF)", "pdf_verbatim": "| GFSTREFC | Reference Result in Standard Format | Char | | Variable Qualifier | Reference value for the result or finding copied or derived from GFORREF in a standard format. | Perm |", "figure_ref": null, "candidates": [{"md_atom_id": "md_dmGF_ex_a023", "md_file": "knowledge_base/domains/GF/examples.md", "md_atom_type": "TABLE_ROW", "md_parent_section": "§GF.1 [Example 1]", "md_verbatim": "| 9 | ABC-123 | GF | 123101 | 9 | | CNV | Copy Number Variation | INTERPRETATION | AMPLIFICATION | | | | SOMATIC | | 7 | BRAF | Gene with Protein Product | | | ENSG00000157764 | | | ACME Labs | DNA | REAL TIME POLYMERASE CHAIN REACTION | | 1 | Screening | -25 | | |", "score": 0.4353, "match_basis": "verbatim_token+domain_route:GF"}, {"md_atom_id": "md_dmGF_ex_a061", "md_file": "knowledge_base/domains/GF/examples.md", "md_atom_type": "TABLE_ROW", "md_parent_section": "§GF.3 [Example 3]", "md_verbatim": "| 13 | ABC-123 | GF | 123101 | ACME GenePanel 250 | 13 | 1 | ABC1234567 | AP483910 | TRNSCPTN | Transcription | NORMALIZED LEVEL | -0.056299177 | | -0.056299177 | -0.056299177 | | GRCh38.p12 | | ACTB | GENE WITH PROTEIN PRODUCT | NM_001101.5 | | ACME | RNA | TARGETED TRANSCRIPTOME SEQUENCING | DIFFERENCES OF LOG2 INTENSITIES FORMULA | 1 | VISIT 1 | 1 | 2018-09-18 | 2 |", "score": 0.4328, "match_basis": "verbatim_token+domain_route:GF"}, {"md_atom_id": "md_dmGF_ex_a062", "md_file": "knowledge_base/domains/GF/examples.md", "md_atom_type": "TABLE_ROW", "md_parent_section": "§GF.3 [Example 3]", "md_verbatim": "| 14 | ABC-123 | GF | 123101 | ACME GenePanel 250 | 14 | 1 | ABC1234567 | AP483910 | TRNSCPTN | Transcription | NORMALIZED LEVEL | -0.046787999 | | -0.046787999 | -0.046787999 | | GRCh38.p12 | | GAPDH | GENE WITH PROTEIN PRODUCT | NM_001256799.3 | | ACME | RNA | TARGETED TRANSCRIPTOME SEQUENCING | DIFFERENCES OF LOG2 INTENSITIES FORMULA | 1 | VISIT 1 | 1 | 2018-09-18 | 2 |", "score": 0.4323, "match_basis": "verbatim_token+domain_route:GF"}, {"md_atom_id": "md_dmGF_ex_a020", "md_file": "knowledge_base/domains/GF/examples.md", "md_atom_type": "TABLE_ROW", "md_parent_section": "§GF.1 [Example 1]", "md_verbatim": "| 6 | ABC-123 | GF | 123101 | 6 | | CNV | Copy Number Variation | COPY NUMBER | | | 5 | | SOMATIC | | 7 | BRAF | Gene with Protein Product | | | ENSG00000157764 | | | ACME Labs | DNA | REAL TIME POLYMERASE CHAIN REACTION | | 1 | Screening | -25 | | |", "score": 0.4304, "match_basis": "verbatim_token+domain_route:GF"}, {"md_atom_id": "md_dmGF_ex_a022", "md_file": "knowledge_base/domains/GF/examples.md", "md_atom_type": "TABLE_ROW", "md_parent_section": "§GF.1 [Example 1]", "md_verbatim": "| 8 | ABC-123 | GF | 123101 | 8 | | CNV | Copy Number Variation | COPY NUMBER RATIO | | | 2.5 | | SOMATIC | | 7 | BRAF | Gene with Protein Product | | | ENSG00000157764 | | | ACME Labs | DNA | REAL TIME POLYMERASE CHAIN REACTION | | 1 | Screening | -25 | | |", "score": 0.4302, "match_basis": "verbatim_token+domain_route:GF"}], "candidate_count": 5, "zero_candidate": false}
{"pdf_atom_id": "ig34_p0222_a002", "pdf_atom_type": "TABLE_ROW", "pdf_source": "SDTMIG_v3.4", "pdf_page": 222, "pdf_parent_section": "§6.3.5.4 Genomics Findings (GF)", "pdf_verbatim": "| GFSTREFN | Numeric Reference Result in Std Units | Num | | Variable Qualifier | Reference value for continuous or numeric results or findings in standard format or in standard units. GFSTREFN uses the same units as GFSTRESN, if applicable. | Perm |", "figure_ref": null, "candidates": [{"md_atom_id": "md_dmGF_ex_a023", "md_file": "knowledge_base/domains/GF/examples.md", "md_atom_type": "TABLE_ROW", "md_parent_section": "§GF.1 [Example 1]", "md_verbatim": "| 9 | ABC-123 | GF | 123101 | 9 | | CNV | Copy Number Variation | INTERPRETATION | AMPLIFICATION | | | | SOMATIC | | 7 | BRAF | Gene with Protein Product | | | ENSG00000157764 | | | ACME Labs | DNA | REAL TIME POLYMERASE CHAIN REACTION | | 1 | Screening | -25 | | |", "score": 0.44, "match_basis": "verbatim_token+domain_route:GF"}, {"md_atom_id": "md_dmGF_ex_a061", "md_file": "knowledge_base/domains/GF/examples.md", "md_atom_type": "TABLE_ROW", "md_parent_section": "§GF.3 [Example 3]", "md_verbatim": "| 13 | ABC-123 | GF | 123101 | ACME GenePanel 250 | 13 | 1 | ABC1234567 | AP483910 | TRNSCPTN | Transcription | NORMALIZED LEVEL | -0.056299177 | | -0.056299177 | -0.056299177 | | GRCh38.p12 | | ACTB | GENE WITH PROTEIN PRODUCT | NM_001101.5 | | ACME | RNA | TARGETED TRANSCRIPTOME SEQUENCING | DIFFERENCES OF LOG2 INTENSITIES FORMULA | 1 | VISIT 1 | 1 | 2018-09-18 | 2 |", "score": 0.4305, "match_basis": "verbatim_token+domain_route:GF"}, {"md_atom_id": "md_dmGF_ex_a062", "md_file": "knowledge_base/domains/GF/examples.md", "md_atom_type": "TABLE_ROW", "md_parent_section": "§GF.3 [Example 3]", "md_verbatim": "| 14 | ABC-123 | GF | 123101 | ACME GenePanel 250 | 14 | 1 | ABC1234567 | AP483910 | TRNSCPTN | Transcription | NORMALIZED LEVEL | -0.046787999 | | -0.046787999 | -0.046787999 | | GRCh38.p12 | | GAPDH | GENE WITH PROTEIN PRODUCT | NM_001256799.3 | | ACME | RNA | TARGETED TRANSCRIPTOME SEQUENCING | DIFFERENCES OF LOG2 INTENSITIES FORMULA | 1 | VISIT 1 | 1 | 2018-09-18 | 2 |", "score": 0.43, "match_basis": "verbatim_token+domain_route:GF"}, {"md_atom_id": "md_dmGF_ex_a020", "md_file": "knowledge_base/domains/GF/examples.md", "md_atom_type": "TABLE_ROW", "md_parent_section": "§GF.1 [Example 1]", "md_verbatim": "| 6 | ABC-123 | GF | 123101 | 6 | | CNV | Copy Number Variation | COPY NUMBER | | | 5 | | SOMATIC | | 7 | BRAF | Gene with Protein Product | | | ENSG00000157764 | | | ACME Labs | DNA | REAL TIME POLYMERASE CHAIN REACTION | | 1 | Screening | -25 | | |", "score": 0.4276, "match_basis": "verbatim_token+domain_route:GF"}, {"md_atom_id": "md_dmGF_ex_a022", "md_file": "knowledge_base/domains/GF/examples.md", "md_atom_type": "TABLE_ROW", "md_parent_section": "§GF.1 [Example 1]", "md_verbatim": "| 8 | ABC-123 | GF | 123101 | 8 | | CNV | Copy Number Variation | COPY NUMBER RATIO | | | 2.5 | | SOMATIC | | 7 | BRAF | Gene with Protein Product | | | ENSG00000157764 | | | ACME Labs | DNA | REAL TIME POLYMERASE CHAIN REACTION | | 1 | Screening | -25 | | |", "score": 0.4275, "match_basis": "verbatim_token+domain_route:GF"}], "candidate_count": 5, "zero_candidate": false}
{"pdf_atom_id": "ig34_p0222_a003", "pdf_atom_type": "TABLE_ROW", "pdf_source": "SDTMIG_v3.4", "pdf_page": 222, "pdf_parent_section": "§6.3.5.4 Genomics Findings (GF)", "pdf_verbatim": "| GFRESCAT | Result Category | Char | | Variable Qualifier | Used to categorize the result of a finding. | Perm |", "figure_ref": null, "candidates": [{"md_atom_id": "md_dmGF_ex_a023", "md_file": "knowledge_base/domains/GF/examples.md", "md_atom_type": "TABLE_ROW", "md_parent_section": "§GF.1 [Example 1]", "md_verbatim": "| 9 | ABC-123 | GF | 123101 | 9 | | CNV | Copy Number Variation | INTERPRETATION | AMPLIFICATION | | | | SOMATIC | | 7 | BRAF | Gene with Protein Product | | | ENSG00000157764 | | | ACME Labs | DNA | REAL TIME POLYMERASE CHAIN REACTION | | 1 | Screening | -25 | | |", "score": 0.4369, "match_basis": "verbatim_token+domain_route:GF"}, {"md_atom_id": "md_dmGF_ex_a096", "md_file": "knowledge_base/domains/GF/examples.md", "md_atom_type": "TABLE_ROW", "md_parent_section": "§GF.5 [Example 5]", "md_verbatim": "| 2 | INFLU122 | GF | INF01-01 | 2 | INFLU0102 | INFLUENZA A H3N2 | GF-MS-02 | SNV | Single Nucleotide Variation | PREDICTED AMINO ACID CHANGE | R292K | R292K | NA | 292 | U43427 | RNA | | 2 | DAY 2 | 2020-06-12 |", "score": 0.4294, "match_basis": "verbatim_token+domain_route:GF"}, {"md_atom_id": "md_dmGF_ex_a097", "md_file": "knowledge_base/domains/GF/examples.md", "md_atom_type": "TABLE_ROW", "md_parent_section": "§GF.5 [Example 5]", "md_verbatim": "| 3 | INFLU122 | GF | INF01-01 | 3 | INFLU0103 | INFLUENZA A H3N2 | GF-MS-03 | SNV | Single Nucleotide Variation | PREDICTED AMINO ACID CHANGE | R292K | R292K | NA | 292 | U43427 | RNA | | 3 | DAY 5 | 2020-06-15 |", "score": 0.4294, "match_basis": "verbatim_token+domain_route:GF"}, {"md_atom_id": "md_dmGF_ex_a017", "md_file": "knowledge_base/domains/GF/examples.md", "md_atom_type": "TABLE_ROW", "md_parent_section": "§GF.1 [Example 1]", "md_verbatim": "| 3 | ABC-123 | GF | 123101 | 3 | | SNV | Single Nucleotide Variation | VARIANT CLASSIFICATION | Pathogenic | | | | SOMATIC | | 7 | BRAF | Gene with Protein Product | Exon 15 | | ENSG00000157764 | rs121913227 | | ACME Labs | DNA | REAL TIME POLYMERASE CHAIN REACTION | | 1 | Screening | -25 | | |", "score": 0.4286, "match_basis": "verbatim_token+domain_route:GF"}, {"md_atom_id": "md_dmGF_ex_a095", "md_file": "knowledge_base/domains/GF/examples.md", "md_atom_type": "TABLE_ROW", "md_parent_section": "§GF.5 [Example 5]", "md_verbatim": "| 1 | INFLU122 | GF | INF01-01 | 1 | INFLU0101.1 | INFLUENZA A H3N2 | GF-MS-01 | SNV | Single Nucleotide Variation | PREDICTED AMINO ACID CHANGE | R292R | R292R | NA | 292 | U43427 | RNA | | 1 | BASELINE | 2020-06-11 |", "score": 0.428, "match_basis": "verbatim_token+domain_route:GF"}], "candidate_count": 5, "zero_candidate": false}
{"pdf_atom_id": "ig34_p0222_a004", "pdf_atom_type": "TABLE_ROW", "pdf_source": "SDTMIG_v3.4", "pdf_page": 222, "pdf_parent_section": "§6.3.5.4 Genomics Findings (GF)", "pdf_verbatim": "| GFINHERT | Inheritability | Char | (INHERTGF) | Variable Qualifier | Identifies whether the variation can be passed to the next generation. | Perm |", "figure_ref": null, "candidates": [{"md_atom_id": "md_dmGF_ex_a022", "md_file": "knowledge_base/domains/GF/examples.md", "md_atom_type": "TABLE_ROW", "md_parent_section": "§GF.1 [Example 1]", "md_verbatim": "| 8 | ABC-123 | GF | 123101 | 8 | | CNV | Copy Number Variation | COPY NUMBER RATIO | | | 2.5 | | SOMATIC | | 7 | BRAF | Gene with Protein Product | | | ENSG00000157764 | | | ACME Labs | DNA | REAL TIME POLYMERASE CHAIN REACTION | | 1 | Screening | -25 | | |", "score": 0.4562, "match_basis": "verbatim_token+domain_route:GF"}, {"md_atom_id": "md_dmGF_ex_a023", "md_file": "knowledge_base/domains/GF/examples.md", "md_atom_type": "TABLE_ROW", "md_parent_section": "§GF.1 [Example 1]", "md_verbatim": "| 9 | ABC-123 | GF | 123101 | 9 | | CNV | Copy Number Variation | INTERPRETATION | AMPLIFICATION | | | | SOMATIC | | 7 | BRAF | Gene with Protein Product | | | ENSG00000157764 | | | ACME Labs | DNA | REAL TIME POLYMERASE CHAIN REACTION | | 1 | Screening | -25 | | |", "score": 0.4545, "match_basis": "verbatim_token+domain_route:GF"}, {"md_atom_id": "md_dmGF_ex_a021", "md_file": "knowledge_base/domains/GF/examples.md", "md_atom_type": "TABLE_ROW", "md_parent_section": "§GF.1 [Example 1]", "md_verbatim": "| 7 | ABC-123 | GF | 123101 | 7 | | CNV | Copy Number Variation | EXON COPY NUMBER ALTERATION | | | 3 | | SOMATIC | | 7 | BRAF | Gene with Protein Product | | | ENSG00000157764 | | | ACME Labs | DNA | REAL TIME POLYMERASE CHAIN REACTION | | 1 | Screening | -25 | | |", "score": 0.4541, "match_basis": "verbatim_token+domain_route:GF"}, {"md_atom_id": "md_dmGF_ex_a017", "md_file": "knowledge_base/domains/GF/examples.md", "md_atom_type": "TABLE_ROW", "md_parent_section": "§GF.1 [Example 1]", "md_verbatim": "| 3 | ABC-123 | GF | 123101 | 3 | | SNV | Single Nucleotide Variation | VARIANT CLASSIFICATION | Pathogenic | | | | SOMATIC | | 7 | BRAF | Gene with Protein Product | Exon 15 | | ENSG00000157764 | rs121913227 | | ACME Labs | DNA | REAL TIME POLYMERASE CHAIN REACTION | | 1 | Screening | -25 | | |", "score": 0.4532, "match_basis": "verbatim_token+domain_route:GF"}, {"md_atom_id": "md_dmGF_ex_a020", "md_file": "knowledge_base/domains/GF/examples.md", "md_atom_type": "TABLE_ROW", "md_parent_section": "§GF.1 [Example 1]", "md_verbatim": "| 6 | ABC-123 | GF | 123101 | 6 | | CNV | Copy Number Variation | COPY NUMBER | | | 5 | | SOMATIC | | 7 | BRAF | Gene with Protein Product | | | ENSG00000157764 | | | ACME Labs | DNA | REAL TIME POLYMERASE CHAIN REACTION | | 1 | Screening | -25 | | |", "score": 0.4516, "match_basis": "verbatim_token+domain_route:GF"}], "candidate_count": 5, "zero_candidate": false}
{"pdf_atom_id": "ig34_p0222_a005", "pdf_atom_type": "TABLE_ROW", "pdf_source": "SDTMIG_v3.4", "pdf_page": 222, "pdf_parent_section": "§6.3.5.4 Genomics Findings (GF)", "pdf_verbatim": "| GFGENREF | Genome Reference | Char | | Variable Qualifier | An identifier for the genome reference used to generate the reported result. For example, Genome Reference Consortium Human Build 38 patch release 13 may be represented as \"GRCh38.p13\". | Perm |", "figure_ref": null, "candidates": [{"md_atom_id": "md_dmGF_ex_a016", "md_file": "knowledge_base/domains/GF/examples.md", "md_atom_type": "TABLE_ROW", "md_parent_section": "§GF.1 [Example 1]", "md_verbatim": "| 2 | ABC-123 | GF | 123101 | 2 | | SNV | Single Nucleotide Variation | PREDICTED CODING SEQUENCE CHANGE | c.1799T>A | | | | SOMATIC | GRCh38.p13 | 7 | BRAF | Gene with Protein Product | 140753336 | Exon 15 | ENSG00000157764 | rs121913227 | | ACME Labs | DNA | REAL TIME POLYMERASE CHAIN REACTION | | 1 | Screening | -25 | | |", "score": 0.4529, "match_basis": "verbatim_token+domain_route:GF"}, {"md_atom_id": "md_dmGF_ex_a036", "md_file": "knowledge_base/domains/GF/examples.md", "md_atom_type": "TABLE_ROW", "md_parent_section": "§GF.2 [Example 2]", "md_verbatim": "| 1 | C12345 | GF | C12345-001 | 1 | NA01001 | SNV | Single Nucleotide Variation | GENOTYPE | G/G | G/G | | GERMLINE | GRCh38.p13 | 4 | ABCG2 | | 4.88131177 | ENSG00000118777 | rs2231142 | ACME Labs | DNA | REAL TIME POLYMERASE CHAIN REACTION | 1 | SCREENING | -1 | | -25 |", "score": 0.4506, "match_basis": "verbatim_token+domain_route:GF"}, {"md_atom_id": "md_dmGF_ex_a038", "md_file": "knowledge_base/domains/GF/examples.md", "md_atom_type": "TABLE_ROW", "md_parent_section": "§GF.2 [Example 2]", "md_verbatim": "| 3 | C12345 | GF | C12345-003 | 1 | NA01001 | SNV | Single Nucleotide Variation | GENOTYPE | G/G | G/G | | GERMLINE | GRCh38.p13 | 4 | ABCG2 | GENE WITH PROTEIN PRODUCT | 4.88131177 | ENSG00000118777 | rs2231142 | ACME Labs | DNA | REAL TIME POLYMERASE CHAIN REACTION | 1 | SCREENING | -1 | 2020-06-3 | -3 |", "score": 0.45, "match_basis": "verbatim_token+domain_route:GF"}, {"md_atom_id": "md_dmGF_ex_a019", "md_file": "knowledge_base/domains/GF/examples.md", "md_atom_type": "TABLE_ROW", "md_parent_section": "§GF.1 [Example 1]", "md_verbatim": "| 5 | ABC-123 | GF | 123101 | 5 | | SNV | Single Nucleotide Variation | PERCENT VARIANT READ DEPTH | | | 50 | % | SOMATIC | GRCh38.p13 | 7 | BRAF | Gene with Protein Product | 140753336 | Exon 15 | ENSG00000157764 | rs121913227 | | ACME Labs | DNA | REAL TIME POLYMERASE CHAIN REACTION | | 1 | Screening | -25 | | |", "score": 0.4492, "match_basis": "verbatim_token+domain_route:GF"}, {"md_atom_id": "md_dmGF_ex_a023", "md_file": "knowledge_base/domains/GF/examples.md", "md_atom_type": "TABLE_ROW", "md_parent_section": "§GF.1 [Example 1]", "md_verbatim": "| 9 | ABC-123 | GF | 123101 | 9 | | CNV | Copy Number Variation | INTERPRETATION | AMPLIFICATION | | | | SOMATIC | | 7 | BRAF | Gene with Protein Product | | | ENSG00000157764 | | | ACME Labs | DNA | REAL TIME POLYMERASE CHAIN REACTION | | 1 | Screening | -25 | | |", "score": 0.448, "match_basis": "verbatim_token+domain_route:GF"}], "candidate_count": 5, "zero_candidate": false}
{"pdf_atom_id": "ig34_p0222_a006", "pdf_atom_type": "TABLE_ROW", "pdf_source": "SDTMIG_v3.4", "pdf_page": 222, "pdf_parent_section": "§6.3.5.4 Genomics Findings (GF)", "pdf_verbatim": "| GFCHROM | Chromosome Identifier | Char | | Variable Qualifier | The designation (name or number) of the chromosome or contig on which the variant or other feature appears. | Perm |", "figure_ref": null, "candidates": [{"md_atom_id": "md_dmGF_ex_a023", "md_file": "knowledge_base/domains/GF/examples.md", "md_atom_type": "TABLE_ROW", "md_parent_section": "§GF.1 [Example 1]", "md_verbatim": "| 9 | ABC-123 | GF | 123101 | 9 | | CNV | Copy Number Variation | INTERPRETATION | AMPLIFICATION | | | | SOMATIC | | 7 | BRAF | Gene with Protein Product | | | ENSG00000157764 | | | ACME Labs | DNA | REAL TIME POLYMERASE CHAIN REACTION | | 1 | Screening | -25 | | |", "score": 0.456, "match_basis": "verbatim_token+domain_route:GF"}, {"md_atom_id": "md_dmGF_ex_a020", "md_file": "knowledge_base/domains/GF/examples.md", "md_atom_type": "TABLE_ROW", "md_parent_section": "§GF.1 [Example 1]", "md_verbatim": "| 6 | ABC-123 | GF | 123101 | 6 | | CNV | Copy Number Variation | COPY NUMBER | | | 5 | | SOMATIC | | 7 | BRAF | Gene with Protein Product | | | ENSG00000157764 | | | ACME Labs | DNA | REAL TIME POLYMERASE CHAIN REACTION | | 1 | Screening | -25 | | |", "score": 0.4533, "match_basis": "verbatim_token+domain_route:GF"}, {"md_atom_id": "md_dmGF_ex_a022", "md_file": "knowledge_base/domains/GF/examples.md", "md_atom_type": "TABLE_ROW", "md_parent_section": "§GF.1 [Example 1]", "md_verbatim": "| 8 | ABC-123 | GF | 123101 | 8 | | CNV | Copy Number Variation | COPY NUMBER RATIO | | | 2.5 | | SOMATIC | | 7 | BRAF | Gene with Protein Product | | | ENSG00000157764 | | | ACME Labs | DNA | REAL TIME POLYMERASE CHAIN REACTION | | 1 | Screening | -25 | | |", "score": 0.4529, "match_basis": "verbatim_token+domain_route:GF"}, {"md_atom_id": "md_dmGF_ex_a021", "md_file": "knowledge_base/domains/GF/examples.md", "md_atom_type": "TABLE_ROW", "md_parent_section": "§GF.1 [Example 1]", "md_verbatim": "| 7 | ABC-123 | GF | 123101 | 7 | | CNV | Copy Number Variation | EXON COPY NUMBER ALTERATION | | | 3 | | SOMATIC | | 7 | BRAF | Gene with Protein Product | | | ENSG00000157764 | | | ACME Labs | DNA | REAL TIME POLYMERASE CHAIN REACTION | | 1 | Screening | -25 | | |", "score": 0.4511, "match_basis": "verbatim_token+domain_route:GF"}, {"md_atom_id": "md_dmGF_ex_a019", "md_file": "knowledge_base/domains/GF/examples.md", "md_atom_type": "TABLE_ROW", "md_parent_section": "§GF.1 [Example 1]", "md_verbatim": "| 5 | ABC-123 | GF | 123101 | 5 | | SNV | Single Nucleotide Variation | PERCENT VARIANT READ DEPTH | | | 50 | % | SOMATIC | GRCh38.p13 | 7 | BRAF | Gene with Protein Product | 140753336 | Exon 15 | ENSG00000157764 | rs121913227 | | ACME Labs | DNA | REAL TIME POLYMERASE CHAIN REACTION | | 1 | Screening | -25 | | |", "score": 0.4451, "match_basis": "verbatim_token+domain_route:GF"}], "candidate_count": 5, "zero_candidate": false}
{"pdf_atom_id": "ig34_p0222_a007", "pdf_atom_type": "TABLE_ROW", "pdf_source": "SDTMIG_v3.4", "pdf_page": 222, "pdf_parent_section": "§6.3.5.4 Genomics Findings (GF)", "pdf_verbatim": "| GFSYM | Genomic Symbol | Char | * | Variable Qualifier | A published symbol for the portion of the genome serving as a locus for the experiment/test. | Perm |", "figure_ref": null, "candidates": [{"md_atom_id": "md_dmGF_ex_a023", "md_file": "knowledge_base/domains/GF/examples.md", "md_atom_type": "TABLE_ROW", "md_parent_section": "§GF.1 [Example 1]", "md_verbatim": "| 9 | ABC-123 | GF | 123101 | 9 | | CNV | Copy Number Variation | INTERPRETATION | AMPLIFICATION | | | | SOMATIC | | 7 | BRAF | Gene with Protein Product | | | ENSG00000157764 | | | ACME Labs | DNA | REAL TIME POLYMERASE CHAIN REACTION | | 1 | Screening | -25 | | |", "score": 0.4455, "match_basis": "verbatim_token+domain_route:GF"}, {"md_atom_id": "md_dmGF_ex_a037", "md_file": "knowledge_base/domains/GF/examples.md", "md_atom_type": "TABLE_ROW", "md_parent_section": "§GF.2 [Example 2]", "md_verbatim": "| 2 | C12345 | GF | C12345-002 | 1 | NA01001 | SNV | Single Nucleotide Variation | GENOTYPE | G/G | G/G | | GERMLINE | | | ABCG2 | | 4.88131177 | ENSG00000118777 | rs2231142 | ACME Labs | DNA | REAL TIME POLYMERASE CHAIN REACTION | 1 | SCREENING | -1 | | -25 |", "score": 0.4455, "match_basis": "verbatim_token+domain_route:GF"}, {"md_atom_id": "md_dmGF_ex_a018", "md_file": "knowledge_base/domains/GF/examples.md", "md_atom_type": "TABLE_ROW", "md_parent_section": "§GF.1 [Example 1]", "md_verbatim": "| 4 | ABC-123 | GF | 123101 | 4 | | SNV | Single Nucleotide Variation | LOCUS COUNT | | | 200 | | SOMATIC | GRCh38.p13 | 7 | BRAF | Gene with Protein Product | 140753336 | Exon 15 | ENSG00000157764 | rs121913227 | | ACME Labs | DNA | REAL TIME POLYMERASE CHAIN REACTION | | 1 | Screening | -25 | | |", "score": 0.4444, "match_basis": "verbatim_token+domain_route:GF"}, {"md_atom_id": "md_dmGF_ex_a036", "md_file": "knowledge_base/domains/GF/examples.md", "md_atom_type": "TABLE_ROW", "md_parent_section": "§GF.2 [Example 2]", "md_verbatim": "| 1 | C12345 | GF | C12345-001 | 1 | NA01001 | SNV | Single Nucleotide Variation | GENOTYPE | G/G | G/G | | GERMLINE | GRCh38.p13 | 4 | ABCG2 | | 4.88131177 | ENSG00000118777 | rs2231142 | ACME Labs | DNA | REAL TIME POLYMERASE CHAIN REACTION | 1 | SCREENING | -1 | | -25 |", "score": 0.4443, "match_basis": "verbatim_token+domain_route:GF"}, {"md_atom_id": "md_dmGF_ex_a020", "md_file": "knowledge_base/domains/GF/examples.md", "md_atom_type": "TABLE_ROW", "md_parent_section": "§GF.1 [Example 1]", "md_verbatim": "| 6 | ABC-123 | GF | 123101 | 6 | | CNV | Copy Number Variation | COPY NUMBER | | | 5 | | SOMATIC | | 7 | BRAF | Gene with Protein Product | | | ENSG00000157764 | | | ACME Labs | DNA | REAL TIME POLYMERASE CHAIN REACTION | | 1 | Screening | -25 | | |", "score": 0.4415, "match_basis": "verbatim_token+domain_route:GF"}], "candidate_count": 5, "zero_candidate": false}
{"pdf_atom_id": "ig34_p0222_a008", "pdf_atom_type": "TABLE_ROW", "pdf_source": "SDTMIG_v3.4", "pdf_page": 222, "pdf_parent_section": "§6.3.5.4 Genomics Findings (GF)", "pdf_verbatim": "| GFSYMTYP | Genomic Symbol Type | Char | (SYMTYPGF) | Variable Qualifier | A description of the type of genomic entity that is represented by the published symbol in GFSYM. | Perm |", "figure_ref": null, "candidates": [{"md_atom_id": "md_dmGF_ex_a023", "md_file": "knowledge_base/domains/GF/examples.md", "md_atom_type": "TABLE_ROW", "md_parent_section": "§GF.1 [Example 1]", "md_verbatim": "| 9 | ABC-123 | GF | 123101 | 9 | | CNV | Copy Number Variation | INTERPRETATION | AMPLIFICATION | | | | SOMATIC | | 7 | BRAF | Gene with Protein Product | | | ENSG00000157764 | | | ACME Labs | DNA | REAL TIME POLYMERASE CHAIN REACTION | | 1 | Screening | -25 | | |", "score": 0.4483, "match_basis": "verbatim_token+domain_route:GF"}, {"md_atom_id": "md_dmGF_ex_a037", "md_file": "knowledge_base/domains/GF/examples.md", "md_atom_type": "TABLE_ROW", "md_parent_section": "§GF.2 [Example 2]", "md_verbatim": "| 2 | C12345 | GF | C12345-002 | 1 | NA01001 | SNV | Single Nucleotide Variation | GENOTYPE | G/G | G/G | | GERMLINE | | | ABCG2 | | 4.88131177 | ENSG00000118777 | rs2231142 | ACME Labs | DNA | REAL TIME POLYMERASE CHAIN REACTION | 1 | SCREENING | -1 | | -25 |", "score": 0.4483, "match_basis": "verbatim_token+domain_route:GF"}, {"md_atom_id": "md_dmGF_ex_a036", "md_file": "knowledge_base/domains/GF/examples.md", "md_atom_type": "TABLE_ROW", "md_parent_section": "§GF.2 [Example 2]", "md_verbatim": "| 1 | C12345 | GF | C12345-001 | 1 | NA01001 | SNV | Single Nucleotide Variation | GENOTYPE | G/G | G/G | | GERMLINE | GRCh38.p13 | 4 | ABCG2 | | 4.88131177 | ENSG00000118777 | rs2231142 | ACME Labs | DNA | REAL TIME POLYMERASE CHAIN REACTION | 1 | SCREENING | -1 | | -25 |", "score": 0.4471, "match_basis": "verbatim_token+domain_route:GF"}, {"md_atom_id": "md_dmGF_ex_a053", "md_file": "knowledge_base/domains/GF/examples.md", "md_atom_type": "TABLE_ROW", "md_parent_section": "§GF.3 [Example 3]", "md_verbatim": "| 5 | ABC-123 | GF | 123101 | ACME GenePanel 250 | 5 | 1 | ABU3908A52 | AH749754 | TRNSCPTN | Transcription | PERCENTILE RANK | 0.37 | % | 0.37 | 0.37 | % | hs37d5 | 7 | ACTB | GENE WITH PROTEIN PRODUCT | ENST00000646664.1 | AH749754.fastq.gz | ACME | RNA | TARGETED TRANSCRIPTOME SEQUENCING | | 1 | VISIT 1 | 1 | 2018-09-04 | 2 |", "score": 0.4447, "match_basis": "verbatim_token+domain_route:GF"}, {"md_atom_id": "md_dmGF_ex_a059", "md_file": "knowledge_base/domains/GF/examples.md", "md_atom_type": "TABLE_ROW", "md_parent_section": "§GF.3 [Example 3]", "md_verbatim": "| 11 | ABC-123 | GF | 123101 | ACME GenePanel 250 | 11 | 2 | ABU3908A52 | AH749754 | TRNSCPTN | Transcription | PERCENTILE RANK | 0.99 | % | 0.99 | 0.99 | % | hs37d5 | 12 | GAPDH | GENE WITH PROTEIN PRODUCT | ENST00000396861.5 | AH749754.fastq.gz | ACME | RNA | TARGETED TRANSCRIPTOME SEQUENCING | | 1 | VISIT 1 | 1 | 2018-09-18 | 2 |", "score": 0.4444, "match_basis": "verbatim_token+domain_route:GF"}], "candidate_count": 5, "zero_candidate": false}
{"pdf_atom_id": "ig34_p0222_a009", "pdf_atom_type": "TABLE_ROW", "pdf_source": "SDTMIG_v3.4", "pdf_page": 222, "pdf_parent_section": "§6.3.5.4 Genomics Findings (GF)", "pdf_verbatim": "| GFGENLOC | Genetic Location | Char | | Variable Qualifier | Specifies the location within a sequence for the observed value in GFORRES. | Perm |", "figure_ref": null, "candidates": [{"md_atom_id": "md_dmGF_ex_a023", "md_file": "knowledge_base/domains/GF/examples.md", "md_atom_type": "TABLE_ROW", "md_parent_section": "§GF.1 [Example 1]", "md_verbatim": "| 9 | ABC-123 | GF | 123101 | 9 | | CNV | Copy Number Variation | INTERPRETATION | AMPLIFICATION | | | | SOMATIC | | 7 | BRAF | Gene with Protein Product | | | ENSG00000157764 | | | ACME Labs | DNA | REAL TIME POLYMERASE CHAIN REACTION | | 1 | Screening | -25 | | |", "score": 0.4629, "match_basis": "verbatim_token+domain_route:GF"}, {"md_atom_id": "md_dmGF_ex_a016", "md_file": "knowledge_base/domains/GF/examples.md", "md_atom_type": "TABLE_ROW", "md_parent_section": "§GF.1 [Example 1]", "md_verbatim": "| 2 | ABC-123 | GF | 123101 | 2 | | SNV | Single Nucleotide Variation | PREDICTED CODING SEQUENCE CHANGE | c.1799T>A | | | | SOMATIC | GRCh38.p13 | 7 | BRAF | Gene with Protein Product | 140753336 | Exon 15 | ENSG00000157764 | rs121913227 | | ACME Labs | DNA | REAL TIME POLYMERASE CHAIN REACTION | | 1 | Screening | -25 | | |", "score": 0.4624, "match_basis": "verbatim_token+domain_route:GF"}, {"md_atom_id": "md_dmGF_ex_a063", "md_file": "knowledge_base/domains/GF/examples.md", "md_atom_type": "TABLE_ROW", "md_parent_section": "§GF.3 [Example 3]", "md_verbatim": "| 15 | ABC-123 | GF | 123101 | ACME GenePanel 250 | 15 | 2 | ABC1234567 | AP483910 | GENESIG | Gene Signature | GENETIC TRANSCRIPTION INTERPRETATION | LOW | | LOW | | | GRCh38.p12 | | ACTB | GENE WITH PROTEIN PRODUCT | NM_001101.5 | | ACME | RNA | TARGETED TRANSCRIPTOME SEQUENCING | IFN-1 GENE SIGNATURE | 1 | VISIT 1 | 1 | 2018-09-18 | 2 |", "score": 0.4588, "match_basis": "verbatim_token+domain_route:GF"}, {"md_atom_id": "md_dmGF_ex_a054", "md_file": "knowledge_base/domains/GF/examples.md", "md_atom_type": "TABLE_ROW", "md_parent_section": "§GF.3 [Example 3]", "md_verbatim": "| 6 | ABC-123 | GF | 123101 | ACME GenePanel 250 | 6 | 1 | ABU3908A52 | AH749754 | TRNSCPTN | Transcription | GENETIC TRANSCRIPTION INDICATOR | no | | no | | | hs37d5 | 7 | ACTB | GENE WITH PROTEIN PRODUCT | ENST00000646664.1 | AH749754.fastq.gz | ACME | RNA | TARGETED TRANSCRIPTOME SEQUENCING | | 1 | VISIT 1 | 1 | 2018-09-04 | 2 |", "score": 0.4577, "match_basis": "verbatim_token+domain_route:GF"}, {"md_atom_id": "md_dmGF_ex_a060", "md_file": "knowledge_base/domains/GF/examples.md", "md_atom_type": "TABLE_ROW", "md_parent_section": "§GF.3 [Example 3]", "md_verbatim": "| 12 | ABC-123 | GF | 123101 | ACME GenePanel 250 | 12 | 2 | ABU3908A52 | AH749754 | TRNSCPTN | Transcription | GENETIC TRANSCRIPTION INDICATOR | yes | | yes | | | hs37d5 | 12 | GAPDH | GENE WITH PROTEIN PRODUCT | ENST00000396861.5 | AH749754.fastq.gz | ACME | RNA | TARGETED TRANSCRIPTOME SEQUENCING | | 1 | VISIT 1 | 1 | 2018-09-18 | 2 |", "score": 0.457, "match_basis": "verbatim_token+domain_route:GF"}], "candidate_count": 5, "zero_candidate": false}
{"pdf_atom_id": "ig34_p0222_a010", "pdf_atom_type": "TABLE_ROW", "pdf_source": "SDTMIG_v3.4", "pdf_page": 222, "pdf_parent_section": "§6.3.5.4 Genomics Findings (GF)", "pdf_verbatim": "| GFGENSR | Genetic Sub-Region | Char | | Variable Qualifier | The portion of the locus in which the variation was found. Examples: \"Exon 15\", \"Kinase domain\". | Perm |", "figure_ref": null, "candidates": [{"md_atom_id": "md_dmGF_ex_a023", "md_file": "knowledge_base/domains/GF/examples.md", "md_atom_type": "TABLE_ROW", "md_parent_section": "§GF.1 [Example 1]", "md_verbatim": "| 9 | ABC-123 | GF | 123101 | 9 | | CNV | Copy Number Variation | INTERPRETATION | AMPLIFICATION | | | | SOMATIC | | 7 | BRAF | Gene with Protein Product | | | ENSG00000157764 | | | ACME Labs | DNA | REAL TIME POLYMERASE CHAIN REACTION | | 1 | Screening | -25 | | |", "score": 0.4809, "match_basis": "verbatim_token+domain_route:GF"}, {"md_atom_id": "md_dmGF_ex_a018", "md_file": "knowledge_base/domains/GF/examples.md", "md_atom_type": "TABLE_ROW", "md_parent_section": "§GF.1 [Example 1]", "md_verbatim": "| 4 | ABC-123 | GF | 123101 | 4 | | SNV | Single Nucleotide Variation | LOCUS COUNT | | | 200 | | SOMATIC | GRCh38.p13 | 7 | BRAF | Gene with Protein Product | 140753336 | Exon 15 | ENSG00000157764 | rs121913227 | | ACME Labs | DNA | REAL TIME POLYMERASE CHAIN REACTION | | 1 | Screening | -25 | | |", "score": 0.4803, "match_basis": "verbatim_token+domain_route:GF"}, {"md_atom_id": "md_dmGF_ex_a021", "md_file": "knowledge_base/domains/GF/examples.md", "md_atom_type": "TABLE_ROW", "md_parent_section": "§GF.1 [Example 1]", "md_verbatim": "| 7 | ABC-123 | GF | 123101 | 7 | | CNV | Copy Number Variation | EXON COPY NUMBER ALTERATION | | | 3 | | SOMATIC | | 7 | BRAF | Gene with Protein Product | | | ENSG00000157764 | | | ACME Labs | DNA | REAL TIME POLYMERASE CHAIN REACTION | | 1 | Screening | -25 | | |", "score": 0.4773, "match_basis": "verbatim_token+domain_route:GF"}, {"md_atom_id": "md_dmGF_ex_a020", "md_file": "knowledge_base/domains/GF/examples.md", "md_atom_type": "TABLE_ROW", "md_parent_section": "§GF.1 [Example 1]", "md_verbatim": "| 6 | ABC-123 | GF | 123101 | 6 | | CNV | Copy Number Variation | COPY NUMBER | | | 5 | | SOMATIC | | 7 | BRAF | Gene with Protein Product | | | ENSG00000157764 | | | ACME Labs | DNA | REAL TIME POLYMERASE CHAIN REACTION | | 1 | Screening | -25 | | |", "score": 0.4703, "match_basis": "verbatim_token+domain_route:GF"}, {"md_atom_id": "md_dmGF_ex_a022", "md_file": "knowledge_base/domains/GF/examples.md", "md_atom_type": "TABLE_ROW", "md_parent_section": "§GF.1 [Example 1]", "md_verbatim": "| 8 | ABC-123 | GF | 123101 | 8 | | CNV | Copy Number Variation | COPY NUMBER RATIO | | | 2.5 | | SOMATIC | | 7 | BRAF | Gene with Protein Product | | | ENSG00000157764 | | | ACME Labs | DNA | REAL TIME POLYMERASE CHAIN REACTION | | 1 | Screening | -25 | | |", "score": 0.4698, "match_basis": "verbatim_token+domain_route:GF"}], "candidate_count": 5, "zero_candidate": false}
{"pdf_atom_id": "ig34_p0222_a011", "pdf_atom_type": "TABLE_ROW", "pdf_source": "SDTMIG_v3.4", "pdf_page": 222, "pdf_parent_section": "§6.3.5.4 Genomics Findings (GF)", "pdf_verbatim": "| GFSEQID | Sequence Identifier | Char | | Variable Qualifier | A unique identifier for the sequence used as the reference to identify the genetic variation in the result. Examples: \"NM_001234\", \"ENSG00000182533\", \"ENST00000343849.2\". | Perm |", "figure_ref": null, "candidates": [{"md_atom_id": "md_dmGF_ex_a016", "md_file": "knowledge_base/domains/GF/examples.md", "md_atom_type": "TABLE_ROW", "md_parent_section": "§GF.1 [Example 1]", "md_verbatim": "| 2 | ABC-123 | GF | 123101 | 2 | | SNV | Single Nucleotide Variation | PREDICTED CODING SEQUENCE CHANGE | c.1799T>A | | | | SOMATIC | GRCh38.p13 | 7 | BRAF | Gene with Protein Product | 140753336 | Exon 15 | ENSG00000157764 | rs121913227 | | ACME Labs | DNA | REAL TIME POLYMERASE CHAIN REACTION | | 1 | Screening | -25 | | |", "score": 0.4821, "match_basis": "verbatim_token+domain_route:GF"}, {"md_atom_id": "md_dmGF_ex_a023", "md_file": "knowledge_base/domains/GF/examples.md", "md_atom_type": "TABLE_ROW", "md_parent_section": "§GF.1 [Example 1]", "md_verbatim": "| 9 | ABC-123 | GF | 123101 | 9 | | CNV | Copy Number Variation | INTERPRETATION | AMPLIFICATION | | | | SOMATIC | | 7 | BRAF | Gene with Protein Product | | | ENSG00000157764 | | | ACME Labs | DNA | REAL TIME POLYMERASE CHAIN REACTION | | 1 | Screening | -25 | | |", "score": 0.482, "match_basis": "verbatim_token+domain_route:GF"}, {"md_atom_id": "md_dmGF_ex_a020", "md_file": "knowledge_base/domains/GF/examples.md", "md_atom_type": "TABLE_ROW", "md_parent_section": "§GF.1 [Example 1]", "md_verbatim": "| 6 | ABC-123 | GF | 123101 | 6 | | CNV | Copy Number Variation | COPY NUMBER | | | 5 | | SOMATIC | | 7 | BRAF | Gene with Protein Product | | | ENSG00000157764 | | | ACME Labs | DNA | REAL TIME POLYMERASE CHAIN REACTION | | 1 | Screening | -25 | | |", "score": 0.473, "match_basis": "verbatim_token+domain_route:GF"}, {"md_atom_id": "md_dmGF_ex_a022", "md_file": "knowledge_base/domains/GF/examples.md", "md_atom_type": "TABLE_ROW", "md_parent_section": "§GF.1 [Example 1]", "md_verbatim": "| 8 | ABC-123 | GF | 123101 | 8 | | CNV | Copy Number Variation | COPY NUMBER RATIO | | | 2.5 | | SOMATIC | | 7 | BRAF | Gene with Protein Product | | | ENSG00000157764 | | | ACME Labs | DNA | REAL TIME POLYMERASE CHAIN REACTION | | 1 | Screening | -25 | | |", "score": 0.4725, "match_basis": "verbatim_token+domain_route:GF"}, {"md_atom_id": "md_dmGF_ex_a019", "md_file": "knowledge_base/domains/GF/examples.md", "md_atom_type": "TABLE_ROW", "md_parent_section": "§GF.1 [Example 1]", "md_verbatim": "| 5 | ABC-123 | GF | 123101 | 5 | | SNV | Single Nucleotide Variation | PERCENT VARIANT READ DEPTH | | | 50 | % | SOMATIC | GRCh38.p13 | 7 | BRAF | Gene with Protein Product | 140753336 | Exon 15 | ENSG00000157764 | rs121913227 | | ACME Labs | DNA | REAL TIME POLYMERASE CHAIN REACTION | | 1 | Screening | -25 | | |", "score": 0.4721, "match_basis": "verbatim_token+domain_route:GF"}], "candidate_count": 5, "zero_candidate": false}
{"pdf_atom_id": "ig34_p0222_a012", "pdf_atom_type": "TABLE_ROW", "pdf_source": "SDTMIG_v3.4", "pdf_page": 222, "pdf_parent_section": "§6.3.5.4 Genomics Findings (GF)", "pdf_verbatim": "| GFPVRID | Published Variant Identifier | Char | | Variable Qualifier | A unique identifier for the variation that has been publicly characterized in an external database. Examples: \"rs2231142\", \"COSM41596\". | Perm |", "figure_ref": null, "candidates": [{"md_atom_id": "md_dmGF_ex_a037", "md_file": "knowledge_base/domains/GF/examples.md", "md_atom_type": "TABLE_ROW", "md_parent_section": "§GF.2 [Example 2]", "md_verbatim": "| 2 | C12345 | GF | C12345-002 | 1 | NA01001 | SNV | Single Nucleotide Variation | GENOTYPE | G/G | G/G | | GERMLINE | | | ABCG2 | | 4.88131177 | ENSG00000118777 | rs2231142 | ACME Labs | DNA | REAL TIME POLYMERASE CHAIN REACTION | 1 | SCREENING | -1 | | -25 |", "score": 0.4706, "match_basis": "verbatim_token+domain_route:GF"}, {"md_atom_id": "md_dmGF_ex_a036", "md_file": "knowledge_base/domains/GF/examples.md", "md_atom_type": "TABLE_ROW", "md_parent_section": "§GF.2 [Example 2]", "md_verbatim": "| 1 | C12345 | GF | C12345-001 | 1 | NA01001 | SNV | Single Nucleotide Variation | GENOTYPE | G/G | G/G | | GERMLINE | GRCh38.p13 | 4 | ABCG2 | | 4.88131177 | ENSG00000118777 | rs2231142 | ACME Labs | DNA | REAL TIME POLYMERASE CHAIN REACTION | 1 | SCREENING | -1 | | -25 |", "score": 0.469, "match_basis": "verbatim_token+domain_route:GF"}, {"md_atom_id": "md_dmGF_ex_a038", "md_file": "knowledge_base/domains/GF/examples.md", "md_atom_type": "TABLE_ROW", "md_parent_section": "§GF.2 [Example 2]", "md_verbatim": "| 3 | C12345 | GF | C12345-003 | 1 | NA01001 | SNV | Single Nucleotide Variation | GENOTYPE | G/G | G/G | | GERMLINE | GRCh38.p13 | 4 | ABCG2 | GENE WITH PROTEIN PRODUCT | 4.88131177 | ENSG00000118777 | rs2231142 | ACME Labs | DNA | REAL TIME POLYMERASE CHAIN REACTION | 1 | SCREENING | -1 | 2020-06-3 | -3 |", "score": 0.4635, "match_basis": "verbatim_token+domain_route:GF"}, {"md_atom_id": "md_dmGF_ex_a023", "md_file": "knowledge_base/domains/GF/examples.md", "md_atom_type": "TABLE_ROW", "md_parent_section": "§GF.1 [Example 1]", "md_verbatim": "| 9 | ABC-123 | GF | 123101 | 9 | | CNV | Copy Number Variation | INTERPRETATION | AMPLIFICATION | | | | SOMATIC | | 7 | BRAF | Gene with Protein Product | | | ENSG00000157764 | | | ACME Labs | DNA | REAL TIME POLYMERASE CHAIN REACTION | | 1 | Screening | -25 | | |", "score": 0.459, "match_basis": "verbatim_token+domain_route:GF"}, {"md_atom_id": "md_dmGF_ex_a019", "md_file": "knowledge_base/domains/GF/examples.md", "md_atom_type": "TABLE_ROW", "md_parent_section": "§GF.1 [Example 1]", "md_verbatim": "| 5 | ABC-123 | GF | 123101 | 5 | | SNV | Single Nucleotide Variation | PERCENT VARIANT READ DEPTH | | | 50 | % | SOMATIC | GRCh38.p13 | 7 | BRAF | Gene with Protein Product | 140753336 | Exon 15 | ENSG00000157764 | rs121913227 | | ACME Labs | DNA | REAL TIME POLYMERASE CHAIN REACTION | | 1 | Screening | -25 | | |", "score": 0.4523, "match_basis": "verbatim_token+domain_route:GF"}], "candidate_count": 5, "zero_candidate": false}
{"pdf_atom_id": "ig34_p0222_a013", "pdf_atom_type": "TABLE_ROW", "pdf_source": "SDTMIG_v3.4", "pdf_page": 222, "pdf_parent_section": "§6.3.5.4 Genomics Findings (GF)", "pdf_verbatim": "| GFCOPYID | Copy Identifier | Char | | Variable Qualifier | An arbitrary identifier used to differentiate between copies of a genetic target of interest present on homologous chromosomes. | Perm |", "figure_ref": null, "candidates": [{"md_atom_id": "md_dmGF_ex_a023", "md_file": "knowledge_base/domains/GF/examples.md", "md_atom_type": "TABLE_ROW", "md_parent_section": "§GF.1 [Example 1]", "md_verbatim": "| 9 | ABC-123 | GF | 123101 | 9 | | CNV | Copy Number Variation | INTERPRETATION | AMPLIFICATION | | | | SOMATIC | | 7 | BRAF | Gene with Protein Product | | | ENSG00000157764 | | | ACME Labs | DNA | REAL TIME POLYMERASE CHAIN REACTION | | 1 | Screening | -25 | | |", "score": 0.4655, "match_basis": "verbatim_token+domain_route:GF"}, {"md_atom_id": "md_dmGF_ex_a061", "md_file": "knowledge_base/domains/GF/examples.md", "md_atom_type": "TABLE_ROW", "md_parent_section": "§GF.3 [Example 3]", "md_verbatim": "| 13 | ABC-123 | GF | 123101 | ACME GenePanel 250 | 13 | 1 | ABC1234567 | AP483910 | TRNSCPTN | Transcription | NORMALIZED LEVEL | -0.056299177 | | -0.056299177 | -0.056299177 | | GRCh38.p12 | | ACTB | GENE WITH PROTEIN PRODUCT | NM_001101.5 | | ACME | RNA | TARGETED TRANSCRIPTOME SEQUENCING | DIFFERENCES OF LOG2 INTENSITIES FORMULA | 1 | VISIT 1 | 1 | 2018-09-18 | 2 |", "score": 0.4585, "match_basis": "verbatim_token+domain_route:GF"}, {"md_atom_id": "md_dmGF_ex_a062", "md_file": "knowledge_base/domains/GF/examples.md", "md_atom_type": "TABLE_ROW", "md_parent_section": "§GF.3 [Example 3]", "md_verbatim": "| 14 | ABC-123 | GF | 123101 | ACME GenePanel 250 | 14 | 1 | ABC1234567 | AP483910 | TRNSCPTN | Transcription | NORMALIZED LEVEL | -0.046787999 | | -0.046787999 | -0.046787999 | | GRCh38.p12 | | GAPDH | GENE WITH PROTEIN PRODUCT | NM_001256799.3 | | ACME | RNA | TARGETED TRANSCRIPTOME SEQUENCING | DIFFERENCES OF LOG2 INTENSITIES FORMULA | 1 | VISIT 1 | 1 | 2018-09-18 | 2 |", "score": 0.4576, "match_basis": "verbatim_token+domain_route:GF"}, {"md_atom_id": "md_dmGF_ex_a063", "md_file": "knowledge_base/domains/GF/examples.md", "md_atom_type": "TABLE_ROW", "md_parent_section": "§GF.3 [Example 3]", "md_verbatim": "| 15 | ABC-123 | GF | 123101 | ACME GenePanel 250 | 15 | 2 | ABC1234567 | AP483910 | GENESIG | Gene Signature | GENETIC TRANSCRIPTION INTERPRETATION | LOW | | LOW | | | GRCh38.p12 | | ACTB | GENE WITH PROTEIN PRODUCT | NM_001101.5 | | ACME | RNA | TARGETED TRANSCRIPTOME SEQUENCING | IFN-1 GENE SIGNATURE | 1 | VISIT 1 | 1 | 2018-09-18 | 2 |", "score": 0.4506, "match_basis": "verbatim_token+domain_route:GF"}, {"md_atom_id": "md_dmGF_ex_a021", "md_file": "knowledge_base/domains/GF/examples.md", "md_atom_type": "TABLE_ROW", "md_parent_section": "§GF.1 [Example 1]", "md_verbatim": "| 7 | ABC-123 | GF | 123101 | 7 | | CNV | Copy Number Variation | EXON COPY NUMBER ALTERATION | | | 3 | | SOMATIC | | 7 | BRAF | Gene with Protein Product | | | ENSG00000157764 | | | ACME Labs | DNA | REAL TIME POLYMERASE CHAIN REACTION | | 1 | Screening | -25 | | |", "score": 0.4491, "match_basis": "verbatim_token+domain_route:GF"}], "candidate_count": 5, "zero_candidate": false}
{"pdf_atom_id": "ig34_p0222_a014", "pdf_atom_type": "TABLE_ROW", "pdf_source": "SDTMIG_v3.4", "pdf_page": 222, "pdf_parent_section": "§6.3.5.4 Genomics Findings (GF)", "pdf_verbatim": "| GFSTAT | Completion Status | Char | (ND) | Record Qualifier | Used to indicate that a question was not asked or a test was not done, or a test was attempted but did not generate a result. Should be null or have a value of \"NOT DONE\". | Perm |", "figure_ref": null, "candidates": [{"md_atom_id": "md_dmGF_ex_a023", "md_file": "knowledge_base/domains/GF/examples.md", "md_atom_type": "TABLE_ROW", "md_parent_section": "§GF.1 [Example 1]", "md_verbatim": "| 9 | ABC-123 | GF | 123101 | 9 | | CNV | Copy Number Variation | INTERPRETATION | AMPLIFICATION | | | | SOMATIC | | 7 | BRAF | Gene with Protein Product | | | ENSG00000157764 | | | ACME Labs | DNA | REAL TIME POLYMERASE CHAIN REACTION | | 1 | Screening | -25 | | |", "score": 0.4439, "match_basis": "verbatim_token+domain_route:GF"}, {"md_atom_id": "md_dmGF_ex_a088", "md_file": "knowledge_base/domains/GF/examples.md", "md_atom_type": "TABLE_ROW", "md_parent_section": "§GF.5 [Example 5]", "md_verbatim": "| 1 | INFLU122 | MB | INF01-01 | 1 | INFLU0101.1 | MCORGIDN | Microbial Organism Identification | INFLUENZA A VIRUS SUBTYPE | INFLUENZA A VIRUS SUBTYPE H3N2 | MUCUS | NOSTRIL | NUCLEIC ACID AMPLIFICATION TEST | 1 | BASELINE | 2020-06-11 |", "score": 0.4429, "match_basis": "verbatim_token+domain_route:GF"}, {"md_atom_id": "md_dmGF_ex_a054", "md_file": "knowledge_base/domains/GF/examples.md", "md_atom_type": "TABLE_ROW", "md_parent_section": "§GF.3 [Example 3]", "md_verbatim": "| 6 | ABC-123 | GF | 123101 | ACME GenePanel 250 | 6 | 1 | ABU3908A52 | AH749754 | TRNSCPTN | Transcription | GENETIC TRANSCRIPTION INDICATOR | no | | no | | | hs37d5 | 7 | ACTB | GENE WITH PROTEIN PRODUCT | ENST00000646664.1 | AH749754.fastq.gz | ACME | RNA | TARGETED TRANSCRIPTOME SEQUENCING | | 1 | VISIT 1 | 1 | 2018-09-04 | 2 |", "score": 0.4407, "match_basis": "verbatim_token+domain_route:GF"}, {"md_atom_id": "md_dmGF_ex_a060", "md_file": "knowledge_base/domains/GF/examples.md", "md_atom_type": "TABLE_ROW", "md_parent_section": "§GF.3 [Example 3]", "md_verbatim": "| 12 | ABC-123 | GF | 123101 | ACME GenePanel 250 | 12 | 2 | ABU3908A52 | AH749754 | TRNSCPTN | Transcription | GENETIC TRANSCRIPTION INDICATOR | yes | | yes | | | hs37d5 | 12 | GAPDH | GENE WITH PROTEIN PRODUCT | ENST00000396861.5 | AH749754.fastq.gz | ACME | RNA | TARGETED TRANSCRIPTOME SEQUENCING | | 1 | VISIT 1 | 1 | 2018-09-18 | 2 |", "score": 0.4402, "match_basis": "verbatim_token+domain_route:GF"}, {"md_atom_id": "md_dmGF_ex_a063", "md_file": "knowledge_base/domains/GF/examples.md", "md_atom_type": "TABLE_ROW", "md_parent_section": "§GF.3 [Example 3]", "md_verbatim": "| 15 | ABC-123 | GF | 123101 | ACME GenePanel 250 | 15 | 2 | ABC1234567 | AP483910 | GENESIG | Gene Signature | GENETIC TRANSCRIPTION INTERPRETATION | LOW | | LOW | | | GRCh38.p12 | | ACTB | GENE WITH PROTEIN PRODUCT | NM_001101.5 | | ACME | RNA | TARGETED TRANSCRIPTOME SEQUENCING | IFN-1 GENE SIGNATURE | 1 | VISIT 1 | 1 | 2018-09-18 | 2 |", "score": 0.4305, "match_basis": "verbatim_token+domain_route:GF"}], "candidate_count": 5, "zero_candidate": false}
{"pdf_atom_id": "ig34_p0222_a015", "pdf_atom_type": "TABLE_ROW", "pdf_source": "SDTMIG_v3.4", "pdf_page": 222, "pdf_parent_section": "§6.3.5.4 Genomics Findings (GF)", "pdf_verbatim": "| GFREASND | Reason Test Not Done | Char | | Record Qualifier | Reason not done. Used in conjunction with GFSTAT when value is \"NOT DONE\". | Perm |", "figure_ref": null, "candidates": [{"md_atom_id": "md_dmGF_ex_a023", "md_file": "knowledge_base/domains/GF/examples.md", "md_atom_type": "TABLE_ROW", "md_parent_section": "§GF.1 [Example 1]", "md_verbatim": "| 9 | ABC-123 | GF | 123101 | 9 | | CNV | Copy Number Variation | INTERPRETATION | AMPLIFICATION | | | | SOMATIC | | 7 | BRAF | Gene with Protein Product | | | ENSG00000157764 | | | ACME Labs | DNA | REAL TIME POLYMERASE CHAIN REACTION | | 1 | Screening | -25 | | |", "score": 0.4441, "match_basis": "verbatim_token+domain_route:GF"}, {"md_atom_id": "md_dmGF_ex_a088", "md_file": "knowledge_base/domains/GF/examples.md", "md_atom_type": "TABLE_ROW", "md_parent_section": "§GF.5 [Example 5]", "md_verbatim": "| 1 | INFLU122 | MB | INF01-01 | 1 | INFLU0101.1 | MCORGIDN | Microbial Organism Identification | INFLUENZA A VIRUS SUBTYPE | INFLUENZA A VIRUS SUBTYPE H3N2 | MUCUS | NOSTRIL | NUCLEIC ACID AMPLIFICATION TEST | 1 | BASELINE | 2020-06-11 |", "score": 0.4378, "match_basis": "verbatim_token+domain_route:GF"}, {"md_atom_id": "md_dmGF_ex_a038", "md_file": "knowledge_base/domains/GF/examples.md", "md_atom_type": "TABLE_ROW", "md_parent_section": "§GF.2 [Example 2]", "md_verbatim": "| 3 | C12345 | GF | C12345-003 | 1 | NA01001 | SNV | Single Nucleotide Variation | GENOTYPE | G/G | G/G | | GERMLINE | GRCh38.p13 | 4 | ABCG2 | GENE WITH PROTEIN PRODUCT | 4.88131177 | ENSG00000118777 | rs2231142 | ACME Labs | DNA | REAL TIME POLYMERASE CHAIN REACTION | 1 | SCREENING | -1 | 2020-06-3 | -3 |", "score": 0.4346, "match_basis": "verbatim_token+domain_route:GF"}, {"md_atom_id": "md_dmGF_ex_a020", "md_file": "knowledge_base/domains/GF/examples.md", "md_atom_type": "TABLE_ROW", "md_parent_section": "§GF.1 [Example 1]", "md_verbatim": "| 6 | ABC-123 | GF | 123101 | 6 | | CNV | Copy Number Variation | COPY NUMBER | | | 5 | | SOMATIC | | 7 | BRAF | Gene with Protein Product | | | ENSG00000157764 | | | ACME Labs | DNA | REAL TIME POLYMERASE CHAIN REACTION | | 1 | Screening | -25 | | |", "score": 0.4344, "match_basis": "verbatim_token+domain_route:GF"}, {"md_atom_id": "md_dmGF_ex_a022", "md_file": "knowledge_base/domains/GF/examples.md", "md_atom_type": "TABLE_ROW", "md_parent_section": "§GF.1 [Example 1]", "md_verbatim": "| 8 | ABC-123 | GF | 123101 | 8 | | CNV | Copy Number Variation | COPY NUMBER RATIO | | | 2.5 | | SOMATIC | | 7 | BRAF | Gene with Protein Product | | | ENSG00000157764 | | | ACME Labs | DNA | REAL TIME POLYMERASE CHAIN REACTION | | 1 | Screening | -25 | | |", "score": 0.4341, "match_basis": "verbatim_token+domain_route:GF"}], "candidate_count": 5, "zero_candidate": false}
{"pdf_atom_id": "ig34_p0222_a016", "pdf_atom_type": "TABLE_ROW", "pdf_source": "SDTMIG_v3.4", "pdf_page": 222, "pdf_parent_section": "§6.3.5.4 Genomics Findings (GF)", "pdf_verbatim": "| GFXFN | External File Path | Char | | Record Qualifier | The filename and/or path to external data not stored in the same format and possibly not the same location as the other data for a study. | Perm |", "figure_ref": null, "candidates": [{"md_atom_id": "md_dmGF_ex_a017", "md_file": "knowledge_base/domains/GF/examples.md", "md_atom_type": "TABLE_ROW", "md_parent_section": "§GF.1 [Example 1]", "md_verbatim": "| 3 | ABC-123 | GF | 123101 | 3 | | SNV | Single Nucleotide Variation | VARIANT CLASSIFICATION | Pathogenic | | | | SOMATIC | | 7 | BRAF | Gene with Protein Product | Exon 15 | | ENSG00000157764 | rs121913227 | | ACME Labs | DNA | REAL TIME POLYMERASE CHAIN REACTION | | 1 | Screening | -25 | | |", "score": 0.4364, "match_basis": "verbatim_token+domain_route:GF"}, {"md_atom_id": "md_dmGF_ex_a023", "md_file": "knowledge_base/domains/GF/examples.md", "md_atom_type": "TABLE_ROW", "md_parent_section": "§GF.1 [Example 1]", "md_verbatim": "| 9 | ABC-123 | GF | 123101 | 9 | | CNV | Copy Number Variation | INTERPRETATION | AMPLIFICATION | | | | SOMATIC | | 7 | BRAF | Gene with Protein Product | | | ENSG00000157764 | | | ACME Labs | DNA | REAL TIME POLYMERASE CHAIN REACTION | | 1 | Screening | -25 | | |", "score": 0.436, "match_basis": "verbatim_token+domain_route:GF"}, {"md_atom_id": "md_dmGF_ex_a088", "md_file": "knowledge_base/domains/GF/examples.md", "md_atom_type": "TABLE_ROW", "md_parent_section": "§GF.5 [Example 5]", "md_verbatim": "| 1 | INFLU122 | MB | INF01-01 | 1 | INFLU0101.1 | MCORGIDN | Microbial Organism Identification | INFLUENZA A VIRUS SUBTYPE | INFLUENZA A VIRUS SUBTYPE H3N2 | MUCUS | NOSTRIL | NUCLEIC ACID AMPLIFICATION TEST | 1 | BASELINE | 2020-06-11 |", "score": 0.4298, "match_basis": "verbatim_token+domain_route:GF"}, {"md_atom_id": "md_dmGF_ex_a096", "md_file": "knowledge_base/domains/GF/examples.md", "md_atom_type": "TABLE_ROW", "md_parent_section": "§GF.5 [Example 5]", "md_verbatim": "| 2 | INFLU122 | GF | INF01-01 | 2 | INFLU0102 | INFLUENZA A H3N2 | GF-MS-02 | SNV | Single Nucleotide Variation | PREDICTED AMINO ACID CHANGE | R292K | R292K | NA | 292 | U43427 | RNA | | 2 | DAY 2 | 2020-06-12 |", "score": 0.4295, "match_basis": "verbatim_token+domain_route:GF"}, {"md_atom_id": "md_dmGF_ex_a097", "md_file": "knowledge_base/domains/GF/examples.md", "md_atom_type": "TABLE_ROW", "md_parent_section": "§GF.5 [Example 5]", "md_verbatim": "| 3 | INFLU122 | GF | INF01-01 | 3 | INFLU0103 | INFLUENZA A H3N2 | GF-MS-03 | SNV | Single Nucleotide Variation | PREDICTED AMINO ACID CHANGE | R292K | R292K | NA | 292 | U43427 | RNA | | 3 | DAY 5 | 2020-06-15 |", "score": 0.4295, "match_basis": "verbatim_token+domain_route:GF"}], "candidate_count": 5, "zero_candidate": false}
{"pdf_atom_id": "ig34_p0222_a017", "pdf_atom_type": "TABLE_ROW", "pdf_source": "SDTMIG_v3.4", "pdf_page": 222, "pdf_parent_section": "§6.3.5.4 Genomics Findings (GF)", "pdf_verbatim": "| GFNAM | Laboratory/Vendor Name | Char | | Record Qualifier | Name or identifier of the vendor that provided the test result. When more than 1 vendor is involved in the generation of the result, additional vendors should be represented as supplemental qualifiers. | Perm |", "figure_ref": null, "candidates": [{"md_atom_id": "md_dmGF_ex_a088", "md_file": "knowledge_base/domains/GF/examples.md", "md_atom_type": "TABLE_ROW", "md_parent_section": "§GF.5 [Example 5]", "md_verbatim": "| 1 | INFLU122 | MB | INF01-01 | 1 | INFLU0101.1 | MCORGIDN | Microbial Organism Identification | INFLUENZA A VIRUS SUBTYPE | INFLUENZA A VIRUS SUBTYPE H3N2 | MUCUS | NOSTRIL | NUCLEIC ACID AMPLIFICATION TEST | 1 | BASELINE | 2020-06-11 |", "score": 0.4464, "match_basis": "verbatim_token+domain_route:GF"}, {"md_atom_id": "md_dmGF_ex_a023", "md_file": "knowledge_base/domains/GF/examples.md", "md_atom_type": "TABLE_ROW", "md_parent_section": "§GF.1 [Example 1]", "md_verbatim": "| 9 | ABC-123 | GF | 123101 | 9 | | CNV | Copy Number Variation | INTERPRETATION | AMPLIFICATION | | | | SOMATIC | | 7 | BRAF | Gene with Protein Product | | | ENSG00000157764 | | | ACME Labs | DNA | REAL TIME POLYMERASE CHAIN REACTION | | 1 | Screening | -25 | | |", "score": 0.4436, "match_basis": "verbatim_token+domain_route:GF"}, {"md_atom_id": "md_dmGF_ex_a081", "md_file": "knowledge_base/domains/GF/examples.md", "md_atom_type": "TABLE_ROW", "md_parent_section": "§GF.4 [Example 4]", "md_verbatim": "| 5 | ABC123 | GF | 123101 | 5 | 4401470-2-6 | MICRISTB | Microsatellite Instability | DETECTION | Not Detected | Not Detected | NR-21 | msi_abc_gf.csv | ACME Laboratories | DNA | CAPILLARY ELECTROPHORESIS | MS-D10418 | 1 | VISIT 1 | 1 | 2020-02-04 | -2 |", "score": 0.4416, "match_basis": "verbatim_token+domain_route:GF"}, {"md_atom_id": "md_dmGF_ex_a082", "md_file": "knowledge_base/domains/GF/examples.md", "md_atom_type": "TABLE_ROW", "md_parent_section": "§GF.4 [Example 4]", "md_verbatim": "| 6 | ABC123 | GF | 123101 | 6 | 4401470-2-6 | MICRISTB | Microsatellite Instability | DETECTION | Not Detected | Not Detected | NR-24 | msi_abc_gf.csv | ACME Laboratories | DNA | CAPILLARY ELECTROPHORESIS | MS-D10418 | 1 | VISIT 1 | 1 | 2020-02-04 | -2 |", "score": 0.4416, "match_basis": "verbatim_token+domain_route:GF"}, {"md_atom_id": "md_dmGF_ex_a078", "md_file": "knowledge_base/domains/GF/examples.md", "md_atom_type": "TABLE_ROW", "md_parent_section": "§GF.4 [Example 4]", "md_verbatim": "| 2 | ABC123 | GF | 123101 | 2 | 4401470-2-6 | MICRISTB | Microsatellite Instability | DETECTION | Not Detected | Not Detected | BAT-25 | msi_abc_gf.csv | ACME Laboratories | DNA | CAPILLARY ELECTROPHORESIS | MS-D10418 | 1 | VISIT 1 | 1 | 2020-02-04 | -2 |", "score": 0.4414, "match_basis": "verbatim_token+domain_route:GF"}], "candidate_count": 5, "zero_candidate": false}
{"pdf_atom_id": "ig34_p0222_a018", "pdf_atom_type": "TABLE_ROW", "pdf_source": "SDTMIG_v3.4", "pdf_page": 222, "pdf_parent_section": "§6.3.5.4 Genomics Findings (GF)", "pdf_verbatim": "| GFSPEC | Specimen Material Type | Char | (GENSMP) | Record Qualifier | Identifies the type of genetic material used for the measurement. | Perm |", "figure_ref": null, "candidates": [{"md_atom_id": "md_dmGF_ex_a088", "md_file": "knowledge_base/domains/GF/examples.md", "md_atom_type": "TABLE_ROW", "md_parent_section": "§GF.5 [Example 5]", "md_verbatim": "| 1 | INFLU122 | MB | INF01-01 | 1 | INFLU0101.1 | MCORGIDN | Microbial Organism Identification | INFLUENZA A VIRUS SUBTYPE | INFLUENZA A VIRUS SUBTYPE H3N2 | MUCUS | NOSTRIL | NUCLEIC ACID AMPLIFICATION TEST | 1 | BASELINE | 2020-06-11 |", "score": 0.4508, "match_basis": "verbatim_token+domain_route:GF"}, {"md_atom_id": "md_dmGF_ex_a023", "md_file": "knowledge_base/domains/GF/examples.md", "md_atom_type": "TABLE_ROW", "md_parent_section": "§GF.1 [Example 1]", "md_verbatim": "| 9 | ABC-123 | GF | 123101 | 9 | | CNV | Copy Number Variation | INTERPRETATION | AMPLIFICATION | | | | SOMATIC | | 7 | BRAF | Gene with Protein Product | | | ENSG00000157764 | | | ACME Labs | DNA | REAL TIME POLYMERASE CHAIN REACTION | | 1 | Screening | -25 | | |", "score": 0.4468, "match_basis": "verbatim_token+domain_route:GF"}, {"md_atom_id": "md_dmGF_ex_a021", "md_file": "knowledge_base/domains/GF/examples.md", "md_atom_type": "TABLE_ROW", "md_parent_section": "§GF.1 [Example 1]", "md_verbatim": "| 7 | ABC-123 | GF | 123101 | 7 | | CNV | Copy Number Variation | EXON COPY NUMBER ALTERATION | | | 3 | | SOMATIC | | 7 | BRAF | Gene with Protein Product | | | ENSG00000157764 | | | ACME Labs | DNA | REAL TIME POLYMERASE CHAIN REACTION | | 1 | Screening | -25 | | |", "score": 0.4409, "match_basis": "verbatim_token+domain_route:GF"}, {"md_atom_id": "md_dmGF_ex_a019", "md_file": "knowledge_base/domains/GF/examples.md", "md_atom_type": "TABLE_ROW", "md_parent_section": "§GF.1 [Example 1]", "md_verbatim": "| 5 | ABC-123 | GF | 123101 | 5 | | SNV | Single Nucleotide Variation | PERCENT VARIANT READ DEPTH | | | 50 | % | SOMATIC | GRCh38.p13 | 7 | BRAF | Gene with Protein Product | 140753336 | Exon 15 | ENSG00000157764 | rs121913227 | | ACME Labs | DNA | REAL TIME POLYMERASE CHAIN REACTION | | 1 | Screening | -25 | | |", "score": 0.4405, "match_basis": "verbatim_token+domain_route:GF"}, {"md_atom_id": "md_dmGF_ex_a017", "md_file": "knowledge_base/domains/GF/examples.md", "md_atom_type": "TABLE_ROW", "md_parent_section": "§GF.1 [Example 1]", "md_verbatim": "| 3 | ABC-123 | GF | 123101 | 3 | | SNV | Single Nucleotide Variation | VARIANT CLASSIFICATION | Pathogenic | | | | SOMATIC | | 7 | BRAF | Gene with Protein Product | Exon 15 | | ENSG00000157764 | rs121913227 | | ACME Labs | DNA | REAL TIME POLYMERASE CHAIN REACTION | | 1 | Screening | -25 | | |", "score": 0.438, "match_basis": "verbatim_token+domain_route:GF"}], "candidate_count": 5, "zero_candidate": false}
{"pdf_atom_id": "ig34_p0222_a019", "pdf_atom_type": "TABLE_ROW", "pdf_source": "SDTMIG_v3.4", "pdf_page": 222, "pdf_parent_section": "§6.3.5.4 Genomics Findings (GF)", "pdf_verbatim": "| GFMETHOD | Method of Test or Examination | Char | (METHOD) | Record Qualifier | The test method by which the examination is performed by the wet lab in order to yield the result reported in the dataset. | Exp |", "figure_ref": null, "candidates": [{"md_atom_id": "md_dmGF_ex_a088", "md_file": "knowledge_base/domains/GF/examples.md", "md_atom_type": "TABLE_ROW", "md_parent_section": "§GF.5 [Example 5]", "md_verbatim": "| 1 | INFLU122 | MB | INF01-01 | 1 | INFLU0101.1 | MCORGIDN | Microbial Organism Identification | INFLUENZA A VIRUS SUBTYPE | INFLUENZA A VIRUS SUBTYPE H3N2 | MUCUS | NOSTRIL | NUCLEIC ACID AMPLIFICATION TEST | 1 | BASELINE | 2020-06-11 |", "score": 0.4386, "match_basis": "verbatim_token+domain_route:GF"}, {"md_atom_id": "md_dmGF_ex_a095", "md_file": "knowledge_base/domains/GF/examples.md", "md_atom_type": "TABLE_ROW", "md_parent_section": "§GF.5 [Example 5]", "md_verbatim": "| 1 | INFLU122 | GF | INF01-01 | 1 | INFLU0101.1 | INFLUENZA A H3N2 | GF-MS-01 | SNV | Single Nucleotide Variation | PREDICTED AMINO ACID CHANGE | R292R | R292R | NA | 292 | U43427 | RNA | | 1 | BASELINE | 2020-06-11 |", "score": 0.4381, "match_basis": "verbatim_token+domain_route:GF"}, {"md_atom_id": "md_dmGF_ex_a096", "md_file": "knowledge_base/domains/GF/examples.md", "md_atom_type": "TABLE_ROW", "md_parent_section": "§GF.5 [Example 5]", "md_verbatim": "| 2 | INFLU122 | GF | INF01-01 | 2 | INFLU0102 | INFLUENZA A H3N2 | GF-MS-02 | SNV | Single Nucleotide Variation | PREDICTED AMINO ACID CHANGE | R292K | R292K | NA | 292 | U43427 | RNA | | 2 | DAY 2 | 2020-06-12 |", "score": 0.4344, "match_basis": "verbatim_token+domain_route:GF"}, {"md_atom_id": "md_dmGF_ex_a097", "md_file": "knowledge_base/domains/GF/examples.md", "md_atom_type": "TABLE_ROW", "md_parent_section": "§GF.5 [Example 5]", "md_verbatim": "| 3 | INFLU122 | GF | INF01-01 | 3 | INFLU0103 | INFLUENZA A H3N2 | GF-MS-03 | SNV | Single Nucleotide Variation | PREDICTED AMINO ACID CHANGE | R292K | R292K | NA | 292 | U43427 | RNA | | 3 | DAY 5 | 2020-06-15 |", "score": 0.4344, "match_basis": "verbatim_token+domain_route:GF"}, {"md_atom_id": "md_dmGF_ex_a023", "md_file": "knowledge_base/domains/GF/examples.md", "md_atom_type": "TABLE_ROW", "md_parent_section": "§GF.1 [Example 1]", "md_verbatim": "| 9 | ABC-123 | GF | 123101 | 9 | | CNV | Copy Number Variation | INTERPRETATION | AMPLIFICATION | | | | SOMATIC | | 7 | BRAF | Gene with Protein Product | | | ENSG00000157764 | | | ACME Labs | DNA | REAL TIME POLYMERASE CHAIN REACTION | | 1 | Screening | -25 | | |", "score": 0.4316, "match_basis": "verbatim_token+domain_route:GF"}], "candidate_count": 5, "zero_candidate": false}
{"pdf_atom_id": "ig34_p0222_a020", "pdf_atom_type": "TABLE_ROW", "pdf_source": "SDTMIG_v3.4", "pdf_page": 222, "pdf_parent_section": "§6.3.5.4 Genomics Findings (GF)", "pdf_verbatim": "| GFRUNID | Run ID | Char | | Record Qualifier | A unique identifier for a particular run of a test performed by the wet lab on a particular batch of samples. This identifier can be used to distinguish between records for the same test performed at different times. | Perm |", "figure_ref": null, "candidates": [{"md_atom_id": "md_dmGF_ex_a088", "md_file": "knowledge_base/domains/GF/examples.md", "md_atom_type": "TABLE_ROW", "md_parent_section": "§GF.5 [Example 5]", "md_verbatim": "| 1 | INFLU122 | MB | INF01-01 | 1 | INFLU0101.1 | MCORGIDN | Microbial Organism Identification | INFLUENZA A VIRUS SUBTYPE | INFLUENZA A VIRUS SUBTYPE H3N2 | MUCUS | NOSTRIL | NUCLEIC ACID AMPLIFICATION TEST | 1 | BASELINE | 2020-06-11 |", "score": 0.4456, "match_basis": "verbatim_token+domain_route:GF"}, {"md_atom_id": "md_dmGF_ex_a023", "md_file": "knowledge_base/domains/GF/examples.md", "md_atom_type": "TABLE_ROW", "md_parent_section": "§GF.1 [Example 1]", "md_verbatim": "| 9 | ABC-123 | GF | 123101 | 9 | | CNV | Copy Number Variation | INTERPRETATION | AMPLIFICATION | | | | SOMATIC | | 7 | BRAF | Gene with Protein Product | | | ENSG00000157764 | | | ACME Labs | DNA | REAL TIME POLYMERASE CHAIN REACTION | | 1 | Screening | -25 | | |", "score": 0.4388, "match_basis": "verbatim_token+domain_route:GF"}, {"md_atom_id": "md_dmGF_ex_a061", "md_file": "knowledge_base/domains/GF/examples.md", "md_atom_type": "TABLE_ROW", "md_parent_section": "§GF.3 [Example 3]", "md_verbatim": "| 13 | ABC-123 | GF | 123101 | ACME GenePanel 250 | 13 | 1 | ABC1234567 | AP483910 | TRNSCPTN | Transcription | NORMALIZED LEVEL | -0.056299177 | | -0.056299177 | -0.056299177 | | GRCh38.p12 | | ACTB | GENE WITH PROTEIN PRODUCT | NM_001101.5 | | ACME | RNA | TARGETED TRANSCRIPTOME SEQUENCING | DIFFERENCES OF LOG2 INTENSITIES FORMULA | 1 | VISIT 1 | 1 | 2018-09-18 | 2 |", "score": 0.436, "match_basis": "verbatim_token+domain_route:GF"}, {"md_atom_id": "md_dmGF_ex_a062", "md_file": "knowledge_base/domains/GF/examples.md", "md_atom_type": "TABLE_ROW", "md_parent_section": "§GF.3 [Example 3]", "md_verbatim": "| 14 | ABC-123 | GF | 123101 | ACME GenePanel 250 | 14 | 1 | ABC1234567 | AP483910 | TRNSCPTN | Transcription | NORMALIZED LEVEL | -0.046787999 | | -0.046787999 | -0.046787999 | | GRCh38.p12 | | GAPDH | GENE WITH PROTEIN PRODUCT | NM_001256799.3 | | ACME | RNA | TARGETED TRANSCRIPTOME SEQUENCING | DIFFERENCES OF LOG2 INTENSITIES FORMULA | 1 | VISIT 1 | 1 | 2018-09-18 | 2 |", "score": 0.4355, "match_basis": "verbatim_token+domain_route:GF"}, {"md_atom_id": "md_dmGF_ex_a019", "md_file": "knowledge_base/domains/GF/examples.md", "md_atom_type": "TABLE_ROW", "md_parent_section": "§GF.1 [Example 1]", "md_verbatim": "| 5 | ABC-123 | GF | 123101 | 5 | | SNV | Single Nucleotide Variation | PERCENT VARIANT READ DEPTH | | | 50 | % | SOMATIC | GRCh38.p13 | 7 | BRAF | Gene with Protein Product | 140753336 | Exon 15 | ENSG00000157764 | rs121913227 | | ACME Labs | DNA | REAL TIME POLYMERASE CHAIN REACTION | | 1 | Screening | -25 | | |", "score": 0.4311, "match_basis": "verbatim_token+domain_route:GF"}], "candidate_count": 5, "zero_candidate": false}
{"pdf_atom_id": "ig34_p0222_a021", "pdf_atom_type": "TABLE_ROW", "pdf_source": "SDTMIG_v3.4", "pdf_page": 222, "pdf_parent_section": "§6.3.5.4 Genomics Findings (GF)", "pdf_verbatim": "| GFANMETH | Analysis Method | Char | (GFANMET) | Record Qualifier | The method of secondary processing performed by the dry lab to yield the result reported in the dataset. | Perm |", "figure_ref": null, "candidates": [{"md_atom_id": "md_dmGF_ex_a017", "md_file": "knowledge_base/domains/GF/examples.md", "md_atom_type": "TABLE_ROW", "md_parent_section": "§GF.1 [Example 1]", "md_verbatim": "| 3 | ABC-123 | GF | 123101 | 3 | | SNV | Single Nucleotide Variation | VARIANT CLASSIFICATION | Pathogenic | | | | SOMATIC | | 7 | BRAF | Gene with Protein Product | Exon 15 | | ENSG00000157764 | rs121913227 | | ACME Labs | DNA | REAL TIME POLYMERASE CHAIN REACTION | | 1 | Screening | -25 | | |", "score": 0.4312, "match_basis": "verbatim_token+domain_route:GF"}, {"md_atom_id": "md_dmGF_ex_a023", "md_file": "knowledge_base/domains/GF/examples.md", "md_atom_type": "TABLE_ROW", "md_parent_section": "§GF.1 [Example 1]", "md_verbatim": "| 9 | ABC-123 | GF | 123101 | 9 | | CNV | Copy Number Variation | INTERPRETATION | AMPLIFICATION | | | | SOMATIC | | 7 | BRAF | Gene with Protein Product | | | ENSG00000157764 | | | ACME Labs | DNA | REAL TIME POLYMERASE CHAIN REACTION | | 1 | Screening | -25 | | |", "score": 0.4264, "match_basis": "verbatim_token+domain_route:GF"}, {"md_atom_id": "md_dmGF_ex_a050", "md_file": "knowledge_base/domains/GF/examples.md", "md_atom_type": "TABLE_ROW", "md_parent_section": "§GF.3 [Example 3]", "md_verbatim": "| 2 | ABC-123 | GF | 123101 | ACME GenePanel 250 | 2 | 1 | ABU3908A52 | AH749754 | TRNSCPTN | Transcription | NORMALIZED LEVEL | 0.5679 | /MBP | 0.5679 | 0.5679 | /MBP | hs37d5 | 7 | ACTB | GENE WITH PROTEIN PRODUCT | ENST00000646664.1 | AH749754.fastq.gz | ACME | RNA | TARGETED TRANSCRIPTOME SEQUENCING | FRAGMENTS PER KILOBASE MILLION FORMULA | 1 | VISIT 1 | 1 | 2018-09-04 | 2 |", "score": 0.4244, "match_basis": "verbatim_token+domain_route:GF"}, {"md_atom_id": "md_dmGF_ex_a056", "md_file": "knowledge_base/domains/GF/examples.md", "md_atom_type": "TABLE_ROW", "md_parent_section": "§GF.3 [Example 3]", "md_verbatim": "| 8 | ABC-123 | GF | 123101 | ACME GenePanel 250 | 8 | 2 | ABU3908A52 | AH749754 | TRNSCPTN | Transcription | NORMALIZED LEVEL | 148.6268 | /MBP | 148.6268 | 148.6268 | /MBP | hs37d5 | 12 | GAPDH | GENE WITH PROTEIN PRODUCT | ENST00000396861.5 | AH749754.fastq.gz | ACME | RNA | TARGETED TRANSCRIPTOME SEQUENCING | FRAGMENTS PER KILOBASE MILLION FORMULA | 1 | VISIT 1 | 1 | 2018-09-18 | 2 |", "score": 0.4241, "match_basis": "verbatim_token+domain_route:GF"}, {"md_atom_id": "md_dmGF_ex_a038", "md_file": "knowledge_base/domains/GF/examples.md", "md_atom_type": "TABLE_ROW", "md_parent_section": "§GF.2 [Example 2]", "md_verbatim": "| 3 | C12345 | GF | C12345-003 | 1 | NA01001 | SNV | Single Nucleotide Variation | GENOTYPE | G/G | G/G | | GERMLINE | GRCh38.p13 | 4 | ABCG2 | GENE WITH PROTEIN PRODUCT | 4.88131177 | ENSG00000118777 | rs2231142 | ACME Labs | DNA | REAL TIME POLYMERASE CHAIN REACTION | 1 | SCREENING | -1 | 2020-06-3 | -3 |", "score": 0.4236, "match_basis": "verbatim_token+domain_route:GF"}], "candidate_count": 5, "zero_candidate": false}
{"pdf_atom_id": "ig34_p0222_a022", "pdf_atom_type": "TABLE_ROW", "pdf_source": "SDTMIG_v3.4", "pdf_page": 222, "pdf_parent_section": "§6.3.5.4 Genomics Findings (GF)", "pdf_verbatim": "| GFBLFL | Baseline Flag | Char | (NY) | Record Qualifier | Indicator used to identify a baseline value. Should be \"Y\" or null. | Perm |", "figure_ref": null, "candidates": [{"md_atom_id": "md_dmGF_ex_a088", "md_file": "knowledge_base/domains/GF/examples.md", "md_atom_type": "TABLE_ROW", "md_parent_section": "§GF.5 [Example 5]", "md_verbatim": "| 1 | INFLU122 | MB | INF01-01 | 1 | INFLU0101.1 | MCORGIDN | Microbial Organism Identification | INFLUENZA A VIRUS SUBTYPE | INFLUENZA A VIRUS SUBTYPE H3N2 | MUCUS | NOSTRIL | NUCLEIC ACID AMPLIFICATION TEST | 1 | BASELINE | 2020-06-11 |", "score": 0.4857, "match_basis": "verbatim_token+domain_route:GF"}, {"md_atom_id": "md_dmGF_ex_a095", "md_file": "knowledge_base/domains/GF/examples.md", "md_atom_type": "TABLE_ROW", "md_parent_section": "§GF.5 [Example 5]", "md_verbatim": "| 1 | INFLU122 | GF | INF01-01 | 1 | INFLU0101.1 | INFLUENZA A H3N2 | GF-MS-01 | SNV | Single Nucleotide Variation | PREDICTED AMINO ACID CHANGE | R292R | R292R | NA | 292 | U43427 | RNA | | 1 | BASELINE | 2020-06-11 |", "score": 0.4541, "match_basis": "verbatim_token+domain_route:GF"}, {"md_atom_id": "md_dmGF_ex_a103", "md_file": "knowledge_base/domains/GF/examples.md", "md_atom_type": "TABLE_ROW", "md_parent_section": "§GF.5 [Example 5]", "md_verbatim": "| 1 | INFLU122 | MS | INF01-01 | 1 | INFLU0101.1 | INFLUENZA A H3N2 | GF-MS-01 | MICROSUS | Microbial Susceptibility | OSELTAMIVIR | SUSCEPTIBLE | SUSCEPTIBLE | | 1 | BASELINE | 2020-06-11 |", "score": 0.4416, "match_basis": "verbatim_token+domain_route:GF"}, {"md_atom_id": "md_dmGF_ex_a054", "md_file": "knowledge_base/domains/GF/examples.md", "md_atom_type": "TABLE_ROW", "md_parent_section": "§GF.3 [Example 3]", "md_verbatim": "| 6 | ABC-123 | GF | 123101 | ACME GenePanel 250 | 6 | 1 | ABU3908A52 | AH749754 | TRNSCPTN | Transcription | GENETIC TRANSCRIPTION INDICATOR | no | | no | | | hs37d5 | 7 | ACTB | GENE WITH PROTEIN PRODUCT | ENST00000646664.1 | AH749754.fastq.gz | ACME | RNA | TARGETED TRANSCRIPTOME SEQUENCING | | 1 | VISIT 1 | 1 | 2018-09-04 | 2 |", "score": 0.4275, "match_basis": "verbatim_token+domain_route:GF"}, {"md_atom_id": "md_dmGF_ex_a060", "md_file": "knowledge_base/domains/GF/examples.md", "md_atom_type": "TABLE_ROW", "md_parent_section": "§GF.3 [Example 3]", "md_verbatim": "| 12 | ABC-123 | GF | 123101 | ACME GenePanel 250 | 12 | 2 | ABU3908A52 | AH749754 | TRNSCPTN | Transcription | GENETIC TRANSCRIPTION INDICATOR | yes | | yes | | | hs37d5 | 12 | GAPDH | GENE WITH PROTEIN PRODUCT | ENST00000396861.5 | AH749754.fastq.gz | ACME | RNA | TARGETED TRANSCRIPTOME SEQUENCING | | 1 | VISIT 1 | 1 | 2018-09-18 | 2 |", "score": 0.4271, "match_basis": "verbatim_token+domain_route:GF"}], "candidate_count": 5, "zero_candidate": false}
{"pdf_atom_id": "ig34_p0222_a023", "pdf_atom_type": "TABLE_ROW", "pdf_source": "SDTMIG_v3.4", "pdf_page": 222, "pdf_parent_section": "§6.3.5.4 Genomics Findings (GF)", "pdf_verbatim": "| GFDRVFL | Derived Flag | Char | (NY) | Record Qualifier | Used to indicate a derived record (e.g., a record that represents the average of other records such as a computed baseline). Should be \"Y\" or null. | Perm |", "figure_ref": null, "candidates": [{"md_atom_id": "md_dmGF_ex_a088", "md_file": "knowledge_base/domains/GF/examples.md", "md_atom_type": "TABLE_ROW", "md_parent_section": "§GF.5 [Example 5]", "md_verbatim": "| 1 | INFLU122 | MB | INF01-01 | 1 | INFLU0101.1 | MCORGIDN | Microbial Organism Identification | INFLUENZA A VIRUS SUBTYPE | INFLUENZA A VIRUS SUBTYPE H3N2 | MUCUS | NOSTRIL | NUCLEIC ACID AMPLIFICATION TEST | 1 | BASELINE | 2020-06-11 |", "score": 0.449, "match_basis": "verbatim_token+domain_route:GF"}, {"md_atom_id": "md_dmGF_ex_a095", "md_file": "knowledge_base/domains/GF/examples.md", "md_atom_type": "TABLE_ROW", "md_parent_section": "§GF.5 [Example 5]", "md_verbatim": "| 1 | INFLU122 | GF | INF01-01 | 1 | INFLU0101.1 | INFLUENZA A H3N2 | GF-MS-01 | SNV | Single Nucleotide Variation | PREDICTED AMINO ACID CHANGE | R292R | R292R | NA | 292 | U43427 | RNA | | 1 | BASELINE | 2020-06-11 |", "score": 0.4448, "match_basis": "verbatim_token+domain_route:GF"}, {"md_atom_id": "md_dmGF_ex_a023", "md_file": "knowledge_base/domains/GF/examples.md", "md_atom_type": "TABLE_ROW", "md_parent_section": "§GF.1 [Example 1]", "md_verbatim": "| 9 | ABC-123 | GF | 123101 | 9 | | CNV | Copy Number Variation | INTERPRETATION | AMPLIFICATION | | | | SOMATIC | | 7 | BRAF | Gene with Protein Product | | | ENSG00000157764 | | | ACME Labs | DNA | REAL TIME POLYMERASE CHAIN REACTION | | 1 | Screening | -25 | | |", "score": 0.4296, "match_basis": "verbatim_token+domain_route:GF"}, {"md_atom_id": "md_dmGF_ex_a103", "md_file": "knowledge_base/domains/GF/examples.md", "md_atom_type": "TABLE_ROW", "md_parent_section": "§GF.5 [Example 5]", "md_verbatim": "| 1 | INFLU122 | MS | INF01-01 | 1 | INFLU0101.1 | INFLUENZA A H3N2 | GF-MS-01 | MICROSUS | Microbial Susceptibility | OSELTAMIVIR | SUSCEPTIBLE | SUSCEPTIBLE | | 1 | BASELINE | 2020-06-11 |", "score": 0.4288, "match_basis": "verbatim_token+domain_route:GF"}, {"md_atom_id": "md_dmGF_ex_a050", "md_file": "knowledge_base/domains/GF/examples.md", "md_atom_type": "TABLE_ROW", "md_parent_section": "§GF.3 [Example 3]", "md_verbatim": "| 2 | ABC-123 | GF | 123101 | ACME GenePanel 250 | 2 | 1 | ABU3908A52 | AH749754 | TRNSCPTN | Transcription | NORMALIZED LEVEL | 0.5679 | /MBP | 0.5679 | 0.5679 | /MBP | hs37d5 | 7 | ACTB | GENE WITH PROTEIN PRODUCT | ENST00000646664.1 | AH749754.fastq.gz | ACME | RNA | TARGETED TRANSCRIPTOME SEQUENCING | FRAGMENTS PER KILOBASE MILLION FORMULA | 1 | VISIT 1 | 1 | 2018-09-04 | 2 |", "score": 0.4239, "match_basis": "verbatim_token+domain_route:GF"}], "candidate_count": 5, "zero_candidate": false}
{"pdf_atom_id": "ig34_p0222_a024", "pdf_atom_type": "TABLE_ROW", "pdf_source": "SDTMIG_v3.4", "pdf_page": 222, "pdf_parent_section": "§6.3.5.4 Genomics Findings (GF)", "pdf_verbatim": "| GFLLOQ | Lower Limit of Quantitation | Num | | Variable Qualifier | Indicates the lower limit of quantitation for an assay. Units will be those used for GFSTRESU. | Perm |", "figure_ref": null, "candidates": [{"md_atom_id": "md_dmGF_ex_a023", "md_file": "knowledge_base/domains/GF/examples.md", "md_atom_type": "TABLE_ROW", "md_parent_section": "§GF.1 [Example 1]", "md_verbatim": "| 9 | ABC-123 | GF | 123101 | 9 | | CNV | Copy Number Variation | INTERPRETATION | AMPLIFICATION | | | | SOMATIC | | 7 | BRAF | Gene with Protein Product | | | ENSG00000157764 | | | ACME Labs | DNA | REAL TIME POLYMERASE CHAIN REACTION | | 1 | Screening | -25 | | |", "score": 0.449, "match_basis": "verbatim_token+domain_route:GF"}, {"md_atom_id": "md_dmGF_ex_a017", "md_file": "knowledge_base/domains/GF/examples.md", "md_atom_type": "TABLE_ROW", "md_parent_section": "§GF.1 [Example 1]", "md_verbatim": "| 3 | ABC-123 | GF | 123101 | 3 | | SNV | Single Nucleotide Variation | VARIANT CLASSIFICATION | Pathogenic | | | | SOMATIC | | 7 | BRAF | Gene with Protein Product | Exon 15 | | ENSG00000157764 | rs121913227 | | ACME Labs | DNA | REAL TIME POLYMERASE CHAIN REACTION | | 1 | Screening | -25 | | |", "score": 0.4442, "match_basis": "verbatim_token+domain_route:GF"}, {"md_atom_id": "md_dmGF_ex_a088", "md_file": "knowledge_base/domains/GF/examples.md", "md_atom_type": "TABLE_ROW", "md_parent_section": "§GF.5 [Example 5]", "md_verbatim": "| 1 | INFLU122 | MB | INF01-01 | 1 | INFLU0101.1 | MCORGIDN | Microbial Organism Identification | INFLUENZA A VIRUS SUBTYPE | INFLUENZA A VIRUS SUBTYPE H3N2 | MUCUS | NOSTRIL | NUCLEIC ACID AMPLIFICATION TEST | 1 | BASELINE | 2020-06-11 |", "score": 0.4435, "match_basis": "verbatim_token+domain_route:GF"}, {"md_atom_id": "md_dmGF_ex_a096", "md_file": "knowledge_base/domains/GF/examples.md", "md_atom_type": "TABLE_ROW", "md_parent_section": "§GF.5 [Example 5]", "md_verbatim": "| 2 | INFLU122 | GF | INF01-01 | 2 | INFLU0102 | INFLUENZA A H3N2 | GF-MS-02 | SNV | Single Nucleotide Variation | PREDICTED AMINO ACID CHANGE | R292K | R292K | NA | 292 | U43427 | RNA | | 2 | DAY 2 | 2020-06-12 |", "score": 0.4347, "match_basis": "verbatim_token+domain_route:GF"}, {"md_atom_id": "md_dmGF_ex_a097", "md_file": "knowledge_base/domains/GF/examples.md", "md_atom_type": "TABLE_ROW", "md_parent_section": "§GF.5 [Example 5]", "md_verbatim": "| 3 | INFLU122 | GF | INF01-01 | 3 | INFLU0103 | INFLUENZA A H3N2 | GF-MS-03 | SNV | Single Nucleotide Variation | PREDICTED AMINO ACID CHANGE | R292K | R292K | NA | 292 | U43427 | RNA | | 3 | DAY 5 | 2020-06-15 |", "score": 0.4347, "match_basis": "verbatim_token+domain_route:GF"}], "candidate_count": 5, "zero_candidate": false}
{"pdf_atom_id": "ig34_p0223_a001", "pdf_atom_type": "TABLE_ROW", "pdf_source": "SDTMIG_v3.4", "pdf_page": 223, "pdf_parent_section": "§6.3.5.4 Genomics Findings (GF)", "pdf_verbatim": "| GFREPNUM | Repetition Number | Num | | Record Qualifier | The instance number of a test that is repeated within a given timeframe for the same test performed by the wet lab. | Perm |", "figure_ref": null, "candidates": [{"md_atom_id": "md_dmGF_ex_a023", "md_file": "knowledge_base/domains/GF/examples.md", "md_atom_type": "TABLE_ROW", "md_parent_section": "§GF.1 [Example 1]", "md_verbatim": "| 9 | ABC-123 | GF | 123101 | 9 | | CNV | Copy Number Variation | INTERPRETATION | AMPLIFICATION | | | | SOMATIC | | 7 | BRAF | Gene with Protein Product | | | ENSG00000157764 | | | ACME Labs | DNA | REAL TIME POLYMERASE CHAIN REACTION | | 1 | Screening | -25 | | |", "score": 0.452, "match_basis": "verbatim_token+domain_route:GF"}, {"md_atom_id": "md_dmGF_ex_a020", "md_file": "knowledge_base/domains/GF/examples.md", "md_atom_type": "TABLE_ROW", "md_parent_section": "§GF.1 [Example 1]", "md_verbatim": "| 6 | ABC-123 | GF | 123101 | 6 | | CNV | Copy Number Variation | COPY NUMBER | | | 5 | | SOMATIC | | 7 | BRAF | Gene with Protein Product | | | ENSG00000157764 | | | ACME Labs | DNA | REAL TIME POLYMERASE CHAIN REACTION | | 1 | Screening | -25 | | |", "score": 0.4489, "match_basis": "verbatim_token+domain_route:GF"}, {"md_atom_id": "md_dmGF_ex_a022", "md_file": "knowledge_base/domains/GF/examples.md", "md_atom_type": "TABLE_ROW", "md_parent_section": "§GF.1 [Example 1]", "md_verbatim": "| 8 | ABC-123 | GF | 123101 | 8 | | CNV | Copy Number Variation | COPY NUMBER RATIO | | | 2.5 | | SOMATIC | | 7 | BRAF | Gene with Protein Product | | | ENSG00000157764 | | | ACME Labs | DNA | REAL TIME POLYMERASE CHAIN REACTION | | 1 | Screening | -25 | | |", "score": 0.4485, "match_basis": "verbatim_token+domain_route:GF"}, {"md_atom_id": "md_dmGF_ex_a021", "md_file": "knowledge_base/domains/GF/examples.md", "md_atom_type": "TABLE_ROW", "md_parent_section": "§GF.1 [Example 1]", "md_verbatim": "| 7 | ABC-123 | GF | 123101 | 7 | | CNV | Copy Number Variation | EXON COPY NUMBER ALTERATION | | | 3 | | SOMATIC | | 7 | BRAF | Gene with Protein Product | | | ENSG00000157764 | | | ACME Labs | DNA | REAL TIME POLYMERASE CHAIN REACTION | | 1 | Screening | -25 | | |", "score": 0.4468, "match_basis": "verbatim_token+domain_route:GF"}, {"md_atom_id": "md_dmGF_ex_a050", "md_file": "knowledge_base/domains/GF/examples.md", "md_atom_type": "TABLE_ROW", "md_parent_section": "§GF.3 [Example 3]", "md_verbatim": "| 2 | ABC-123 | GF | 123101 | ACME GenePanel 250 | 2 | 1 | ABU3908A52 | AH749754 | TRNSCPTN | Transcription | NORMALIZED LEVEL | 0.5679 | /MBP | 0.5679 | 0.5679 | /MBP | hs37d5 | 7 | ACTB | GENE WITH PROTEIN PRODUCT | ENST00000646664.1 | AH749754.fastq.gz | ACME | RNA | TARGETED TRANSCRIPTOME SEQUENCING | FRAGMENTS PER KILOBASE MILLION FORMULA | 1 | VISIT 1 | 1 | 2018-09-04 | 2 |", "score": 0.4346, "match_basis": "verbatim_token+domain_route:GF"}], "candidate_count": 5, "zero_candidate": false}
{"pdf_atom_id": "ig34_p0223_a002", "pdf_atom_type": "TABLE_ROW", "pdf_source": "SDTMIG_v3.4", "pdf_page": 223, "pdf_parent_section": "§6.3.5.4 Genomics Findings (GF)", "pdf_verbatim": "| VISITNUM | Visit Number | Num | | Timing | Clinical encounter number. Numeric version of VISIT, used for sorting. | Exp |", "figure_ref": null, "candidates": [{"md_atom_id": "md_dmGF_ex_a023", "md_file": "knowledge_base/domains/GF/examples.md", "md_atom_type": "TABLE_ROW", "md_parent_section": "§GF.1 [Example 1]", "md_verbatim": "| 9 | ABC-123 | GF | 123101 | 9 | | CNV | Copy Number Variation | INTERPRETATION | AMPLIFICATION | | | | SOMATIC | | 7 | BRAF | Gene with Protein Product | | | ENSG00000157764 | | | ACME Labs | DNA | REAL TIME POLYMERASE CHAIN REACTION | | 1 | Screening | -25 | | |", "score": 0.4516, "match_basis": "verbatim_token+domain_route:GF"}, {"md_atom_id": "md_dmGF_ex_a021", "md_file": "knowledge_base/domains/GF/examples.md", "md_atom_type": "TABLE_ROW", "md_parent_section": "§GF.1 [Example 1]", "md_verbatim": "| 7 | ABC-123 | GF | 123101 | 7 | | CNV | Copy Number Variation | EXON COPY NUMBER ALTERATION | | | 3 | | SOMATIC | | 7 | BRAF | Gene with Protein Product | | | ENSG00000157764 | | | ACME Labs | DNA | REAL TIME POLYMERASE CHAIN REACTION | | 1 | Screening | -25 | | |", "score": 0.4454, "match_basis": "verbatim_token+domain_route:GF"}, {"md_atom_id": "md_dmGF_ex_a020", "md_file": "knowledge_base/domains/GF/examples.md", "md_atom_type": "TABLE_ROW", "md_parent_section": "§GF.1 [Example 1]", "md_verbatim": "| 6 | ABC-123 | GF | 123101 | 6 | | CNV | Copy Number Variation | COPY NUMBER | | | 5 | | SOMATIC | | 7 | BRAF | Gene with Protein Product | | | ENSG00000157764 | | | ACME Labs | DNA | REAL TIME POLYMERASE CHAIN REACTION | | 1 | Screening | -25 | | |", "score": 0.4421, "match_basis": "verbatim_token+domain_route:GF"}, {"md_atom_id": "md_dmGF_ex_a022", "md_file": "knowledge_base/domains/GF/examples.md", "md_atom_type": "TABLE_ROW", "md_parent_section": "§GF.1 [Example 1]", "md_verbatim": "| 8 | ABC-123 | GF | 123101 | 8 | | CNV | Copy Number Variation | COPY NUMBER RATIO | | | 2.5 | | SOMATIC | | 7 | BRAF | Gene with Protein Product | | | ENSG00000157764 | | | ACME Labs | DNA | REAL TIME POLYMERASE CHAIN REACTION | | 1 | Screening | -25 | | |", "score": 0.4417, "match_basis": "verbatim_token+domain_route:GF"}, {"md_atom_id": "md_dmGF_ex_a049", "md_file": "knowledge_base/domains/GF/examples.md", "md_atom_type": "TABLE_ROW", "md_parent_section": "§GF.3 [Example 3]", "md_verbatim": "| 1 | ABC-123 | GF | 123101 | ACME GenePanel 250 | 1 | 1 | ABU3908A52 | AH749754 | TRNSCPTN | Transcription | FRAGMENT COUNT | 36 | | 36 | 36 | | hs37d5 | 7 | ACTB | GENE WITH PROTEIN PRODUCT | ENST00000646664.1 | AH749754.fastq.gz | ACME | RNA | TARGETED TRANSCRIPTOME SEQUENCING | | 1 | VISIT 1 | 1 | 2018-09-04 | 2 |", "score": 0.438, "match_basis": "verbatim_token+domain_route:GF"}], "candidate_count": 5, "zero_candidate": false}
{"pdf_atom_id": "ig34_p0223_a003", "pdf_atom_type": "TABLE_ROW", "pdf_source": "SDTMIG_v3.4", "pdf_page": 223, "pdf_parent_section": "§6.3.5.4 Genomics Findings (GF)", "pdf_verbatim": "| VISIT | Visit Name | Char | | Timing | Protocol-defined description of clinical encounter. | Perm |", "figure_ref": null, "candidates": [{"md_atom_id": "md_dmGF_ex_a049", "md_file": "knowledge_base/domains/GF/examples.md", "md_atom_type": "TABLE_ROW", "md_parent_section": "§GF.3 [Example 3]", "md_verbatim": "| 1 | ABC-123 | GF | 123101 | ACME GenePanel 250 | 1 | 1 | ABU3908A52 | AH749754 | TRNSCPTN | Transcription | FRAGMENT COUNT | 36 | | 36 | 36 | | hs37d5 | 7 | ACTB | GENE WITH PROTEIN PRODUCT | ENST00000646664.1 | AH749754.fastq.gz | ACME | RNA | TARGETED TRANSCRIPTOME SEQUENCING | | 1 | VISIT 1 | 1 | 2018-09-04 | 2 |", "score": 0.4745, "match_basis": "verbatim_token+domain_route:GF"}, {"md_atom_id": "md_dmGF_ex_a055", "md_file": "knowledge_base/domains/GF/examples.md", "md_atom_type": "TABLE_ROW", "md_parent_section": "§GF.3 [Example 3]", "md_verbatim": "| 7 | ABC-123 | GF | 123101 | ACME GenePanel 250 | 7 | 2 | ABU3908A52 | AH749754 | TRNSCPTN | Transcription | FRAGMENT COUNT | 23658 | | 23658 | 23658 | | hs37d5 | 12 | GAPDH | GENE WITH PROTEIN PRODUCT | ENST00000396861.5 | AH749754.fastq.gz | ACME | RNA | TARGETED TRANSCRIPTOME SEQUENCING | | 1 | VISIT 1 | 1 | 2018-09-18 | 2 |", "score": 0.4723, "match_basis": "verbatim_token+domain_route:GF"}, {"md_atom_id": "md_dmGF_ex_a051", "md_file": "knowledge_base/domains/GF/examples.md", "md_atom_type": "TABLE_ROW", "md_parent_section": "§GF.3 [Example 3]", "md_verbatim": "| 3 | ABC-123 | GF | 123101 | ACME GenePanel 250 | 3 | 1 | ABU3908A52 | AH749754 | TRNSCPTN | Transcription | NORMALIZED LEVEL | 1.0523 | /10^6 | 1.0523 | 1.0523 | /10^6 | hs37d5 | 7 | ACTB | GENE WITH PROTEIN PRODUCT | ENST00000646664.1 | AH749754.fastq.gz | ACME | RNA | TARGETED TRANSCRIPTOME SEQUENCING | COUNTS PER MILLION FORMULA | 1 | VISIT 1 | 1 | 2018-09-04 | 2 |", "score": 0.4706, "match_basis": "verbatim_token+domain_route:GF"}, {"md_atom_id": "md_dmGF_ex_a063", "md_file": "knowledge_base/domains/GF/examples.md", "md_atom_type": "TABLE_ROW", "md_parent_section": "§GF.3 [Example 3]", "md_verbatim": "| 15 | ABC-123 | GF | 123101 | ACME GenePanel 250 | 15 | 2 | ABC1234567 | AP483910 | GENESIG | Gene Signature | GENETIC TRANSCRIPTION INTERPRETATION | LOW | | LOW | | | GRCh38.p12 | | ACTB | GENE WITH PROTEIN PRODUCT | NM_001101.5 | | ACME | RNA | TARGETED TRANSCRIPTOME SEQUENCING | IFN-1 GENE SIGNATURE | 1 | VISIT 1 | 1 | 2018-09-18 | 2 |", "score": 0.4706, "match_basis": "verbatim_token+domain_route:GF"}, {"md_atom_id": "md_dmGF_ex_a057", "md_file": "knowledge_base/domains/GF/examples.md", "md_atom_type": "TABLE_ROW", "md_parent_section": "§GF.3 [Example 3]", "md_verbatim": "| 9 | ABC-123 | GF | 123101 | ACME GenePanel 250 | 9 | 2 | ABU3908A52 | AH749754 | TRNSCPTN | Transcription | NORMALIZED LEVEL | 691.5607 | /10^6 | 691.5607 | 691.5607 | /10^6 | hs37d5 | 12 | GAPDH | GENE WITH PROTEIN PRODUCT | ENST00000396861.5 | AH749754.fastq.gz | ACME | RNA | TARGETED TRANSCRIPTOME SEQUENCING | COUNTS PER MILLION FORMULA | 1 | VISIT 1 | 1 | 2018-09-18 | 2 |", "score": 0.4697, "match_basis": "verbatim_token+domain_route:GF"}], "candidate_count": 5, "zero_candidate": false}
{"pdf_atom_id": "ig34_p0223_a004", "pdf_atom_type": "TABLE_ROW", "pdf_source": "SDTMIG_v3.4", "pdf_page": 223, "pdf_parent_section": "§6.3.5.4 Genomics Findings (GF)", "pdf_verbatim": "| VISITDY | Planned Study Day of Visit | Num | | Timing | Planned study day of VISIT. Should be an integer. | Perm |", "figure_ref": null, "candidates": [{"md_atom_id": "md_dmGF_ex_a063", "md_file": "knowledge_base/domains/GF/examples.md", "md_atom_type": "TABLE_ROW", "md_parent_section": "§GF.3 [Example 3]", "md_verbatim": "| 15 | ABC-123 | GF | 123101 | ACME GenePanel 250 | 15 | 2 | ABC1234567 | AP483910 | GENESIG | Gene Signature | GENETIC TRANSCRIPTION INTERPRETATION | LOW | | LOW | | | GRCh38.p12 | | ACTB | GENE WITH PROTEIN PRODUCT | NM_001101.5 | | ACME | RNA | TARGETED TRANSCRIPTOME SEQUENCING | IFN-1 GENE SIGNATURE | 1 | VISIT 1 | 1 | 2018-09-18 | 2 |", "score": 0.4277, "match_basis": "verbatim_token+domain_route:GF"}, {"md_atom_id": "md_dmGF_ex_a023", "md_file": "knowledge_base/domains/GF/examples.md", "md_atom_type": "TABLE_ROW", "md_parent_section": "§GF.1 [Example 1]", "md_verbatim": "| 9 | ABC-123 | GF | 123101 | 9 | | CNV | Copy Number Variation | INTERPRETATION | AMPLIFICATION | | | | SOMATIC | | 7 | BRAF | Gene with Protein Product | | | ENSG00000157764 | | | ACME Labs | DNA | REAL TIME POLYMERASE CHAIN REACTION | | 1 | Screening | -25 | | |", "score": 0.4248, "match_basis": "verbatim_token+domain_route:GF"}, {"md_atom_id": "md_dmGF_ex_a061", "md_file": "knowledge_base/domains/GF/examples.md", "md_atom_type": "TABLE_ROW", "md_parent_section": "§GF.3 [Example 3]", "md_verbatim": "| 13 | ABC-123 | GF | 123101 | ACME GenePanel 250 | 13 | 1 | ABC1234567 | AP483910 | TRNSCPTN | Transcription | NORMALIZED LEVEL | -0.056299177 | | -0.056299177 | -0.056299177 | | GRCh38.p12 | | ACTB | GENE WITH PROTEIN PRODUCT | NM_001101.5 | | ACME | RNA | TARGETED TRANSCRIPTOME SEQUENCING | DIFFERENCES OF LOG2 INTENSITIES FORMULA | 1 | VISIT 1 | 1 | 2018-09-18 | 2 |", "score": 0.4238, "match_basis": "verbatim_token+domain_route:GF"}, {"md_atom_id": "md_dmGF_ex_a062", "md_file": "knowledge_base/domains/GF/examples.md", "md_atom_type": "TABLE_ROW", "md_parent_section": "§GF.3 [Example 3]", "md_verbatim": "| 14 | ABC-123 | GF | 123101 | ACME GenePanel 250 | 14 | 1 | ABC1234567 | AP483910 | TRNSCPTN | Transcription | NORMALIZED LEVEL | -0.046787999 | | -0.046787999 | -0.046787999 | | GRCh38.p12 | | GAPDH | GENE WITH PROTEIN PRODUCT | NM_001256799.3 | | ACME | RNA | TARGETED TRANSCRIPTOME SEQUENCING | DIFFERENCES OF LOG2 INTENSITIES FORMULA | 1 | VISIT 1 | 1 | 2018-09-18 | 2 |", "score": 0.4234, "match_basis": "verbatim_token+domain_route:GF"}, {"md_atom_id": "md_dmGF_ex_a053", "md_file": "knowledge_base/domains/GF/examples.md", "md_atom_type": "TABLE_ROW", "md_parent_section": "§GF.3 [Example 3]", "md_verbatim": "| 5 | ABC-123 | GF | 123101 | ACME GenePanel 250 | 5 | 1 | ABU3908A52 | AH749754 | TRNSCPTN | Transcription | PERCENTILE RANK | 0.37 | % | 0.37 | 0.37 | % | hs37d5 | 7 | ACTB | GENE WITH PROTEIN PRODUCT | ENST00000646664.1 | AH749754.fastq.gz | ACME | RNA | TARGETED TRANSCRIPTOME SEQUENCING | | 1 | VISIT 1 | 1 | 2018-09-04 | 2 |", "score": 0.4226, "match_basis": "verbatim_token+domain_route:GF"}], "candidate_count": 5, "zero_candidate": false}
{"pdf_atom_id": "ig34_p0223_a005", "pdf_atom_type": "TABLE_ROW", "pdf_source": "SDTMIG_v3.4", "pdf_page": 223, "pdf_parent_section": "§6.3.5.4 Genomics Findings (GF)", "pdf_verbatim": "| GFDTC | Date/Time of Specimen Collection | Char | ISO 8601 datetime or interval | Timing | Date and time of specimen collection. | Exp |", "figure_ref": null, "candidates": [{"md_atom_id": "md_dmGF_ex_a023", "md_file": "knowledge_base/domains/GF/examples.md", "md_atom_type": "TABLE_ROW", "md_parent_section": "§GF.1 [Example 1]", "md_verbatim": "| 9 | ABC-123 | GF | 123101 | 9 | | CNV | Copy Number Variation | INTERPRETATION | AMPLIFICATION | | | | SOMATIC | | 7 | BRAF | Gene with Protein Product | | | ENSG00000157764 | | | ACME Labs | DNA | REAL TIME POLYMERASE CHAIN REACTION | | 1 | Screening | -25 | | |", "score": 0.4484, "match_basis": "verbatim_token+domain_route:GF"}, {"md_atom_id": "md_dmGF_ex_a021", "md_file": "knowledge_base/domains/GF/examples.md", "md_atom_type": "TABLE_ROW", "md_parent_section": "§GF.1 [Example 1]", "md_verbatim": "| 7 | ABC-123 | GF | 123101 | 7 | | CNV | Copy Number Variation | EXON COPY NUMBER ALTERATION | | | 3 | | SOMATIC | | 7 | BRAF | Gene with Protein Product | | | ENSG00000157764 | | | ACME Labs | DNA | REAL TIME POLYMERASE CHAIN REACTION | | 1 | Screening | -25 | | |", "score": 0.4417, "match_basis": "verbatim_token+domain_route:GF"}, {"md_atom_id": "md_dmGF_ex_a020", "md_file": "knowledge_base/domains/GF/examples.md", "md_atom_type": "TABLE_ROW", "md_parent_section": "§GF.1 [Example 1]", "md_verbatim": "| 6 | ABC-123 | GF | 123101 | 6 | | CNV | Copy Number Variation | COPY NUMBER | | | 5 | | SOMATIC | | 7 | BRAF | Gene with Protein Product | | | ENSG00000157764 | | | ACME Labs | DNA | REAL TIME POLYMERASE CHAIN REACTION | | 1 | Screening | -25 | | |", "score": 0.4382, "match_basis": "verbatim_token+domain_route:GF"}, {"md_atom_id": "md_dmGF_ex_a022", "md_file": "knowledge_base/domains/GF/examples.md", "md_atom_type": "TABLE_ROW", "md_parent_section": "§GF.1 [Example 1]", "md_verbatim": "| 8 | ABC-123 | GF | 123101 | 8 | | CNV | Copy Number Variation | COPY NUMBER RATIO | | | 2.5 | | SOMATIC | | 7 | BRAF | Gene with Protein Product | | | ENSG00000157764 | | | ACME Labs | DNA | REAL TIME POLYMERASE CHAIN REACTION | | 1 | Screening | -25 | | |", "score": 0.4378, "match_basis": "verbatim_token+domain_route:GF"}, {"md_atom_id": "md_dmGF_ex_a015", "md_file": "knowledge_base/domains/GF/examples.md", "md_atom_type": "TABLE_ROW", "md_parent_section": "§GF.1 [Example 1]", "md_verbatim": "| 1 | ABC-123 | GF | 123101 | 1 | | SNV | Single Nucleotide Variation | PREDICTED AMINO ACID CHANGE | p.Val600Glu | | | | SOMATIC | | 7 | BRAF | Gene with Protein Product | Exon 15 | | ENSG00000157764 | rs121913227 | | ACME Labs | DNA | REAL TIME POLYMERASE CHAIN REACTION | | 1 | Screening | -25 | | |", "score": 0.437, "match_basis": "verbatim_token+domain_route:GF"}], "candidate_count": 5, "zero_candidate": false}
{"pdf_atom_id": "ig34_p0223_a006", "pdf_atom_type": "TABLE_ROW", "pdf_source": "SDTMIG_v3.4", "pdf_page": 223, "pdf_parent_section": "§6.3.5.4 Genomics Findings (GF)", "pdf_verbatim": "| GFDY | Study Day of Specimen Collection | Num | | Timing | Actual study day of visit/collection/exam expressed in integer days relative to the sponsor-defined RFSTDTC in Demographics. | Perm |", "figure_ref": null, "candidates": [{"md_atom_id": "md_dmGF_ex_a023", "md_file": "knowledge_base/domains/GF/examples.md", "md_atom_type": "TABLE_ROW", "md_parent_section": "§GF.1 [Example 1]", "md_verbatim": "| 9 | ABC-123 | GF | 123101 | 9 | | CNV | Copy Number Variation | INTERPRETATION | AMPLIFICATION | | | | SOMATIC | | 7 | BRAF | Gene with Protein Product | | | ENSG00000157764 | | | ACME Labs | DNA | REAL TIME POLYMERASE CHAIN REACTION | | 1 | Screening | -25 | | |", "score": 0.4436, "match_basis": "verbatim_token+domain_route:GF"}, {"md_atom_id": "md_dmGF_ex_a037", "md_file": "knowledge_base/domains/GF/examples.md", "md_atom_type": "TABLE_ROW", "md_parent_section": "§GF.2 [Example 2]", "md_verbatim": "| 2 | C12345 | GF | C12345-002 | 1 | NA01001 | SNV | Single Nucleotide Variation | GENOTYPE | G/G | G/G | | GERMLINE | | | ABCG2 | | 4.88131177 | ENSG00000118777 | rs2231142 | ACME Labs | DNA | REAL TIME POLYMERASE CHAIN REACTION | 1 | SCREENING | -1 | | -25 |", "score": 0.4398, "match_basis": "verbatim_token+domain_route:GF"}, {"md_atom_id": "md_dmGF_ex_a036", "md_file": "knowledge_base/domains/GF/examples.md", "md_atom_type": "TABLE_ROW", "md_parent_section": "§GF.2 [Example 2]", "md_verbatim": "| 1 | C12345 | GF | C12345-001 | 1 | NA01001 | SNV | Single Nucleotide Variation | GENOTYPE | G/G | G/G | | GERMLINE | GRCh38.p13 | 4 | ABCG2 | | 4.88131177 | ENSG00000118777 | rs2231142 | ACME Labs | DNA | REAL TIME POLYMERASE CHAIN REACTION | 1 | SCREENING | -1 | | -25 |", "score": 0.4388, "match_basis": "verbatim_token+domain_route:GF"}, {"md_atom_id": "md_dmGF_ex_a063", "md_file": "knowledge_base/domains/GF/examples.md", "md_atom_type": "TABLE_ROW", "md_parent_section": "§GF.3 [Example 3]", "md_verbatim": "| 15 | ABC-123 | GF | 123101 | ACME GenePanel 250 | 15 | 2 | ABC1234567 | AP483910 | GENESIG | Gene Signature | GENETIC TRANSCRIPTION INTERPRETATION | LOW | | LOW | | | GRCh38.p12 | | ACTB | GENE WITH PROTEIN PRODUCT | NM_001101.5 | | ACME | RNA | TARGETED TRANSCRIPTOME SEQUENCING | IFN-1 GENE SIGNATURE | 1 | VISIT 1 | 1 | 2018-09-18 | 2 |", "score": 0.4375, "match_basis": "verbatim_token+domain_route:GF"}, {"md_atom_id": "md_dmGF_ex_a020", "md_file": "knowledge_base/domains/GF/examples.md", "md_atom_type": "TABLE_ROW", "md_parent_section": "§GF.1 [Example 1]", "md_verbatim": "| 6 | ABC-123 | GF | 123101 | 6 | | CNV | Copy Number Variation | COPY NUMBER | | | 5 | | SOMATIC | | 7 | BRAF | Gene with Protein Product | | | ENSG00000157764 | | | ACME Labs | DNA | REAL TIME POLYMERASE CHAIN REACTION | | 1 | Screening | -25 | | |", "score": 0.4358, "match_basis": "verbatim_token+domain_route:GF"}], "candidate_count": 5, "zero_candidate": false}
{"pdf_atom_id": "ig34_p0223_a007", "pdf_atom_type": "TABLE_ROW", "pdf_source": "SDTMIG_v3.4", "pdf_page": 223, "pdf_parent_section": "§6.3.5.4 Genomics Findings (GF)", "pdf_verbatim": "| GFTPT | Planned Time Point Name | Char | | Timing | Text description of time when a measurement or observation should be taken as defined in the protocol. This may be represented as an elapsed time relative to a fixed reference point, such as time of last dose. See GFTPTNUM and GFTPTREF. | Perm |", "figure_ref": null, "candidates": [{"md_atom_id": "md_dmGF_ex_a061", "md_file": "knowledge_base/domains/GF/examples.md", "md_atom_type": "TABLE_ROW", "md_parent_section": "§GF.3 [Example 3]", "md_verbatim": "| 13 | ABC-123 | GF | 123101 | ACME GenePanel 250 | 13 | 1 | ABC1234567 | AP483910 | TRNSCPTN | Transcription | NORMALIZED LEVEL | -0.056299177 | | -0.056299177 | -0.056299177 | | GRCh38.p12 | | ACTB | GENE WITH PROTEIN PRODUCT | NM_001101.5 | | ACME | RNA | TARGETED TRANSCRIPTOME SEQUENCING | DIFFERENCES OF LOG2 INTENSITIES FORMULA | 1 | VISIT 1 | 1 | 2018-09-18 | 2 |", "score": 0.4518, "match_basis": "verbatim_token+domain_route:GF"}, {"md_atom_id": "md_dmGF_ex_a062", "md_file": "knowledge_base/domains/GF/examples.md", "md_atom_type": "TABLE_ROW", "md_parent_section": "§GF.3 [Example 3]", "md_verbatim": "| 14 | ABC-123 | GF | 123101 | ACME GenePanel 250 | 14 | 1 | ABC1234567 | AP483910 | TRNSCPTN | Transcription | NORMALIZED LEVEL | -0.046787999 | | -0.046787999 | -0.046787999 | | GRCh38.p12 | | GAPDH | GENE WITH PROTEIN PRODUCT | NM_001256799.3 | | ACME | RNA | TARGETED TRANSCRIPTOME SEQUENCING | DIFFERENCES OF LOG2 INTENSITIES FORMULA | 1 | VISIT 1 | 1 | 2018-09-18 | 2 |", "score": 0.4511, "match_basis": "verbatim_token+domain_route:GF"}, {"md_atom_id": "md_dmGF_ex_a063", "md_file": "knowledge_base/domains/GF/examples.md", "md_atom_type": "TABLE_ROW", "md_parent_section": "§GF.3 [Example 3]", "md_verbatim": "| 15 | ABC-123 | GF | 123101 | ACME GenePanel 250 | 15 | 2 | ABC1234567 | AP483910 | GENESIG | Gene Signature | GENETIC TRANSCRIPTION INTERPRETATION | LOW | | LOW | | | GRCh38.p12 | | ACTB | GENE WITH PROTEIN PRODUCT | NM_001101.5 | | ACME | RNA | TARGETED TRANSCRIPTOME SEQUENCING | IFN-1 GENE SIGNATURE | 1 | VISIT 1 | 1 | 2018-09-18 | 2 |", "score": 0.4507, "match_basis": "verbatim_token+domain_route:GF"}, {"md_atom_id": "md_dmGF_ex_a049", "md_file": "knowledge_base/domains/GF/examples.md", "md_atom_type": "TABLE_ROW", "md_parent_section": "§GF.3 [Example 3]", "md_verbatim": "| 1 | ABC-123 | GF | 123101 | ACME GenePanel 250 | 1 | 1 | ABU3908A52 | AH749754 | TRNSCPTN | Transcription | FRAGMENT COUNT | 36 | | 36 | 36 | | hs37d5 | 7 | ACTB | GENE WITH PROTEIN PRODUCT | ENST00000646664.1 | AH749754.fastq.gz | ACME | RNA | TARGETED TRANSCRIPTOME SEQUENCING | | 1 | VISIT 1 | 1 | 2018-09-04 | 2 |", "score": 0.4471, "match_basis": "verbatim_token+domain_route:GF"}, {"md_atom_id": "md_dmGF_ex_a053", "md_file": "knowledge_base/domains/GF/examples.md", "md_atom_type": "TABLE_ROW", "md_parent_section": "§GF.3 [Example 3]", "md_verbatim": "| 5 | ABC-123 | GF | 123101 | ACME GenePanel 250 | 5 | 1 | ABU3908A52 | AH749754 | TRNSCPTN | Transcription | PERCENTILE RANK | 0.37 | % | 0.37 | 0.37 | % | hs37d5 | 7 | ACTB | GENE WITH PROTEIN PRODUCT | ENST00000646664.1 | AH749754.fastq.gz | ACME | RNA | TARGETED TRANSCRIPTOME SEQUENCING | | 1 | VISIT 1 | 1 | 2018-09-04 | 2 |", "score": 0.4471, "match_basis": "verbatim_token+domain_route:GF"}], "candidate_count": 5, "zero_candidate": false}
{"pdf_atom_id": "ig34_p0223_a008", "pdf_atom_type": "TABLE_ROW", "pdf_source": "SDTMIG_v3.4", "pdf_page": 223, "pdf_parent_section": "§6.3.5.4 Genomics Findings (GF)", "pdf_verbatim": "| GFTPTNUM | Planned Time Point Number | Num | | Timing | Numerical version of GFTPT used in sorting. | Perm |", "figure_ref": null, "candidates": [{"md_atom_id": "md_dmGF_ex_a023", "md_file": "knowledge_base/domains/GF/examples.md", "md_atom_type": "TABLE_ROW", "md_parent_section": "§GF.1 [Example 1]", "md_verbatim": "| 9 | ABC-123 | GF | 123101 | 9 | | CNV | Copy Number Variation | INTERPRETATION | AMPLIFICATION | | | | SOMATIC | | 7 | BRAF | Gene with Protein Product | | | ENSG00000157764 | | | ACME Labs | DNA | REAL TIME POLYMERASE CHAIN REACTION | | 1 | Screening | -25 | | |", "score": 0.4524, "match_basis": "verbatim_token+domain_route:GF"}, {"md_atom_id": "md_dmGF_ex_a020", "md_file": "knowledge_base/domains/GF/examples.md", "md_atom_type": "TABLE_ROW", "md_parent_section": "§GF.1 [Example 1]", "md_verbatim": "| 6 | ABC-123 | GF | 123101 | 6 | | CNV | Copy Number Variation | COPY NUMBER | | | 5 | | SOMATIC | | 7 | BRAF | Gene with Protein Product | | | ENSG00000157764 | | | ACME Labs | DNA | REAL TIME POLYMERASE CHAIN REACTION | | 1 | Screening | -25 | | |", "score": 0.4486, "match_basis": "verbatim_token+domain_route:GF"}, {"md_atom_id": "md_dmGF_ex_a022", "md_file": "knowledge_base/domains/GF/examples.md", "md_atom_type": "TABLE_ROW", "md_parent_section": "§GF.1 [Example 1]", "md_verbatim": "| 8 | ABC-123 | GF | 123101 | 8 | | CNV | Copy Number Variation | COPY NUMBER RATIO | | | 2.5 | | SOMATIC | | 7 | BRAF | Gene with Protein Product | | | ENSG00000157764 | | | ACME Labs | DNA | REAL TIME POLYMERASE CHAIN REACTION | | 1 | Screening | -25 | | |", "score": 0.4482, "match_basis": "verbatim_token+domain_route:GF"}, {"md_atom_id": "md_dmGF_ex_a021", "md_file": "knowledge_base/domains/GF/examples.md", "md_atom_type": "TABLE_ROW", "md_parent_section": "§GF.1 [Example 1]", "md_verbatim": "| 7 | ABC-123 | GF | 123101 | 7 | | CNV | Copy Number Variation | EXON COPY NUMBER ALTERATION | | | 3 | | SOMATIC | | 7 | BRAF | Gene with Protein Product | | | ENSG00000157764 | | | ACME Labs | DNA | REAL TIME POLYMERASE CHAIN REACTION | | 1 | Screening | -25 | | |", "score": 0.4462, "match_basis": "verbatim_token+domain_route:GF"}, {"md_atom_id": "md_dmGF_ex_a037", "md_file": "knowledge_base/domains/GF/examples.md", "md_atom_type": "TABLE_ROW", "md_parent_section": "§GF.2 [Example 2]", "md_verbatim": "| 2 | C12345 | GF | C12345-002 | 1 | NA01001 | SNV | Single Nucleotide Variation | GENOTYPE | G/G | G/G | | GERMLINE | | | ABCG2 | | 4.88131177 | ENSG00000118777 | rs2231142 | ACME Labs | DNA | REAL TIME POLYMERASE CHAIN REACTION | 1 | SCREENING | -1 | | -25 |", "score": 0.4275, "match_basis": "verbatim_token+domain_route:GF"}], "candidate_count": 5, "zero_candidate": false}
{"pdf_atom_id": "ig34_p0223_a009", "pdf_atom_type": "TABLE_ROW", "pdf_source": "SDTMIG_v3.4", "pdf_page": 223, "pdf_parent_section": "§6.3.5.4 Genomics Findings (GF)", "pdf_verbatim": "| GFELTM | Planned Elapsed Time from Time Point Ref | Char | ISO 8601 duration | Timing | Elapsed time relative to a planned fixed reference (GFTPTREF). This variable is useful where there are repetitive measures. Not a clock time or a date time variable, but an interval, represented as ISO duration. | Perm |", "figure_ref": null, "candidates": [{"md_atom_id": "md_dmGF_ex_a023", "md_file": "knowledge_base/domains/GF/examples.md", "md_atom_type": "TABLE_ROW", "md_parent_section": "§GF.1 [Example 1]", "md_verbatim": "| 9 | ABC-123 | GF | 123101 | 9 | | CNV | Copy Number Variation | INTERPRETATION | AMPLIFICATION | | | | SOMATIC | | 7 | BRAF | Gene with Protein Product | | | ENSG00000157764 | | | ACME Labs | DNA | REAL TIME POLYMERASE CHAIN REACTION | | 1 | Screening | -25 | | |", "score": 0.4457, "match_basis": "verbatim_token+domain_route:GF"}, {"md_atom_id": "md_dmGF_ex_a096", "md_file": "knowledge_base/domains/GF/examples.md", "md_atom_type": "TABLE_ROW", "md_parent_section": "§GF.5 [Example 5]", "md_verbatim": "| 2 | INFLU122 | GF | INF01-01 | 2 | INFLU0102 | INFLUENZA A H3N2 | GF-MS-02 | SNV | Single Nucleotide Variation | PREDICTED AMINO ACID CHANGE | R292K | R292K | NA | 292 | U43427 | RNA | | 2 | DAY 2 | 2020-06-12 |", "score": 0.4423, "match_basis": "verbatim_token+domain_route:GF"}, {"md_atom_id": "md_dmGF_ex_a097", "md_file": "knowledge_base/domains/GF/examples.md", "md_atom_type": "TABLE_ROW", "md_parent_section": "§GF.5 [Example 5]", "md_verbatim": "| 3 | INFLU122 | GF | INF01-01 | 3 | INFLU0103 | INFLUENZA A H3N2 | GF-MS-03 | SNV | Single Nucleotide Variation | PREDICTED AMINO ACID CHANGE | R292K | R292K | NA | 292 | U43427 | RNA | | 3 | DAY 5 | 2020-06-15 |", "score": 0.4423, "match_basis": "verbatim_token+domain_route:GF"}, {"md_atom_id": "md_dmGF_ex_a021", "md_file": "knowledge_base/domains/GF/examples.md", "md_atom_type": "TABLE_ROW", "md_parent_section": "§GF.1 [Example 1]", "md_verbatim": "| 7 | ABC-123 | GF | 123101 | 7 | | CNV | Copy Number Variation | EXON COPY NUMBER ALTERATION | | | 3 | | SOMATIC | | 7 | BRAF | Gene with Protein Product | | | ENSG00000157764 | | | ACME Labs | DNA | REAL TIME POLYMERASE CHAIN REACTION | | 1 | Screening | -25 | | |", "score": 0.4411, "match_basis": "verbatim_token+domain_route:GF"}, {"md_atom_id": "md_dmGF_ex_a095", "md_file": "knowledge_base/domains/GF/examples.md", "md_atom_type": "TABLE_ROW", "md_parent_section": "§GF.5 [Example 5]", "md_verbatim": "| 1 | INFLU122 | GF | INF01-01 | 1 | INFLU0101.1 | INFLUENZA A H3N2 | GF-MS-01 | SNV | Single Nucleotide Variation | PREDICTED AMINO ACID CHANGE | R292R | R292R | NA | 292 | U43427 | RNA | | 1 | BASELINE | 2020-06-11 |", "score": 0.441, "match_basis": "verbatim_token+domain_route:GF"}], "candidate_count": 5, "zero_candidate": false}
{"pdf_atom_id": "ig34_p0223_a010", "pdf_atom_type": "TABLE_ROW", "pdf_source": "SDTMIG_v3.4", "pdf_page": 223, "pdf_parent_section": "§6.3.5.4 Genomics Findings (GF)", "pdf_verbatim": "| GFTPTREF | Time Point Reference | Char | | Timing | Name of the fixed reference point referred to by GFELTM, GFTPTNUM, and GFTPT. Examples: \"PREVIOUS DOSE\", \"PREVIOUS MEAL\". | Perm |", "figure_ref": null, "candidates": [{"md_atom_id": "md_dmGF_ex_a023", "md_file": "knowledge_base/domains/GF/examples.md", "md_atom_type": "TABLE_ROW", "md_parent_section": "§GF.1 [Example 1]", "md_verbatim": "| 9 | ABC-123 | GF | 123101 | 9 | | CNV | Copy Number Variation | INTERPRETATION | AMPLIFICATION | | | | SOMATIC | | 7 | BRAF | Gene with Protein Product | | | ENSG00000157764 | | | ACME Labs | DNA | REAL TIME POLYMERASE CHAIN REACTION | | 1 | Screening | -25 | | |", "score": 0.442, "match_basis": "verbatim_token+domain_route:GF"}, {"md_atom_id": "md_dmGF_ex_a016", "md_file": "knowledge_base/domains/GF/examples.md", "md_atom_type": "TABLE_ROW", "md_parent_section": "§GF.1 [Example 1]", "md_verbatim": "| 2 | ABC-123 | GF | 123101 | 2 | | SNV | Single Nucleotide Variation | PREDICTED CODING SEQUENCE CHANGE | c.1799T>A | | | | SOMATIC | GRCh38.p13 | 7 | BRAF | Gene with Protein Product | 140753336 | Exon 15 | ENSG00000157764 | rs121913227 | | ACME Labs | DNA | REAL TIME POLYMERASE CHAIN REACTION | | 1 | Screening | -25 | | |", "score": 0.4305, "match_basis": "verbatim_token+domain_route:GF"}, {"md_atom_id": "md_dmGF_ex_a015", "md_file": "knowledge_base/domains/GF/examples.md", "md_atom_type": "TABLE_ROW", "md_parent_section": "§GF.1 [Example 1]", "md_verbatim": "| 1 | ABC-123 | GF | 123101 | 1 | | SNV | Single Nucleotide Variation | PREDICTED AMINO ACID CHANGE | p.Val600Glu | | | | SOMATIC | | 7 | BRAF | Gene with Protein Product | Exon 15 | | ENSG00000157764 | rs121913227 | | ACME Labs | DNA | REAL TIME POLYMERASE CHAIN REACTION | | 1 | Screening | -25 | | |", "score": 0.4289, "match_basis": "verbatim_token+domain_route:GF"}, {"md_atom_id": "md_dmGF_ex_a020", "md_file": "knowledge_base/domains/GF/examples.md", "md_atom_type": "TABLE_ROW", "md_parent_section": "§GF.1 [Example 1]", "md_verbatim": "| 6 | ABC-123 | GF | 123101 | 6 | | CNV | Copy Number Variation | COPY NUMBER | | | 5 | | SOMATIC | | 7 | BRAF | Gene with Protein Product | | | ENSG00000157764 | | | ACME Labs | DNA | REAL TIME POLYMERASE CHAIN REACTION | | 1 | Screening | -25 | | |", "score": 0.4277, "match_basis": "verbatim_token+domain_route:GF"}, {"md_atom_id": "md_dmGF_ex_a022", "md_file": "knowledge_base/domains/GF/examples.md", "md_atom_type": "TABLE_ROW", "md_parent_section": "§GF.1 [Example 1]", "md_verbatim": "| 8 | ABC-123 | GF | 123101 | 8 | | CNV | Copy Number Variation | COPY NUMBER RATIO | | | 2.5 | | SOMATIC | | 7 | BRAF | Gene with Protein Product | | | ENSG00000157764 | | | ACME Labs | DNA | REAL TIME POLYMERASE CHAIN REACTION | | 1 | Screening | -25 | | |", "score": 0.4275, "match_basis": "verbatim_token+domain_route:GF"}], "candidate_count": 5, "zero_candidate": false}
{"pdf_atom_id": "ig34_p0223_a011", "pdf_atom_type": "TABLE_ROW", "pdf_source": "SDTMIG_v3.4", "pdf_page": 223, "pdf_parent_section": "§6.3.5.4 Genomics Findings (GF)", "pdf_verbatim": "| GFRFTDTC | Date/Time of Reference Time Point | Char | ISO 8601 datetime or interval | Timing | Date/time for a fixed reference time point defined by GFTPTREF. | Perm |", "figure_ref": null, "candidates": [{"md_atom_id": "md_dmGF_ex_a061", "md_file": "knowledge_base/domains/GF/examples.md", "md_atom_type": "TABLE_ROW", "md_parent_section": "§GF.3 [Example 3]", "md_verbatim": "| 13 | ABC-123 | GF | 123101 | ACME GenePanel 250 | 13 | 1 | ABC1234567 | AP483910 | TRNSCPTN | Transcription | NORMALIZED LEVEL | -0.056299177 | | -0.056299177 | -0.056299177 | | GRCh38.p12 | | ACTB | GENE WITH PROTEIN PRODUCT | NM_001101.5 | | ACME | RNA | TARGETED TRANSCRIPTOME SEQUENCING | DIFFERENCES OF LOG2 INTENSITIES FORMULA | 1 | VISIT 1 | 1 | 2018-09-18 | 2 |", "score": 0.432, "match_basis": "verbatim_token+domain_route:GF"}, {"md_atom_id": "md_dmGF_ex_a062", "md_file": "knowledge_base/domains/GF/examples.md", "md_atom_type": "TABLE_ROW", "md_parent_section": "§GF.3 [Example 3]", "md_verbatim": "| 14 | ABC-123 | GF | 123101 | ACME GenePanel 250 | 14 | 1 | ABC1234567 | AP483910 | TRNSCPTN | Transcription | NORMALIZED LEVEL | -0.046787999 | | -0.046787999 | -0.046787999 | | GRCh38.p12 | | GAPDH | GENE WITH PROTEIN PRODUCT | NM_001256799.3 | | ACME | RNA | TARGETED TRANSCRIPTOME SEQUENCING | DIFFERENCES OF LOG2 INTENSITIES FORMULA | 1 | VISIT 1 | 1 | 2018-09-18 | 2 |", "score": 0.4314, "match_basis": "verbatim_token+domain_route:GF"}, {"md_atom_id": "md_dmGF_ex_a023", "md_file": "knowledge_base/domains/GF/examples.md", "md_atom_type": "TABLE_ROW", "md_parent_section": "§GF.1 [Example 1]", "md_verbatim": "| 9 | ABC-123 | GF | 123101 | 9 | | CNV | Copy Number Variation | INTERPRETATION | AMPLIFICATION | | | | SOMATIC | | 7 | BRAF | Gene with Protein Product | | | ENSG00000157764 | | | ACME Labs | DNA | REAL TIME POLYMERASE CHAIN REACTION | | 1 | Screening | -25 | | |", "score": 0.43, "match_basis": "verbatim_token+domain_route:GF"}, {"md_atom_id": "md_dmGF_ex_a037", "md_file": "knowledge_base/domains/GF/examples.md", "md_atom_type": "TABLE_ROW", "md_parent_section": "§GF.2 [Example 2]", "md_verbatim": "| 2 | C12345 | GF | C12345-002 | 1 | NA01001 | SNV | Single Nucleotide Variation | GENOTYPE | G/G | G/G | | GERMLINE | | | ABCG2 | | 4.88131177 | ENSG00000118777 | rs2231142 | ACME Labs | DNA | REAL TIME POLYMERASE CHAIN REACTION | 1 | SCREENING | -1 | | -25 |", "score": 0.4255, "match_basis": "verbatim_token+domain_route:GF"}, {"md_atom_id": "md_dmGF_ex_a036", "md_file": "knowledge_base/domains/GF/examples.md", "md_atom_type": "TABLE_ROW", "md_parent_section": "§GF.2 [Example 2]", "md_verbatim": "| 1 | C12345 | GF | C12345-001 | 1 | NA01001 | SNV | Single Nucleotide Variation | GENOTYPE | G/G | G/G | | GERMLINE | GRCh38.p13 | 4 | ABCG2 | | 4.88131177 | ENSG00000118777 | rs2231142 | ACME Labs | DNA | REAL TIME POLYMERASE CHAIN REACTION | 1 | SCREENING | -1 | | -25 |", "score": 0.4248, "match_basis": "verbatim_token+domain_route:GF"}], "candidate_count": 5, "zero_candidate": false}
{"pdf_atom_id": "ig34_p0223_a012", "pdf_atom_type": "NOTE", "pdf_source": "SDTMIG_v3.4", "pdf_page": 223, "pdf_parent_section": "§6.3.5.4 Genomics Findings (GF)", "pdf_verbatim": "¹In this column, an asterisk (*) indicates that the variable may be subject to controlled terminology. CDISC/NCI codelist values are enclosed in parentheses.", "figure_ref": null, "candidates": [{"md_atom_id": "md_dmGF_assn_a009", "md_file": "knowledge_base/domains/GF/assumptions.md", "md_atom_type": "LIST_ITEM", "md_parent_section": "§GF [GF — Assumptions]", "md_verbatim": "4. Values populated in GFCAT and GFSCAT are sponsor-defined and there is no CDISC Controlled Terminology for these variables.", "score": 0.4577, "match_basis": "verbatim_token+domain_route:GF"}, {"md_atom_id": "md_dmGF_ex_a098", "md_file": "knowledge_base/domains/GF/examples.md", "md_atom_type": "SENTENCE", "md_parent_section": "§GF.5 [Example 5]", "md_verbatim": "The susceptibility data stemming from this genetic testing above are represented in MS (see Section 6.3.5.7.2, Microbiology Susceptibility, assumption 1b). GFLINKID matches MSLNKID to connect the records in GF with the corresponding conclusion regarding susceptibility in MS. As above, NHOID is used to indicate that influenza A H3N2 is the focus of these records. MSAGENT represents the drug to which the results of susceptible or resistant pertain.", "score": 0.3892, "match_basis": "verbatim_token+domain_route:GF"}, {"md_atom_id": "md_dmGF_ex_a084", "md_file": "knowledge_base/domains/GF/examples.md", "md_atom_type": "SENTENCE", "md_parent_section": "§GF.5 [Example 5]", "md_verbatim": "This example includes 3 datasets (i.e., MB and MS in addition to GF). The purpose of this 3-part example is to illustrate how these domains are appropriately used in cases where the concepts in each domain are very closely related. Specifically, the example demonstrates the use of these domains by following a subject through a hypothetical scenario of influenza diagnosis, genetic evaluation of the virus, and interpretation of drug susceptibility resulting from genetic testing.", "score": 0.3837, "match_basis": "verbatim_token+domain_route:GF"}, {"md_atom_id": "md_dmGF_ex_a085", "md_file": "knowledge_base/domains/GF/examples.md", "md_atom_type": "SENTENCE", "md_parent_section": "§GF.5 [Example 5]", "md_verbatim": "Tests that diagnose or identify the presence of an infectious agent in a subject sample are represented in the MB domain, regardless of the methodology used. In this example, the subject was diagnosed with influenza A H3N2 via a nucleic acid amplification test (NAAT) at the baseline visit. MBTEST = \"Microbial Organism Identification\" because the assay does not specifically test for the presence of 1 organism or subtype to the exclusion of all others.", "score": 0.3779, "match_basis": "verbatim_token+domain_route:GF"}, {"md_atom_id": "md_dmGF_ex_a040", "md_file": "knowledge_base/domains/GF/examples.md", "md_atom_type": "SENTENCE", "md_parent_section": "§GF.3 [Example 3]", "md_verbatim": "This example shows transcription levels of genes ACTB and GAPDH and summarized scores from the transcription levels. Transcription levels and scores were determined using biocomputational analysis with wet laboratory methodology targeted transcriptome sequencing. Specific formulas used in biocomputational analyses to generate normalized and summarized score results are respresented when applicable.", "score": 0.3711, "match_basis": "verbatim_token+domain_route:GF"}], "candidate_count": 5, "zero_candidate": false}
{"pdf_atom_id": "ig34_p0223_a013", "pdf_atom_type": "HEADING", "pdf_source": "SDTMIG_v3.4", "pdf_page": 223, "pdf_parent_section": "§6.3.5.4 Genomics Findings (GF)", "pdf_verbatim": "GF – Assumptions", "figure_ref": null, "candidates": [{"md_atom_id": "md_dmGF_assn_a001", "md_file": "knowledge_base/domains/GF/assumptions.md", "md_atom_type": "HEADING", "md_parent_section": "§GF [GF — Assumptions]", "md_verbatim": "# GF — Assumptions", "score": 1.0, "match_basis": "verbatim_token+domain_route:GF"}, {"md_atom_id": "md_dmGF_ex_a001", "md_file": "knowledge_base/domains/GF/examples.md", "md_atom_type": "HEADING", "md_parent_section": "§GF [GF — Examples]", "md_verbatim": "# GF — Examples", "score": 0.4, "match_basis": "verbatim_token+domain_route:GF"}, {"md_atom_id": "md_dmGF_ex_a002", "md_file": "knowledge_base/domains/GF/examples.md", "md_atom_type": "HEADING", "md_parent_section": "§GF [GF — Examples]", "md_verbatim": "## Example 1", "score": 0.4, "match_basis": "verbatim_token+domain_route:GF"}, {"md_atom_id": "md_dmGF_ex_a029", "md_file": "knowledge_base/domains/GF/examples.md", "md_atom_type": "HEADING", "md_parent_section": "§GF [GF — Examples]", "md_verbatim": "## Example 2", "score": 0.4, "match_basis": "verbatim_token+domain_route:GF"}, {"md_atom_id": "md_dmGF_ex_a039", "md_file": "knowledge_base/domains/GF/examples.md", "md_atom_type": "HEADING", "md_parent_section": "§GF [GF — Examples]", "md_verbatim": "## Example 3", "score": 0.4, "match_basis": "verbatim_token+domain_route:GF"}], "candidate_count": 5, "zero_candidate": false}
{"pdf_atom_id": "ig34_p0223_a014", "pdf_atom_type": "LIST_ITEM", "pdf_source": "SDTMIG_v3.4", "pdf_page": 223, "pdf_parent_section": "§6.3.5.4 Genomics Findings (GF)", "pdf_verbatim": "1. The Genomics Findings domain is used to represent findings related to the structure, function, evolution, mapping, and editing of subject and non-host organism genomic material of interest. This domain includes but is not limited to assessments and results for genetic variation and transcription, and summary measures derived from these assessments. The GF domain is used for findings from characteristics assessed from nucleic acids and may include subsequent inferences and/or predictions about related proteins/amino acids. However, direct assessments of proteins (e.g., assessments of amino acids) are out of scope for this domain.", "figure_ref": null, "candidates": [{"md_atom_id": "md_dmGF_assn_a002", "md_file": "knowledge_base/domains/GF/assumptions.md", "md_atom_type": "LIST_ITEM", "md_parent_section": "§GF [GF — Assumptions]", "md_verbatim": "1. The Genomics Findings domain is used to represent findings related to the structure, function, evolution, mapping, and editing of subject and non-host organism genomic material of interest. This domain includes but is not limited to assessments and results for genetic variation and transcription, and summary measures derived from these assessments. The GF domain is used for findings from characteristics assessed from nucleic acids and may include subsequent inferences and/or predictions about related proteins/amino acids. However, direct assessments of proteins (e.g., assessments of amino acids) are out of scope for this domain.", "score": 1.0, "match_basis": "verbatim_token+domain_route:GF"}, {"md_atom_id": "md_dmGF_assn_a004", "md_file": "knowledge_base/domains/GF/assumptions.md", "md_atom_type": "LIST_ITEM", "md_parent_section": "§GF [GF — Assumptions]", "md_verbatim": "   a. Tests that give genetic results (e.g., expressed in terms of genetic variation, specific sequence information) on non-host organisms that have been identified in subject samples should be represented in GF. To distinguish these findings from subject genetic data, the variable NHOID must be populated to identify the non-host organism as the focus of the record (see Section 9.2, Non-host Organism Identifiers, assumption 2 for more information).", "score": 0.5626, "match_basis": "verbatim_token+domain_route:GF"}, {"md_atom_id": "md_dmGF_assn_a003", "md_file": "knowledge_base/domains/GF/assumptions.md", "md_atom_type": "LIST_ITEM", "md_parent_section": "§GF [GF — Assumptions]", "md_verbatim": "2. Regarding genetic testing on non-host organisms (including but not limited to bacteria, viruses, and parasites), the following additional assumptions apply:", "score": 0.5273, "match_basis": "verbatim_token+domain_route:GF"}, {"md_atom_id": "md_dmGF_assn_a008", "md_file": "knowledge_base/domains/GF/assumptions.md", "md_atom_type": "LIST_ITEM", "md_parent_section": "§GF [GF — Assumptions]", "md_verbatim": "3. The platform used to detect the finding may be represented in SPDEVID. Attributes used in conjunction with a platform (e.g., assay panel, reagents) may be represented in the Device Identifiers (DI) domain and other associated device domains. See the SDTM Implementation Guide for Medical Devices (SDTMIG-MD) for further information about SPDEVID and the device domains.", "score": 0.5063, "match_basis": "verbatim_token+domain_route:GF"}, {"md_atom_id": "md_dmGF_assn_a015", "md_file": "knowledge_base/domains/GF/assumptions.md", "md_atom_type": "LIST_ITEM", "md_parent_section": "§GF [GF — Assumptions]", "md_verbatim": "8. GFMETHOD lists wet lab techniques for the execution of genomics or genetic testing. Methods related to specimen processing or reagents are not represented in GFMETHOD.", "score": 0.5047, "match_basis": "verbatim_token+domain_route:GF"}], "candidate_count": 5, "zero_candidate": false}
