{"pdf_atom_id": "ig34_p0186_a005", "pdf_atom_type": "TABLE_ROW", "pdf_source": "SDTMIG_v3.4", "pdf_page": 186, "pdf_parent_section": "§6.3.3 ECG Test Results (EG)", "pdf_verbatim": "| EGTEST | ECG Test or Examination Name | Char | (EGTEST)(HETEST) | Synonym Qualifier | Verbatim name of the test or examination used to obtain the measurement or finding. The value in EGTEST cannot be longer than 40 characters. Examples: \"PR Interval, Aggregate\", \"QRS Duration, Aggregate\". Test names are in 2 separate codelists, 1 for tests based on regular 10-second ECGs (EGTEST) and 1 for tests based on Holter monitoring (HETEST). | Req |", "figure_ref": null, "candidates": [{"md_atom_id": "md_dmEG_ex_a015", "md_file": "knowledge_base/domains/EG/examples.md", "md_atom_type": "TABLE_ROW", "md_parent_section": "§EG.1 [Example 1]", "md_verbatim": "| 3 | XYZ | EG | XYZ-US-701-002 | 3 | 334PT89 | QRSAG | QRS Duration, Aggregate | INTERVAL | SUPINE | 0.103 | sec | 103 | 103 | msec | PQW43787B-07.xml | Test | | | 1 | Screening | 2003-04-36 | -36 |", "score": 0.4878, "match_basis": "verbatim_token+domain_route:EG"}, {"md_atom_id": "md_dmEG_ex_a042", "md_file": "knowledge_base/domains/EG/examples.md", "md_atom_type": "TABLE_ROW", "md_parent_section": "§EG.3 [Example 3]", "md_verbatim": "| 3 | STUDY01 | EG | 2324-P0001 | 3 | ... | QRSAG | QRS Duration, Aggregate | INTERVAL | SUPINE | 97 | msec | 97 | 97 | msec | 12 LEAD STANDARD | LEAD II | | 2 | VISIT 2 | 2014-03-22T10:00:21 | 1 HR | ... | 1 |", "score": 0.4805, "match_basis": "verbatim_token+domain_route:EG"}, {"md_atom_id": "md_dmEG_ex_a046", "md_file": "knowledge_base/domains/EG/examples.md", "md_atom_type": "TABLE_ROW", "md_parent_section": "§EG.3 [Example 3]", "md_verbatim": "| 7 | STUDY01 | EG | 2324-P0001 | 7 | ... | QRSAG | QRS Duration, Aggregate | INTERVAL | SUPINE | 95 | msec | 95 | 95 | msec | 12 LEAD STANDARD | LEAD II | | 2 | VISIT 2 | 2014-03-22T10:01:35 | 1 HR | ... | 2 |", "score": 0.4805, "match_basis": "verbatim_token+domain_route:EG"}, {"md_atom_id": "md_dmEG_ex_a050", "md_file": "knowledge_base/domains/EG/examples.md", "md_atom_type": "TABLE_ROW", "md_parent_section": "§EG.3 [Example 3]", "md_verbatim": "| 11 | STUDY01 | EG | 2324-P0001 | 11 | ... | QRSAG | QRS Duration, Aggregate | INTERVAL | SUPINE | 90 | msec | 90 | 90 | msec | 12 LEAD STANDARD | LEAD II | | 2 | VISIT 2 | 2014-03-22T10:02:14 | 1 HR | ... | 3 |", "score": 0.4805, "match_basis": "verbatim_token+domain_route:EG"}, {"md_atom_id": "md_dmEG_ex_a062", "md_file": "knowledge_base/domains/EG/examples.md", "md_atom_type": "TABLE_ROW", "md_parent_section": "§EG.3 [Example 3]", "md_verbatim": "| 23 | STUDY01 | EG | 2324-P0001 | 23 | ... | QRSAG | QRS Duration, Aggregate | INTERVAL | SUPINE | 98 | msec | 98 | 98 | msec | 12 LEAD STANDARD | LEAD II | | 2 | VISIT 2 | 2014-03-22T11:02:40 | 2 HR | ... | 3 |", "score": 0.4805, "match_basis": "verbatim_token+domain_route:EG"}], "candidate_count": 5, "zero_candidate": false}
{"pdf_atom_id": "ig34_p0186_a006", "pdf_atom_type": "TABLE_ROW", "pdf_source": "SDTMIG_v3.4", "pdf_page": 186, "pdf_parent_section": "§6.3.3 ECG Test Results (EG)", "pdf_verbatim": "| EGCAT | Category for ECG | Char | * | Grouping Qualifier | Used to categorize ECG observations across subjects. Examples: \"MEASUREMENT\", \"FINDING\", \"INTERVAL\". | Perm |", "figure_ref": null, "candidates": [{"md_atom_id": "md_dmEG_ex_a074", "md_file": "knowledge_base/domains/EG/examples.md", "md_atom_type": "TABLE_ROW", "md_parent_section": "§EG.4 [Example 4]", "md_verbatim": "| 4 | STUDY01 | EG | 2324-P0001 | 4 | 2 | RRSM | RR Interval, Single Measurement | INTERVAL | SUPINE | 679 | msec | 679 | 679 | msec | 12 LEAD STANDARD | LEAD II | | 1 | SCREENING | -7 | 2014-02-11T14:32:13.3 |", "score": 0.4947, "match_basis": "verbatim_token+domain_route:EG"}, {"md_atom_id": "md_dmEG_ex_a077", "md_file": "knowledge_base/domains/EG/examples.md", "md_atom_type": "TABLE_ROW", "md_parent_section": "§EG.4 [Example 4]", "md_verbatim": "| 7 | STUDY01 | EG | 2324-P0001 | 7 | 3 | RRSM | RR Interval, Single Measurement | INTERVAL | SUPINE | 661 | msec | 661 | 661 | msec | 12 LEAD STANDARD | LEAD II | | 1 | SCREENING | -7 | 2014-02-11T15:32:14.2 |", "score": 0.4947, "match_basis": "verbatim_token+domain_route:EG"}, {"md_atom_id": "md_dmEG_ex_a013", "md_file": "knowledge_base/domains/EG/examples.md", "md_atom_type": "TABLE_ROW", "md_parent_section": "§EG.1 [Example 1]", "md_verbatim": "| 1 | XYZ | EG | XYZ-US-701-002 | 1 | 334PT89 | EGHRMN | ECG Mean Heart Rate | MEASUREMENT | SUPINE | 62 | beats/min | 62 | 62 | beats/min | PQW43787B-07.xml | Test | N | | 1 | Screening | 2003-04-36 | -36 |", "score": 0.4724, "match_basis": "verbatim_token+domain_route:EG"}, {"md_atom_id": "md_dmEG_ex_a015", "md_file": "knowledge_base/domains/EG/examples.md", "md_atom_type": "TABLE_ROW", "md_parent_section": "§EG.1 [Example 1]", "md_verbatim": "| 3 | XYZ | EG | XYZ-US-701-002 | 3 | 334PT89 | QRSAG | QRS Duration, Aggregate | INTERVAL | SUPINE | 0.103 | sec | 103 | 103 | msec | PQW43787B-07.xml | Test | | | 1 | Screening | 2003-04-36 | -36 |", "score": 0.4661, "match_basis": "verbatim_token+domain_route:EG"}, {"md_atom_id": "md_dmEG_ex_a023", "md_file": "knowledge_base/domains/EG/examples.md", "md_atom_type": "TABLE_ROW", "md_parent_section": "§EG.1 [Example 1]", "md_verbatim": "| 11 | XYZ | EG | XYZ-US-701-002 | 11 | 334PT89 | TECHQUAL | Technical Quality | FINDING | SUPINE | OTHER/INCORRECT ELECTRODE PLACEMENT | | OTHER/INCORRECT ELECTRODE PLACEMENT | | | PQW43787B-07.xml | Lab | | | 1 | Screening | 15T11:58 | -36 |", "score": 0.4632, "match_basis": "verbatim_token+domain_route:EG"}], "candidate_count": 5, "zero_candidate": false}
{"pdf_atom_id": "ig34_p0186_a007", "pdf_atom_type": "TABLE_ROW", "pdf_source": "SDTMIG_v3.4", "pdf_page": 186, "pdf_parent_section": "§6.3.3 ECG Test Results (EG)", "pdf_verbatim": "| EGSCAT | Subcategory for ECG | Char | * | Grouping Qualifier | A further categorization of the ECG. | Perm |", "figure_ref": null, "candidates": [{"md_atom_id": "md_dmEG_ex_a024", "md_file": "knowledge_base/domains/EG/examples.md", "md_atom_type": "TABLE_ROW", "md_parent_section": "§EG.1 [Example 1]", "md_verbatim": "| 12 | XYZ | EG | XYZ-US-701-002 | 12 | 334PT89 | INTP | Interpretation | | SUPINE | ABNORMAL | | ABNORMAL | | | | | | | 1 | Screening | 15T11:58 | -36 |", "score": 0.4462, "match_basis": "verbatim_token+domain_route:EG"}, {"md_atom_id": "md_dmEG_ex_a015", "md_file": "knowledge_base/domains/EG/examples.md", "md_atom_type": "TABLE_ROW", "md_parent_section": "§EG.1 [Example 1]", "md_verbatim": "| 3 | XYZ | EG | XYZ-US-701-002 | 3 | 334PT89 | QRSAG | QRS Duration, Aggregate | INTERVAL | SUPINE | 0.103 | sec | 103 | 103 | msec | PQW43787B-07.xml | Test | | | 1 | Screening | 2003-04-36 | -36 |", "score": 0.4457, "match_basis": "verbatim_token+domain_route:EG"}, {"md_atom_id": "md_dmEG_ex_a023", "md_file": "knowledge_base/domains/EG/examples.md", "md_atom_type": "TABLE_ROW", "md_parent_section": "§EG.1 [Example 1]", "md_verbatim": "| 11 | XYZ | EG | XYZ-US-701-002 | 11 | 334PT89 | TECHQUAL | Technical Quality | FINDING | SUPINE | OTHER/INCORRECT ELECTRODE PLACEMENT | | OTHER/INCORRECT ELECTRODE PLACEMENT | | | PQW43787B-07.xml | Lab | | | 1 | Screening | 15T11:58 | -36 |", "score": 0.4449, "match_basis": "verbatim_token+domain_route:EG"}, {"md_atom_id": "md_dmEG_ex_a042", "md_file": "knowledge_base/domains/EG/examples.md", "md_atom_type": "TABLE_ROW", "md_parent_section": "§EG.3 [Example 3]", "md_verbatim": "| 3 | STUDY01 | EG | 2324-P0001 | 3 | ... | QRSAG | QRS Duration, Aggregate | INTERVAL | SUPINE | 97 | msec | 97 | 97 | msec | 12 LEAD STANDARD | LEAD II | | 2 | VISIT 2 | 2014-03-22T10:00:21 | 1 HR | ... | 1 |", "score": 0.4396, "match_basis": "verbatim_token+domain_route:EG"}, {"md_atom_id": "md_dmEG_ex_a046", "md_file": "knowledge_base/domains/EG/examples.md", "md_atom_type": "TABLE_ROW", "md_parent_section": "§EG.3 [Example 3]", "md_verbatim": "| 7 | STUDY01 | EG | 2324-P0001 | 7 | ... | QRSAG | QRS Duration, Aggregate | INTERVAL | SUPINE | 95 | msec | 95 | 95 | msec | 12 LEAD STANDARD | LEAD II | | 2 | VISIT 2 | 2014-03-22T10:01:35 | 1 HR | ... | 2 |", "score": 0.4396, "match_basis": "verbatim_token+domain_route:EG"}], "candidate_count": 5, "zero_candidate": false}
{"pdf_atom_id": "ig34_p0186_a008", "pdf_atom_type": "TABLE_ROW", "pdf_source": "SDTMIG_v3.4", "pdf_page": 186, "pdf_parent_section": "§6.3.3 ECG Test Results (EG)", "pdf_verbatim": "| EGPOS | ECG Position of Subject | Char | (POSITION) | Record Qualifier | Position of the subject during a measurement or examination. Examples: \"SUPINE\", \"STANDING\", \"SITTING\". | Perm |", "figure_ref": null, "candidates": [{"md_atom_id": "md_dmEG_ex_a074", "md_file": "knowledge_base/domains/EG/examples.md", "md_atom_type": "TABLE_ROW", "md_parent_section": "§EG.4 [Example 4]", "md_verbatim": "| 4 | STUDY01 | EG | 2324-P0001 | 4 | 2 | RRSM | RR Interval, Single Measurement | INTERVAL | SUPINE | 679 | msec | 679 | 679 | msec | 12 LEAD STANDARD | LEAD II | | 1 | SCREENING | -7 | 2014-02-11T14:32:13.3 |", "score": 0.4962, "match_basis": "verbatim_token+domain_route:EG"}, {"md_atom_id": "md_dmEG_ex_a077", "md_file": "knowledge_base/domains/EG/examples.md", "md_atom_type": "TABLE_ROW", "md_parent_section": "§EG.4 [Example 4]", "md_verbatim": "| 7 | STUDY01 | EG | 2324-P0001 | 7 | 3 | RRSM | RR Interval, Single Measurement | INTERVAL | SUPINE | 661 | msec | 661 | 661 | msec | 12 LEAD STANDARD | LEAD II | | 1 | SCREENING | -7 | 2014-02-11T15:32:14.2 |", "score": 0.4962, "match_basis": "verbatim_token+domain_route:EG"}, {"md_atom_id": "md_dmEG_ex_a013", "md_file": "knowledge_base/domains/EG/examples.md", "md_atom_type": "TABLE_ROW", "md_parent_section": "§EG.1 [Example 1]", "md_verbatim": "| 1 | XYZ | EG | XYZ-US-701-002 | 1 | 334PT89 | EGHRMN | ECG Mean Heart Rate | MEASUREMENT | SUPINE | 62 | beats/min | 62 | 62 | beats/min | PQW43787B-07.xml | Test | N | | 1 | Screening | 2003-04-36 | -36 |", "score": 0.4914, "match_basis": "verbatim_token+domain_route:EG"}, {"md_atom_id": "md_dmEG_ex_a023", "md_file": "knowledge_base/domains/EG/examples.md", "md_atom_type": "TABLE_ROW", "md_parent_section": "§EG.1 [Example 1]", "md_verbatim": "| 11 | XYZ | EG | XYZ-US-701-002 | 11 | 334PT89 | TECHQUAL | Technical Quality | FINDING | SUPINE | OTHER/INCORRECT ELECTRODE PLACEMENT | | OTHER/INCORRECT ELECTRODE PLACEMENT | | | PQW43787B-07.xml | Lab | | | 1 | Screening | 15T11:58 | -36 |", "score": 0.4843, "match_basis": "verbatim_token+domain_route:EG"}, {"md_atom_id": "md_dmEG_ex_a042", "md_file": "knowledge_base/domains/EG/examples.md", "md_atom_type": "TABLE_ROW", "md_parent_section": "§EG.3 [Example 3]", "md_verbatim": "| 3 | STUDY01 | EG | 2324-P0001 | 3 | ... | QRSAG | QRS Duration, Aggregate | INTERVAL | SUPINE | 97 | msec | 97 | 97 | msec | 12 LEAD STANDARD | LEAD II | | 2 | VISIT 2 | 2014-03-22T10:00:21 | 1 HR | ... | 1 |", "score": 0.4667, "match_basis": "verbatim_token+domain_route:EG"}], "candidate_count": 5, "zero_candidate": false}
{"pdf_atom_id": "ig34_p0186_a009", "pdf_atom_type": "TABLE_ROW", "pdf_source": "SDTMIG_v3.4", "pdf_page": 186, "pdf_parent_section": "§6.3.3 ECG Test Results (EG)", "pdf_verbatim": "| EGORRES | Result or Finding in Original Units | Char | | Result Qualifier | Result of the ECG measurement or finding as originally received or collected. Examples of expected values are \"62\" or \"0.151\" when the result is an interval or measurement, or \"ATRIAL FIBRILLATION\" when the result is a finding. | Exp |", "figure_ref": null, "candidates": [{"md_atom_id": "md_dmEG_ex_a019", "md_file": "knowledge_base/domains/EG/examples.md", "md_atom_type": "TABLE_ROW", "md_parent_section": "§EG.1 [Example 1]", "md_verbatim": "| 7 | XYZ | EG | XYZ-US-701-002 | 7 | 334PT89 | SPRATRY | Supraventricular Tachyarrhythmias | FINDING | SUPINE | ATRIAL FIBRILLATION | | ATRIAL FIBRILLATION | | | PQW43787B-07.xml | Lab | | | 1 | Screening | 15T11:58 | -36 |", "score": 0.4795, "match_basis": "verbatim_token+domain_route:EG"}, {"md_atom_id": "md_dmEG_ex_a074", "md_file": "knowledge_base/domains/EG/examples.md", "md_atom_type": "TABLE_ROW", "md_parent_section": "§EG.4 [Example 4]", "md_verbatim": "| 4 | STUDY01 | EG | 2324-P0001 | 4 | 2 | RRSM | RR Interval, Single Measurement | INTERVAL | SUPINE | 679 | msec | 679 | 679 | msec | 12 LEAD STANDARD | LEAD II | | 1 | SCREENING | -7 | 2014-02-11T14:32:13.3 |", "score": 0.4716, "match_basis": "verbatim_token+domain_route:EG"}, {"md_atom_id": "md_dmEG_ex_a077", "md_file": "knowledge_base/domains/EG/examples.md", "md_atom_type": "TABLE_ROW", "md_parent_section": "§EG.4 [Example 4]", "md_verbatim": "| 7 | STUDY01 | EG | 2324-P0001 | 7 | 3 | RRSM | RR Interval, Single Measurement | INTERVAL | SUPINE | 661 | msec | 661 | 661 | msec | 12 LEAD STANDARD | LEAD II | | 1 | SCREENING | -7 | 2014-02-11T15:32:14.2 |", "score": 0.4716, "match_basis": "verbatim_token+domain_route:EG"}, {"md_atom_id": "md_dmEG_ex_a023", "md_file": "knowledge_base/domains/EG/examples.md", "md_atom_type": "TABLE_ROW", "md_parent_section": "§EG.1 [Example 1]", "md_verbatim": "| 11 | XYZ | EG | XYZ-US-701-002 | 11 | 334PT89 | TECHQUAL | Technical Quality | FINDING | SUPINE | OTHER/INCORRECT ELECTRODE PLACEMENT | | OTHER/INCORRECT ELECTRODE PLACEMENT | | | PQW43787B-07.xml | Lab | | | 1 | Screening | 15T11:58 | -36 |", "score": 0.4689, "match_basis": "verbatim_token+domain_route:EG"}, {"md_atom_id": "md_dmEG_ex_a013", "md_file": "knowledge_base/domains/EG/examples.md", "md_atom_type": "TABLE_ROW", "md_parent_section": "§EG.1 [Example 1]", "md_verbatim": "| 1 | XYZ | EG | XYZ-US-701-002 | 1 | 334PT89 | EGHRMN | ECG Mean Heart Rate | MEASUREMENT | SUPINE | 62 | beats/min | 62 | 62 | beats/min | PQW43787B-07.xml | Test | N | | 1 | Screening | 2003-04-36 | -36 |", "score": 0.4482, "match_basis": "verbatim_token+domain_route:EG"}], "candidate_count": 5, "zero_candidate": false}
{"pdf_atom_id": "ig34_p0186_a010", "pdf_atom_type": "TABLE_ROW", "pdf_source": "SDTMIG_v3.4", "pdf_page": 186, "pdf_parent_section": "§6.3.3 ECG Test Results (EG)", "pdf_verbatim": "| EGORRESU | Original Units | Char | (UNIT) | Variable Qualifier | Original units in which the data were collected. The unit for EGORRES. Examples: \"sec\", \"msec\". | Perm |", "figure_ref": null, "candidates": [{"md_atom_id": "md_dmEG_ex_a023", "md_file": "knowledge_base/domains/EG/examples.md", "md_atom_type": "TABLE_ROW", "md_parent_section": "§EG.1 [Example 1]", "md_verbatim": "| 11 | XYZ | EG | XYZ-US-701-002 | 11 | 334PT89 | TECHQUAL | Technical Quality | FINDING | SUPINE | OTHER/INCORRECT ELECTRODE PLACEMENT | | OTHER/INCORRECT ELECTRODE PLACEMENT | | | PQW43787B-07.xml | Lab | | | 1 | Screening | 15T11:58 | -36 |", "score": 0.44, "match_basis": "verbatim_token+domain_route:EG"}, {"md_atom_id": "md_dmEG_ex_a040", "md_file": "knowledge_base/domains/EG/examples.md", "md_atom_type": "TABLE_ROW", "md_parent_section": "§EG.3 [Example 3]", "md_verbatim": "| 1 | STUDY01 | EG | 2324-P0001 | 1 | ... | PRAG | PR Interval, Aggregate | INTERVAL | SUPINE | 176 | msec | 176 | 176 | msec | 12 LEAD STANDARD | LEAD II | | 2 | VISIT 2 | 2014-03-22T10:00:21 | 1 HR | ... | 1 |", "score": 0.4118, "match_basis": "verbatim_token+domain_route:EG"}, {"md_atom_id": "md_dmEG_ex_a041", "md_file": "knowledge_base/domains/EG/examples.md", "md_atom_type": "TABLE_ROW", "md_parent_section": "§EG.3 [Example 3]", "md_verbatim": "| 2 | STUDY01 | EG | 2324-P0001 | 2 | ... | RRAG | RR Interval, Aggregate | INTERVAL | SUPINE | 658 | msec | 658 | 658 | msec | 12 LEAD STANDARD | LEAD II | | 2 | VISIT 2 | 2014-03-22T10:00:21 | 1 HR | ... | 1 |", "score": 0.4118, "match_basis": "verbatim_token+domain_route:EG"}, {"md_atom_id": "md_dmEG_ex_a043", "md_file": "knowledge_base/domains/EG/examples.md", "md_atom_type": "TABLE_ROW", "md_parent_section": "§EG.3 [Example 3]", "md_verbatim": "| 4 | STUDY01 | EG | 2324-P0001 | 4 | ... | QTAG | QT Interval, Aggregate | INTERVAL | SUPINE | 440 | msec | 440 | 440 | msec | 12 LEAD STANDARD | LEAD II | | 2 | VISIT 2 | 2014-03-22T10:00:21 | 1 HR | ... | 1 |", "score": 0.4118, "match_basis": "verbatim_token+domain_route:EG"}, {"md_atom_id": "md_dmEG_ex_a044", "md_file": "knowledge_base/domains/EG/examples.md", "md_atom_type": "TABLE_ROW", "md_parent_section": "§EG.3 [Example 3]", "md_verbatim": "| 5 | STUDY01 | EG | 2324-P0001 | 5 | ... | PRAG | PR Interval, Aggregate | INTERVAL | SUPINE | 176 | msec | 176 | 176 | msec | 12 LEAD STANDARD | LEAD II | | 2 | VISIT 2 | 2014-03-22T10:01:35 | 1 HR | ... | 2 |", "score": 0.4118, "match_basis": "verbatim_token+domain_route:EG"}], "candidate_count": 5, "zero_candidate": false}
{"pdf_atom_id": "ig34_p0186_a011", "pdf_atom_type": "TABLE_ROW", "pdf_source": "SDTMIG_v3.4", "pdf_page": 186, "pdf_parent_section": "§6.3.3 ECG Test Results (EG)", "pdf_verbatim": "| EGSTRESC | Character Result/Finding in Std Format | Char | (EGSTRESC)(HESTRESC)(NORMABNM) | Result Qualifier | Contains the result value for all findings copied or derived from EGORRES, in a standard format or standard units. EGSTRESC should store all results or findings in character format; if results are numeric, they should also be stored in numeric format in EGSTRESN. For example, if a test has results of 62 beats/min, then EGORRES = \"62\", EGORRESU = \"beats/min\", EGSTRESC = \"62\", EGSTRESN = 62, and EGSTRESU = \"beats/min\". For other examples, see Original and Standardized Results. Additional examples of result data: \"SINUS BRADYCARDIA\", \"ATRIAL FLUTTER\", \"ATRIAL FIBRILLATION\". Test results are in 3 separate codelists: EGSTRESC for abnormal test results based on regular 10-second ECGs; HESTRESC for abnormal test results based on Holter monitoring, and NORMABNM for generic test results and/or responses to EGTEST = \"Interpretation\". | Exp |", "figure_ref": null, "candidates": [{"md_atom_id": "md_dmEG_ex_a035", "md_file": "knowledge_base/domains/EG/examples.md", "md_atom_type": "TABLE_ROW", "md_parent_section": "§EG.2 [Example 2]", "md_verbatim": "| 5 | ABC | EG | ABC-99-CA-456 | 5 | Comp 1 | INTP | Interpretation | SUPINE | ABNORMAL | ABNORMAL | | CARDIOLOGIST | 4 | DAY 15 | 15 | 2003-12-12 | 15 |", "score": 0.4584, "match_basis": "verbatim_token+domain_route:EG"}, {"md_atom_id": "md_dmEG_ex_a034", "md_file": "knowledge_base/domains/EG/examples.md", "md_atom_type": "TABLE_ROW", "md_parent_section": "§EG.2 [Example 2]", "md_verbatim": "| 4 | ABC | EG | ABC-99-CA-456 | 4 | Comp 1 | INTP | Interpretation | SUPINE | ABNORMAL | ABNORMAL | | PRINCIPAL INVESTIGATOR | 4 | DAY 15 | 15 | 2003-12-12 | 15 |", "score": 0.4538, "match_basis": "verbatim_token+domain_route:EG"}, {"md_atom_id": "md_dmEG_ex_a033", "md_file": "knowledge_base/domains/EG/examples.md", "md_atom_type": "TABLE_ROW", "md_parent_section": "§EG.2 [Example 2]", "md_verbatim": "| 3 | ABC | EG | ABC-99-CA-456 | 3 | | INTP | Interpretation | SUPINE | ABNORMAL | ABNORMAL | | PRINCIPAL INVESTIGATOR | 3 | DAY 10 | 10 | 2003-12-07T09:02 | 10 |", "score": 0.4536, "match_basis": "verbatim_token+domain_route:EG"}, {"md_atom_id": "md_dmEG_ex_a019", "md_file": "knowledge_base/domains/EG/examples.md", "md_atom_type": "TABLE_ROW", "md_parent_section": "§EG.1 [Example 1]", "md_verbatim": "| 7 | XYZ | EG | XYZ-US-701-002 | 7 | 334PT89 | SPRATRY | Supraventricular Tachyarrhythmias | FINDING | SUPINE | ATRIAL FIBRILLATION | | ATRIAL FIBRILLATION | | | PQW43787B-07.xml | Lab | | | 1 | Screening | 15T11:58 | -36 |", "score": 0.4525, "match_basis": "verbatim_token+domain_route:EG"}, {"md_atom_id": "md_dmEG_ex_a024", "md_file": "knowledge_base/domains/EG/examples.md", "md_atom_type": "TABLE_ROW", "md_parent_section": "§EG.1 [Example 1]", "md_verbatim": "| 12 | XYZ | EG | XYZ-US-701-002 | 12 | 334PT89 | INTP | Interpretation | | SUPINE | ABNORMAL | | ABNORMAL | | | | | | | 1 | Screening | 15T11:58 | -36 |", "score": 0.4496, "match_basis": "verbatim_token+domain_route:EG"}], "candidate_count": 5, "zero_candidate": false}
{"pdf_atom_id": "ig34_p0186_a012", "pdf_atom_type": "TABLE_ROW", "pdf_source": "SDTMIG_v3.4", "pdf_page": 186, "pdf_parent_section": "§6.3.3 ECG Test Results (EG)", "pdf_verbatim": "| EGSTRESN | Numeric Result/Finding in Standard Units | Num | | Result Qualifier | For continuous or numeric results or findings in standard format; copied in numeric format from EGSTRESC. EGSTRESN should store all numeric test results or findings. | Perm |", "figure_ref": null, "candidates": [{"md_atom_id": "md_dmEG_ex_a071", "md_file": "knowledge_base/domains/EG/examples.md", "md_atom_type": "TABLE_ROW", "md_parent_section": "§EG.4 [Example 4]", "md_verbatim": "| 1 | STUDY01 | EG | 2324-P0001 | 1 | 1 | PRSB | PR Interval, Single Beat | INTERVAL | SUPINE | 176 | msec | 176 | 176 | msec | 12 LEAD STANDARD | LEAD II | | 1 | SCREENING | -7 | 2014-02-11T14:32:12.3 |", "score": 0.4378, "match_basis": "verbatim_token+domain_route:EG"}, {"md_atom_id": "md_dmEG_ex_a073", "md_file": "knowledge_base/domains/EG/examples.md", "md_atom_type": "TABLE_ROW", "md_parent_section": "§EG.4 [Example 4]", "md_verbatim": "| 3 | STUDY01 | EG | 2324-P0001 | 3 | 2 | PRSB | PR Interval, Single Beat | INTERVAL | SUPINE | 176 | msec | 176 | 176 | msec | 12 LEAD STANDARD | LEAD II | | 1 | SCREENING | -7 | 2014-02-11T14:32:12.3 |", "score": 0.4378, "match_basis": "verbatim_token+domain_route:EG"}, {"md_atom_id": "md_dmEG_ex_a076", "md_file": "knowledge_base/domains/EG/examples.md", "md_atom_type": "TABLE_ROW", "md_parent_section": "§EG.4 [Example 4]", "md_verbatim": "| 6 | STUDY01 | EG | 2324-P0001 | 6 | 3 | PRSB | PR Interval, Single Beat | INTERVAL | SUPINE | 169 | msec | 169 | 169 | msec | 12 LEAD STANDARD | LEAD II | | 1 | SCREENING | -7 | 2014-02-11T15:32:13.3 |", "score": 0.4378, "match_basis": "verbatim_token+domain_route:EG"}, {"md_atom_id": "md_dmEG_ex_a023", "md_file": "knowledge_base/domains/EG/examples.md", "md_atom_type": "TABLE_ROW", "md_parent_section": "§EG.1 [Example 1]", "md_verbatim": "| 11 | XYZ | EG | XYZ-US-701-002 | 11 | 334PT89 | TECHQUAL | Technical Quality | FINDING | SUPINE | OTHER/INCORRECT ELECTRODE PLACEMENT | | OTHER/INCORRECT ELECTRODE PLACEMENT | | | PQW43787B-07.xml | Lab | | | 1 | Screening | 15T11:58 | -36 |", "score": 0.4364, "match_basis": "verbatim_token+domain_route:EG"}, {"md_atom_id": "md_dmEG_ex_a072", "md_file": "knowledge_base/domains/EG/examples.md", "md_atom_type": "TABLE_ROW", "md_parent_section": "§EG.4 [Example 4]", "md_verbatim": "| 2 | STUDY01 | EG | 2324-P0001 | 2 | 1 | QRSSB | QRS Duration, Single Beat | INTERVAL | SUPINE | 97 | msec | 97 | 97 | msec | 12 LEAD STANDARD | LEAD II | | 1 | SCREENING | -7 | 2014-02-11T14:32:12.3 |", "score": 0.4359, "match_basis": "verbatim_token+domain_route:EG"}], "candidate_count": 5, "zero_candidate": false}
{"pdf_atom_id": "ig34_p0186_a013", "pdf_atom_type": "TABLE_ROW", "pdf_source": "SDTMIG_v3.4", "pdf_page": 186, "pdf_parent_section": "§6.3.3 ECG Test Results (EG)", "pdf_verbatim": "| EGSTRESU | Standard Units | Char | (UNIT) | Variable Qualifier | Standardized units used for EGSTRESC and EGSTRESN. | Perm |", "figure_ref": null, "candidates": [{"md_atom_id": "md_dmEG_ex_a040", "md_file": "knowledge_base/domains/EG/examples.md", "md_atom_type": "TABLE_ROW", "md_parent_section": "§EG.3 [Example 3]", "md_verbatim": "| 1 | STUDY01 | EG | 2324-P0001 | 1 | ... | PRAG | PR Interval, Aggregate | INTERVAL | SUPINE | 176 | msec | 176 | 176 | msec | 12 LEAD STANDARD | LEAD II | | 2 | VISIT 2 | 2014-03-22T10:00:21 | 1 HR | ... | 1 |", "score": 0.4434, "match_basis": "verbatim_token+domain_route:EG"}, {"md_atom_id": "md_dmEG_ex_a041", "md_file": "knowledge_base/domains/EG/examples.md", "md_atom_type": "TABLE_ROW", "md_parent_section": "§EG.3 [Example 3]", "md_verbatim": "| 2 | STUDY01 | EG | 2324-P0001 | 2 | ... | RRAG | RR Interval, Aggregate | INTERVAL | SUPINE | 658 | msec | 658 | 658 | msec | 12 LEAD STANDARD | LEAD II | | 2 | VISIT 2 | 2014-03-22T10:00:21 | 1 HR | ... | 1 |", "score": 0.4434, "match_basis": "verbatim_token+domain_route:EG"}, {"md_atom_id": "md_dmEG_ex_a043", "md_file": "knowledge_base/domains/EG/examples.md", "md_atom_type": "TABLE_ROW", "md_parent_section": "§EG.3 [Example 3]", "md_verbatim": "| 4 | STUDY01 | EG | 2324-P0001 | 4 | ... | QTAG | QT Interval, Aggregate | INTERVAL | SUPINE | 440 | msec | 440 | 440 | msec | 12 LEAD STANDARD | LEAD II | | 2 | VISIT 2 | 2014-03-22T10:00:21 | 1 HR | ... | 1 |", "score": 0.4434, "match_basis": "verbatim_token+domain_route:EG"}, {"md_atom_id": "md_dmEG_ex_a044", "md_file": "knowledge_base/domains/EG/examples.md", "md_atom_type": "TABLE_ROW", "md_parent_section": "§EG.3 [Example 3]", "md_verbatim": "| 5 | STUDY01 | EG | 2324-P0001 | 5 | ... | PRAG | PR Interval, Aggregate | INTERVAL | SUPINE | 176 | msec | 176 | 176 | msec | 12 LEAD STANDARD | LEAD II | | 2 | VISIT 2 | 2014-03-22T10:01:35 | 1 HR | ... | 2 |", "score": 0.4434, "match_basis": "verbatim_token+domain_route:EG"}, {"md_atom_id": "md_dmEG_ex_a045", "md_file": "knowledge_base/domains/EG/examples.md", "md_atom_type": "TABLE_ROW", "md_parent_section": "§EG.3 [Example 3]", "md_verbatim": "| 6 | STUDY01 | EG | 2324-P0001 | 6 | ... | RRAG | RR Interval, Aggregate | INTERVAL | SUPINE | 679 | msec | 679 | 679 | msec | 12 LEAD STANDARD | LEAD II | | 2 | VISIT 2 | 2014-03-22T10:01:35 | 1 HR | ... | 2 |", "score": 0.4434, "match_basis": "verbatim_token+domain_route:EG"}], "candidate_count": 5, "zero_candidate": false}
{"pdf_atom_id": "ig34_p0186_a014", "pdf_atom_type": "TABLE_ROW", "pdf_source": "SDTMIG_v3.4", "pdf_page": 186, "pdf_parent_section": "§6.3.3 ECG Test Results (EG)", "pdf_verbatim": "| EGSTAT | Completion Status | Char | (ND) | Record Qualifier | Used to indicate an ECG was not done, or an ECG measurement was not taken. Should be null if a result exists in EGORRES. | Perm |", "figure_ref": null, "candidates": [{"md_atom_id": "md_dmEG_ex_a023", "md_file": "knowledge_base/domains/EG/examples.md", "md_atom_type": "TABLE_ROW", "md_parent_section": "§EG.1 [Example 1]", "md_verbatim": "| 11 | XYZ | EG | XYZ-US-701-002 | 11 | 334PT89 | TECHQUAL | Technical Quality | FINDING | SUPINE | OTHER/INCORRECT ELECTRODE PLACEMENT | | OTHER/INCORRECT ELECTRODE PLACEMENT | | | PQW43787B-07.xml | Lab | | | 1 | Screening | 15T11:58 | -36 |", "score": 0.4595, "match_basis": "verbatim_token+domain_route:EG"}, {"md_atom_id": "md_dmEG_ex_a013", "md_file": "knowledge_base/domains/EG/examples.md", "md_atom_type": "TABLE_ROW", "md_parent_section": "§EG.1 [Example 1]", "md_verbatim": "| 1 | XYZ | EG | XYZ-US-701-002 | 1 | 334PT89 | EGHRMN | ECG Mean Heart Rate | MEASUREMENT | SUPINE | 62 | beats/min | 62 | 62 | beats/min | PQW43787B-07.xml | Test | N | | 1 | Screening | 2003-04-36 | -36 |", "score": 0.4569, "match_basis": "verbatim_token+domain_route:EG"}, {"md_atom_id": "md_dmEG_ex_a074", "md_file": "knowledge_base/domains/EG/examples.md", "md_atom_type": "TABLE_ROW", "md_parent_section": "§EG.4 [Example 4]", "md_verbatim": "| 4 | STUDY01 | EG | 2324-P0001 | 4 | 2 | RRSM | RR Interval, Single Measurement | INTERVAL | SUPINE | 679 | msec | 679 | 679 | msec | 12 LEAD STANDARD | LEAD II | | 1 | SCREENING | -7 | 2014-02-11T14:32:13.3 |", "score": 0.4504, "match_basis": "verbatim_token+domain_route:EG"}, {"md_atom_id": "md_dmEG_ex_a077", "md_file": "knowledge_base/domains/EG/examples.md", "md_atom_type": "TABLE_ROW", "md_parent_section": "§EG.4 [Example 4]", "md_verbatim": "| 7 | STUDY01 | EG | 2324-P0001 | 7 | 3 | RRSM | RR Interval, Single Measurement | INTERVAL | SUPINE | 661 | msec | 661 | 661 | msec | 12 LEAD STANDARD | LEAD II | | 1 | SCREENING | -7 | 2014-02-11T15:32:14.2 |", "score": 0.4504, "match_basis": "verbatim_token+domain_route:EG"}, {"md_atom_id": "md_dmEG_ex_a021", "md_file": "knowledge_base/domains/EG/examples.md", "md_atom_type": "TABLE_ROW", "md_parent_section": "§EG.1 [Example 1]", "md_verbatim": "| 9 | XYZ | EG | XYZ-US-701-002 | 9 | 334PT89 | STSTWUN | ST Segment, T wave, and U wave Changes: nonspecific or Enlargement | FINDING | SUPINE | PROLONGED QT | | PROLONGED QT | | | PQW43787B-07.xml | Lab | | | 1 | Screening | 15T11:58 | -36 |", "score": 0.4345, "match_basis": "verbatim_token+domain_route:EG"}], "candidate_count": 5, "zero_candidate": false}
{"pdf_atom_id": "ig34_p0186_a015", "pdf_atom_type": "TABLE_ROW", "pdf_source": "SDTMIG_v3.4", "pdf_page": 186, "pdf_parent_section": "§6.3.3 ECG Test Results (EG)", "pdf_verbatim": "| EGREASND | Reason ECG Not Done | Char | | Record Qualifier | Describes why a measurement or test was not performed. Examples: \"BROKEN EQUIPMENT\", \"SUBJECT REFUSED\". Used in conjunction with EGSTAT when value is \"NOT DONE\". | Perm |", "figure_ref": null, "candidates": [{"md_atom_id": "md_dmEG_ex_a013", "md_file": "knowledge_base/domains/EG/examples.md", "md_atom_type": "TABLE_ROW", "md_parent_section": "§EG.1 [Example 1]", "md_verbatim": "| 1 | XYZ | EG | XYZ-US-701-002 | 1 | 334PT89 | EGHRMN | ECG Mean Heart Rate | MEASUREMENT | SUPINE | 62 | beats/min | 62 | 62 | beats/min | PQW43787B-07.xml | Test | N | | 1 | Screening | 2003-04-36 | -36 |", "score": 0.4561, "match_basis": "verbatim_token+domain_route:EG"}, {"md_atom_id": "md_dmEG_ex_a074", "md_file": "knowledge_base/domains/EG/examples.md", "md_atom_type": "TABLE_ROW", "md_parent_section": "§EG.4 [Example 4]", "md_verbatim": "| 4 | STUDY01 | EG | 2324-P0001 | 4 | 2 | RRSM | RR Interval, Single Measurement | INTERVAL | SUPINE | 679 | msec | 679 | 679 | msec | 12 LEAD STANDARD | LEAD II | | 1 | SCREENING | -7 | 2014-02-11T14:32:13.3 |", "score": 0.4507, "match_basis": "verbatim_token+domain_route:EG"}, {"md_atom_id": "md_dmEG_ex_a077", "md_file": "knowledge_base/domains/EG/examples.md", "md_atom_type": "TABLE_ROW", "md_parent_section": "§EG.4 [Example 4]", "md_verbatim": "| 7 | STUDY01 | EG | 2324-P0001 | 7 | 3 | RRSM | RR Interval, Single Measurement | INTERVAL | SUPINE | 661 | msec | 661 | 661 | msec | 12 LEAD STANDARD | LEAD II | | 1 | SCREENING | -7 | 2014-02-11T15:32:14.2 |", "score": 0.4507, "match_basis": "verbatim_token+domain_route:EG"}, {"md_atom_id": "md_dmEG_ex_a023", "md_file": "knowledge_base/domains/EG/examples.md", "md_atom_type": "TABLE_ROW", "md_parent_section": "§EG.1 [Example 1]", "md_verbatim": "| 11 | XYZ | EG | XYZ-US-701-002 | 11 | 334PT89 | TECHQUAL | Technical Quality | FINDING | SUPINE | OTHER/INCORRECT ELECTRODE PLACEMENT | | OTHER/INCORRECT ELECTRODE PLACEMENT | | | PQW43787B-07.xml | Lab | | | 1 | Screening | 15T11:58 | -36 |", "score": 0.4377, "match_basis": "verbatim_token+domain_route:EG"}, {"md_atom_id": "md_dmEG_ex_a015", "md_file": "knowledge_base/domains/EG/examples.md", "md_atom_type": "TABLE_ROW", "md_parent_section": "§EG.1 [Example 1]", "md_verbatim": "| 3 | XYZ | EG | XYZ-US-701-002 | 3 | 334PT89 | QRSAG | QRS Duration, Aggregate | INTERVAL | SUPINE | 0.103 | sec | 103 | 103 | msec | PQW43787B-07.xml | Test | | | 1 | Screening | 2003-04-36 | -36 |", "score": 0.4288, "match_basis": "verbatim_token+domain_route:EG"}], "candidate_count": 5, "zero_candidate": false}
{"pdf_atom_id": "ig34_p0187_a001", "pdf_atom_type": "TABLE_HEADER", "pdf_source": "SDTMIG_v3.4", "pdf_page": 187, "pdf_parent_section": "§6.3.3 ECG Test Results (EG)", "pdf_verbatim": "| Variable Name | Variable Label | Type | Controlled Terms, Codelist or Format1 | Role | CDISC Notes | Core |", "figure_ref": null, "candidates": [{"md_atom_id": "md_dmEG_ex_a012", "md_file": "knowledge_base/domains/EG/examples.md", "md_atom_type": "TABLE_HEADER", "md_parent_section": "§EG.1 [Example 1]", "md_verbatim": "| Row | STUDYID | DOMAIN | USUBJID | EGSEQ | EGREFID | EGTESTCD | EGTEST | EGCAT | EGPOS | EGORRES | EGORRESU | EGSTRESC | EGSTRESN | EGSTRESU | EGXFN | EGNAM | EGCLSIG | EGDRVFL | VISITNUM | VISIT | EGDTC | EGDY |\n|-----|---------|--------|---------|-------|---------|----------|--------|-------|-------|---------|----------|----------|----------|----------|-------|-------|---------|---------|----------|-------|-------|------|", "score": 0.4107, "match_basis": "verbatim_token+domain_route:EG"}, {"md_atom_id": "md_dmEG_ex_a030", "md_file": "knowledge_base/domains/EG/examples.md", "md_atom_type": "TABLE_HEADER", "md_parent_section": "§EG.2 [Example 2]", "md_verbatim": "| Row | STUDYID | DOMAIN | USUBJID | EGSEQ | EGGRPID | EGTESTCD | EGTEST | EGPOS | EGORRES | EGSTRESC | EGLOBXFL | EGEVAL | VISITNUM | VISIT | VISITDY | EGDTC | EGDY |\n|-----|---------|--------|---------|-------|---------|----------|--------|-------|---------|----------|----------|--------|----------|-------|---------|-------|------|", "score": 0.4057, "match_basis": "verbatim_token+domain_route:EG"}, {"md_atom_id": "md_dmEG_ex_a039", "md_file": "knowledge_base/domains/EG/examples.md", "md_atom_type": "TABLE_HEADER", "md_parent_section": "§EG.3 [Example 3]", "md_verbatim": "| Row | STUDYID | DOMAIN | USUBJID | EGSEQ | ... | EGTESTCD | EGTEST | EGCAT | EGPOS | EGORRES | EGORRESU | EGSTRESC | EGSTRESN | EGSTRESU | EGMETHOD | EGLEAD | EGLOBXFL | VISITNUM | VISIT | EGDTC | EGTPT | ... | EGREPNUM |\n|-----|---------|--------|---------|-------|-----|----------|--------|-------|-------|---------|----------|----------|----------|----------|----------|--------|----------|----------|-------|-------|-------|-----|----------|", "score": 0.4052, "match_basis": "verbatim_token+domain_route:EG"}, {"md_atom_id": "md_dmEG_ex_a070", "md_file": "knowledge_base/domains/EG/examples.md", "md_atom_type": "TABLE_HEADER", "md_parent_section": "§EG.4 [Example 4]", "md_verbatim": "| Row | STUDYID | DOMAIN | USUBJID | EGSEQ | EGBEATNO | EGTESTCD | EGTEST | EGCAT | EGPOS | EGORRES | EGORRESU | EGSTRESC | EGSTRESN | EGSTRESU | EGMETHOD | EGLEAD | EGLOBXFL | VISITNUM | VISIT | VISITDY | EGDTC |\n|-----|---------|--------|---------|-------|----------|----------|--------|-------|-------|---------|----------|----------|----------|----------|----------|--------|----------|----------|-------|---------|-------|", "score": 0.4052, "match_basis": "verbatim_token+domain_route:EG"}, {"md_atom_id": "md_dmEG_ex_a035", "md_file": "knowledge_base/domains/EG/examples.md", "md_atom_type": "TABLE_ROW", "md_parent_section": "§EG.2 [Example 2]", "md_verbatim": "| 5 | ABC | EG | ABC-99-CA-456 | 5 | Comp 1 | INTP | Interpretation | SUPINE | ABNORMAL | ABNORMAL | | CARDIOLOGIST | 4 | DAY 15 | 15 | 2003-12-12 | 15 |", "score": 0.37, "match_basis": "verbatim_token+domain_route:EG"}], "candidate_count": 5, "zero_candidate": false}
{"pdf_atom_id": "ig34_p0187_a002", "pdf_atom_type": "TABLE_ROW", "pdf_source": "SDTMIG_v3.4", "pdf_page": 187, "pdf_parent_section": "§6.3.3 ECG Test Results (EG)", "pdf_verbatim": "| EGXFN | ECG External File Path | Char | | Record Qualifier | File name and path for the external ECG waveform file. | Perm |", "figure_ref": null, "candidates": [{"md_atom_id": "md_dmEG_ex_a023", "md_file": "knowledge_base/domains/EG/examples.md", "md_atom_type": "TABLE_ROW", "md_parent_section": "§EG.1 [Example 1]", "md_verbatim": "| 11 | XYZ | EG | XYZ-US-701-002 | 11 | 334PT89 | TECHQUAL | Technical Quality | FINDING | SUPINE | OTHER/INCORRECT ELECTRODE PLACEMENT | | OTHER/INCORRECT ELECTRODE PLACEMENT | | | PQW43787B-07.xml | Lab | | | 1 | Screening | 15T11:58 | -36 |", "score": 0.4343, "match_basis": "verbatim_token+domain_route:EG"}, {"md_atom_id": "md_dmEG_ex_a021", "md_file": "knowledge_base/domains/EG/examples.md", "md_atom_type": "TABLE_ROW", "md_parent_section": "§EG.1 [Example 1]", "md_verbatim": "| 9 | XYZ | EG | XYZ-US-701-002 | 9 | 334PT89 | STSTWUN | ST Segment, T wave, and U wave Changes: nonspecific or Enlargement | FINDING | SUPINE | PROLONGED QT | | PROLONGED QT | | | PQW43787B-07.xml | Lab | | | 1 | Screening | 15T11:58 | -36 |", "score": 0.4275, "match_basis": "verbatim_token+domain_route:EG"}, {"md_atom_id": "md_dmEG_ex_a035", "md_file": "knowledge_base/domains/EG/examples.md", "md_atom_type": "TABLE_ROW", "md_parent_section": "§EG.2 [Example 2]", "md_verbatim": "| 5 | ABC | EG | ABC-99-CA-456 | 5 | Comp 1 | INTP | Interpretation | SUPINE | ABNORMAL | ABNORMAL | | CARDIOLOGIST | 4 | DAY 15 | 15 | 2003-12-12 | 15 |", "score": 0.4156, "match_basis": "verbatim_token+domain_route:EG"}, {"md_atom_id": "md_dmEG_ex_a024", "md_file": "knowledge_base/domains/EG/examples.md", "md_atom_type": "TABLE_ROW", "md_parent_section": "§EG.1 [Example 1]", "md_verbatim": "| 12 | XYZ | EG | XYZ-US-701-002 | 12 | 334PT89 | INTP | Interpretation | | SUPINE | ABNORMAL | | ABNORMAL | | | | | | | 1 | Screening | 15T11:58 | -36 |", "score": 0.4154, "match_basis": "verbatim_token+domain_route:EG"}, {"md_atom_id": "md_dmEG_ex_a031", "md_file": "knowledge_base/domains/EG/examples.md", "md_atom_type": "TABLE_ROW", "md_parent_section": "§EG.2 [Example 2]", "md_verbatim": "| 1 | ABC | EG | ABC-99-CA-456 | 1 | | INTP | Interpretation | SUPINE | NORMAL | NORMAL | | PRINCIPAL INVESTIGATOR | 1 | SCREEN 1 | -2 | 2003-11-26 | -2 |", "score": 0.4145, "match_basis": "verbatim_token+domain_route:EG"}], "candidate_count": 5, "zero_candidate": false}
{"pdf_atom_id": "ig34_p0187_a003", "pdf_atom_type": "TABLE_ROW", "pdf_source": "SDTMIG_v3.4", "pdf_page": 187, "pdf_parent_section": "§6.3.3 ECG Test Results (EG)", "pdf_verbatim": "| EGNAM | Vendor Name | Char | | Record Qualifier | Name or identifier of the laboratory or vendor providing the test results. | Perm |", "figure_ref": null, "candidates": [{"md_atom_id": "md_dmEG_ex_a023", "md_file": "knowledge_base/domains/EG/examples.md", "md_atom_type": "TABLE_ROW", "md_parent_section": "§EG.1 [Example 1]", "md_verbatim": "| 11 | XYZ | EG | XYZ-US-701-002 | 11 | 334PT89 | TECHQUAL | Technical Quality | FINDING | SUPINE | OTHER/INCORRECT ELECTRODE PLACEMENT | | OTHER/INCORRECT ELECTRODE PLACEMENT | | | PQW43787B-07.xml | Lab | | | 1 | Screening | 15T11:58 | -36 |", "score": 0.4531, "match_basis": "verbatim_token+domain_route:EG"}, {"md_atom_id": "md_dmEG_ex_a022", "md_file": "knowledge_base/domains/EG/examples.md", "md_atom_type": "TABLE_ROW", "md_parent_section": "§EG.1 [Example 1]", "md_verbatim": "| 10 | XYZ | EG | XYZ-US-701-002 | 10 | 334PT89 | CHPTEN2 | Chamber Hypertrophy or Enlargement | FINDING | SUPINE | LEFT VENTRICULAR HYPERTROPHY | | LEFT VENTRICULAR HYPERTROPHY | | | PQW43787B-07.xml | Lab | | | 1 | Screening | 15T11:58 | -36 |", "score": 0.4362, "match_basis": "verbatim_token+domain_route:EG"}, {"md_atom_id": "md_dmEG_ex_a021", "md_file": "knowledge_base/domains/EG/examples.md", "md_atom_type": "TABLE_ROW", "md_parent_section": "§EG.1 [Example 1]", "md_verbatim": "| 9 | XYZ | EG | XYZ-US-701-002 | 9 | 334PT89 | STSTWUN | ST Segment, T wave, and U wave Changes: nonspecific or Enlargement | FINDING | SUPINE | PROLONGED QT | | PROLONGED QT | | | PQW43787B-07.xml | Lab | | | 1 | Screening | 15T11:58 | -36 |", "score": 0.4353, "match_basis": "verbatim_token+domain_route:EG"}, {"md_atom_id": "md_dmEG_ex_a020", "md_file": "knowledge_base/domains/EG/examples.md", "md_atom_type": "TABLE_ROW", "md_parent_section": "§EG.1 [Example 1]", "md_verbatim": "| 8 | XYZ | EG | XYZ-US-701-002 | 8 | 334PT89 | SPRATRY | Supraventricular Tachyarrhythmias | FINDING | SUPINE | ATRIAL FLUTTER | | ATRIAL FLUTTER | | | PQW43787B-07.xml | Lab | | | 1 | Screening | 15T11:58 | -36 |", "score": 0.4305, "match_basis": "verbatim_token+domain_route:EG"}, {"md_atom_id": "md_dmEG_ex_a013", "md_file": "knowledge_base/domains/EG/examples.md", "md_atom_type": "TABLE_ROW", "md_parent_section": "§EG.1 [Example 1]", "md_verbatim": "| 1 | XYZ | EG | XYZ-US-701-002 | 1 | 334PT89 | EGHRMN | ECG Mean Heart Rate | MEASUREMENT | SUPINE | 62 | beats/min | 62 | 62 | beats/min | PQW43787B-07.xml | Test | N | | 1 | Screening | 2003-04-36 | -36 |", "score": 0.4297, "match_basis": "verbatim_token+domain_route:EG"}], "candidate_count": 5, "zero_candidate": false}
{"pdf_atom_id": "ig34_p0187_a004", "pdf_atom_type": "TABLE_ROW", "pdf_source": "SDTMIG_v3.4", "pdf_page": 187, "pdf_parent_section": "§6.3.3 ECG Test Results (EG)", "pdf_verbatim": "| EGMETHOD | Method of Test or Examination | Char | (EGMETHOD) | Record Qualifier | Method of the ECG test. Example: \"12-LEAD STANDARD\". | Perm |", "figure_ref": null, "candidates": [{"md_atom_id": "md_dmEG_ex_a042", "md_file": "knowledge_base/domains/EG/examples.md", "md_atom_type": "TABLE_ROW", "md_parent_section": "§EG.3 [Example 3]", "md_verbatim": "| 3 | STUDY01 | EG | 2324-P0001 | 3 | ... | QRSAG | QRS Duration, Aggregate | INTERVAL | SUPINE | 97 | msec | 97 | 97 | msec | 12 LEAD STANDARD | LEAD II | | 2 | VISIT 2 | 2014-03-22T10:00:21 | 1 HR | ... | 1 |", "score": 0.475, "match_basis": "verbatim_token+domain_route:EG"}, {"md_atom_id": "md_dmEG_ex_a046", "md_file": "knowledge_base/domains/EG/examples.md", "md_atom_type": "TABLE_ROW", "md_parent_section": "§EG.3 [Example 3]", "md_verbatim": "| 7 | STUDY01 | EG | 2324-P0001 | 7 | ... | QRSAG | QRS Duration, Aggregate | INTERVAL | SUPINE | 95 | msec | 95 | 95 | msec | 12 LEAD STANDARD | LEAD II | | 2 | VISIT 2 | 2014-03-22T10:01:35 | 1 HR | ... | 2 |", "score": 0.475, "match_basis": "verbatim_token+domain_route:EG"}, {"md_atom_id": "md_dmEG_ex_a050", "md_file": "knowledge_base/domains/EG/examples.md", "md_atom_type": "TABLE_ROW", "md_parent_section": "§EG.3 [Example 3]", "md_verbatim": "| 11 | STUDY01 | EG | 2324-P0001 | 11 | ... | QRSAG | QRS Duration, Aggregate | INTERVAL | SUPINE | 90 | msec | 90 | 90 | msec | 12 LEAD STANDARD | LEAD II | | 2 | VISIT 2 | 2014-03-22T10:02:14 | 1 HR | ... | 3 |", "score": 0.475, "match_basis": "verbatim_token+domain_route:EG"}, {"md_atom_id": "md_dmEG_ex_a062", "md_file": "knowledge_base/domains/EG/examples.md", "md_atom_type": "TABLE_ROW", "md_parent_section": "§EG.3 [Example 3]", "md_verbatim": "| 23 | STUDY01 | EG | 2324-P0001 | 23 | ... | QRSAG | QRS Duration, Aggregate | INTERVAL | SUPINE | 98 | msec | 98 | 98 | msec | 12 LEAD STANDARD | LEAD II | | 2 | VISIT 2 | 2014-03-22T11:02:40 | 2 HR | ... | 3 |", "score": 0.475, "match_basis": "verbatim_token+domain_route:EG"}, {"md_atom_id": "md_dmEG_ex_a054", "md_file": "knowledge_base/domains/EG/examples.md", "md_atom_type": "TABLE_ROW", "md_parent_section": "§EG.3 [Example 3]", "md_verbatim": "| 15 | STUDY01 | EG | 2324-P0001 | 15 | ... | QRSAG | QRS Duration, Aggregate | INTERVAL | SUPINE | 100 | msec | 100 | 100 | msec | 12 LEAD STANDARD | LEAD II | | 2 | VISIT 2 | 2014-03-22T11:00:21 | 2 HR | ... | 1 |", "score": 0.4742, "match_basis": "verbatim_token+domain_route:EG"}], "candidate_count": 5, "zero_candidate": false}
{"pdf_atom_id": "ig34_p0187_a005", "pdf_atom_type": "TABLE_ROW", "pdf_source": "SDTMIG_v3.4", "pdf_page": 187, "pdf_parent_section": "§6.3.3 ECG Test Results (EG)", "pdf_verbatim": "| EGLEAD | Lead Location Used for Measurement | Char | (EGLEAD) | Record Qualifier | The lead used for the measurement. Examples: \"LEAD 1\", \"LEAD 2\", \"LEAD rV2\", \"LEAD V1\". | Perm |", "figure_ref": null, "candidates": [{"md_atom_id": "md_dmEG_ex_a074", "md_file": "knowledge_base/domains/EG/examples.md", "md_atom_type": "TABLE_ROW", "md_parent_section": "§EG.4 [Example 4]", "md_verbatim": "| 4 | STUDY01 | EG | 2324-P0001 | 4 | 2 | RRSM | RR Interval, Single Measurement | INTERVAL | SUPINE | 679 | msec | 679 | 679 | msec | 12 LEAD STANDARD | LEAD II | | 1 | SCREENING | -7 | 2014-02-11T14:32:13.3 |", "score": 0.48, "match_basis": "verbatim_token+domain_route:EG"}, {"md_atom_id": "md_dmEG_ex_a077", "md_file": "knowledge_base/domains/EG/examples.md", "md_atom_type": "TABLE_ROW", "md_parent_section": "§EG.4 [Example 4]", "md_verbatim": "| 7 | STUDY01 | EG | 2324-P0001 | 7 | 3 | RRSM | RR Interval, Single Measurement | INTERVAL | SUPINE | 661 | msec | 661 | 661 | msec | 12 LEAD STANDARD | LEAD II | | 1 | SCREENING | -7 | 2014-02-11T15:32:14.2 |", "score": 0.48, "match_basis": "verbatim_token+domain_route:EG"}, {"md_atom_id": "md_dmEG_ex_a013", "md_file": "knowledge_base/domains/EG/examples.md", "md_atom_type": "TABLE_ROW", "md_parent_section": "§EG.1 [Example 1]", "md_verbatim": "| 1 | XYZ | EG | XYZ-US-701-002 | 1 | 334PT89 | EGHRMN | ECG Mean Heart Rate | MEASUREMENT | SUPINE | 62 | beats/min | 62 | 62 | beats/min | PQW43787B-07.xml | Test | N | | 1 | Screening | 2003-04-36 | -36 |", "score": 0.4593, "match_basis": "verbatim_token+domain_route:EG"}, {"md_atom_id": "md_dmEG_ex_a023", "md_file": "knowledge_base/domains/EG/examples.md", "md_atom_type": "TABLE_ROW", "md_parent_section": "§EG.1 [Example 1]", "md_verbatim": "| 11 | XYZ | EG | XYZ-US-701-002 | 11 | 334PT89 | TECHQUAL | Technical Quality | FINDING | SUPINE | OTHER/INCORRECT ELECTRODE PLACEMENT | | OTHER/INCORRECT ELECTRODE PLACEMENT | | | PQW43787B-07.xml | Lab | | | 1 | Screening | 15T11:58 | -36 |", "score": 0.45, "match_basis": "verbatim_token+domain_route:EG"}, {"md_atom_id": "md_dmEG_ex_a072", "md_file": "knowledge_base/domains/EG/examples.md", "md_atom_type": "TABLE_ROW", "md_parent_section": "§EG.4 [Example 4]", "md_verbatim": "| 2 | STUDY01 | EG | 2324-P0001 | 2 | 1 | QRSSB | QRS Duration, Single Beat | INTERVAL | SUPINE | 97 | msec | 97 | 97 | msec | 12 LEAD STANDARD | LEAD II | | 1 | SCREENING | -7 | 2014-02-11T14:32:12.3 |", "score": 0.4379, "match_basis": "verbatim_token+domain_route:EG"}], "candidate_count": 5, "zero_candidate": false}
{"pdf_atom_id": "ig34_p0187_a006", "pdf_atom_type": "TABLE_ROW", "pdf_source": "SDTMIG_v3.4", "pdf_page": 187, "pdf_parent_section": "§6.3.3 ECG Test Results (EG)", "pdf_verbatim": "| EGLOBXFL | Last Observation Before Exposure Flag | Char | (NY) | Record Qualifier | Operationally derived indicator used to identify the last non-missing value prior to RFXSTDTC. The value should be \"Y\" or null. | Exp |", "figure_ref": null, "candidates": [{"md_atom_id": "md_dmEG_ex_a023", "md_file": "knowledge_base/domains/EG/examples.md", "md_atom_type": "TABLE_ROW", "md_parent_section": "§EG.1 [Example 1]", "md_verbatim": "| 11 | XYZ | EG | XYZ-US-701-002 | 11 | 334PT89 | TECHQUAL | Technical Quality | FINDING | SUPINE | OTHER/INCORRECT ELECTRODE PLACEMENT | | OTHER/INCORRECT ELECTRODE PLACEMENT | | | PQW43787B-07.xml | Lab | | | 1 | Screening | 15T11:58 | -36 |", "score": 0.4423, "match_basis": "verbatim_token+domain_route:EG"}, {"md_atom_id": "md_dmEG_ex_a072", "md_file": "knowledge_base/domains/EG/examples.md", "md_atom_type": "TABLE_ROW", "md_parent_section": "§EG.4 [Example 4]", "md_verbatim": "| 2 | STUDY01 | EG | 2324-P0001 | 2 | 1 | QRSSB | QRS Duration, Single Beat | INTERVAL | SUPINE | 97 | msec | 97 | 97 | msec | 12 LEAD STANDARD | LEAD II | | 1 | SCREENING | -7 | 2014-02-11T14:32:12.3 |", "score": 0.438, "match_basis": "verbatim_token+domain_route:EG"}, {"md_atom_id": "md_dmEG_ex_a075", "md_file": "knowledge_base/domains/EG/examples.md", "md_atom_type": "TABLE_ROW", "md_parent_section": "§EG.4 [Example 4]", "md_verbatim": "| 5 | STUDY01 | EG | 2324-P0001 | 5 | 2 | QRSSB | QRS Duration, Single Beat | INTERVAL | SUPINE | 95 | msec | 95 | 95 | msec | 12 LEAD STANDARD | LEAD II | | 1 | SCREENING | -7 | 2014-02-11T14:32:13.3 |", "score": 0.438, "match_basis": "verbatim_token+domain_route:EG"}, {"md_atom_id": "md_dmEG_ex_a078", "md_file": "knowledge_base/domains/EG/examples.md", "md_atom_type": "TABLE_ROW", "md_parent_section": "§EG.4 [Example 4]", "md_verbatim": "| 8 | STUDY01 | EG | 2324-P0001 | 8 | 3 | QRSSB | QRS Duration, Single Beat | INTERVAL | SUPINE | 90 | msec | 90 | 90 | msec | 12 LEAD STANDARD | LEAD II | | 1 | SCREENING | -7 | 2014-02-11T15:32:14.2 |", "score": 0.438, "match_basis": "verbatim_token+domain_route:EG"}, {"md_atom_id": "md_dmEG_ex_a015", "md_file": "knowledge_base/domains/EG/examples.md", "md_atom_type": "TABLE_ROW", "md_parent_section": "§EG.1 [Example 1]", "md_verbatim": "| 3 | XYZ | EG | XYZ-US-701-002 | 3 | 334PT89 | QRSAG | QRS Duration, Aggregate | INTERVAL | SUPINE | 0.103 | sec | 103 | 103 | msec | PQW43787B-07.xml | Test | | | 1 | Screening | 2003-04-36 | -36 |", "score": 0.4336, "match_basis": "verbatim_token+domain_route:EG"}], "candidate_count": 5, "zero_candidate": false}
{"pdf_atom_id": "ig34_p0187_a007", "pdf_atom_type": "TABLE_ROW", "pdf_source": "SDTMIG_v3.4", "pdf_page": 187, "pdf_parent_section": "§6.3.3 ECG Test Results (EG)", "pdf_verbatim": "| EGBLFL | Baseline Flag | Char | (NY) | Record Qualifier | Indicator used to identify a baseline value. Should be \"Y\" or null. Note that EGBLFL is retained for backward compatibility. The authoritative baseline for statistical analysis is in an ADaM dataset. | Perm |", "figure_ref": null, "candidates": [{"md_atom_id": "md_dmEG_ex_a023", "md_file": "knowledge_base/domains/EG/examples.md", "md_atom_type": "TABLE_ROW", "md_parent_section": "§EG.1 [Example 1]", "md_verbatim": "| 11 | XYZ | EG | XYZ-US-701-002 | 11 | 334PT89 | TECHQUAL | Technical Quality | FINDING | SUPINE | OTHER/INCORRECT ELECTRODE PLACEMENT | | OTHER/INCORRECT ELECTRODE PLACEMENT | | | PQW43787B-07.xml | Lab | | | 1 | Screening | 15T11:58 | -36 |", "score": 0.4509, "match_basis": "verbatim_token+domain_route:EG"}, {"md_atom_id": "md_dmEG_ex_a034", "md_file": "knowledge_base/domains/EG/examples.md", "md_atom_type": "TABLE_ROW", "md_parent_section": "§EG.2 [Example 2]", "md_verbatim": "| 4 | ABC | EG | ABC-99-CA-456 | 4 | Comp 1 | INTP | Interpretation | SUPINE | ABNORMAL | ABNORMAL | | PRINCIPAL INVESTIGATOR | 4 | DAY 15 | 15 | 2003-12-12 | 15 |", "score": 0.4417, "match_basis": "verbatim_token+domain_route:EG"}, {"md_atom_id": "md_dmEG_ex_a035", "md_file": "knowledge_base/domains/EG/examples.md", "md_atom_type": "TABLE_ROW", "md_parent_section": "§EG.2 [Example 2]", "md_verbatim": "| 5 | ABC | EG | ABC-99-CA-456 | 5 | Comp 1 | INTP | Interpretation | SUPINE | ABNORMAL | ABNORMAL | | CARDIOLOGIST | 4 | DAY 15 | 15 | 2003-12-12 | 15 |", "score": 0.4391, "match_basis": "verbatim_token+domain_route:EG"}, {"md_atom_id": "md_dmEG_ex_a031", "md_file": "knowledge_base/domains/EG/examples.md", "md_atom_type": "TABLE_ROW", "md_parent_section": "§EG.2 [Example 2]", "md_verbatim": "| 1 | ABC | EG | ABC-99-CA-456 | 1 | | INTP | Interpretation | SUPINE | NORMAL | NORMAL | | PRINCIPAL INVESTIGATOR | 1 | SCREEN 1 | -2 | 2003-11-26 | -2 |", "score": 0.4331, "match_basis": "verbatim_token+domain_route:EG"}, {"md_atom_id": "md_dmEG_ex_a032", "md_file": "knowledge_base/domains/EG/examples.md", "md_atom_type": "TABLE_ROW", "md_parent_section": "§EG.2 [Example 2]", "md_verbatim": "| 2 | ABC | EG | ABC-99-CA-456 | 2 | | INTP | Interpretation | SUPINE | NORMAL | NORMAL | Y | PRINCIPAL INVESTIGATOR | 2 | SCREEN II | -1 | 2003-11-27 | -1 |", "score": 0.4331, "match_basis": "verbatim_token+domain_route:EG"}], "candidate_count": 5, "zero_candidate": false}
{"pdf_atom_id": "ig34_p0187_a008", "pdf_atom_type": "TABLE_ROW", "pdf_source": "SDTMIG_v3.4", "pdf_page": 187, "pdf_parent_section": "§6.3.3 ECG Test Results (EG)", "pdf_verbatim": "| EGDRVFL | Derived Flag | Char | (NY) | Record Qualifier | Used to indicate a derived record. The value should be \"Y\" or null. Records that represent the average of other records, or that do not come from the CRF, or are not as originally collected or received are examples of records that would be derived for the submission datasets. If EGDRVFL=\"Y\", then EGORRES could be null, with EGSTRESC and EGSTRESN (if the result is numeric) having the derived value. | Perm |", "figure_ref": null, "candidates": [{"md_atom_id": "md_dmEG_ex_a023", "md_file": "knowledge_base/domains/EG/examples.md", "md_atom_type": "TABLE_ROW", "md_parent_section": "§EG.1 [Example 1]", "md_verbatim": "| 11 | XYZ | EG | XYZ-US-701-002 | 11 | 334PT89 | TECHQUAL | Technical Quality | FINDING | SUPINE | OTHER/INCORRECT ELECTRODE PLACEMENT | | OTHER/INCORRECT ELECTRODE PLACEMENT | | | PQW43787B-07.xml | Lab | | | 1 | Screening | 15T11:58 | -36 |", "score": 0.4537, "match_basis": "verbatim_token+domain_route:EG"}, {"md_atom_id": "md_dmEG_ex_a021", "md_file": "knowledge_base/domains/EG/examples.md", "md_atom_type": "TABLE_ROW", "md_parent_section": "§EG.1 [Example 1]", "md_verbatim": "| 9 | XYZ | EG | XYZ-US-701-002 | 9 | 334PT89 | STSTWUN | ST Segment, T wave, and U wave Changes: nonspecific or Enlargement | FINDING | SUPINE | PROLONGED QT | | PROLONGED QT | | | PQW43787B-07.xml | Lab | | | 1 | Screening | 15T11:58 | -36 |", "score": 0.4238, "match_basis": "verbatim_token+domain_route:EG"}, {"md_atom_id": "md_dmEG_ex_a022", "md_file": "knowledge_base/domains/EG/examples.md", "md_atom_type": "TABLE_ROW", "md_parent_section": "§EG.1 [Example 1]", "md_verbatim": "| 10 | XYZ | EG | XYZ-US-701-002 | 10 | 334PT89 | CHPTEN2 | Chamber Hypertrophy or Enlargement | FINDING | SUPINE | LEFT VENTRICULAR HYPERTROPHY | | LEFT VENTRICULAR HYPERTROPHY | | | PQW43787B-07.xml | Lab | | | 1 | Screening | 15T11:58 | -36 |", "score": 0.421, "match_basis": "verbatim_token+domain_route:EG"}, {"md_atom_id": "md_dmEG_ex_a019", "md_file": "knowledge_base/domains/EG/examples.md", "md_atom_type": "TABLE_ROW", "md_parent_section": "§EG.1 [Example 1]", "md_verbatim": "| 7 | XYZ | EG | XYZ-US-701-002 | 7 | 334PT89 | SPRATRY | Supraventricular Tachyarrhythmias | FINDING | SUPINE | ATRIAL FIBRILLATION | | ATRIAL FIBRILLATION | | | PQW43787B-07.xml | Lab | | | 1 | Screening | 15T11:58 | -36 |", "score": 0.4204, "match_basis": "verbatim_token+domain_route:EG"}, {"md_atom_id": "md_dmEG_ex_a020", "md_file": "knowledge_base/domains/EG/examples.md", "md_atom_type": "TABLE_ROW", "md_parent_section": "§EG.1 [Example 1]", "md_verbatim": "| 8 | XYZ | EG | XYZ-US-701-002 | 8 | 334PT89 | SPRATRY | Supraventricular Tachyarrhythmias | FINDING | SUPINE | ATRIAL FLUTTER | | ATRIAL FLUTTER | | | PQW43787B-07.xml | Lab | | | 1 | Screening | 15T11:58 | -36 |", "score": 0.4178, "match_basis": "verbatim_token+domain_route:EG"}], "candidate_count": 5, "zero_candidate": false}
{"pdf_atom_id": "ig34_p0187_a009", "pdf_atom_type": "TABLE_ROW", "pdf_source": "SDTMIG_v3.4", "pdf_page": 187, "pdf_parent_section": "§6.3.3 ECG Test Results (EG)", "pdf_verbatim": "| EGEVAL | Evaluator | Char | (EVAL) | Record Qualifier | Role of the person who provided the evaluation. Used only for results that are subjective (e.g., assigned by a person or a group). Should be null for records that contain collected or derived data. Examples: \"INVESTIGATOR\", \"ADJUDICATION COMMITTEE\", \"VENDOR\". | Perm |", "figure_ref": null, "candidates": [{"md_atom_id": "md_dmEG_ex_a034", "md_file": "knowledge_base/domains/EG/examples.md", "md_atom_type": "TABLE_ROW", "md_parent_section": "§EG.2 [Example 2]", "md_verbatim": "| 4 | ABC | EG | ABC-99-CA-456 | 4 | Comp 1 | INTP | Interpretation | SUPINE | ABNORMAL | ABNORMAL | | PRINCIPAL INVESTIGATOR | 4 | DAY 15 | 15 | 2003-12-12 | 15 |", "score": 0.4528, "match_basis": "verbatim_token+domain_route:EG"}, {"md_atom_id": "md_dmEG_ex_a031", "md_file": "knowledge_base/domains/EG/examples.md", "md_atom_type": "TABLE_ROW", "md_parent_section": "§EG.2 [Example 2]", "md_verbatim": "| 1 | ABC | EG | ABC-99-CA-456 | 1 | | INTP | Interpretation | SUPINE | NORMAL | NORMAL | | PRINCIPAL INVESTIGATOR | 1 | SCREEN 1 | -2 | 2003-11-26 | -2 |", "score": 0.4491, "match_basis": "verbatim_token+domain_route:EG"}, {"md_atom_id": "md_dmEG_ex_a032", "md_file": "knowledge_base/domains/EG/examples.md", "md_atom_type": "TABLE_ROW", "md_parent_section": "§EG.2 [Example 2]", "md_verbatim": "| 2 | ABC | EG | ABC-99-CA-456 | 2 | | INTP | Interpretation | SUPINE | NORMAL | NORMAL | Y | PRINCIPAL INVESTIGATOR | 2 | SCREEN II | -1 | 2003-11-27 | -1 |", "score": 0.4491, "match_basis": "verbatim_token+domain_route:EG"}, {"md_atom_id": "md_dmEG_ex_a033", "md_file": "knowledge_base/domains/EG/examples.md", "md_atom_type": "TABLE_ROW", "md_parent_section": "§EG.2 [Example 2]", "md_verbatim": "| 3 | ABC | EG | ABC-99-CA-456 | 3 | | INTP | Interpretation | SUPINE | ABNORMAL | ABNORMAL | | PRINCIPAL INVESTIGATOR | 3 | DAY 10 | 10 | 2003-12-07T09:02 | 10 |", "score": 0.4484, "match_basis": "verbatim_token+domain_route:EG"}, {"md_atom_id": "md_dmEG_ex_a023", "md_file": "knowledge_base/domains/EG/examples.md", "md_atom_type": "TABLE_ROW", "md_parent_section": "§EG.1 [Example 1]", "md_verbatim": "| 11 | XYZ | EG | XYZ-US-701-002 | 11 | 334PT89 | TECHQUAL | Technical Quality | FINDING | SUPINE | OTHER/INCORRECT ELECTRODE PLACEMENT | | OTHER/INCORRECT ELECTRODE PLACEMENT | | | PQW43787B-07.xml | Lab | | | 1 | Screening | 15T11:58 | -36 |", "score": 0.4286, "match_basis": "verbatim_token+domain_route:EG"}], "candidate_count": 5, "zero_candidate": false}
{"pdf_atom_id": "ig34_p0187_a010", "pdf_atom_type": "TABLE_ROW", "pdf_source": "SDTMIG_v3.4", "pdf_page": 187, "pdf_parent_section": "§6.3.3 ECG Test Results (EG)", "pdf_verbatim": "| EGEVALID | Evaluator Identifier | Char | (MEDEVAL) | Variable Qualifier | Used to distinguish multiple evaluators with the same role recorded in EGEVAL. Examples: \"RADIOLOGIST 1\" or \"RADIOLOGIST 2\". | Perm |", "figure_ref": null, "candidates": [{"md_atom_id": "md_dmEG_ex_a035", "md_file": "knowledge_base/domains/EG/examples.md", "md_atom_type": "TABLE_ROW", "md_parent_section": "§EG.2 [Example 2]", "md_verbatim": "| 5 | ABC | EG | ABC-99-CA-456 | 5 | Comp 1 | INTP | Interpretation | SUPINE | ABNORMAL | ABNORMAL | | CARDIOLOGIST | 4 | DAY 15 | 15 | 2003-12-12 | 15 |", "score": 0.4375, "match_basis": "verbatim_token+domain_route:EG"}, {"md_atom_id": "md_dmEG_ex_a023", "md_file": "knowledge_base/domains/EG/examples.md", "md_atom_type": "TABLE_ROW", "md_parent_section": "§EG.1 [Example 1]", "md_verbatim": "| 11 | XYZ | EG | XYZ-US-701-002 | 11 | 334PT89 | TECHQUAL | Technical Quality | FINDING | SUPINE | OTHER/INCORRECT ELECTRODE PLACEMENT | | OTHER/INCORRECT ELECTRODE PLACEMENT | | | PQW43787B-07.xml | Lab | | | 1 | Screening | 15T11:58 | -36 |", "score": 0.4336, "match_basis": "verbatim_token+domain_route:EG"}, {"md_atom_id": "md_dmEG_ex_a021", "md_file": "knowledge_base/domains/EG/examples.md", "md_atom_type": "TABLE_ROW", "md_parent_section": "§EG.1 [Example 1]", "md_verbatim": "| 9 | XYZ | EG | XYZ-US-701-002 | 9 | 334PT89 | STSTWUN | ST Segment, T wave, and U wave Changes: nonspecific or Enlargement | FINDING | SUPINE | PROLONGED QT | | PROLONGED QT | | | PQW43787B-07.xml | Lab | | | 1 | Screening | 15T11:58 | -36 |", "score": 0.4243, "match_basis": "verbatim_token+domain_route:EG"}, {"md_atom_id": "md_dmEG_ex_a022", "md_file": "knowledge_base/domains/EG/examples.md", "md_atom_type": "TABLE_ROW", "md_parent_section": "§EG.1 [Example 1]", "md_verbatim": "| 10 | XYZ | EG | XYZ-US-701-002 | 10 | 334PT89 | CHPTEN2 | Chamber Hypertrophy or Enlargement | FINDING | SUPINE | LEFT VENTRICULAR HYPERTROPHY | | LEFT VENTRICULAR HYPERTROPHY | | | PQW43787B-07.xml | Lab | | | 1 | Screening | 15T11:58 | -36 |", "score": 0.4163, "match_basis": "verbatim_token+domain_route:EG"}, {"md_atom_id": "md_dmEG_ex_a031", "md_file": "knowledge_base/domains/EG/examples.md", "md_atom_type": "TABLE_ROW", "md_parent_section": "§EG.2 [Example 2]", "md_verbatim": "| 1 | ABC | EG | ABC-99-CA-456 | 1 | | INTP | Interpretation | SUPINE | NORMAL | NORMAL | | PRINCIPAL INVESTIGATOR | 1 | SCREEN 1 | -2 | 2003-11-26 | -2 |", "score": 0.4148, "match_basis": "verbatim_token+domain_route:EG"}], "candidate_count": 5, "zero_candidate": false}
{"pdf_atom_id": "ig34_p0187_a011", "pdf_atom_type": "TABLE_ROW", "pdf_source": "SDTMIG_v3.4", "pdf_page": 187, "pdf_parent_section": "§6.3.3 ECG Test Results (EG)", "pdf_verbatim": "| EGCLSIG | Clinically Significant, Collected | Char | (NY) | Record Qualifier | Used to indicate whether a collected observation is clinically significant based on judgment. | Perm |", "figure_ref": null, "candidates": [{"md_atom_id": "md_dmEG_ex_a023", "md_file": "knowledge_base/domains/EG/examples.md", "md_atom_type": "TABLE_ROW", "md_parent_section": "§EG.1 [Example 1]", "md_verbatim": "| 11 | XYZ | EG | XYZ-US-701-002 | 11 | 334PT89 | TECHQUAL | Technical Quality | FINDING | SUPINE | OTHER/INCORRECT ELECTRODE PLACEMENT | | OTHER/INCORRECT ELECTRODE PLACEMENT | | | PQW43787B-07.xml | Lab | | | 1 | Screening | 15T11:58 | -36 |", "score": 0.4762, "match_basis": "verbatim_token+domain_route:EG"}, {"md_atom_id": "md_dmEG_ex_a021", "md_file": "knowledge_base/domains/EG/examples.md", "md_atom_type": "TABLE_ROW", "md_parent_section": "§EG.1 [Example 1]", "md_verbatim": "| 9 | XYZ | EG | XYZ-US-701-002 | 9 | 334PT89 | STSTWUN | ST Segment, T wave, and U wave Changes: nonspecific or Enlargement | FINDING | SUPINE | PROLONGED QT | | PROLONGED QT | | | PQW43787B-07.xml | Lab | | | 1 | Screening | 15T11:58 | -36 |", "score": 0.435, "match_basis": "verbatim_token+domain_route:EG"}, {"md_atom_id": "md_dmEG_ex_a042", "md_file": "knowledge_base/domains/EG/examples.md", "md_atom_type": "TABLE_ROW", "md_parent_section": "§EG.3 [Example 3]", "md_verbatim": "| 3 | STUDY01 | EG | 2324-P0001 | 3 | ... | QRSAG | QRS Duration, Aggregate | INTERVAL | SUPINE | 97 | msec | 97 | 97 | msec | 12 LEAD STANDARD | LEAD II | | 2 | VISIT 2 | 2014-03-22T10:00:21 | 1 HR | ... | 1 |", "score": 0.4305, "match_basis": "verbatim_token+domain_route:EG"}, {"md_atom_id": "md_dmEG_ex_a046", "md_file": "knowledge_base/domains/EG/examples.md", "md_atom_type": "TABLE_ROW", "md_parent_section": "§EG.3 [Example 3]", "md_verbatim": "| 7 | STUDY01 | EG | 2324-P0001 | 7 | ... | QRSAG | QRS Duration, Aggregate | INTERVAL | SUPINE | 95 | msec | 95 | 95 | msec | 12 LEAD STANDARD | LEAD II | | 2 | VISIT 2 | 2014-03-22T10:01:35 | 1 HR | ... | 2 |", "score": 0.4305, "match_basis": "verbatim_token+domain_route:EG"}, {"md_atom_id": "md_dmEG_ex_a050", "md_file": "knowledge_base/domains/EG/examples.md", "md_atom_type": "TABLE_ROW", "md_parent_section": "§EG.3 [Example 3]", "md_verbatim": "| 11 | STUDY01 | EG | 2324-P0001 | 11 | ... | QRSAG | QRS Duration, Aggregate | INTERVAL | SUPINE | 90 | msec | 90 | 90 | msec | 12 LEAD STANDARD | LEAD II | | 2 | VISIT 2 | 2014-03-22T10:02:14 | 1 HR | ... | 3 |", "score": 0.4305, "match_basis": "verbatim_token+domain_route:EG"}], "candidate_count": 5, "zero_candidate": false}
{"pdf_atom_id": "ig34_p0187_a012", "pdf_atom_type": "TABLE_ROW", "pdf_source": "SDTMIG_v3.4", "pdf_page": 187, "pdf_parent_section": "§6.3.3 ECG Test Results (EG)", "pdf_verbatim": "| EGREPNUM | Repetition Number | Num | | Record Qualifier | The incidence number of a test that is repeated within a given timeframe for the same test. The level of granularity can vary (e.g., within a time point, within a visit). Examples: multiple measurements of blood pressure, multiple analyses of a sample. | Perm |", "figure_ref": null, "candidates": [{"md_atom_id": "md_dmEG_ex_a013", "md_file": "knowledge_base/domains/EG/examples.md", "md_atom_type": "TABLE_ROW", "md_parent_section": "§EG.1 [Example 1]", "md_verbatim": "| 1 | XYZ | EG | XYZ-US-701-002 | 1 | 334PT89 | EGHRMN | ECG Mean Heart Rate | MEASUREMENT | SUPINE | 62 | beats/min | 62 | 62 | beats/min | PQW43787B-07.xml | Test | N | | 1 | Screening | 2003-04-36 | -36 |", "score": 0.4494, "match_basis": "verbatim_token+domain_route:EG"}, {"md_atom_id": "md_dmEG_ex_a023", "md_file": "knowledge_base/domains/EG/examples.md", "md_atom_type": "TABLE_ROW", "md_parent_section": "§EG.1 [Example 1]", "md_verbatim": "| 11 | XYZ | EG | XYZ-US-701-002 | 11 | 334PT89 | TECHQUAL | Technical Quality | FINDING | SUPINE | OTHER/INCORRECT ELECTRODE PLACEMENT | | OTHER/INCORRECT ELECTRODE PLACEMENT | | | PQW43787B-07.xml | Lab | | | 1 | Screening | 15T11:58 | -36 |", "score": 0.4373, "match_basis": "verbatim_token+domain_route:EG"}, {"md_atom_id": "md_dmEG_ex_a074", "md_file": "knowledge_base/domains/EG/examples.md", "md_atom_type": "TABLE_ROW", "md_parent_section": "§EG.4 [Example 4]", "md_verbatim": "| 4 | STUDY01 | EG | 2324-P0001 | 4 | 2 | RRSM | RR Interval, Single Measurement | INTERVAL | SUPINE | 679 | msec | 679 | 679 | msec | 12 LEAD STANDARD | LEAD II | | 1 | SCREENING | -7 | 2014-02-11T14:32:13.3 |", "score": 0.4368, "match_basis": "verbatim_token+domain_route:EG"}, {"md_atom_id": "md_dmEG_ex_a077", "md_file": "knowledge_base/domains/EG/examples.md", "md_atom_type": "TABLE_ROW", "md_parent_section": "§EG.4 [Example 4]", "md_verbatim": "| 7 | STUDY01 | EG | 2324-P0001 | 7 | 3 | RRSM | RR Interval, Single Measurement | INTERVAL | SUPINE | 661 | msec | 661 | 661 | msec | 12 LEAD STANDARD | LEAD II | | 1 | SCREENING | -7 | 2014-02-11T15:32:14.2 |", "score": 0.4368, "match_basis": "verbatim_token+domain_route:EG"}, {"md_atom_id": "md_dmEG_ex_a022", "md_file": "knowledge_base/domains/EG/examples.md", "md_atom_type": "TABLE_ROW", "md_parent_section": "§EG.1 [Example 1]", "md_verbatim": "| 10 | XYZ | EG | XYZ-US-701-002 | 10 | 334PT89 | CHPTEN2 | Chamber Hypertrophy or Enlargement | FINDING | SUPINE | LEFT VENTRICULAR HYPERTROPHY | | LEFT VENTRICULAR HYPERTROPHY | | | PQW43787B-07.xml | Lab | | | 1 | Screening | 15T11:58 | -36 |", "score": 0.4302, "match_basis": "verbatim_token+domain_route:EG"}], "candidate_count": 5, "zero_candidate": false}
{"pdf_atom_id": "ig34_p0187_a013", "pdf_atom_type": "TABLE_ROW", "pdf_source": "SDTMIG_v3.4", "pdf_page": 187, "pdf_parent_section": "§6.3.3 ECG Test Results (EG)", "pdf_verbatim": "| VISITNUM | Visit Number | Num | | Timing | Clinical encounter number. Numeric version of VISIT, used for sorting. | Exp |", "figure_ref": null, "candidates": [{"md_atom_id": "md_dmEG_ex_a042", "md_file": "knowledge_base/domains/EG/examples.md", "md_atom_type": "TABLE_ROW", "md_parent_section": "§EG.3 [Example 3]", "md_verbatim": "| 3 | STUDY01 | EG | 2324-P0001 | 3 | ... | QRSAG | QRS Duration, Aggregate | INTERVAL | SUPINE | 97 | msec | 97 | 97 | msec | 12 LEAD STANDARD | LEAD II | | 2 | VISIT 2 | 2014-03-22T10:00:21 | 1 HR | ... | 1 |", "score": 0.4396, "match_basis": "verbatim_token+domain_route:EG"}, {"md_atom_id": "md_dmEG_ex_a046", "md_file": "knowledge_base/domains/EG/examples.md", "md_atom_type": "TABLE_ROW", "md_parent_section": "§EG.3 [Example 3]", "md_verbatim": "| 7 | STUDY01 | EG | 2324-P0001 | 7 | ... | QRSAG | QRS Duration, Aggregate | INTERVAL | SUPINE | 95 | msec | 95 | 95 | msec | 12 LEAD STANDARD | LEAD II | | 2 | VISIT 2 | 2014-03-22T10:01:35 | 1 HR | ... | 2 |", "score": 0.4396, "match_basis": "verbatim_token+domain_route:EG"}, {"md_atom_id": "md_dmEG_ex_a050", "md_file": "knowledge_base/domains/EG/examples.md", "md_atom_type": "TABLE_ROW", "md_parent_section": "§EG.3 [Example 3]", "md_verbatim": "| 11 | STUDY01 | EG | 2324-P0001 | 11 | ... | QRSAG | QRS Duration, Aggregate | INTERVAL | SUPINE | 90 | msec | 90 | 90 | msec | 12 LEAD STANDARD | LEAD II | | 2 | VISIT 2 | 2014-03-22T10:02:14 | 1 HR | ... | 3 |", "score": 0.4396, "match_basis": "verbatim_token+domain_route:EG"}, {"md_atom_id": "md_dmEG_ex_a062", "md_file": "knowledge_base/domains/EG/examples.md", "md_atom_type": "TABLE_ROW", "md_parent_section": "§EG.3 [Example 3]", "md_verbatim": "| 23 | STUDY01 | EG | 2324-P0001 | 23 | ... | QRSAG | QRS Duration, Aggregate | INTERVAL | SUPINE | 98 | msec | 98 | 98 | msec | 12 LEAD STANDARD | LEAD II | | 2 | VISIT 2 | 2014-03-22T11:02:40 | 2 HR | ... | 3 |", "score": 0.4396, "match_basis": "verbatim_token+domain_route:EG"}, {"md_atom_id": "md_dmEG_ex_a054", "md_file": "knowledge_base/domains/EG/examples.md", "md_atom_type": "TABLE_ROW", "md_parent_section": "§EG.3 [Example 3]", "md_verbatim": "| 15 | STUDY01 | EG | 2324-P0001 | 15 | ... | QRSAG | QRS Duration, Aggregate | INTERVAL | SUPINE | 100 | msec | 100 | 100 | msec | 12 LEAD STANDARD | LEAD II | | 2 | VISIT 2 | 2014-03-22T11:00:21 | 2 HR | ... | 1 |", "score": 0.4391, "match_basis": "verbatim_token+domain_route:EG"}], "candidate_count": 5, "zero_candidate": false}
{"pdf_atom_id": "ig34_p0187_a014", "pdf_atom_type": "TABLE_ROW", "pdf_source": "SDTMIG_v3.4", "pdf_page": 187, "pdf_parent_section": "§6.3.3 ECG Test Results (EG)", "pdf_verbatim": "| VISIT | Visit Name | Char | | Timing | Protocol-defined description of clinical encounter. May be used in addition to VISITNUM and/or VISITDY. | Perm |", "figure_ref": null, "candidates": [{"md_atom_id": "md_dmEG_ex_a042", "md_file": "knowledge_base/domains/EG/examples.md", "md_atom_type": "TABLE_ROW", "md_parent_section": "§EG.3 [Example 3]", "md_verbatim": "| 3 | STUDY01 | EG | 2324-P0001 | 3 | ... | QRSAG | QRS Duration, Aggregate | INTERVAL | SUPINE | 97 | msec | 97 | 97 | msec | 12 LEAD STANDARD | LEAD II | | 2 | VISIT 2 | 2014-03-22T10:00:21 | 1 HR | ... | 1 |", "score": 0.4519, "match_basis": "verbatim_token+domain_route:EG"}, {"md_atom_id": "md_dmEG_ex_a046", "md_file": "knowledge_base/domains/EG/examples.md", "md_atom_type": "TABLE_ROW", "md_parent_section": "§EG.3 [Example 3]", "md_verbatim": "| 7 | STUDY01 | EG | 2324-P0001 | 7 | ... | QRSAG | QRS Duration, Aggregate | INTERVAL | SUPINE | 95 | msec | 95 | 95 | msec | 12 LEAD STANDARD | LEAD II | | 2 | VISIT 2 | 2014-03-22T10:01:35 | 1 HR | ... | 2 |", "score": 0.4519, "match_basis": "verbatim_token+domain_route:EG"}, {"md_atom_id": "md_dmEG_ex_a050", "md_file": "knowledge_base/domains/EG/examples.md", "md_atom_type": "TABLE_ROW", "md_parent_section": "§EG.3 [Example 3]", "md_verbatim": "| 11 | STUDY01 | EG | 2324-P0001 | 11 | ... | QRSAG | QRS Duration, Aggregate | INTERVAL | SUPINE | 90 | msec | 90 | 90 | msec | 12 LEAD STANDARD | LEAD II | | 2 | VISIT 2 | 2014-03-22T10:02:14 | 1 HR | ... | 3 |", "score": 0.4519, "match_basis": "verbatim_token+domain_route:EG"}, {"md_atom_id": "md_dmEG_ex_a062", "md_file": "knowledge_base/domains/EG/examples.md", "md_atom_type": "TABLE_ROW", "md_parent_section": "§EG.3 [Example 3]", "md_verbatim": "| 23 | STUDY01 | EG | 2324-P0001 | 23 | ... | QRSAG | QRS Duration, Aggregate | INTERVAL | SUPINE | 98 | msec | 98 | 98 | msec | 12 LEAD STANDARD | LEAD II | | 2 | VISIT 2 | 2014-03-22T11:02:40 | 2 HR | ... | 3 |", "score": 0.4519, "match_basis": "verbatim_token+domain_route:EG"}, {"md_atom_id": "md_dmEG_ex_a054", "md_file": "knowledge_base/domains/EG/examples.md", "md_atom_type": "TABLE_ROW", "md_parent_section": "§EG.3 [Example 3]", "md_verbatim": "| 15 | STUDY01 | EG | 2324-P0001 | 15 | ... | QRSAG | QRS Duration, Aggregate | INTERVAL | SUPINE | 100 | msec | 100 | 100 | msec | 12 LEAD STANDARD | LEAD II | | 2 | VISIT 2 | 2014-03-22T11:00:21 | 2 HR | ... | 1 |", "score": 0.4514, "match_basis": "verbatim_token+domain_route:EG"}], "candidate_count": 5, "zero_candidate": false}
{"pdf_atom_id": "ig34_p0187_a015", "pdf_atom_type": "TABLE_ROW", "pdf_source": "SDTMIG_v3.4", "pdf_page": 187, "pdf_parent_section": "§6.3.3 ECG Test Results (EG)", "pdf_verbatim": "| VISITDY | Planned Study Day of Visit | Num | | Timing | Planned study day of the visit based upon RFSTDTC in Demographics. | Perm |", "figure_ref": null, "candidates": [{"md_atom_id": "md_dmEG_ex_a040", "md_file": "knowledge_base/domains/EG/examples.md", "md_atom_type": "TABLE_ROW", "md_parent_section": "§EG.3 [Example 3]", "md_verbatim": "| 1 | STUDY01 | EG | 2324-P0001 | 1 | ... | PRAG | PR Interval, Aggregate | INTERVAL | SUPINE | 176 | msec | 176 | 176 | msec | 12 LEAD STANDARD | LEAD II | | 2 | VISIT 2 | 2014-03-22T10:00:21 | 1 HR | ... | 1 |", "score": 0.4429, "match_basis": "verbatim_token+domain_route:EG"}, {"md_atom_id": "md_dmEG_ex_a041", "md_file": "knowledge_base/domains/EG/examples.md", "md_atom_type": "TABLE_ROW", "md_parent_section": "§EG.3 [Example 3]", "md_verbatim": "| 2 | STUDY01 | EG | 2324-P0001 | 2 | ... | RRAG | RR Interval, Aggregate | INTERVAL | SUPINE | 658 | msec | 658 | 658 | msec | 12 LEAD STANDARD | LEAD II | | 2 | VISIT 2 | 2014-03-22T10:00:21 | 1 HR | ... | 1 |", "score": 0.4429, "match_basis": "verbatim_token+domain_route:EG"}, {"md_atom_id": "md_dmEG_ex_a043", "md_file": "knowledge_base/domains/EG/examples.md", "md_atom_type": "TABLE_ROW", "md_parent_section": "§EG.3 [Example 3]", "md_verbatim": "| 4 | STUDY01 | EG | 2324-P0001 | 4 | ... | QTAG | QT Interval, Aggregate | INTERVAL | SUPINE | 440 | msec | 440 | 440 | msec | 12 LEAD STANDARD | LEAD II | | 2 | VISIT 2 | 2014-03-22T10:00:21 | 1 HR | ... | 1 |", "score": 0.4429, "match_basis": "verbatim_token+domain_route:EG"}, {"md_atom_id": "md_dmEG_ex_a044", "md_file": "knowledge_base/domains/EG/examples.md", "md_atom_type": "TABLE_ROW", "md_parent_section": "§EG.3 [Example 3]", "md_verbatim": "| 5 | STUDY01 | EG | 2324-P0001 | 5 | ... | PRAG | PR Interval, Aggregate | INTERVAL | SUPINE | 176 | msec | 176 | 176 | msec | 12 LEAD STANDARD | LEAD II | | 2 | VISIT 2 | 2014-03-22T10:01:35 | 1 HR | ... | 2 |", "score": 0.4429, "match_basis": "verbatim_token+domain_route:EG"}, {"md_atom_id": "md_dmEG_ex_a045", "md_file": "knowledge_base/domains/EG/examples.md", "md_atom_type": "TABLE_ROW", "md_parent_section": "§EG.3 [Example 3]", "md_verbatim": "| 6 | STUDY01 | EG | 2324-P0001 | 6 | ... | RRAG | RR Interval, Aggregate | INTERVAL | SUPINE | 679 | msec | 679 | 679 | msec | 12 LEAD STANDARD | LEAD II | | 2 | VISIT 2 | 2014-03-22T10:01:35 | 1 HR | ... | 2 |", "score": 0.4429, "match_basis": "verbatim_token+domain_route:EG"}], "candidate_count": 5, "zero_candidate": false}
{"pdf_atom_id": "ig34_p0187_a016", "pdf_atom_type": "TABLE_ROW", "pdf_source": "SDTMIG_v3.4", "pdf_page": 187, "pdf_parent_section": "§6.3.3 ECG Test Results (EG)", "pdf_verbatim": "| TAETORD | Planned Order of Element within Arm | Num | | Timing | Number that gives the planned order of the element within the arm for the element in which the assessment was made. | Perm |", "figure_ref": null, "candidates": [{"md_atom_id": "md_dmEG_ex_a022", "md_file": "knowledge_base/domains/EG/examples.md", "md_atom_type": "TABLE_ROW", "md_parent_section": "§EG.1 [Example 1]", "md_verbatim": "| 10 | XYZ | EG | XYZ-US-701-002 | 10 | 334PT89 | CHPTEN2 | Chamber Hypertrophy or Enlargement | FINDING | SUPINE | LEFT VENTRICULAR HYPERTROPHY | | LEFT VENTRICULAR HYPERTROPHY | | | PQW43787B-07.xml | Lab | | | 1 | Screening | 15T11:58 | -36 |", "score": 0.4362, "match_basis": "verbatim_token+domain_route:EG"}, {"md_atom_id": "md_dmEG_ex_a023", "md_file": "knowledge_base/domains/EG/examples.md", "md_atom_type": "TABLE_ROW", "md_parent_section": "§EG.1 [Example 1]", "md_verbatim": "| 11 | XYZ | EG | XYZ-US-701-002 | 11 | 334PT89 | TECHQUAL | Technical Quality | FINDING | SUPINE | OTHER/INCORRECT ELECTRODE PLACEMENT | | OTHER/INCORRECT ELECTRODE PLACEMENT | | | PQW43787B-07.xml | Lab | | | 1 | Screening | 15T11:58 | -36 |", "score": 0.4362, "match_basis": "verbatim_token+domain_route:EG"}, {"md_atom_id": "md_dmEG_ex_a013", "md_file": "knowledge_base/domains/EG/examples.md", "md_atom_type": "TABLE_ROW", "md_parent_section": "§EG.1 [Example 1]", "md_verbatim": "| 1 | XYZ | EG | XYZ-US-701-002 | 1 | 334PT89 | EGHRMN | ECG Mean Heart Rate | MEASUREMENT | SUPINE | 62 | beats/min | 62 | 62 | beats/min | PQW43787B-07.xml | Test | N | | 1 | Screening | 2003-04-36 | -36 |", "score": 0.4297, "match_basis": "verbatim_token+domain_route:EG"}, {"md_atom_id": "md_dmEG_ex_a074", "md_file": "knowledge_base/domains/EG/examples.md", "md_atom_type": "TABLE_ROW", "md_parent_section": "§EG.4 [Example 4]", "md_verbatim": "| 4 | STUDY01 | EG | 2324-P0001 | 4 | 2 | RRSM | RR Interval, Single Measurement | INTERVAL | SUPINE | 679 | msec | 679 | 679 | msec | 12 LEAD STANDARD | LEAD II | | 1 | SCREENING | -7 | 2014-02-11T14:32:13.3 |", "score": 0.4231, "match_basis": "verbatim_token+domain_route:EG"}, {"md_atom_id": "md_dmEG_ex_a077", "md_file": "knowledge_base/domains/EG/examples.md", "md_atom_type": "TABLE_ROW", "md_parent_section": "§EG.4 [Example 4]", "md_verbatim": "| 7 | STUDY01 | EG | 2324-P0001 | 7 | 3 | RRSM | RR Interval, Single Measurement | INTERVAL | SUPINE | 661 | msec | 661 | 661 | msec | 12 LEAD STANDARD | LEAD II | | 1 | SCREENING | -7 | 2014-02-11T15:32:14.2 |", "score": 0.4231, "match_basis": "verbatim_token+domain_route:EG"}], "candidate_count": 5, "zero_candidate": false}
{"pdf_atom_id": "ig34_p0187_a017", "pdf_atom_type": "TABLE_ROW", "pdf_source": "SDTMIG_v3.4", "pdf_page": 187, "pdf_parent_section": "§6.3.3 ECG Test Results (EG)", "pdf_verbatim": "| EPOCH | Epoch | Char | (EPOCH) | Timing | Epoch associated with the date/time at which the assessment was made. | Perm |", "figure_ref": null, "candidates": [{"md_atom_id": "md_dmEG_ex_a013", "md_file": "knowledge_base/domains/EG/examples.md", "md_atom_type": "TABLE_ROW", "md_parent_section": "§EG.1 [Example 1]", "md_verbatim": "| 1 | XYZ | EG | XYZ-US-701-002 | 1 | 334PT89 | EGHRMN | ECG Mean Heart Rate | MEASUREMENT | SUPINE | 62 | beats/min | 62 | 62 | beats/min | PQW43787B-07.xml | Test | N | | 1 | Screening | 2003-04-36 | -36 |", "score": 0.4345, "match_basis": "verbatim_token+domain_route:EG"}, {"md_atom_id": "md_dmEG_ex_a022", "md_file": "knowledge_base/domains/EG/examples.md", "md_atom_type": "TABLE_ROW", "md_parent_section": "§EG.1 [Example 1]", "md_verbatim": "| 10 | XYZ | EG | XYZ-US-701-002 | 10 | 334PT89 | CHPTEN2 | Chamber Hypertrophy or Enlargement | FINDING | SUPINE | LEFT VENTRICULAR HYPERTROPHY | | LEFT VENTRICULAR HYPERTROPHY | | | PQW43787B-07.xml | Lab | | | 1 | Screening | 15T11:58 | -36 |", "score": 0.4288, "match_basis": "verbatim_token+domain_route:EG"}, {"md_atom_id": "md_dmEG_ex_a023", "md_file": "knowledge_base/domains/EG/examples.md", "md_atom_type": "TABLE_ROW", "md_parent_section": "§EG.1 [Example 1]", "md_verbatim": "| 11 | XYZ | EG | XYZ-US-701-002 | 11 | 334PT89 | TECHQUAL | Technical Quality | FINDING | SUPINE | OTHER/INCORRECT ELECTRODE PLACEMENT | | OTHER/INCORRECT ELECTRODE PLACEMENT | | | PQW43787B-07.xml | Lab | | | 1 | Screening | 15T11:58 | -36 |", "score": 0.4229, "match_basis": "verbatim_token+domain_route:EG"}, {"md_atom_id": "md_dmEG_ex_a021", "md_file": "knowledge_base/domains/EG/examples.md", "md_atom_type": "TABLE_ROW", "md_parent_section": "§EG.1 [Example 1]", "md_verbatim": "| 9 | XYZ | EG | XYZ-US-701-002 | 9 | 334PT89 | STSTWUN | ST Segment, T wave, and U wave Changes: nonspecific or Enlargement | FINDING | SUPINE | PROLONGED QT | | PROLONGED QT | | | PQW43787B-07.xml | Lab | | | 1 | Screening | 15T11:58 | -36 |", "score": 0.4222, "match_basis": "verbatim_token+domain_route:EG"}, {"md_atom_id": "md_dmEG_ex_a074", "md_file": "knowledge_base/domains/EG/examples.md", "md_atom_type": "TABLE_ROW", "md_parent_section": "§EG.4 [Example 4]", "md_verbatim": "| 4 | STUDY01 | EG | 2324-P0001 | 4 | 2 | RRSM | RR Interval, Single Measurement | INTERVAL | SUPINE | 679 | msec | 679 | 679 | msec | 12 LEAD STANDARD | LEAD II | | 1 | SCREENING | -7 | 2014-02-11T14:32:13.3 |", "score": 0.4198, "match_basis": "verbatim_token+domain_route:EG"}], "candidate_count": 5, "zero_candidate": false}
{"pdf_atom_id": "ig34_p0187_a018", "pdf_atom_type": "TABLE_ROW", "pdf_source": "SDTMIG_v3.4", "pdf_page": 187, "pdf_parent_section": "§6.3.3 ECG Test Results (EG)", "pdf_verbatim": "| EGDTC | Date/Time of ECG | Char | ISO 8601 datetime or interval | Timing | Date/Time of ECG. | Exp |", "figure_ref": null, "candidates": [{"md_atom_id": "md_dmEG_ex_a014", "md_file": "knowledge_base/domains/EG/examples.md", "md_atom_type": "TABLE_ROW", "md_parent_section": "§EG.1 [Example 1]", "md_verbatim": "| 2 | XYZ | EG | XYZ-US-701-002 | 2 | 334PT89 | PRAG | PR Interval, Aggregate | INTERVAL | SUPINE | 0.15 | sec | 150 | 150 | msec | PQW43787B-07.xml | Test | Y | | 1 | Screening | 2003-04-36 | -36 |", "score": 0.4727, "match_basis": "verbatim_token+domain_route:EG"}, {"md_atom_id": "md_dmEG_ex_a016", "md_file": "knowledge_base/domains/EG/examples.md", "md_atom_type": "TABLE_ROW", "md_parent_section": "§EG.1 [Example 1]", "md_verbatim": "| 4 | XYZ | EG | XYZ-US-701-002 | 4 | 334PT89 | QTAG | QT Interval, Aggregate | INTERVAL | SUPINE | 0.406 | sec | 406 | 406 | msec | PQW43787B-07.xml | Test | | | 1 | Screening | 2003-04-36 | -36 |", "score": 0.4727, "match_basis": "verbatim_token+domain_route:EG"}, {"md_atom_id": "md_dmEG_ex_a017", "md_file": "knowledge_base/domains/EG/examples.md", "md_atom_type": "TABLE_ROW", "md_parent_section": "§EG.1 [Example 1]", "md_verbatim": "| 5 | XYZ | EG | XYZ-US-701-002 | 5 | 334PT89 | QTCBAG | QTcB Interval, Aggregate | INTERVAL | SUPINE | | | 469 | 469 | msec | PQW43787B-07.xml | Test | Y | | 1 | Screening | 2003-04-36 | -36 |", "score": 0.4706, "match_basis": "verbatim_token+domain_route:EG"}, {"md_atom_id": "md_dmEG_ex_a018", "md_file": "knowledge_base/domains/EG/examples.md", "md_atom_type": "TABLE_ROW", "md_parent_section": "§EG.1 [Example 1]", "md_verbatim": "| 6 | XYZ | EG | XYZ-US-701-002 | 6 | 334PT89 | QTCFAG | QTcF Interval, Aggregate | INTERVAL | SUPINE | | | 448 | 448 | msec | PQW43787B-07.xml | Test | Y | | 1 | Screening | 2003-04-36 | -36 |", "score": 0.4706, "match_basis": "verbatim_token+domain_route:EG"}, {"md_atom_id": "md_dmEG_ex_a015", "md_file": "knowledge_base/domains/EG/examples.md", "md_atom_type": "TABLE_ROW", "md_parent_section": "§EG.1 [Example 1]", "md_verbatim": "| 3 | XYZ | EG | XYZ-US-701-002 | 3 | 334PT89 | QRSAG | QRS Duration, Aggregate | INTERVAL | SUPINE | 0.103 | sec | 103 | 103 | msec | PQW43787B-07.xml | Test | | | 1 | Screening | 2003-04-36 | -36 |", "score": 0.4658, "match_basis": "verbatim_token+domain_route:EG"}], "candidate_count": 5, "zero_candidate": false}
{"pdf_atom_id": "ig34_p0187_a019", "pdf_atom_type": "TABLE_ROW", "pdf_source": "SDTMIG_v3.4", "pdf_page": 187, "pdf_parent_section": "§6.3.3 ECG Test Results (EG)", "pdf_verbatim": "| EGDY | Study Day of ECG | Num | | Timing | Study day of the ECG, measured as integer days. Algorithm for calculations must be relative to the sponsor-defined RFSTDTC variable in Demographics. | Perm |", "figure_ref": null, "candidates": [{"md_atom_id": "md_dmEG_ex_a074", "md_file": "knowledge_base/domains/EG/examples.md", "md_atom_type": "TABLE_ROW", "md_parent_section": "§EG.4 [Example 4]", "md_verbatim": "| 4 | STUDY01 | EG | 2324-P0001 | 4 | 2 | RRSM | RR Interval, Single Measurement | INTERVAL | SUPINE | 679 | msec | 679 | 679 | msec | 12 LEAD STANDARD | LEAD II | | 1 | SCREENING | -7 | 2014-02-11T14:32:13.3 |", "score": 0.4571, "match_basis": "verbatim_token+domain_route:EG"}, {"md_atom_id": "md_dmEG_ex_a077", "md_file": "knowledge_base/domains/EG/examples.md", "md_atom_type": "TABLE_ROW", "md_parent_section": "§EG.4 [Example 4]", "md_verbatim": "| 7 | STUDY01 | EG | 2324-P0001 | 7 | 3 | RRSM | RR Interval, Single Measurement | INTERVAL | SUPINE | 661 | msec | 661 | 661 | msec | 12 LEAD STANDARD | LEAD II | | 1 | SCREENING | -7 | 2014-02-11T15:32:14.2 |", "score": 0.4571, "match_basis": "verbatim_token+domain_route:EG"}, {"md_atom_id": "md_dmEG_ex_a072", "md_file": "knowledge_base/domains/EG/examples.md", "md_atom_type": "TABLE_ROW", "md_parent_section": "§EG.4 [Example 4]", "md_verbatim": "| 2 | STUDY01 | EG | 2324-P0001 | 2 | 1 | QRSSB | QRS Duration, Single Beat | INTERVAL | SUPINE | 97 | msec | 97 | 97 | msec | 12 LEAD STANDARD | LEAD II | | 1 | SCREENING | -7 | 2014-02-11T14:32:12.3 |", "score": 0.4472, "match_basis": "verbatim_token+domain_route:EG"}, {"md_atom_id": "md_dmEG_ex_a075", "md_file": "knowledge_base/domains/EG/examples.md", "md_atom_type": "TABLE_ROW", "md_parent_section": "§EG.4 [Example 4]", "md_verbatim": "| 5 | STUDY01 | EG | 2324-P0001 | 5 | 2 | QRSSB | QRS Duration, Single Beat | INTERVAL | SUPINE | 95 | msec | 95 | 95 | msec | 12 LEAD STANDARD | LEAD II | | 1 | SCREENING | -7 | 2014-02-11T14:32:13.3 |", "score": 0.4472, "match_basis": "verbatim_token+domain_route:EG"}, {"md_atom_id": "md_dmEG_ex_a078", "md_file": "knowledge_base/domains/EG/examples.md", "md_atom_type": "TABLE_ROW", "md_parent_section": "§EG.4 [Example 4]", "md_verbatim": "| 8 | STUDY01 | EG | 2324-P0001 | 8 | 3 | QRSSB | QRS Duration, Single Beat | INTERVAL | SUPINE | 90 | msec | 90 | 90 | msec | 12 LEAD STANDARD | LEAD II | | 1 | SCREENING | -7 | 2014-02-11T15:32:14.2 |", "score": 0.4472, "match_basis": "verbatim_token+domain_route:EG"}], "candidate_count": 5, "zero_candidate": false}
{"pdf_atom_id": "ig34_p0187_a020", "pdf_atom_type": "TABLE_ROW", "pdf_source": "SDTMIG_v3.4", "pdf_page": 187, "pdf_parent_section": "§6.3.3 ECG Test Results (EG)", "pdf_verbatim": "| EGTPT | Planned Time Point Name | Char | | Timing | Text description of time when measurement should be taken. This may be represented as an elapsed time relative to a fixed reference point, such as time of last dose. See EGTPTNUM and EGTPTREF. Examples: \"Start\", \"5 min post\". | Perm |", "figure_ref": null, "candidates": [{"md_atom_id": "md_dmEG_ex_a074", "md_file": "knowledge_base/domains/EG/examples.md", "md_atom_type": "TABLE_ROW", "md_parent_section": "§EG.4 [Example 4]", "md_verbatim": "| 4 | STUDY01 | EG | 2324-P0001 | 4 | 2 | RRSM | RR Interval, Single Measurement | INTERVAL | SUPINE | 679 | msec | 679 | 679 | msec | 12 LEAD STANDARD | LEAD II | | 1 | SCREENING | -7 | 2014-02-11T14:32:13.3 |", "score": 0.4608, "match_basis": "verbatim_token+domain_route:EG"}, {"md_atom_id": "md_dmEG_ex_a077", "md_file": "knowledge_base/domains/EG/examples.md", "md_atom_type": "TABLE_ROW", "md_parent_section": "§EG.4 [Example 4]", "md_verbatim": "| 7 | STUDY01 | EG | 2324-P0001 | 7 | 3 | RRSM | RR Interval, Single Measurement | INTERVAL | SUPINE | 661 | msec | 661 | 661 | msec | 12 LEAD STANDARD | LEAD II | | 1 | SCREENING | -7 | 2014-02-11T15:32:14.2 |", "score": 0.4608, "match_basis": "verbatim_token+domain_route:EG"}, {"md_atom_id": "md_dmEG_ex_a013", "md_file": "knowledge_base/domains/EG/examples.md", "md_atom_type": "TABLE_ROW", "md_parent_section": "§EG.1 [Example 1]", "md_verbatim": "| 1 | XYZ | EG | XYZ-US-701-002 | 1 | 334PT89 | EGHRMN | ECG Mean Heart Rate | MEASUREMENT | SUPINE | 62 | beats/min | 62 | 62 | beats/min | PQW43787B-07.xml | Test | N | | 1 | Screening | 2003-04-36 | -36 |", "score": 0.4527, "match_basis": "verbatim_token+domain_route:EG"}, {"md_atom_id": "md_dmEG_ex_a072", "md_file": "knowledge_base/domains/EG/examples.md", "md_atom_type": "TABLE_ROW", "md_parent_section": "§EG.4 [Example 4]", "md_verbatim": "| 2 | STUDY01 | EG | 2324-P0001 | 2 | 1 | QRSSB | QRS Duration, Single Beat | INTERVAL | SUPINE | 97 | msec | 97 | 97 | msec | 12 LEAD STANDARD | LEAD II | | 1 | SCREENING | -7 | 2014-02-11T14:32:12.3 |", "score": 0.4353, "match_basis": "verbatim_token+domain_route:EG"}, {"md_atom_id": "md_dmEG_ex_a075", "md_file": "knowledge_base/domains/EG/examples.md", "md_atom_type": "TABLE_ROW", "md_parent_section": "§EG.4 [Example 4]", "md_verbatim": "| 5 | STUDY01 | EG | 2324-P0001 | 5 | 2 | QRSSB | QRS Duration, Single Beat | INTERVAL | SUPINE | 95 | msec | 95 | 95 | msec | 12 LEAD STANDARD | LEAD II | | 1 | SCREENING | -7 | 2014-02-11T14:32:13.3 |", "score": 0.4353, "match_basis": "verbatim_token+domain_route:EG"}], "candidate_count": 5, "zero_candidate": false}
{"pdf_atom_id": "ig34_p0187_a021", "pdf_atom_type": "TABLE_ROW", "pdf_source": "SDTMIG_v3.4", "pdf_page": 187, "pdf_parent_section": "§6.3.3 ECG Test Results (EG)", "pdf_verbatim": "| EGTPTNUM | Planned Time Point Number | Num | | Timing | Numerical version of EGTPT to aid in sorting. | Perm |", "figure_ref": null, "candidates": [{"md_atom_id": "md_dmEG_ex_a022", "md_file": "knowledge_base/domains/EG/examples.md", "md_atom_type": "TABLE_ROW", "md_parent_section": "§EG.1 [Example 1]", "md_verbatim": "| 10 | XYZ | EG | XYZ-US-701-002 | 10 | 334PT89 | CHPTEN2 | Chamber Hypertrophy or Enlargement | FINDING | SUPINE | LEFT VENTRICULAR HYPERTROPHY | | LEFT VENTRICULAR HYPERTROPHY | | | PQW43787B-07.xml | Lab | | | 1 | Screening | 15T11:58 | -36 |", "score": 0.428, "match_basis": "verbatim_token+domain_route:EG"}, {"md_atom_id": "md_dmEG_ex_a024", "md_file": "knowledge_base/domains/EG/examples.md", "md_atom_type": "TABLE_ROW", "md_parent_section": "§EG.1 [Example 1]", "md_verbatim": "| 12 | XYZ | EG | XYZ-US-701-002 | 12 | 334PT89 | INTP | Interpretation | | SUPINE | ABNORMAL | | ABNORMAL | | | | | | | 1 | Screening | 15T11:58 | -36 |", "score": 0.4231, "match_basis": "verbatim_token+domain_route:EG"}, {"md_atom_id": "md_dmEG_ex_a023", "md_file": "knowledge_base/domains/EG/examples.md", "md_atom_type": "TABLE_ROW", "md_parent_section": "§EG.1 [Example 1]", "md_verbatim": "| 11 | XYZ | EG | XYZ-US-701-002 | 11 | 334PT89 | TECHQUAL | Technical Quality | FINDING | SUPINE | OTHER/INCORRECT ELECTRODE PLACEMENT | | OTHER/INCORRECT ELECTRODE PLACEMENT | | | PQW43787B-07.xml | Lab | | | 1 | Screening | 15T11:58 | -36 |", "score": 0.4222, "match_basis": "verbatim_token+domain_route:EG"}, {"md_atom_id": "md_dmEG_ex_a015", "md_file": "knowledge_base/domains/EG/examples.md", "md_atom_type": "TABLE_ROW", "md_parent_section": "§EG.1 [Example 1]", "md_verbatim": "| 3 | XYZ | EG | XYZ-US-701-002 | 3 | 334PT89 | QRSAG | QRS Duration, Aggregate | INTERVAL | SUPINE | 0.103 | sec | 103 | 103 | msec | PQW43787B-07.xml | Test | | | 1 | Screening | 2003-04-36 | -36 |", "score": 0.4194, "match_basis": "verbatim_token+domain_route:EG"}, {"md_atom_id": "md_dmEG_ex_a072", "md_file": "knowledge_base/domains/EG/examples.md", "md_atom_type": "TABLE_ROW", "md_parent_section": "§EG.4 [Example 4]", "md_verbatim": "| 2 | STUDY01 | EG | 2324-P0001 | 2 | 1 | QRSSB | QRS Duration, Single Beat | INTERVAL | SUPINE | 97 | msec | 97 | 97 | msec | 12 LEAD STANDARD | LEAD II | | 1 | SCREENING | -7 | 2014-02-11T14:32:12.3 |", "score": 0.4194, "match_basis": "verbatim_token+domain_route:EG"}], "candidate_count": 5, "zero_candidate": false}
{"pdf_atom_id": "ig34_p0188_a001", "pdf_atom_type": "TABLE_HEADER", "pdf_source": "SDTMIG_v3.4", "pdf_page": 188, "pdf_parent_section": "§6.3.3 ECG Test Results (EG)", "pdf_verbatim": "| Variable Name | Variable Label | Type | Controlled Terms, Codelist or Format1 | Role | CDISC Notes | Core |", "figure_ref": null, "candidates": [{"md_atom_id": "md_dmEG_ex_a012", "md_file": "knowledge_base/domains/EG/examples.md", "md_atom_type": "TABLE_HEADER", "md_parent_section": "§EG.1 [Example 1]", "md_verbatim": "| Row | STUDYID | DOMAIN | USUBJID | EGSEQ | EGREFID | EGTESTCD | EGTEST | EGCAT | EGPOS | EGORRES | EGORRESU | EGSTRESC | EGSTRESN | EGSTRESU | EGXFN | EGNAM | EGCLSIG | EGDRVFL | VISITNUM | VISIT | EGDTC | EGDY |\n|-----|---------|--------|---------|-------|---------|----------|--------|-------|-------|---------|----------|----------|----------|----------|-------|-------|---------|---------|----------|-------|-------|------|", "score": 0.4107, "match_basis": "verbatim_token+domain_route:EG"}, {"md_atom_id": "md_dmEG_ex_a030", "md_file": "knowledge_base/domains/EG/examples.md", "md_atom_type": "TABLE_HEADER", "md_parent_section": "§EG.2 [Example 2]", "md_verbatim": "| Row | STUDYID | DOMAIN | USUBJID | EGSEQ | EGGRPID | EGTESTCD | EGTEST | EGPOS | EGORRES | EGSTRESC | EGLOBXFL | EGEVAL | VISITNUM | VISIT | VISITDY | EGDTC | EGDY |\n|-----|---------|--------|---------|-------|---------|----------|--------|-------|---------|----------|----------|--------|----------|-------|---------|-------|------|", "score": 0.4057, "match_basis": "verbatim_token+domain_route:EG"}, {"md_atom_id": "md_dmEG_ex_a039", "md_file": "knowledge_base/domains/EG/examples.md", "md_atom_type": "TABLE_HEADER", "md_parent_section": "§EG.3 [Example 3]", "md_verbatim": "| Row | STUDYID | DOMAIN | USUBJID | EGSEQ | ... | EGTESTCD | EGTEST | EGCAT | EGPOS | EGORRES | EGORRESU | EGSTRESC | EGSTRESN | EGSTRESU | EGMETHOD | EGLEAD | EGLOBXFL | VISITNUM | VISIT | EGDTC | EGTPT | ... | EGREPNUM |\n|-----|---------|--------|---------|-------|-----|----------|--------|-------|-------|---------|----------|----------|----------|----------|----------|--------|----------|----------|-------|-------|-------|-----|----------|", "score": 0.4052, "match_basis": "verbatim_token+domain_route:EG"}, {"md_atom_id": "md_dmEG_ex_a070", "md_file": "knowledge_base/domains/EG/examples.md", "md_atom_type": "TABLE_HEADER", "md_parent_section": "§EG.4 [Example 4]", "md_verbatim": "| Row | STUDYID | DOMAIN | USUBJID | EGSEQ | EGBEATNO | EGTESTCD | EGTEST | EGCAT | EGPOS | EGORRES | EGORRESU | EGSTRESC | EGSTRESN | EGSTRESU | EGMETHOD | EGLEAD | EGLOBXFL | VISITNUM | VISIT | VISITDY | EGDTC |\n|-----|---------|--------|---------|-------|----------|----------|--------|-------|-------|---------|----------|----------|----------|----------|----------|--------|----------|----------|-------|---------|-------|", "score": 0.4052, "match_basis": "verbatim_token+domain_route:EG"}, {"md_atom_id": "md_dmEG_ex_a035", "md_file": "knowledge_base/domains/EG/examples.md", "md_atom_type": "TABLE_ROW", "md_parent_section": "§EG.2 [Example 2]", "md_verbatim": "| 5 | ABC | EG | ABC-99-CA-456 | 5 | Comp 1 | INTP | Interpretation | SUPINE | ABNORMAL | ABNORMAL | | CARDIOLOGIST | 4 | DAY 15 | 15 | 2003-12-12 | 15 |", "score": 0.37, "match_basis": "verbatim_token+domain_route:EG"}], "candidate_count": 5, "zero_candidate": false}
{"pdf_atom_id": "ig34_p0188_a002", "pdf_atom_type": "TABLE_ROW", "pdf_source": "SDTMIG_v3.4", "pdf_page": 188, "pdf_parent_section": "§6.3.3 ECG Test Results (EG)", "pdf_verbatim": "| EGELTM | Planned Elapsed Time from Time Point Ref | Char | ISO 8601 duration | Timing | Planned elapsed time (in ISO 8601) relative to a fixed time point reference (EGTPTREF). Not a clock time or a date time variable. Represented as an ISO 8601 duration. Examples: \"-PT15M\" to represent the period of 15 minutes prior to the reference point indicated by EGTPTREF, \"PT8H\" to represent the period of 8 hours after the reference point indicated by EGTPTREF. | Perm |", "figure_ref": null, "candidates": [{"md_atom_id": "md_dmEG_ex_a015", "md_file": "knowledge_base/domains/EG/examples.md", "md_atom_type": "TABLE_ROW", "md_parent_section": "§EG.1 [Example 1]", "md_verbatim": "| 3 | XYZ | EG | XYZ-US-701-002 | 3 | 334PT89 | QRSAG | QRS Duration, Aggregate | INTERVAL | SUPINE | 0.103 | sec | 103 | 103 | msec | PQW43787B-07.xml | Test | | | 1 | Screening | 2003-04-36 | -36 |", "score": 0.4513, "match_basis": "verbatim_token+domain_route:EG"}, {"md_atom_id": "md_dmEG_ex_a078", "md_file": "knowledge_base/domains/EG/examples.md", "md_atom_type": "TABLE_ROW", "md_parent_section": "§EG.4 [Example 4]", "md_verbatim": "| 8 | STUDY01 | EG | 2324-P0001 | 8 | 3 | QRSSB | QRS Duration, Single Beat | INTERVAL | SUPINE | 90 | msec | 90 | 90 | msec | 12 LEAD STANDARD | LEAD II | | 1 | SCREENING | -7 | 2014-02-11T15:32:14.2 |", "score": 0.4429, "match_basis": "verbatim_token+domain_route:EG"}, {"md_atom_id": "md_dmEG_ex_a042", "md_file": "knowledge_base/domains/EG/examples.md", "md_atom_type": "TABLE_ROW", "md_parent_section": "§EG.3 [Example 3]", "md_verbatim": "| 3 | STUDY01 | EG | 2324-P0001 | 3 | ... | QRSAG | QRS Duration, Aggregate | INTERVAL | SUPINE | 97 | msec | 97 | 97 | msec | 12 LEAD STANDARD | LEAD II | | 2 | VISIT 2 | 2014-03-22T10:00:21 | 1 HR | ... | 1 |", "score": 0.4392, "match_basis": "verbatim_token+domain_route:EG"}, {"md_atom_id": "md_dmEG_ex_a046", "md_file": "knowledge_base/domains/EG/examples.md", "md_atom_type": "TABLE_ROW", "md_parent_section": "§EG.3 [Example 3]", "md_verbatim": "| 7 | STUDY01 | EG | 2324-P0001 | 7 | ... | QRSAG | QRS Duration, Aggregate | INTERVAL | SUPINE | 95 | msec | 95 | 95 | msec | 12 LEAD STANDARD | LEAD II | | 2 | VISIT 2 | 2014-03-22T10:01:35 | 1 HR | ... | 2 |", "score": 0.4392, "match_basis": "verbatim_token+domain_route:EG"}, {"md_atom_id": "md_dmEG_ex_a050", "md_file": "knowledge_base/domains/EG/examples.md", "md_atom_type": "TABLE_ROW", "md_parent_section": "§EG.3 [Example 3]", "md_verbatim": "| 11 | STUDY01 | EG | 2324-P0001 | 11 | ... | QRSAG | QRS Duration, Aggregate | INTERVAL | SUPINE | 90 | msec | 90 | 90 | msec | 12 LEAD STANDARD | LEAD II | | 2 | VISIT 2 | 2014-03-22T10:02:14 | 1 HR | ... | 3 |", "score": 0.4392, "match_basis": "verbatim_token+domain_route:EG"}], "candidate_count": 5, "zero_candidate": false}
{"pdf_atom_id": "ig34_p0188_a003", "pdf_atom_type": "TABLE_ROW", "pdf_source": "SDTMIG_v3.4", "pdf_page": 188, "pdf_parent_section": "§6.3.3 ECG Test Results (EG)", "pdf_verbatim": "| EGTPTREF | Time Point Reference | Char | | Timing | Name of the fixed reference point referred to by EGELTM, EGTPTNUM, and EGTPT. Examples: \"PREVIOUS DOSE\", \"PREVIOUS MEAL\". | Perm |", "figure_ref": null, "candidates": [{"md_atom_id": "md_dmEG_ex_a074", "md_file": "knowledge_base/domains/EG/examples.md", "md_atom_type": "TABLE_ROW", "md_parent_section": "§EG.4 [Example 4]", "md_verbatim": "| 4 | STUDY01 | EG | 2324-P0001 | 4 | 2 | RRSM | RR Interval, Single Measurement | INTERVAL | SUPINE | 679 | msec | 679 | 679 | msec | 12 LEAD STANDARD | LEAD II | | 1 | SCREENING | -7 | 2014-02-11T14:32:13.3 |", "score": 0.4218, "match_basis": "verbatim_token+domain_route:EG"}, {"md_atom_id": "md_dmEG_ex_a077", "md_file": "knowledge_base/domains/EG/examples.md", "md_atom_type": "TABLE_ROW", "md_parent_section": "§EG.4 [Example 4]", "md_verbatim": "| 7 | STUDY01 | EG | 2324-P0001 | 7 | 3 | RRSM | RR Interval, Single Measurement | INTERVAL | SUPINE | 661 | msec | 661 | 661 | msec | 12 LEAD STANDARD | LEAD II | | 1 | SCREENING | -7 | 2014-02-11T15:32:14.2 |", "score": 0.4218, "match_basis": "verbatim_token+domain_route:EG"}, {"md_atom_id": "md_dmEG_ex_a024", "md_file": "knowledge_base/domains/EG/examples.md", "md_atom_type": "TABLE_ROW", "md_parent_section": "§EG.1 [Example 1]", "md_verbatim": "| 12 | XYZ | EG | XYZ-US-701-002 | 12 | 334PT89 | INTP | Interpretation | | SUPINE | ABNORMAL | | ABNORMAL | | | | | | | 1 | Screening | 15T11:58 | -36 |", "score": 0.4189, "match_basis": "verbatim_token+domain_route:EG"}, {"md_atom_id": "md_dmEG_ex_a071", "md_file": "knowledge_base/domains/EG/examples.md", "md_atom_type": "TABLE_ROW", "md_parent_section": "§EG.4 [Example 4]", "md_verbatim": "| 1 | STUDY01 | EG | 2324-P0001 | 1 | 1 | PRSB | PR Interval, Single Beat | INTERVAL | SUPINE | 176 | msec | 176 | 176 | msec | 12 LEAD STANDARD | LEAD II | | 1 | SCREENING | -7 | 2014-02-11T14:32:12.3 |", "score": 0.4173, "match_basis": "verbatim_token+domain_route:EG"}, {"md_atom_id": "md_dmEG_ex_a073", "md_file": "knowledge_base/domains/EG/examples.md", "md_atom_type": "TABLE_ROW", "md_parent_section": "§EG.4 [Example 4]", "md_verbatim": "| 3 | STUDY01 | EG | 2324-P0001 | 3 | 2 | PRSB | PR Interval, Single Beat | INTERVAL | SUPINE | 176 | msec | 176 | 176 | msec | 12 LEAD STANDARD | LEAD II | | 1 | SCREENING | -7 | 2014-02-11T14:32:12.3 |", "score": 0.4173, "match_basis": "verbatim_token+domain_route:EG"}], "candidate_count": 5, "zero_candidate": false}
{"pdf_atom_id": "ig34_p0188_a004", "pdf_atom_type": "TABLE_ROW", "pdf_source": "SDTMIG_v3.4", "pdf_page": 188, "pdf_parent_section": "§6.3.3 ECG Test Results (EG)", "pdf_verbatim": "| EGRFTDTC | Date/Time of Reference Time Point | Char | ISO 8601 datetime or interval | Timing | Date/time for a fixed reference time point defined by EGTPTREF. | Perm |", "figure_ref": null, "candidates": [{"md_atom_id": "md_dmEG_ex_a014", "md_file": "knowledge_base/domains/EG/examples.md", "md_atom_type": "TABLE_ROW", "md_parent_section": "§EG.1 [Example 1]", "md_verbatim": "| 2 | XYZ | EG | XYZ-US-701-002 | 2 | 334PT89 | PRAG | PR Interval, Aggregate | INTERVAL | SUPINE | 0.15 | sec | 150 | 150 | msec | PQW43787B-07.xml | Test | Y | | 1 | Screening | 2003-04-36 | -36 |", "score": 0.4593, "match_basis": "verbatim_token+domain_route:EG"}, {"md_atom_id": "md_dmEG_ex_a016", "md_file": "knowledge_base/domains/EG/examples.md", "md_atom_type": "TABLE_ROW", "md_parent_section": "§EG.1 [Example 1]", "md_verbatim": "| 4 | XYZ | EG | XYZ-US-701-002 | 4 | 334PT89 | QTAG | QT Interval, Aggregate | INTERVAL | SUPINE | 0.406 | sec | 406 | 406 | msec | PQW43787B-07.xml | Test | | | 1 | Screening | 2003-04-36 | -36 |", "score": 0.4593, "match_basis": "verbatim_token+domain_route:EG"}, {"md_atom_id": "md_dmEG_ex_a017", "md_file": "knowledge_base/domains/EG/examples.md", "md_atom_type": "TABLE_ROW", "md_parent_section": "§EG.1 [Example 1]", "md_verbatim": "| 5 | XYZ | EG | XYZ-US-701-002 | 5 | 334PT89 | QTCBAG | QTcB Interval, Aggregate | INTERVAL | SUPINE | | | 469 | 469 | msec | PQW43787B-07.xml | Test | Y | | 1 | Screening | 2003-04-36 | -36 |", "score": 0.4581, "match_basis": "verbatim_token+domain_route:EG"}, {"md_atom_id": "md_dmEG_ex_a018", "md_file": "knowledge_base/domains/EG/examples.md", "md_atom_type": "TABLE_ROW", "md_parent_section": "§EG.1 [Example 1]", "md_verbatim": "| 6 | XYZ | EG | XYZ-US-701-002 | 6 | 334PT89 | QTCFAG | QTcF Interval, Aggregate | INTERVAL | SUPINE | | | 448 | 448 | msec | PQW43787B-07.xml | Test | Y | | 1 | Screening | 2003-04-36 | -36 |", "score": 0.4581, "match_basis": "verbatim_token+domain_route:EG"}, {"md_atom_id": "md_dmEG_ex_a015", "md_file": "knowledge_base/domains/EG/examples.md", "md_atom_type": "TABLE_ROW", "md_parent_section": "§EG.1 [Example 1]", "md_verbatim": "| 3 | XYZ | EG | XYZ-US-701-002 | 3 | 334PT89 | QRSAG | QRS Duration, Aggregate | INTERVAL | SUPINE | 0.103 | sec | 103 | 103 | msec | PQW43787B-07.xml | Test | | | 1 | Screening | 2003-04-36 | -36 |", "score": 0.4551, "match_basis": "verbatim_token+domain_route:EG"}], "candidate_count": 5, "zero_candidate": false}
{"pdf_atom_id": "ig34_p0188_a005", "pdf_atom_type": "NOTE", "pdf_source": "SDTMIG_v3.4", "pdf_page": 188, "pdf_parent_section": "§6.3.3 ECG Test Results (EG)", "pdf_verbatim": "1In this column, an asterisk (*) indicates that the variable may be subject to controlled terminology. CDISC/NCI codelist values are enclosed in parentheses.", "figure_ref": null, "candidates": [{"md_atom_id": "md_dmEG_ex_a007", "md_file": "knowledge_base/domains/EG/examples.md", "md_atom_type": "SENTENCE", "md_parent_section": "§EG.1 [Example 1]", "md_verbatim": "**Rows 5-6:** Show \"QTcB Interval, Aggregate\" and \"QTcF Interval, Aggregate\". These results were derived by the sponsor, as indicated by the \"Y\" in the EGDRVFL column. Note that EGORRES is null for these derived records.", "score": 0.3912, "match_basis": "verbatim_token+domain_route:EG"}, {"md_atom_id": "md_dmEG_assn_a004", "md_file": "knowledge_base/domains/EG/assumptions.md", "md_atom_type": "LIST_ITEM", "md_parent_section": "§EG [EG — Assumptions]", "md_verbatim": "   a. Associations between some ECG abnormality tests and response codelists are described in the ECG codetable (available at https://www.cdisc.org/standards/terminology/controlled-terminology).", "score": 0.3829, "match_basis": "verbatim_token+domain_route:EG"}, {"md_atom_id": "md_dmEG_ex_a037", "md_file": "knowledge_base/domains/EG/examples.md", "md_atom_type": "SENTENCE", "md_parent_section": "§EG.3 [Example 3]", "md_verbatim": "This example shows 10-second ECG replicates extracted from a continuous recording. The example shows one subject's extracted 10-second ECG replicate results. Three replicates were extracted for planned time points \"1 HR\" and \"2 HR\"; EGREPNUM is used to identify the replicates. Summary mean measurements are reported for the 10 seconds of extracted data for each replicate. EGDTC is the date/time of the first individual beat in the extracted 10-second ECG. In order to save space, some permissible variables (EGREFID, VISITDY, EGTPTNUM, EGTPTREF, EGRFTDTC) have been omitted, as marked by ellipses.", "score": 0.3809, "match_basis": "verbatim_token+domain_route:EG"}, {"md_atom_id": "md_dmEG_ex_a003", "md_file": "knowledge_base/domains/EG/examples.md", "md_atom_type": "SENTENCE", "md_parent_section": "§EG.1 [Example 1]", "md_verbatim": "This example shows ECG measurements and other findings from one ECG for one subject. EGCAT has been used to group tests.", "score": 0.3806, "match_basis": "verbatim_token+domain_route:EG"}, {"md_atom_id": "md_dmEG_ex_a006", "md_file": "knowledge_base/domains/EG/examples.md", "md_atom_type": "SENTENCE", "md_parent_section": "§EG.1 [Example 1]", "md_verbatim": "**Rows 2-4:** These interval measurements were collected in seconds. However, in this submission, the standard unit for these tests was milliseconds, so the results have been converted in EGSTRESC and EGSTRESN.", "score": 0.374, "match_basis": "verbatim_token+domain_route:EG"}], "candidate_count": 5, "zero_candidate": false}
{"pdf_atom_id": "ig34_p0188_a006", "pdf_atom_type": "HEADING", "pdf_source": "SDTMIG_v3.4", "pdf_page": 188, "pdf_parent_section": "§6.3.3 ECG Test Results (EG)", "pdf_verbatim": "EG – Assumptions", "figure_ref": null, "candidates": [{"md_atom_id": "md_dmEG_assn_a001", "md_file": "knowledge_base/domains/EG/assumptions.md", "md_atom_type": "HEADING", "md_parent_section": "§EG [EG — Assumptions]", "md_verbatim": "# EG — Assumptions", "score": 1.0, "match_basis": "verbatim_token+domain_route:EG"}, {"md_atom_id": "md_dmEG_ex_a001", "md_file": "knowledge_base/domains/EG/examples.md", "md_atom_type": "HEADING", "md_parent_section": "§EG [EG — Examples]", "md_verbatim": "# EG — Examples", "score": 0.4, "match_basis": "verbatim_token+domain_route:EG"}, {"md_atom_id": "md_dmEG_ex_a002", "md_file": "knowledge_base/domains/EG/examples.md", "md_atom_type": "HEADING", "md_parent_section": "§EG [EG — Examples]", "md_verbatim": "## Example 1", "score": 0.4, "match_basis": "verbatim_token+domain_route:EG"}, {"md_atom_id": "md_dmEG_ex_a025", "md_file": "knowledge_base/domains/EG/examples.md", "md_atom_type": "HEADING", "md_parent_section": "§EG [EG — Examples]", "md_verbatim": "## Example 2", "score": 0.4, "match_basis": "verbatim_token+domain_route:EG"}, {"md_atom_id": "md_dmEG_ex_a036", "md_file": "knowledge_base/domains/EG/examples.md", "md_atom_type": "HEADING", "md_parent_section": "§EG [EG — Examples]", "md_verbatim": "## Example 3", "score": 0.4, "match_basis": "verbatim_token+domain_route:EG"}], "candidate_count": 5, "zero_candidate": false}
{"pdf_atom_id": "ig34_p0188_a007", "pdf_atom_type": "LIST_ITEM", "pdf_source": "SDTMIG_v3.4", "pdf_page": 188, "pdf_parent_section": "§6.3.3 ECG Test Results (EG)", "pdf_verbatim": "1. EGREFID is intended to store an identifier (e.g., UUID) for the associated ECG tracing. EGXFN is intended to store the name of and path to the electrocardiogram (ECG) waveform file when it is submitted.", "figure_ref": null, "candidates": [{"md_atom_id": "md_dmEG_assn_a002", "md_file": "knowledge_base/domains/EG/assumptions.md", "md_atom_type": "LIST_ITEM", "md_parent_section": "§EG [EG — Assumptions]", "md_verbatim": "1. EGREFID is intended to store an identifier (e.g., UUID) for the associated ECG tracing. EGXFN is intended to store the name of and path to the electrocardiogram (ECG) waveform file when it is submitted.", "score": 1.0, "match_basis": "verbatim_token+domain_route:EG"}, {"md_atom_id": "md_dmEG_assn_a006", "md_file": "knowledge_base/domains/EG/assumptions.md", "md_atom_type": "LIST_ITEM", "md_parent_section": "§EG [EG — Assumptions]", "md_verbatim": "4. For individual-beat parameter results, waveform data will not be stored in the warehouse, so there will be no associated identifier for these beats.", "score": 0.5448, "match_basis": "verbatim_token+domain_route:EG"}, {"md_atom_id": "md_dmEG_assn_a005", "md_file": "knowledge_base/domains/EG/assumptions.md", "md_atom_type": "LIST_ITEM", "md_parent_section": "§EG [EG — Assumptions]", "md_verbatim": "3. For non-individual ECG beat data and for aggregate ECG parameter results (e.g., \"QT interval\", \"RR\", \"PR\", \"QRS\"), EGREFID is populated for all unique ECGs, so that submitted SDTM data can be matched to the actual ECGs stored in the ECG warehouse. Therefore, this variable is expected for these types of records.", "score": 0.494, "match_basis": "verbatim_token+domain_route:EG"}, {"md_atom_id": "md_dmEG_assn_a007", "md_file": "knowledge_base/domains/EG/assumptions.md", "md_atom_type": "LIST_ITEM", "md_parent_section": "§EG [EG — Assumptions]", "md_verbatim": "5. The method for QT interval correction is specified in the test name by controlled terminology: EGTESTCD = \"QTCFAG\" and EGTEST = \"QTcF Interval, Aggregate\" is used for Fridericia's formula; EGTESTCD = \"QTCBAG\" and EGTEST = \"QTcB Interval, Aggregate\", is used for Bazett's formula.", "score": 0.4658, "match_basis": "verbatim_token+domain_route:EG"}, {"md_atom_id": "md_dmEG_assn_a011", "md_file": "knowledge_base/domains/EG/assumptions.md", "md_atom_type": "LIST_ITEM", "md_parent_section": "§EG [EG — Assumptions]", "md_verbatim": "9. When \"QTcF Interval, Aggregate\" or \"QTcB Interval, Aggregate\" is derived by the sponsor, the derived flag (EGDRVFL) is set to \"Y\". However, when the \"QTcF Interval, Aggregate\" or \"QTcB Interval, Aggregate\" is received from a central provider or vendor, the value would go into EGORRES and EGDRVFL would be null (see Section 4.1.8.1, Origin Metadata for Variables).", "score": 0.4512, "match_basis": "verbatim_token+domain_route:EG"}], "candidate_count": 5, "zero_candidate": false}
{"pdf_atom_id": "ig34_p0188_a008", "pdf_atom_type": "LIST_ITEM", "pdf_source": "SDTMIG_v3.4", "pdf_page": 188, "pdf_parent_section": "§6.3.3 ECG Test Results (EG)", "pdf_verbatim": "2. There are separate codelists for tests and results based on regular 10-second ECGs and for tests and results based on Holter monitoring.", "figure_ref": null, "candidates": [{"md_atom_id": "md_dmEG_assn_a003", "md_file": "knowledge_base/domains/EG/assumptions.md", "md_atom_type": "LIST_ITEM", "md_parent_section": "§EG [EG — Assumptions]", "md_verbatim": "2. There are separate codelists for tests and results based on regular 10-second ECGs and for tests and results based on Holter monitoring.", "score": 1.0, "match_basis": "verbatim_token+domain_route:EG"}, {"md_atom_id": "md_dmEG_assn_a006", "md_file": "knowledge_base/domains/EG/assumptions.md", "md_atom_type": "LIST_ITEM", "md_parent_section": "§EG [EG — Assumptions]", "md_verbatim": "4. For individual-beat parameter results, waveform data will not be stored in the warehouse, so there will be no associated identifier for these beats.", "score": 0.4874, "match_basis": "verbatim_token+domain_route:EG"}, {"md_atom_id": "md_dmEG_assn_a005", "md_file": "knowledge_base/domains/EG/assumptions.md", "md_atom_type": "LIST_ITEM", "md_parent_section": "§EG [EG — Assumptions]", "md_verbatim": "3. For non-individual ECG beat data and for aggregate ECG parameter results (e.g., \"QT interval\", \"RR\", \"PR\", \"QRS\"), EGREFID is populated for all unique ECGs, so that submitted SDTM data can be matched to the actual ECGs stored in the ECG warehouse. Therefore, this variable is expected for these types of records.", "score": 0.4869, "match_basis": "verbatim_token+domain_route:EG"}, {"md_atom_id": "md_dmEG_assn_a004", "md_file": "knowledge_base/domains/EG/assumptions.md", "md_atom_type": "LIST_ITEM", "md_parent_section": "§EG [EG — Assumptions]", "md_verbatim": "   a. Associations between some ECG abnormality tests and response codelists are described in the ECG codetable (available at https://www.cdisc.org/standards/terminology/controlled-terminology).", "score": 0.475, "match_basis": "verbatim_token+domain_route:EG"}, {"md_atom_id": "md_dmEG_assn_a014", "md_file": "knowledge_base/domains/EG/assumptions.md", "md_atom_type": "LIST_ITEM", "md_parent_section": "§EG [EG — Assumptions]", "md_verbatim": "    b. The sponsor should assign values for EGTESTCD/EGTEST appropriately with clear documentation on what each test code represents. For example, if the protocol calls for computing the top two best fit models, the sponsor could choose to name the top best fit model QTCIAG1 and the second best fit model QTCIAG2, in rank order.", "score": 0.4592, "match_basis": "verbatim_token+domain_route:EG"}], "candidate_count": 5, "zero_candidate": false}
{"pdf_atom_id": "ig34_p0188_a009", "pdf_atom_type": "LIST_ITEM", "pdf_source": "SDTMIG_v3.4", "pdf_page": 188, "pdf_parent_section": "§6.3.3 ECG Test Results (EG)", "pdf_verbatim": "a. Associations between some ECG abnormality tests and response codelists are described in the ECG codetable (available at https://www.cdisc.org/standards/terminology/controlled-terminology).", "figure_ref": null, "candidates": [{"md_atom_id": "md_dmEG_assn_a004", "md_file": "knowledge_base/domains/EG/assumptions.md", "md_atom_type": "LIST_ITEM", "md_parent_section": "§EG [EG — Assumptions]", "md_verbatim": "   a. Associations between some ECG abnormality tests and response codelists are described in the ECG codetable (available at https://www.cdisc.org/standards/terminology/controlled-terminology).", "score": 1.0, "match_basis": "verbatim_token+domain_route:EG"}, {"md_atom_id": "md_dmEG_assn_a007", "md_file": "knowledge_base/domains/EG/assumptions.md", "md_atom_type": "LIST_ITEM", "md_parent_section": "§EG [EG — Assumptions]", "md_verbatim": "5. The method for QT interval correction is specified in the test name by controlled terminology: EGTESTCD = \"QTCFAG\" and EGTEST = \"QTcF Interval, Aggregate\" is used for Fridericia's formula; EGTESTCD = \"QTCBAG\" and EGTEST = \"QTcB Interval, Aggregate\", is used for Bazett's formula.", "score": 0.4993, "match_basis": "verbatim_token+domain_route:EG"}, {"md_atom_id": "md_dmEG_assn_a003", "md_file": "knowledge_base/domains/EG/assumptions.md", "md_atom_type": "LIST_ITEM", "md_parent_section": "§EG [EG — Assumptions]", "md_verbatim": "2. There are separate codelists for tests and results based on regular 10-second ECGs and for tests and results based on Holter monitoring.", "score": 0.475, "match_basis": "verbatim_token+domain_route:EG"}, {"md_atom_id": "md_dmEG_assn_a014", "md_file": "knowledge_base/domains/EG/assumptions.md", "md_atom_type": "LIST_ITEM", "md_parent_section": "§EG [EG — Assumptions]", "md_verbatim": "    b. The sponsor should assign values for EGTESTCD/EGTEST appropriately with clear documentation on what each test code represents. For example, if the protocol calls for computing the top two best fit models, the sponsor could choose to name the top best fit model QTCIAG1 and the second best fit model QTCIAG2, in rank order.", "score": 0.4571, "match_basis": "verbatim_token+domain_route:EG"}, {"md_atom_id": "md_dmEG_assn_a009", "md_file": "knowledge_base/domains/EG/assumptions.md", "md_atom_type": "LIST_ITEM", "md_parent_section": "§EG [EG — Assumptions]", "md_verbatim": "7. EGREPNUM is used to differentiate between multiple repetitions of a test within a given time frame.", "score": 0.4496, "match_basis": "verbatim_token+domain_route:EG"}], "candidate_count": 5, "zero_candidate": false}
{"pdf_atom_id": "ig34_p0188_a010", "pdf_atom_type": "LIST_ITEM", "pdf_source": "SDTMIG_v3.4", "pdf_page": 188, "pdf_parent_section": "§6.3.3 ECG Test Results (EG)", "pdf_verbatim": "3. For non-individual ECG beat data and for aggregate ECG parameter results (e.g., \"QT interval\", \"RR\", \"PR\", \"QRS\"), EGREFID is populated for all unique ECGs, so that submitted SDTM data can be matched to the actual ECGs stored in the ECG warehouse. Therefore, this variable is expected for these types of records.", "figure_ref": null, "candidates": [{"md_atom_id": "md_dmEG_assn_a005", "md_file": "knowledge_base/domains/EG/assumptions.md", "md_atom_type": "LIST_ITEM", "md_parent_section": "§EG [EG — Assumptions]", "md_verbatim": "3. For non-individual ECG beat data and for aggregate ECG parameter results (e.g., \"QT interval\", \"RR\", \"PR\", \"QRS\"), EGREFID is populated for all unique ECGs, so that submitted SDTM data can be matched to the actual ECGs stored in the ECG warehouse. Therefore, this variable is expected for these types of records.", "score": 1.0, "match_basis": "verbatim_token+domain_route:EG"}, {"md_atom_id": "md_dmEG_assn_a006", "md_file": "knowledge_base/domains/EG/assumptions.md", "md_atom_type": "LIST_ITEM", "md_parent_section": "§EG [EG — Assumptions]", "md_verbatim": "4. For individual-beat parameter results, waveform data will not be stored in the warehouse, so there will be no associated identifier for these beats.", "score": 0.5941, "match_basis": "verbatim_token+domain_route:EG"}, {"md_atom_id": "md_dmEG_assn_a011", "md_file": "knowledge_base/domains/EG/assumptions.md", "md_atom_type": "LIST_ITEM", "md_parent_section": "§EG [EG — Assumptions]", "md_verbatim": "9. When \"QTcF Interval, Aggregate\" or \"QTcB Interval, Aggregate\" is derived by the sponsor, the derived flag (EGDRVFL) is set to \"Y\". However, when the \"QTcF Interval, Aggregate\" or \"QTcB Interval, Aggregate\" is received from a central provider or vendor, the value would go into EGORRES and EGDRVFL would be null (see Section 4.1.8.1, Origin Metadata for Variables).", "score": 0.4941, "match_basis": "verbatim_token+domain_route:EG"}, {"md_atom_id": "md_dmEG_assn_a002", "md_file": "knowledge_base/domains/EG/assumptions.md", "md_atom_type": "LIST_ITEM", "md_parent_section": "§EG [EG — Assumptions]", "md_verbatim": "1. EGREFID is intended to store an identifier (e.g., UUID) for the associated ECG tracing. EGXFN is intended to store the name of and path to the electrocardiogram (ECG) waveform file when it is submitted.", "score": 0.494, "match_basis": "verbatim_token+domain_route:EG"}, {"md_atom_id": "md_dmEG_assn_a003", "md_file": "knowledge_base/domains/EG/assumptions.md", "md_atom_type": "LIST_ITEM", "md_parent_section": "§EG [EG — Assumptions]", "md_verbatim": "2. There are separate codelists for tests and results based on regular 10-second ECGs and for tests and results based on Holter monitoring.", "score": 0.4869, "match_basis": "verbatim_token+domain_route:EG"}], "candidate_count": 5, "zero_candidate": false}
{"pdf_atom_id": "ig34_p0188_a011", "pdf_atom_type": "LIST_ITEM", "pdf_source": "SDTMIG_v3.4", "pdf_page": 188, "pdf_parent_section": "§6.3.3 ECG Test Results (EG)", "pdf_verbatim": "4. For individual-beat parameter results, waveform data will not be stored in the warehouse, so there will be no associated identifier for these beats.", "figure_ref": null, "candidates": [{"md_atom_id": "md_dmEG_assn_a006", "md_file": "knowledge_base/domains/EG/assumptions.md", "md_atom_type": "LIST_ITEM", "md_parent_section": "§EG [EG — Assumptions]", "md_verbatim": "4. For individual-beat parameter results, waveform data will not be stored in the warehouse, so there will be no associated identifier for these beats.", "score": 1.0, "match_basis": "verbatim_token+domain_route:EG"}, {"md_atom_id": "md_dmEG_assn_a005", "md_file": "knowledge_base/domains/EG/assumptions.md", "md_atom_type": "LIST_ITEM", "md_parent_section": "§EG [EG — Assumptions]", "md_verbatim": "3. For non-individual ECG beat data and for aggregate ECG parameter results (e.g., \"QT interval\", \"RR\", \"PR\", \"QRS\"), EGREFID is populated for all unique ECGs, so that submitted SDTM data can be matched to the actual ECGs stored in the ECG warehouse. Therefore, this variable is expected for these types of records.", "score": 0.5941, "match_basis": "verbatim_token+domain_route:EG"}, {"md_atom_id": "md_dmEG_assn_a002", "md_file": "knowledge_base/domains/EG/assumptions.md", "md_atom_type": "LIST_ITEM", "md_parent_section": "§EG [EG — Assumptions]", "md_verbatim": "1. EGREFID is intended to store an identifier (e.g., UUID) for the associated ECG tracing. EGXFN is intended to store the name of and path to the electrocardiogram (ECG) waveform file when it is submitted.", "score": 0.5448, "match_basis": "verbatim_token+domain_route:EG"}, {"md_atom_id": "md_dmEG_assn_a003", "md_file": "knowledge_base/domains/EG/assumptions.md", "md_atom_type": "LIST_ITEM", "md_parent_section": "§EG [EG — Assumptions]", "md_verbatim": "2. There are separate codelists for tests and results based on regular 10-second ECGs and for tests and results based on Holter monitoring.", "score": 0.4874, "match_basis": "verbatim_token+domain_route:EG"}, {"md_atom_id": "md_dmEG_assn_a008", "md_file": "knowledge_base/domains/EG/assumptions.md", "md_atom_type": "LIST_ITEM", "md_parent_section": "§EG [EG — Assumptions]", "md_verbatim": "6. EGBEATNO is used to differentiate between beats in beat-to-beat records.", "score": 0.4621, "match_basis": "verbatim_token+domain_route:EG"}], "candidate_count": 5, "zero_candidate": false}
{"pdf_atom_id": "ig34_p0188_a012", "pdf_atom_type": "LIST_ITEM", "pdf_source": "SDTMIG_v3.4", "pdf_page": 188, "pdf_parent_section": "§6.3.3 ECG Test Results (EG)", "pdf_verbatim": "5. The method for QT interval correction is specified in the test name by controlled terminology: EGTESTCD = \"QTCFAG\" and EGTEST = \"QTcF Interval, Aggregate\" is used for Fridericia's formula; EGTESTCD = \"QTCBAG\" and EGTEST = \"QTcB Interval, Aggregate\", is used for Bazett's formula.", "figure_ref": null, "candidates": [{"md_atom_id": "md_dmEG_assn_a007", "md_file": "knowledge_base/domains/EG/assumptions.md", "md_atom_type": "LIST_ITEM", "md_parent_section": "§EG [EG — Assumptions]", "md_verbatim": "5. The method for QT interval correction is specified in the test name by controlled terminology: EGTESTCD = \"QTCFAG\" and EGTEST = \"QTcF Interval, Aggregate\" is used for Fridericia's formula; EGTESTCD = \"QTCBAG\" and EGTEST = \"QTcB Interval, Aggregate\", is used for Bazett's formula.", "score": 1.0, "match_basis": "verbatim_token+domain_route:EG"}, {"md_atom_id": "md_dmEG_assn_a013", "md_file": "knowledge_base/domains/EG/assumptions.md", "md_atom_type": "LIST_ITEM", "md_parent_section": "§EG [EG — Assumptions]", "md_verbatim": "    a. For each QT correction method used in the study, values of EGTESTCD and EGTEST are assigned at the study level.", "score": 0.5412, "match_basis": "verbatim_token+domain_route:EG"}, {"md_atom_id": "md_dmEG_assn_a011", "md_file": "knowledge_base/domains/EG/assumptions.md", "md_atom_type": "LIST_ITEM", "md_parent_section": "§EG [EG — Assumptions]", "md_verbatim": "9. When \"QTcF Interval, Aggregate\" or \"QTcB Interval, Aggregate\" is derived by the sponsor, the derived flag (EGDRVFL) is set to \"Y\". However, when the \"QTcF Interval, Aggregate\" or \"QTcB Interval, Aggregate\" is received from a central provider or vendor, the value would go into EGORRES and EGDRVFL would be null (see Section 4.1.8.1, Origin Metadata for Variables).", "score": 0.5216, "match_basis": "verbatim_token+domain_route:EG"}, {"md_atom_id": "md_dmEG_assn_a004", "md_file": "knowledge_base/domains/EG/assumptions.md", "md_atom_type": "LIST_ITEM", "md_parent_section": "§EG [EG — Assumptions]", "md_verbatim": "   a. Associations between some ECG abnormality tests and response codelists are described in the ECG codetable (available at https://www.cdisc.org/standards/terminology/controlled-terminology).", "score": 0.4993, "match_basis": "verbatim_token+domain_route:EG"}, {"md_atom_id": "md_dmEG_assn_a005", "md_file": "knowledge_base/domains/EG/assumptions.md", "md_atom_type": "LIST_ITEM", "md_parent_section": "§EG [EG — Assumptions]", "md_verbatim": "3. For non-individual ECG beat data and for aggregate ECG parameter results (e.g., \"QT interval\", \"RR\", \"PR\", \"QRS\"), EGREFID is populated for all unique ECGs, so that submitted SDTM data can be matched to the actual ECGs stored in the ECG warehouse. Therefore, this variable is expected for these types of records.", "score": 0.4828, "match_basis": "verbatim_token+domain_route:EG"}], "candidate_count": 5, "zero_candidate": false}
{"pdf_atom_id": "ig34_p0188_a013", "pdf_atom_type": "LIST_ITEM", "pdf_source": "SDTMIG_v3.4", "pdf_page": 188, "pdf_parent_section": "§6.3.3 ECG Test Results (EG)", "pdf_verbatim": "6. EGBEATNO is used to differentiate between beats in beat-to-beat records.", "figure_ref": null, "candidates": [{"md_atom_id": "md_dmEG_assn_a008", "md_file": "knowledge_base/domains/EG/assumptions.md", "md_atom_type": "LIST_ITEM", "md_parent_section": "§EG [EG — Assumptions]", "md_verbatim": "6. EGBEATNO is used to differentiate between beats in beat-to-beat records.", "score": 1.0, "match_basis": "verbatim_token+domain_route:EG"}, {"md_atom_id": "md_dmEG_assn_a009", "md_file": "knowledge_base/domains/EG/assumptions.md", "md_atom_type": "LIST_ITEM", "md_parent_section": "§EG [EG — Assumptions]", "md_verbatim": "7. EGREPNUM is used to differentiate between multiple repetitions of a test within a given time frame.", "score": 0.5687, "match_basis": "verbatim_token+domain_route:EG"}, {"md_atom_id": "md_dmEG_assn_a006", "md_file": "knowledge_base/domains/EG/assumptions.md", "md_atom_type": "LIST_ITEM", "md_parent_section": "§EG [EG — Assumptions]", "md_verbatim": "4. For individual-beat parameter results, waveform data will not be stored in the warehouse, so there will be no associated identifier for these beats.", "score": 0.4621, "match_basis": "verbatim_token+domain_route:EG"}, {"md_atom_id": "md_dmEG_assn_a005", "md_file": "knowledge_base/domains/EG/assumptions.md", "md_atom_type": "LIST_ITEM", "md_parent_section": "§EG [EG — Assumptions]", "md_verbatim": "3. For non-individual ECG beat data and for aggregate ECG parameter results (e.g., \"QT interval\", \"RR\", \"PR\", \"QRS\"), EGREFID is populated for all unique ECGs, so that submitted SDTM data can be matched to the actual ECGs stored in the ECG warehouse. Therefore, this variable is expected for these types of records.", "score": 0.4448, "match_basis": "verbatim_token+domain_route:EG"}, {"md_atom_id": "md_dmEG_assn_a012", "md_file": "knowledge_base/domains/EG/assumptions.md", "md_atom_type": "LIST_ITEM", "md_parent_section": "§EG [EG — Assumptions]", "md_verbatim": "10. If this domain is used in conjunction with the ECG QT Correction Model Data (QT) domain:", "score": 0.4421, "match_basis": "verbatim_token+domain_route:EG"}], "candidate_count": 5, "zero_candidate": false}
{"pdf_atom_id": "ig34_p0188_a014", "pdf_atom_type": "LIST_ITEM", "pdf_source": "SDTMIG_v3.4", "pdf_page": 188, "pdf_parent_section": "§6.3.3 ECG Test Results (EG)", "pdf_verbatim": "7. EGREPNUM is used to differentiate between multiple repetitions of a test within a given time frame.", "figure_ref": null, "candidates": [{"md_atom_id": "md_dmEG_assn_a009", "md_file": "knowledge_base/domains/EG/assumptions.md", "md_atom_type": "LIST_ITEM", "md_parent_section": "§EG [EG — Assumptions]", "md_verbatim": "7. EGREPNUM is used to differentiate between multiple repetitions of a test within a given time frame.", "score": 1.0, "match_basis": "verbatim_token+domain_route:EG"}, {"md_atom_id": "md_dmEG_assn_a008", "md_file": "knowledge_base/domains/EG/assumptions.md", "md_atom_type": "LIST_ITEM", "md_parent_section": "§EG [EG — Assumptions]", "md_verbatim": "6. EGBEATNO is used to differentiate between beats in beat-to-beat records.", "score": 0.5687, "match_basis": "verbatim_token+domain_route:EG"}, {"md_atom_id": "md_dmEG_assn_a012", "md_file": "knowledge_base/domains/EG/assumptions.md", "md_atom_type": "LIST_ITEM", "md_parent_section": "§EG [EG — Assumptions]", "md_verbatim": "10. If this domain is used in conjunction with the ECG QT Correction Model Data (QT) domain:", "score": 0.4553, "match_basis": "verbatim_token+domain_route:EG"}, {"md_atom_id": "md_dmEG_assn_a014", "md_file": "knowledge_base/domains/EG/assumptions.md", "md_atom_type": "LIST_ITEM", "md_parent_section": "§EG [EG — Assumptions]", "md_verbatim": "    b. The sponsor should assign values for EGTESTCD/EGTEST appropriately with clear documentation on what each test code represents. For example, if the protocol calls for computing the top two best fit models, the sponsor could choose to name the top best fit model QTCIAG1 and the second best fit model QTCIAG2, in rank order.", "score": 0.4506, "match_basis": "verbatim_token+domain_route:EG"}, {"md_atom_id": "md_dmEG_assn_a004", "md_file": "knowledge_base/domains/EG/assumptions.md", "md_atom_type": "LIST_ITEM", "md_parent_section": "§EG [EG — Assumptions]", "md_verbatim": "   a. Associations between some ECG abnormality tests and response codelists are described in the ECG codetable (available at https://www.cdisc.org/standards/terminology/controlled-terminology).", "score": 0.4496, "match_basis": "verbatim_token+domain_route:EG"}], "candidate_count": 5, "zero_candidate": false}
{"pdf_atom_id": "ig34_p0188_a015", "pdf_atom_type": "LIST_ITEM", "pdf_source": "SDTMIG_v3.4", "pdf_page": 188, "pdf_parent_section": "§6.3.3 ECG Test Results (EG)", "pdf_verbatim": "8. EGNRIND can be added to indicate where a result falls with respect to reference range defined by EGORNRLO and EGORNRHI. Examples: \"HIGH\", \"LOW\". Clinical significance would be represented as described in Section 4.5.5, Clinical Significance for Findings Observation Class Data, in EGCLSIG (see also EG Example 1).", "figure_ref": null, "candidates": [{"md_atom_id": "md_dmEG_assn_a010", "md_file": "knowledge_base/domains/EG/assumptions.md", "md_atom_type": "LIST_ITEM", "md_parent_section": "§EG [EG — Assumptions]", "md_verbatim": "8. EGNRIND can be added to indicate where a result falls with respect to reference range defined by EGORNRLO and EGORNRHI. Examples: \"HIGH\", \"LOW\". Clinical significance would be represented as described in Section 4.5.5, Clinical Significance for Findings Observation Class Data, in EGCLSIG (see also EG Example 1).", "score": 1.0, "match_basis": "verbatim_token+domain_route:EG"}, {"md_atom_id": "md_dmEG_assn_a015", "md_file": "knowledge_base/domains/EG/assumptions.md", "md_atom_type": "LIST_ITEM", "md_parent_section": "§EG [EG — Assumptions]", "md_verbatim": "11. Any identifiers, timing variables, or findings general observation-class qualifiers may be added to the EG domain, but the following qualifiers would not generally be used: --MODIFY, --BODSYS, --SPEC, --SPCCND, --FAST, --SEV. It is recommended that --LOINC not be used.", "score": 0.4984, "match_basis": "verbatim_token+domain_route:EG"}, {"md_atom_id": "md_dmEG_assn_a014", "md_file": "knowledge_base/domains/EG/assumptions.md", "md_atom_type": "LIST_ITEM", "md_parent_section": "§EG [EG — Assumptions]", "md_verbatim": "    b. The sponsor should assign values for EGTESTCD/EGTEST appropriately with clear documentation on what each test code represents. For example, if the protocol calls for computing the top two best fit models, the sponsor could choose to name the top best fit model QTCIAG1 and the second best fit model QTCIAG2, in rank order.", "score": 0.4916, "match_basis": "verbatim_token+domain_route:EG"}, {"md_atom_id": "md_dmEG_assn_a011", "md_file": "knowledge_base/domains/EG/assumptions.md", "md_atom_type": "LIST_ITEM", "md_parent_section": "§EG [EG — Assumptions]", "md_verbatim": "9. When \"QTcF Interval, Aggregate\" or \"QTcB Interval, Aggregate\" is derived by the sponsor, the derived flag (EGDRVFL) is set to \"Y\". However, when the \"QTcF Interval, Aggregate\" or \"QTcB Interval, Aggregate\" is received from a central provider or vendor, the value would go into EGORRES and EGDRVFL would be null (see Section 4.1.8.1, Origin Metadata for Variables).", "score": 0.4704, "match_basis": "verbatim_token+domain_route:EG"}, {"md_atom_id": "md_dmEG_assn_a005", "md_file": "knowledge_base/domains/EG/assumptions.md", "md_atom_type": "LIST_ITEM", "md_parent_section": "§EG [EG — Assumptions]", "md_verbatim": "3. For non-individual ECG beat data and for aggregate ECG parameter results (e.g., \"QT interval\", \"RR\", \"PR\", \"QRS\"), EGREFID is populated for all unique ECGs, so that submitted SDTM data can be matched to the actual ECGs stored in the ECG warehouse. Therefore, this variable is expected for these types of records.", "score": 0.4689, "match_basis": "verbatim_token+domain_route:EG"}], "candidate_count": 5, "zero_candidate": false}
{"pdf_atom_id": "ig34_p0188_a016", "pdf_atom_type": "LIST_ITEM", "pdf_source": "SDTMIG_v3.4", "pdf_page": 188, "pdf_parent_section": "§6.3.3 ECG Test Results (EG)", "pdf_verbatim": "9. When \"QTcF Interval, Aggregate\" or \"QTcB Interval, Aggregate\" is derived by the sponsor, the derived flag (EGDRVFL) is set to \"Y\". However, when the \"QTcF Interval, Aggregate\" or \"QTcB Interval, Aggregate\" is received from a central provider or vendor, the value would go into EGORRES and EGDRVFL would be null (see Section 4.1.8.1, Origin Metadata for Variables).", "figure_ref": null, "candidates": [{"md_atom_id": "md_dmEG_assn_a011", "md_file": "knowledge_base/domains/EG/assumptions.md", "md_atom_type": "LIST_ITEM", "md_parent_section": "§EG [EG — Assumptions]", "md_verbatim": "9. When \"QTcF Interval, Aggregate\" or \"QTcB Interval, Aggregate\" is derived by the sponsor, the derived flag (EGDRVFL) is set to \"Y\". However, when the \"QTcF Interval, Aggregate\" or \"QTcB Interval, Aggregate\" is received from a central provider or vendor, the value would go into EGORRES and EGDRVFL would be null (see Section 4.1.8.1, Origin Metadata for Variables).", "score": 1.0, "match_basis": "verbatim_token+domain_route:EG"}, {"md_atom_id": "md_dmEG_assn_a007", "md_file": "knowledge_base/domains/EG/assumptions.md", "md_atom_type": "LIST_ITEM", "md_parent_section": "§EG [EG — Assumptions]", "md_verbatim": "5. The method for QT interval correction is specified in the test name by controlled terminology: EGTESTCD = \"QTCFAG\" and EGTEST = \"QTcF Interval, Aggregate\" is used for Fridericia's formula; EGTESTCD = \"QTCBAG\" and EGTEST = \"QTcB Interval, Aggregate\", is used for Bazett's formula.", "score": 0.5216, "match_basis": "verbatim_token+domain_route:EG"}, {"md_atom_id": "md_dmEG_ex_a007", "md_file": "knowledge_base/domains/EG/examples.md", "md_atom_type": "SENTENCE", "md_parent_section": "§EG.1 [Example 1]", "md_verbatim": "**Rows 5-6:** Show \"QTcB Interval, Aggregate\" and \"QTcF Interval, Aggregate\". These results were derived by the sponsor, as indicated by the \"Y\" in the EGDRVFL column. Note that EGORRES is null for these derived records.", "score": 0.51, "match_basis": "verbatim_token+domain_route:EG"}, {"md_atom_id": "md_dmEG_assn_a005", "md_file": "knowledge_base/domains/EG/assumptions.md", "md_atom_type": "LIST_ITEM", "md_parent_section": "§EG [EG — Assumptions]", "md_verbatim": "3. For non-individual ECG beat data and for aggregate ECG parameter results (e.g., \"QT interval\", \"RR\", \"PR\", \"QRS\"), EGREFID is populated for all unique ECGs, so that submitted SDTM data can be matched to the actual ECGs stored in the ECG warehouse. Therefore, this variable is expected for these types of records.", "score": 0.4941, "match_basis": "verbatim_token+domain_route:EG"}, {"md_atom_id": "md_dmEG_assn_a014", "md_file": "knowledge_base/domains/EG/assumptions.md", "md_atom_type": "LIST_ITEM", "md_parent_section": "§EG [EG — Assumptions]", "md_verbatim": "    b. The sponsor should assign values for EGTESTCD/EGTEST appropriately with clear documentation on what each test code represents. For example, if the protocol calls for computing the top two best fit models, the sponsor could choose to name the top best fit model QTCIAG1 and the second best fit model QTCIAG2, in rank order.", "score": 0.4719, "match_basis": "verbatim_token+domain_route:EG"}], "candidate_count": 5, "zero_candidate": false}
{"pdf_atom_id": "ig34_p0188_a017", "pdf_atom_type": "LIST_ITEM", "pdf_source": "SDTMIG_v3.4", "pdf_page": 188, "pdf_parent_section": "§6.3.3 ECG Test Results (EG)", "pdf_verbatim": "10. If this domain is used in conjunction with the ECG QT Correction Model Data (QT) domain:", "figure_ref": null, "candidates": [{"md_atom_id": "md_dmEG_assn_a012", "md_file": "knowledge_base/domains/EG/assumptions.md", "md_atom_type": "LIST_ITEM", "md_parent_section": "§EG [EG — Assumptions]", "md_verbatim": "10. If this domain is used in conjunction with the ECG QT Correction Model Data (QT) domain:", "score": 1.0, "match_basis": "verbatim_token+domain_route:EG"}, {"md_atom_id": "md_dmEG_assn_a013", "md_file": "knowledge_base/domains/EG/assumptions.md", "md_atom_type": "LIST_ITEM", "md_parent_section": "§EG [EG — Assumptions]", "md_verbatim": "    a. For each QT correction method used in the study, values of EGTESTCD and EGTEST are assigned at the study level.", "score": 0.5065, "match_basis": "verbatim_token+domain_route:EG"}, {"md_atom_id": "md_dmEG_assn_a007", "md_file": "knowledge_base/domains/EG/assumptions.md", "md_atom_type": "LIST_ITEM", "md_parent_section": "§EG [EG — Assumptions]", "md_verbatim": "5. The method for QT interval correction is specified in the test name by controlled terminology: EGTESTCD = \"QTCFAG\" and EGTEST = \"QTcF Interval, Aggregate\" is used for Fridericia's formula; EGTESTCD = \"QTCBAG\" and EGTEST = \"QTcB Interval, Aggregate\", is used for Bazett's formula.", "score": 0.4699, "match_basis": "verbatim_token+domain_route:EG"}, {"md_atom_id": "md_dmEG_assn_a009", "md_file": "knowledge_base/domains/EG/assumptions.md", "md_atom_type": "LIST_ITEM", "md_parent_section": "§EG [EG — Assumptions]", "md_verbatim": "7. EGREPNUM is used to differentiate between multiple repetitions of a test within a given time frame.", "score": 0.4553, "match_basis": "verbatim_token+domain_route:EG"}, {"md_atom_id": "md_dmEG_assn_a015", "md_file": "knowledge_base/domains/EG/assumptions.md", "md_atom_type": "LIST_ITEM", "md_parent_section": "§EG [EG — Assumptions]", "md_verbatim": "11. Any identifiers, timing variables, or findings general observation-class qualifiers may be added to the EG domain, but the following qualifiers would not generally be used: --MODIFY, --BODSYS, --SPEC, --SPCCND, --FAST, --SEV. It is recommended that --LOINC not be used.", "score": 0.4545, "match_basis": "verbatim_token+domain_route:EG"}], "candidate_count": 5, "zero_candidate": false}
{"pdf_atom_id": "ig34_p0188_a018", "pdf_atom_type": "LIST_ITEM", "pdf_source": "SDTMIG_v3.4", "pdf_page": 188, "pdf_parent_section": "§6.3.3 ECG Test Results (EG)", "pdf_verbatim": "a. For each QT correction method used in the study, values of EGTESTCD and EGTEST are assigned at the study level.", "figure_ref": null, "candidates": [{"md_atom_id": "md_dmEG_assn_a013", "md_file": "knowledge_base/domains/EG/assumptions.md", "md_atom_type": "LIST_ITEM", "md_parent_section": "§EG [EG — Assumptions]", "md_verbatim": "    a. For each QT correction method used in the study, values of EGTESTCD and EGTEST are assigned at the study level.", "score": 1.0, "match_basis": "verbatim_token+domain_route:EG"}, {"md_atom_id": "md_dmEG_assn_a007", "md_file": "knowledge_base/domains/EG/assumptions.md", "md_atom_type": "LIST_ITEM", "md_parent_section": "§EG [EG — Assumptions]", "md_verbatim": "5. The method for QT interval correction is specified in the test name by controlled terminology: EGTESTCD = \"QTCFAG\" and EGTEST = \"QTcF Interval, Aggregate\" is used for Fridericia's formula; EGTESTCD = \"QTCBAG\" and EGTEST = \"QTcB Interval, Aggregate\", is used for Bazett's formula.", "score": 0.5412, "match_basis": "verbatim_token+domain_route:EG"}, {"md_atom_id": "md_dmEG_assn_a012", "md_file": "knowledge_base/domains/EG/assumptions.md", "md_atom_type": "LIST_ITEM", "md_parent_section": "§EG [EG — Assumptions]", "md_verbatim": "10. If this domain is used in conjunction with the ECG QT Correction Model Data (QT) domain:", "score": 0.5065, "match_basis": "verbatim_token+domain_route:EG"}, {"md_atom_id": "md_dmEG_assn_a014", "md_file": "knowledge_base/domains/EG/assumptions.md", "md_atom_type": "LIST_ITEM", "md_parent_section": "§EG [EG — Assumptions]", "md_verbatim": "    b. The sponsor should assign values for EGTESTCD/EGTEST appropriately with clear documentation on what each test code represents. For example, if the protocol calls for computing the top two best fit models, the sponsor could choose to name the top best fit model QTCIAG1 and the second best fit model QTCIAG2, in rank order.", "score": 0.4926, "match_basis": "verbatim_token+domain_route:EG"}, {"md_atom_id": "md_dmEG_assn_a011", "md_file": "knowledge_base/domains/EG/assumptions.md", "md_atom_type": "LIST_ITEM", "md_parent_section": "§EG [EG — Assumptions]", "md_verbatim": "9. When \"QTcF Interval, Aggregate\" or \"QTcB Interval, Aggregate\" is derived by the sponsor, the derived flag (EGDRVFL) is set to \"Y\". However, when the \"QTcF Interval, Aggregate\" or \"QTcB Interval, Aggregate\" is received from a central provider or vendor, the value would go into EGORRES and EGDRVFL would be null (see Section 4.1.8.1, Origin Metadata for Variables).", "score": 0.4709, "match_basis": "verbatim_token+domain_route:EG"}], "candidate_count": 5, "zero_candidate": false}
{"pdf_atom_id": "ig34_p0189_a001", "pdf_atom_type": "LIST_ITEM", "pdf_source": "SDTMIG_v3.4", "pdf_page": 189, "pdf_parent_section": "§6.3.3 ECG Test Results (EG)", "pdf_verbatim": "b. The sponsor should assign values for EGTESTCD/EGTEST appropriately with clear documentation on what each test code represents. For example, if the protocol calls for computing the top two best fit models, the sponsor could choose to name the top best fit model QTCIAG1 and the second best fit model QTCIAG2, in rank order.", "figure_ref": null, "candidates": [{"md_atom_id": "md_dmEG_assn_a014", "md_file": "knowledge_base/domains/EG/assumptions.md", "md_atom_type": "LIST_ITEM", "md_parent_section": "§EG [EG — Assumptions]", "md_verbatim": "    b. The sponsor should assign values for EGTESTCD/EGTEST appropriately with clear documentation on what each test code represents. For example, if the protocol calls for computing the top two best fit models, the sponsor could choose to name the top best fit model QTCIAG1 and the second best fit model QTCIAG2, in rank order.", "score": 1.0, "match_basis": "verbatim_token+domain_route:EG"}, {"md_atom_id": "md_dmEG_assn_a013", "md_file": "knowledge_base/domains/EG/assumptions.md", "md_atom_type": "LIST_ITEM", "md_parent_section": "§EG [EG — Assumptions]", "md_verbatim": "    a. For each QT correction method used in the study, values of EGTESTCD and EGTEST are assigned at the study level.", "score": 0.4926, "match_basis": "verbatim_token+domain_route:EG"}, {"md_atom_id": "md_dmEG_assn_a010", "md_file": "knowledge_base/domains/EG/assumptions.md", "md_atom_type": "LIST_ITEM", "md_parent_section": "§EG [EG — Assumptions]", "md_verbatim": "8. EGNRIND can be added to indicate where a result falls with respect to reference range defined by EGORNRLO and EGORNRHI. Examples: \"HIGH\", \"LOW\". Clinical significance would be represented as described in Section 4.5.5, Clinical Significance for Findings Observation Class Data, in EGCLSIG (see also EG Example 1).", "score": 0.4916, "match_basis": "verbatim_token+domain_route:EG"}, {"md_atom_id": "md_dmEG_assn_a011", "md_file": "knowledge_base/domains/EG/assumptions.md", "md_atom_type": "LIST_ITEM", "md_parent_section": "§EG [EG — Assumptions]", "md_verbatim": "9. When \"QTcF Interval, Aggregate\" or \"QTcB Interval, Aggregate\" is derived by the sponsor, the derived flag (EGDRVFL) is set to \"Y\". However, when the \"QTcF Interval, Aggregate\" or \"QTcB Interval, Aggregate\" is received from a central provider or vendor, the value would go into EGORRES and EGDRVFL would be null (see Section 4.1.8.1, Origin Metadata for Variables).", "score": 0.4719, "match_basis": "verbatim_token+domain_route:EG"}, {"md_atom_id": "md_dmEG_assn_a007", "md_file": "knowledge_base/domains/EG/assumptions.md", "md_atom_type": "LIST_ITEM", "md_parent_section": "§EG [EG — Assumptions]", "md_verbatim": "5. The method for QT interval correction is specified in the test name by controlled terminology: EGTESTCD = \"QTCFAG\" and EGTEST = \"QTcF Interval, Aggregate\" is used for Fridericia's formula; EGTESTCD = \"QTCBAG\" and EGTEST = \"QTcB Interval, Aggregate\", is used for Bazett's formula.", "score": 0.4633, "match_basis": "verbatim_token+domain_route:EG"}], "candidate_count": 5, "zero_candidate": false}
{"pdf_atom_id": "ig34_p0189_a002", "pdf_atom_type": "LIST_ITEM", "pdf_source": "SDTMIG_v3.4", "pdf_page": 189, "pdf_parent_section": "§6.3.3 ECG Test Results (EG)", "pdf_verbatim": "11. Any identifiers, timing variables, or findings general observation-class qualifiers may be added to the EG domain, but the following qualifiers would not generally be used: --MODIFY, --BODSYS, --SPEC, --SPCCND, --FAST, --SEV. It is recommended that --LOINC not be used.", "figure_ref": null, "candidates": [{"md_atom_id": "md_dmEG_assn_a015", "md_file": "knowledge_base/domains/EG/assumptions.md", "md_atom_type": "LIST_ITEM", "md_parent_section": "§EG [EG — Assumptions]", "md_verbatim": "11. Any identifiers, timing variables, or findings general observation-class qualifiers may be added to the EG domain, but the following qualifiers would not generally be used: --MODIFY, --BODSYS, --SPEC, --SPCCND, --FAST, --SEV. It is recommended that --LOINC not be used.", "score": 1.0, "match_basis": "verbatim_token+domain_route:EG"}, {"md_atom_id": "md_dmEG_assn_a010", "md_file": "knowledge_base/domains/EG/assumptions.md", "md_atom_type": "LIST_ITEM", "md_parent_section": "§EG [EG — Assumptions]", "md_verbatim": "8. EGNRIND can be added to indicate where a result falls with respect to reference range defined by EGORNRLO and EGORNRHI. Examples: \"HIGH\", \"LOW\". Clinical significance would be represented as described in Section 4.5.5, Clinical Significance for Findings Observation Class Data, in EGCLSIG (see also EG Example 1).", "score": 0.4984, "match_basis": "verbatim_token+domain_route:EG"}, {"md_atom_id": "md_dmEG_assn_a011", "md_file": "knowledge_base/domains/EG/assumptions.md", "md_atom_type": "LIST_ITEM", "md_parent_section": "§EG [EG — Assumptions]", "md_verbatim": "9. When \"QTcF Interval, Aggregate\" or \"QTcB Interval, Aggregate\" is derived by the sponsor, the derived flag (EGDRVFL) is set to \"Y\". However, when the \"QTcF Interval, Aggregate\" or \"QTcB Interval, Aggregate\" is received from a central provider or vendor, the value would go into EGORRES and EGDRVFL would be null (see Section 4.1.8.1, Origin Metadata for Variables).", "score": 0.4663, "match_basis": "verbatim_token+domain_route:EG"}, {"md_atom_id": "md_dmEG_assn_a006", "md_file": "knowledge_base/domains/EG/assumptions.md", "md_atom_type": "LIST_ITEM", "md_parent_section": "§EG [EG — Assumptions]", "md_verbatim": "4. For individual-beat parameter results, waveform data will not be stored in the warehouse, so there will be no associated identifier for these beats.", "score": 0.4592, "match_basis": "verbatim_token+domain_route:EG"}, {"md_atom_id": "md_dmEG_assn_a005", "md_file": "knowledge_base/domains/EG/assumptions.md", "md_atom_type": "LIST_ITEM", "md_parent_section": "§EG [EG — Assumptions]", "md_verbatim": "3. For non-individual ECG beat data and for aggregate ECG parameter results (e.g., \"QT interval\", \"RR\", \"PR\", \"QRS\"), EGREFID is populated for all unique ECGs, so that submitted SDTM data can be matched to the actual ECGs stored in the ECG warehouse. Therefore, this variable is expected for these types of records.", "score": 0.4582, "match_basis": "verbatim_token+domain_route:EG"}], "candidate_count": 5, "zero_candidate": false}
{"pdf_atom_id": "ig34_p0189_a003", "pdf_atom_type": "HEADING", "pdf_source": "SDTMIG_v3.4", "pdf_page": 189, "pdf_parent_section": "§6.3.3 ECG Test Results (EG)", "pdf_verbatim": "EG - Examples", "figure_ref": null, "candidates": [{"md_atom_id": "md_dmEG_ex_a001", "md_file": "knowledge_base/domains/EG/examples.md", "md_atom_type": "HEADING", "md_parent_section": "§EG [EG — Examples]", "md_verbatim": "# EG — Examples", "score": 1.0, "match_basis": "verbatim_token+domain_route:EG"}, {"md_atom_id": "md_dmEG_ex_a002", "md_file": "knowledge_base/domains/EG/examples.md", "md_atom_type": "HEADING", "md_parent_section": "§EG [EG — Examples]", "md_verbatim": "## Example 1", "score": 0.9, "match_basis": "verbatim_token+domain_route:EG"}, {"md_atom_id": "md_dmEG_ex_a025", "md_file": "knowledge_base/domains/EG/examples.md", "md_atom_type": "HEADING", "md_parent_section": "§EG [EG — Examples]", "md_verbatim": "## Example 2", "score": 0.9, "match_basis": "verbatim_token+domain_route:EG"}, {"md_atom_id": "md_dmEG_ex_a036", "md_file": "knowledge_base/domains/EG/examples.md", "md_atom_type": "HEADING", "md_parent_section": "§EG [EG — Examples]", "md_verbatim": "## Example 3", "score": 0.9, "match_basis": "verbatim_token+domain_route:EG"}, {"md_atom_id": "md_dmEG_ex_a064", "md_file": "knowledge_base/domains/EG/examples.md", "md_atom_type": "HEADING", "md_parent_section": "§EG [EG — Examples]", "md_verbatim": "## Example 4", "score": 0.9, "match_basis": "verbatim_token+domain_route:EG"}], "candidate_count": 5, "zero_candidate": false}
{"pdf_atom_id": "ig34_p0189_a004", "pdf_atom_type": "HEADING", "pdf_source": "SDTMIG_v3.4", "pdf_page": 189, "pdf_parent_section": "§6.3.3 ECG Test Results (EG)", "pdf_verbatim": "Example 1", "figure_ref": null, "candidates": [{"md_atom_id": "md_dmEG_ex_a002", "md_file": "knowledge_base/domains/EG/examples.md", "md_atom_type": "HEADING", "md_parent_section": "§EG [EG — Examples]", "md_verbatim": "## Example 1", "score": 1.0, "match_basis": "verbatim_token+domain_route:EG"}, {"md_atom_id": "md_dmEG_ex_a025", "md_file": "knowledge_base/domains/EG/examples.md", "md_atom_type": "HEADING", "md_parent_section": "§EG [EG — Examples]", "md_verbatim": "## Example 2", "score": 1.0, "match_basis": "verbatim_token+domain_route:EG"}, {"md_atom_id": "md_dmEG_ex_a036", "md_file": "knowledge_base/domains/EG/examples.md", "md_atom_type": "HEADING", "md_parent_section": "§EG [EG — Examples]", "md_verbatim": "## Example 3", "score": 1.0, "match_basis": "verbatim_token+domain_route:EG"}, {"md_atom_id": "md_dmEG_ex_a064", "md_file": "knowledge_base/domains/EG/examples.md", "md_atom_type": "HEADING", "md_parent_section": "§EG [EG — Examples]", "md_verbatim": "## Example 4", "score": 1.0, "match_basis": "verbatim_token+domain_route:EG"}, {"md_atom_id": "md_dmEG_ex_a001", "md_file": "knowledge_base/domains/EG/examples.md", "md_atom_type": "HEADING", "md_parent_section": "§EG [EG — Examples]", "md_verbatim": "# EG — Examples", "score": 0.9, "match_basis": "verbatim_token+domain_route:EG"}, {"md_atom_id": "md_dmEG_assn_a001", "md_file": "knowledge_base/domains/EG/assumptions.md", "md_atom_type": "HEADING", "md_parent_section": "§EG [EG — Assumptions]", "md_verbatim": "# EG — Assumptions", "score": 0.4, "match_basis": "verbatim_token+domain_route:EG"}], "candidate_count": 6, "zero_candidate": false}
{"pdf_atom_id": "ig34_p0189_a005", "pdf_atom_type": "SENTENCE", "pdf_source": "SDTMIG_v3.4", "pdf_page": 189, "pdf_parent_section": "§6.3.3 ECG Test Results (EG)", "pdf_verbatim": "This example shows ECG measurements and other findings from one ECG for one subject. EGCAT has been used to group tests.", "figure_ref": null, "candidates": [{"md_atom_id": "md_dmEG_ex_a003", "md_file": "knowledge_base/domains/EG/examples.md", "md_atom_type": "SENTENCE", "md_parent_section": "§EG.1 [Example 1]", "md_verbatim": "This example shows ECG measurements and other findings from one ECG for one subject. EGCAT has been used to group tests.", "score": 1.0, "match_basis": "verbatim_token+domain_route:EG"}, {"md_atom_id": "md_dmEG_ex_a008", "md_file": "knowledge_base/domains/EG/examples.md", "md_atom_type": "SENTENCE", "md_parent_section": "§EG.1 [Example 1]", "md_verbatim": "**Rows 7-10:** Show results from tests looking for certain kinds of abnormalities, which have been grouped using EGCAT = \"FINDINGS\".", "score": 0.5533, "match_basis": "verbatim_token+domain_route:EG"}, {"md_atom_id": "md_dmEG_ex_a037", "md_file": "knowledge_base/domains/EG/examples.md", "md_atom_type": "SENTENCE", "md_parent_section": "§EG.3 [Example 3]", "md_verbatim": "This example shows 10-second ECG replicates extracted from a continuous recording. The example shows one subject's extracted 10-second ECG replicate results. Three replicates were extracted for planned time points \"1 HR\" and \"2 HR\"; EGREPNUM is used to identify the replicates. Summary mean measurements are reported for the 10 seconds of extracted data for each replicate. EGDTC is the date/time of the first individual beat in the extracted 10-second ECG. In order to save space, some permissible variables (EGREFID, VISITDY, EGTPTNUM, EGTPTREF, EGRFTDTC) have been omitted, as marked by ellipses.", "score": 0.5273, "match_basis": "verbatim_token+domain_route:EG"}, {"md_atom_id": "md_dmEG_ex_a006", "md_file": "knowledge_base/domains/EG/examples.md", "md_atom_type": "SENTENCE", "md_parent_section": "§EG.1 [Example 1]", "md_verbatim": "**Rows 2-4:** These interval measurements were collected in seconds. However, in this submission, the standard unit for these tests was milliseconds, so the results have been converted in EGSTRESC and EGSTRESN.", "score": 0.5231, "match_basis": "verbatim_token+domain_route:EG"}, {"md_atom_id": "md_dmEG_ex_a026", "md_file": "knowledge_base/domains/EG/examples.md", "md_atom_type": "SENTENCE", "md_parent_section": "§EG.2 [Example 2]", "md_verbatim": "This example shows ECG results where only the overall assessment was collected. Results are for one subject across multiple visits. In addition, the ECG interpretation was provided by the investigator and, when necessary, by a cardiologist. EGGRPID is used to group the overall assessments collected on each ECG.", "score": 0.5208, "match_basis": "verbatim_token+domain_route:EG"}], "candidate_count": 5, "zero_candidate": false}
{"pdf_atom_id": "ig34_p0189_a006", "pdf_atom_type": "LIST_ITEM", "pdf_source": "SDTMIG_v3.4", "pdf_page": 189, "pdf_parent_section": "§6.3.3 ECG Test Results (EG)", "pdf_verbatim": "Row 1: Shows a measurement of ventricular rate. This result was assessed as not clinically significant (EGCLSIG = \"N\").", "figure_ref": null, "candidates": [{"md_atom_id": "md_dmEG_ex_a004", "md_file": "knowledge_base/domains/EG/examples.md", "md_atom_type": "SENTENCE", "md_parent_section": "§EG.1 [Example 1]", "md_verbatim": "**Row 1:** Shows a measurement of ventricular rate. This result was assessed as not clinically significant (EGCLSIG = \"N\").", "score": 0.91, "match_basis": "verbatim_token+domain_route:EG"}, {"md_atom_id": "md_dmEG_ex_a005", "md_file": "knowledge_base/domains/EG/examples.md", "md_atom_type": "SENTENCE", "md_parent_section": "§EG.1 [Example 1]", "md_verbatim": "**Row 2:** Shows a measurement of PR interval. This result was assessed as clinically significant (EGCLSIG = \"Y\").", "score": 0.7455, "match_basis": "verbatim_token+domain_route:EG"}, {"md_atom_id": "md_dmEG_assn_a010", "md_file": "knowledge_base/domains/EG/assumptions.md", "md_atom_type": "LIST_ITEM", "md_parent_section": "§EG [EG — Assumptions]", "md_verbatim": "8. EGNRIND can be added to indicate where a result falls with respect to reference range defined by EGORNRLO and EGORNRHI. Examples: \"HIGH\", \"LOW\". Clinical significance would be represented as described in Section 4.5.5, Clinical Significance for Findings Observation Class Data, in EGCLSIG (see also EG Example 1).", "score": 0.5, "match_basis": "verbatim_token+domain_route:EG"}, {"md_atom_id": "md_dmEG_assn_a003", "md_file": "knowledge_base/domains/EG/assumptions.md", "md_atom_type": "LIST_ITEM", "md_parent_section": "§EG [EG — Assumptions]", "md_verbatim": "2. There are separate codelists for tests and results based on regular 10-second ECGs and for tests and results based on Holter monitoring.", "score": 0.4545, "match_basis": "verbatim_token+domain_route:EG"}, {"md_atom_id": "md_dmEG_assn_a006", "md_file": "knowledge_base/domains/EG/assumptions.md", "md_atom_type": "LIST_ITEM", "md_parent_section": "§EG [EG — Assumptions]", "md_verbatim": "4. For individual-beat parameter results, waveform data will not be stored in the warehouse, so there will be no associated identifier for these beats.", "score": 0.4478, "match_basis": "verbatim_token+domain_route:EG"}], "candidate_count": 5, "zero_candidate": false}
{"pdf_atom_id": "ig34_p0189_a007", "pdf_atom_type": "LIST_ITEM", "pdf_source": "SDTMIG_v3.4", "pdf_page": 189, "pdf_parent_section": "§6.3.3 ECG Test Results (EG)", "pdf_verbatim": "Row 2: Shows a measurement of PR interval. This result was assessed as clinically significant (EGCLSIG = \"Y\").", "figure_ref": null, "candidates": [{"md_atom_id": "md_dmEG_ex_a005", "md_file": "knowledge_base/domains/EG/examples.md", "md_atom_type": "SENTENCE", "md_parent_section": "§EG.1 [Example 1]", "md_verbatim": "**Row 2:** Shows a measurement of PR interval. This result was assessed as clinically significant (EGCLSIG = \"Y\").", "score": 0.91, "match_basis": "verbatim_token+domain_route:EG"}, {"md_atom_id": "md_dmEG_ex_a004", "md_file": "knowledge_base/domains/EG/examples.md", "md_atom_type": "SENTENCE", "md_parent_section": "§EG.1 [Example 1]", "md_verbatim": "**Row 1:** Shows a measurement of ventricular rate. This result was assessed as not clinically significant (EGCLSIG = \"N\").", "score": 0.7455, "match_basis": "verbatim_token+domain_route:EG"}, {"md_atom_id": "md_dmEG_assn_a010", "md_file": "knowledge_base/domains/EG/assumptions.md", "md_atom_type": "LIST_ITEM", "md_parent_section": "§EG [EG — Assumptions]", "md_verbatim": "8. EGNRIND can be added to indicate where a result falls with respect to reference range defined by EGORNRLO and EGORNRHI. Examples: \"HIGH\", \"LOW\". Clinical significance would be represented as described in Section 4.5.5, Clinical Significance for Findings Observation Class Data, in EGCLSIG (see also EG Example 1).", "score": 0.5133, "match_basis": "verbatim_token+domain_route:EG"}, {"md_atom_id": "md_dmEG_assn_a005", "md_file": "knowledge_base/domains/EG/assumptions.md", "md_atom_type": "LIST_ITEM", "md_parent_section": "§EG [EG — Assumptions]", "md_verbatim": "3. For non-individual ECG beat data and for aggregate ECG parameter results (e.g., \"QT interval\", \"RR\", \"PR\", \"QRS\"), EGREFID is populated for all unique ECGs, so that submitted SDTM data can be matched to the actual ECGs stored in the ECG warehouse. Therefore, this variable is expected for these types of records.", "score": 0.4556, "match_basis": "verbatim_token+domain_route:EG"}, {"md_atom_id": "md_dmEG_assn_a006", "md_file": "knowledge_base/domains/EG/assumptions.md", "md_atom_type": "LIST_ITEM", "md_parent_section": "§EG [EG — Assumptions]", "md_verbatim": "4. For individual-beat parameter results, waveform data will not be stored in the warehouse, so there will be no associated identifier for these beats.", "score": 0.444, "match_basis": "verbatim_token+domain_route:EG"}], "candidate_count": 5, "zero_candidate": false}
{"pdf_atom_id": "ig34_p0189_a008", "pdf_atom_type": "LIST_ITEM", "pdf_source": "SDTMIG_v3.4", "pdf_page": 189, "pdf_parent_section": "§6.3.3 ECG Test Results (EG)", "pdf_verbatim": "Rows 2-4: These interval measurements were collected in seconds. However, in this submission, the standard unit for these tests was milliseconds, so the results have been converted in EGSTRESC and EGSTRESN.", "figure_ref": null, "candidates": [{"md_atom_id": "md_dmEG_ex_a006", "md_file": "knowledge_base/domains/EG/examples.md", "md_atom_type": "SENTENCE", "md_parent_section": "§EG.1 [Example 1]", "md_verbatim": "**Rows 2-4:** These interval measurements were collected in seconds. However, in this submission, the standard unit for these tests was milliseconds, so the results have been converted in EGSTRESC and EGSTRESN.", "score": 0.91, "match_basis": "verbatim_token+domain_route:EG"}, {"md_atom_id": "md_dmEG_assn_a003", "md_file": "knowledge_base/domains/EG/assumptions.md", "md_atom_type": "LIST_ITEM", "md_parent_section": "§EG [EG — Assumptions]", "md_verbatim": "2. There are separate codelists for tests and results based on regular 10-second ECGs and for tests and results based on Holter monitoring.", "score": 0.495, "match_basis": "verbatim_token+domain_route:EG"}, {"md_atom_id": "md_dmEG_assn_a005", "md_file": "knowledge_base/domains/EG/assumptions.md", "md_atom_type": "LIST_ITEM", "md_parent_section": "§EG [EG — Assumptions]", "md_verbatim": "3. For non-individual ECG beat data and for aggregate ECG parameter results (e.g., \"QT interval\", \"RR\", \"PR\", \"QRS\"), EGREFID is populated for all unique ECGs, so that submitted SDTM data can be matched to the actual ECGs stored in the ECG warehouse. Therefore, this variable is expected for these types of records.", "score": 0.4931, "match_basis": "verbatim_token+domain_route:EG"}, {"md_atom_id": "md_dmEG_assn_a004", "md_file": "knowledge_base/domains/EG/assumptions.md", "md_atom_type": "LIST_ITEM", "md_parent_section": "§EG [EG — Assumptions]", "md_verbatim": "   a. Associations between some ECG abnormality tests and response codelists are described in the ECG codetable (available at https://www.cdisc.org/standards/terminology/controlled-terminology).", "score": 0.4712, "match_basis": "verbatim_token+domain_route:EG"}, {"md_atom_id": "md_dmEG_assn_a011", "md_file": "knowledge_base/domains/EG/assumptions.md", "md_atom_type": "LIST_ITEM", "md_parent_section": "§EG [EG — Assumptions]", "md_verbatim": "9. When \"QTcF Interval, Aggregate\" or \"QTcB Interval, Aggregate\" is derived by the sponsor, the derived flag (EGDRVFL) is set to \"Y\". However, when the \"QTcF Interval, Aggregate\" or \"QTcB Interval, Aggregate\" is received from a central provider or vendor, the value would go into EGORRES and EGDRVFL would be null (see Section 4.1.8.1, Origin Metadata for Variables).", "score": 0.4679, "match_basis": "verbatim_token+domain_route:EG"}], "candidate_count": 5, "zero_candidate": false}
{"pdf_atom_id": "ig34_p0189_a009", "pdf_atom_type": "LIST_ITEM", "pdf_source": "SDTMIG_v3.4", "pdf_page": 189, "pdf_parent_section": "§6.3.3 ECG Test Results (EG)", "pdf_verbatim": "Rows 5-6: Show \"QTcB Interval, Aggregate\" and \"QTcF Interval, Aggregate\". These results were derived by the sponsor, as indicated by the \"Y\" in the EGDRVFL column. Note that EGORRES is null for these derived records.", "figure_ref": null, "candidates": [{"md_atom_id": "md_dmEG_ex_a007", "md_file": "knowledge_base/domains/EG/examples.md", "md_atom_type": "SENTENCE", "md_parent_section": "§EG.1 [Example 1]", "md_verbatim": "**Rows 5-6:** Show \"QTcB Interval, Aggregate\" and \"QTcF Interval, Aggregate\". These results were derived by the sponsor, as indicated by the \"Y\" in the EGDRVFL column. Note that EGORRES is null for these derived records.", "score": 0.91, "match_basis": "verbatim_token+domain_route:EG"}, {"md_atom_id": "md_dmEG_assn_a011", "md_file": "knowledge_base/domains/EG/assumptions.md", "md_atom_type": "LIST_ITEM", "md_parent_section": "§EG [EG — Assumptions]", "md_verbatim": "9. When \"QTcF Interval, Aggregate\" or \"QTcB Interval, Aggregate\" is derived by the sponsor, the derived flag (EGDRVFL) is set to \"Y\". However, when the \"QTcF Interval, Aggregate\" or \"QTcB Interval, Aggregate\" is received from a central provider or vendor, the value would go into EGORRES and EGDRVFL would be null (see Section 4.1.8.1, Origin Metadata for Variables).", "score": 0.6, "match_basis": "verbatim_token+domain_route:EG"}, {"md_atom_id": "md_dmEG_assn_a005", "md_file": "knowledge_base/domains/EG/assumptions.md", "md_atom_type": "LIST_ITEM", "md_parent_section": "§EG [EG — Assumptions]", "md_verbatim": "3. For non-individual ECG beat data and for aggregate ECG parameter results (e.g., \"QT interval\", \"RR\", \"PR\", \"QRS\"), EGREFID is populated for all unique ECGs, so that submitted SDTM data can be matched to the actual ECGs stored in the ECG warehouse. Therefore, this variable is expected for these types of records.", "score": 0.5342, "match_basis": "verbatim_token+domain_route:EG"}, {"md_atom_id": "md_dmEG_assn_a007", "md_file": "knowledge_base/domains/EG/assumptions.md", "md_atom_type": "LIST_ITEM", "md_parent_section": "§EG [EG — Assumptions]", "md_verbatim": "5. The method for QT interval correction is specified in the test name by controlled terminology: EGTESTCD = \"QTCFAG\" and EGTEST = \"QTcF Interval, Aggregate\" is used for Fridericia's formula; EGTESTCD = \"QTCBAG\" and EGTEST = \"QTcB Interval, Aggregate\", is used for Bazett's formula.", "score": 0.5145, "match_basis": "verbatim_token+domain_route:EG"}, {"md_atom_id": "md_dmEG_assn_a006", "md_file": "knowledge_base/domains/EG/assumptions.md", "md_atom_type": "LIST_ITEM", "md_parent_section": "§EG [EG — Assumptions]", "md_verbatim": "4. For individual-beat parameter results, waveform data will not be stored in the warehouse, so there will be no associated identifier for these beats.", "score": 0.4787, "match_basis": "verbatim_token+domain_route:EG"}], "candidate_count": 5, "zero_candidate": false}
{"pdf_atom_id": "ig34_p0189_a010", "pdf_atom_type": "LIST_ITEM", "pdf_source": "SDTMIG_v3.4", "pdf_page": 189, "pdf_parent_section": "§6.3.3 ECG Test Results (EG)", "pdf_verbatim": "Rows 7-10: Show results from tests looking for certain kinds of abnormalities, which have been grouped using EGCAT = \"FINDINGS\".", "figure_ref": null, "candidates": [{"md_atom_id": "md_dmEG_ex_a008", "md_file": "knowledge_base/domains/EG/examples.md", "md_atom_type": "SENTENCE", "md_parent_section": "§EG.1 [Example 1]", "md_verbatim": "**Rows 7-10:** Show results from tests looking for certain kinds of abnormalities, which have been grouped using EGCAT = \"FINDINGS\".", "score": 0.91, "match_basis": "verbatim_token+domain_route:EG"}, {"md_atom_id": "md_dmEG_ex_a003", "md_file": "knowledge_base/domains/EG/examples.md", "md_atom_type": "SENTENCE", "md_parent_section": "§EG.1 [Example 1]", "md_verbatim": "This example shows ECG measurements and other findings from one ECG for one subject. EGCAT has been used to group tests.", "score": 0.4633, "match_basis": "verbatim_token+domain_route:EG"}, {"md_atom_id": "md_dmEG_assn_a003", "md_file": "knowledge_base/domains/EG/assumptions.md", "md_atom_type": "LIST_ITEM", "md_parent_section": "§EG [EG — Assumptions]", "md_verbatim": "2. There are separate codelists for tests and results based on regular 10-second ECGs and for tests and results based on Holter monitoring.", "score": 0.4594, "match_basis": "verbatim_token+domain_route:EG"}, {"md_atom_id": "md_dmEG_assn_a004", "md_file": "knowledge_base/domains/EG/assumptions.md", "md_atom_type": "LIST_ITEM", "md_parent_section": "§EG [EG — Assumptions]", "md_verbatim": "   a. Associations between some ECG abnormality tests and response codelists are described in the ECG codetable (available at https://www.cdisc.org/standards/terminology/controlled-terminology).", "score": 0.4565, "match_basis": "verbatim_token+domain_route:EG"}, {"md_atom_id": "md_dmEG_ex_a010", "md_file": "knowledge_base/domains/EG/examples.md", "md_atom_type": "SENTENCE", "md_parent_section": "§EG.1 [Example 1]", "md_verbatim": "**Row 12:** Shows the result of the TEST \"Interpretation\" (i.e., the interpretation of the ECG strip as a whole), which for this ECG was \"ABNORMAL\".", "score": 0.4563, "match_basis": "verbatim_token+domain_route:EG"}], "candidate_count": 5, "zero_candidate": false}
{"pdf_atom_id": "ig34_p0189_a011", "pdf_atom_type": "LIST_ITEM", "pdf_source": "SDTMIG_v3.4", "pdf_page": 189, "pdf_parent_section": "§6.3.3 ECG Test Results (EG)", "pdf_verbatim": "Row 11: Shows a technical problem represented as the result of the test \"Technical Quality\". Results of this test can be important to the overall understanding of an ECG, but are not truly findings or interpretations about the subject's heart function.", "figure_ref": null, "candidates": [{"md_atom_id": "md_dmEG_ex_a009", "md_file": "knowledge_base/domains/EG/examples.md", "md_atom_type": "SENTENCE", "md_parent_section": "§EG.1 [Example 1]", "md_verbatim": "**Row 11:** Shows a technical problem represented as the result of the test \"Technical Quality\". Results of this test can be important to the overall understanding of an ECG, but are not truly findings or interpretations about the subject's heart function.", "score": 0.91, "match_basis": "verbatim_token+domain_route:EG"}, {"md_atom_id": "md_dmEG_assn_a010", "md_file": "knowledge_base/domains/EG/assumptions.md", "md_atom_type": "LIST_ITEM", "md_parent_section": "§EG [EG — Assumptions]", "md_verbatim": "8. EGNRIND can be added to indicate where a result falls with respect to reference range defined by EGORNRLO and EGORNRHI. Examples: \"HIGH\", \"LOW\". Clinical significance would be represented as described in Section 4.5.5, Clinical Significance for Findings Observation Class Data, in EGCLSIG (see also EG Example 1).", "score": 0.4926, "match_basis": "verbatim_token+domain_route:EG"}, {"md_atom_id": "md_dmEG_assn_a005", "md_file": "knowledge_base/domains/EG/assumptions.md", "md_atom_type": "LIST_ITEM", "md_parent_section": "§EG [EG — Assumptions]", "md_verbatim": "3. For non-individual ECG beat data and for aggregate ECG parameter results (e.g., \"QT interval\", \"RR\", \"PR\", \"QRS\"), EGREFID is populated for all unique ECGs, so that submitted SDTM data can be matched to the actual ECGs stored in the ECG warehouse. Therefore, this variable is expected for these types of records.", "score": 0.4766, "match_basis": "verbatim_token+domain_route:EG"}, {"md_atom_id": "md_dmEG_assn_a015", "md_file": "knowledge_base/domains/EG/assumptions.md", "md_atom_type": "LIST_ITEM", "md_parent_section": "§EG [EG — Assumptions]", "md_verbatim": "11. Any identifiers, timing variables, or findings general observation-class qualifiers may be added to the EG domain, but the following qualifiers would not generally be used: --MODIFY, --BODSYS, --SPEC, --SPCCND, --FAST, --SEV. It is recommended that --LOINC not be used.", "score": 0.4746, "match_basis": "verbatim_token+domain_route:EG"}, {"md_atom_id": "md_dmEG_assn_a014", "md_file": "knowledge_base/domains/EG/assumptions.md", "md_atom_type": "LIST_ITEM", "md_parent_section": "§EG [EG — Assumptions]", "md_verbatim": "    b. The sponsor should assign values for EGTESTCD/EGTEST appropriately with clear documentation on what each test code represents. For example, if the protocol calls for computing the top two best fit models, the sponsor could choose to name the top best fit model QTCIAG1 and the second best fit model QTCIAG2, in rank order.", "score": 0.4726, "match_basis": "verbatim_token+domain_route:EG"}], "candidate_count": 5, "zero_candidate": false}
{"pdf_atom_id": "ig34_p0189_a012", "pdf_atom_type": "LIST_ITEM", "pdf_source": "SDTMIG_v3.4", "pdf_page": 189, "pdf_parent_section": "§6.3.3 ECG Test Results (EG)", "pdf_verbatim": "Row 12: Shows the result of the TEST \"Interpretation\" (i.e., the interpretation of the ECG strip as a whole), which for this ECG was \"ABNORMAL\".", "figure_ref": null, "candidates": [{"md_atom_id": "md_dmEG_ex_a010", "md_file": "knowledge_base/domains/EG/examples.md", "md_atom_type": "SENTENCE", "md_parent_section": "§EG.1 [Example 1]", "md_verbatim": "**Row 12:** Shows the result of the TEST \"Interpretation\" (i.e., the interpretation of the ECG strip as a whole), which for this ECG was \"ABNORMAL\".", "score": 0.91, "match_basis": "verbatim_token+domain_route:EG"}, {"md_atom_id": "md_dmEG_assn_a004", "md_file": "knowledge_base/domains/EG/assumptions.md", "md_atom_type": "LIST_ITEM", "md_parent_section": "§EG [EG — Assumptions]", "md_verbatim": "   a. Associations between some ECG abnormality tests and response codelists are described in the ECG codetable (available at https://www.cdisc.org/standards/terminology/controlled-terminology).", "score": 0.4807, "match_basis": "verbatim_token+domain_route:EG"}, {"md_atom_id": "md_dmEG_assn_a003", "md_file": "knowledge_base/domains/EG/assumptions.md", "md_atom_type": "LIST_ITEM", "md_parent_section": "§EG [EG — Assumptions]", "md_verbatim": "2. There are separate codelists for tests and results based on regular 10-second ECGs and for tests and results based on Holter monitoring.", "score": 0.4786, "match_basis": "verbatim_token+domain_route:EG"}, {"md_atom_id": "md_dmEG_ex_a008", "md_file": "knowledge_base/domains/EG/examples.md", "md_atom_type": "SENTENCE", "md_parent_section": "§EG.1 [Example 1]", "md_verbatim": "**Rows 7-10:** Show results from tests looking for certain kinds of abnormalities, which have been grouped using EGCAT = \"FINDINGS\".", "score": 0.4563, "match_basis": "verbatim_token+domain_route:EG"}, {"md_atom_id": "md_dmEG_assn_a012", "md_file": "knowledge_base/domains/EG/assumptions.md", "md_atom_type": "LIST_ITEM", "md_parent_section": "§EG [EG — Assumptions]", "md_verbatim": "10. If this domain is used in conjunction with the ECG QT Correction Model Data (QT) domain:", "score": 0.4529, "match_basis": "verbatim_token+domain_route:EG"}], "candidate_count": 5, "zero_candidate": false}
{"pdf_atom_id": "ig34_p0190_a001", "pdf_atom_type": "CODE_LITERAL", "pdf_source": "SDTMIG_v3.4", "pdf_page": 190, "pdf_parent_section": "§6.3.3 ECG Test Results (EG)", "pdf_verbatim": "eg.xpt", "figure_ref": null, "candidates": [{"md_atom_id": "md_dmEG_ex_a011", "md_file": "knowledge_base/domains/EG/examples.md", "md_atom_type": "SENTENCE", "md_parent_section": "§EG.1 [Example 1]", "md_verbatim": "**eg.xpt**", "score": 0.79, "match_basis": "verbatim_token+domain_route:EG"}, {"md_atom_id": "md_dmEG_ex_a029", "md_file": "knowledge_base/domains/EG/examples.md", "md_atom_type": "SENTENCE", "md_parent_section": "§EG.2 [Example 2]", "md_verbatim": "**eg.xpt**", "score": 0.79, "match_basis": "verbatim_token+domain_route:EG"}, {"md_atom_id": "md_dmEG_ex_a038", "md_file": "knowledge_base/domains/EG/examples.md", "md_atom_type": "SENTENCE", "md_parent_section": "§EG.3 [Example 3]", "md_verbatim": "**eg.xpt**", "score": 0.79, "match_basis": "verbatim_token+domain_route:EG"}, {"md_atom_id": "md_dmEG_ex_a069", "md_file": "knowledge_base/domains/EG/examples.md", "md_atom_type": "SENTENCE", "md_parent_section": "§EG.4 [Example 4]", "md_verbatim": "**eg.xpt**", "score": 0.79, "match_basis": "verbatim_token+domain_route:EG"}, {"md_atom_id": "md_dmEG_assn_a001", "md_file": "knowledge_base/domains/EG/assumptions.md", "md_atom_type": "HEADING", "md_parent_section": "§EG [EG — Assumptions]", "md_verbatim": "# EG — Assumptions", "score": 0.19, "match_basis": "verbatim_token+domain_route:EG"}, {"md_atom_id": "md_dmEG_assn_a002", "md_file": "knowledge_base/domains/EG/assumptions.md", "md_atom_type": "LIST_ITEM", "md_parent_section": "§EG [EG — Assumptions]", "md_verbatim": "1. EGREFID is intended to store an identifier (e.g., UUID) for the associated ECG tracing. EGXFN is intended to store the name of and path to the electrocardiogram (ECG) waveform file when it is submitted.", "score": 0.19, "match_basis": "verbatim_token+domain_route:EG"}, {"md_atom_id": "md_dmEG_assn_a003", "md_file": "knowledge_base/domains/EG/assumptions.md", "md_atom_type": "LIST_ITEM", "md_parent_section": "§EG [EG — Assumptions]", "md_verbatim": "2. There are separate codelists for tests and results based on regular 10-second ECGs and for tests and results based on Holter monitoring.", "score": 0.19, "match_basis": "verbatim_token+domain_route:EG"}, {"md_atom_id": "md_dmEG_assn_a004", "md_file": "knowledge_base/domains/EG/assumptions.md", "md_atom_type": "LIST_ITEM", "md_parent_section": "§EG [EG — Assumptions]", "md_verbatim": "   a. Associations between some ECG abnormality tests and response codelists are described in the ECG codetable (available at https://www.cdisc.org/standards/terminology/controlled-terminology).", "score": 0.19, "match_basis": "verbatim_token+domain_route:EG"}, {"md_atom_id": "md_dmEG_assn_a005", "md_file": "knowledge_base/domains/EG/assumptions.md", "md_atom_type": "LIST_ITEM", "md_parent_section": "§EG [EG — Assumptions]", "md_verbatim": "3. For non-individual ECG beat data and for aggregate ECG parameter results (e.g., \"QT interval\", \"RR\", \"PR\", \"QRS\"), EGREFID is populated for all unique ECGs, so that submitted SDTM data can be matched to the actual ECGs stored in the ECG warehouse. Therefore, this variable is expected for these types of records.", "score": 0.19, "match_basis": "verbatim_token+domain_route:EG"}, {"md_atom_id": "md_dmEG_assn_a006", "md_file": "knowledge_base/domains/EG/assumptions.md", "md_atom_type": "LIST_ITEM", "md_parent_section": "§EG [EG — Assumptions]", "md_verbatim": "4. For individual-beat parameter results, waveform data will not be stored in the warehouse, so there will be no associated identifier for these beats.", "score": 0.19, "match_basis": "verbatim_token+domain_route:EG"}], "candidate_count": 10, "zero_candidate": false}
{"pdf_atom_id": "ig34_p0190_a002", "pdf_atom_type": "TABLE_HEADER", "pdf_source": "SDTMIG_v3.4", "pdf_page": 190, "pdf_parent_section": "§6.3.3 ECG Test Results (EG)", "pdf_verbatim": "| Row | STUDYID | DOMAIN | USUBJID | EGSEQ | EGREFID | EGTESTCD | EGTEST | EGCAT | EGPOS | EGORRES | EGORRESU | EGSTRESC | EGSTRESN | EGSTRESU | EGXFN | EGNAM | EGLOBXFL | EGDRVFL | EGCLSIG | VISITNUM | VISIT | EGDTC | EGDY |", "figure_ref": null, "candidates": [{"md_atom_id": "md_dmEG_ex_a012", "md_file": "knowledge_base/domains/EG/examples.md", "md_atom_type": "TABLE_HEADER", "md_parent_section": "§EG.1 [Example 1]", "md_verbatim": "| Row | STUDYID | DOMAIN | USUBJID | EGSEQ | EGREFID | EGTESTCD | EGTEST | EGCAT | EGPOS | EGORRES | EGORRESU | EGSTRESC | EGSTRESN | EGSTRESU | EGXFN | EGNAM | EGCLSIG | EGDRVFL | VISITNUM | VISIT | EGDTC | EGDY |\n|-----|---------|--------|---------|-------|---------|----------|--------|-------|-------|---------|----------|----------|----------|----------|-------|-------|---------|---------|----------|-------|-------|------|", "score": 0.9526, "match_basis": "verbatim_token+domain_route:EG"}, {"md_atom_id": "md_dmEG_ex_a039", "md_file": "knowledge_base/domains/EG/examples.md", "md_atom_type": "TABLE_HEADER", "md_parent_section": "§EG.3 [Example 3]", "md_verbatim": "| Row | STUDYID | DOMAIN | USUBJID | EGSEQ | ... | EGTESTCD | EGTEST | EGCAT | EGPOS | EGORRES | EGORRESU | EGSTRESC | EGSTRESN | EGSTRESU | EGMETHOD | EGLEAD | EGLOBXFL | VISITNUM | VISIT | EGDTC | EGTPT | ... | EGREPNUM |\n|-----|---------|--------|---------|-------|-----|----------|--------|-------|-------|---------|----------|----------|----------|----------|----------|--------|----------|----------|-------|-------|-------|-----|----------|", "score": 0.7867, "match_basis": "verbatim_token+domain_route:EG"}, {"md_atom_id": "md_dmEG_ex_a070", "md_file": "knowledge_base/domains/EG/examples.md", "md_atom_type": "TABLE_HEADER", "md_parent_section": "§EG.4 [Example 4]", "md_verbatim": "| Row | STUDYID | DOMAIN | USUBJID | EGSEQ | EGBEATNO | EGTESTCD | EGTEST | EGCAT | EGPOS | EGORRES | EGORRESU | EGSTRESC | EGSTRESN | EGSTRESU | EGMETHOD | EGLEAD | EGLOBXFL | VISITNUM | VISIT | VISITDY | EGDTC |\n|-----|---------|--------|---------|-------|----------|----------|--------|-------|-------|---------|----------|----------|----------|----------|----------|--------|----------|----------|-------|---------|-------|", "score": 0.7613, "match_basis": "verbatim_token+domain_route:EG"}, {"md_atom_id": "md_dmEG_ex_a030", "md_file": "knowledge_base/domains/EG/examples.md", "md_atom_type": "TABLE_HEADER", "md_parent_section": "§EG.2 [Example 2]", "md_verbatim": "| Row | STUDYID | DOMAIN | USUBJID | EGSEQ | EGGRPID | EGTESTCD | EGTEST | EGPOS | EGORRES | EGSTRESC | EGLOBXFL | EGEVAL | VISITNUM | VISIT | VISITDY | EGDTC | EGDY |\n|-----|---------|--------|---------|-------|---------|----------|--------|-------|---------|----------|----------|--------|----------|-------|---------|-------|------|", "score": 0.7586, "match_basis": "verbatim_token+domain_route:EG"}, {"md_atom_id": "md_dmEG_ex_a040", "md_file": "knowledge_base/domains/EG/examples.md", "md_atom_type": "TABLE_ROW", "md_parent_section": "§EG.3 [Example 3]", "md_verbatim": "| 1 | STUDY01 | EG | 2324-P0001 | 1 | ... | PRAG | PR Interval, Aggregate | INTERVAL | SUPINE | 176 | msec | 176 | 176 | msec | 12 LEAD STANDARD | LEAD II | | 2 | VISIT 2 | 2014-03-22T10:00:21 | 1 HR | ... | 1 |", "score": 0.3759, "match_basis": "verbatim_token+domain_route:EG"}], "candidate_count": 5, "zero_candidate": false}
{"pdf_atom_id": "ig34_p0190_a003", "pdf_atom_type": "TABLE_ROW", "pdf_source": "SDTMIG_v3.4", "pdf_page": 190, "pdf_parent_section": "§6.3.3 ECG Test Results (EG)", "pdf_verbatim": "| 1 | XYZ | EG | XYZ-US-701-002 | 1 | 334PT89 | EGHRM | ECG Mean Heart Rate | MEASUREMENT | SUPINE | 62 | beats/min | 62 | 62 | beats/min | P0W436789-07.xml | Test Lab | | | N | 1 | Screening | 2003-04-15T11:58 | -36 |", "figure_ref": null, "candidates": [{"md_atom_id": "md_dmEG_ex_a013", "md_file": "knowledge_base/domains/EG/examples.md", "md_atom_type": "TABLE_ROW", "md_parent_section": "§EG.1 [Example 1]", "md_verbatim": "| 1 | XYZ | EG | XYZ-US-701-002 | 1 | 334PT89 | EGHRMN | ECG Mean Heart Rate | MEASUREMENT | SUPINE | 62 | beats/min | 62 | 62 | beats/min | PQW43787B-07.xml | Test | N | | 1 | Screening | 2003-04-36 | -36 |", "score": 0.8431, "match_basis": "verbatim_token+domain_route:EG"}, {"md_atom_id": "md_dmEG_ex_a014", "md_file": "knowledge_base/domains/EG/examples.md", "md_atom_type": "TABLE_ROW", "md_parent_section": "§EG.1 [Example 1]", "md_verbatim": "| 2 | XYZ | EG | XYZ-US-701-002 | 2 | 334PT89 | PRAG | PR Interval, Aggregate | INTERVAL | SUPINE | 0.15 | sec | 150 | 150 | msec | PQW43787B-07.xml | Test | Y | | 1 | Screening | 2003-04-36 | -36 |", "score": 0.5926, "match_basis": "verbatim_token+domain_route:EG"}, {"md_atom_id": "md_dmEG_ex_a016", "md_file": "knowledge_base/domains/EG/examples.md", "md_atom_type": "TABLE_ROW", "md_parent_section": "§EG.1 [Example 1]", "md_verbatim": "| 4 | XYZ | EG | XYZ-US-701-002 | 4 | 334PT89 | QTAG | QT Interval, Aggregate | INTERVAL | SUPINE | 0.406 | sec | 406 | 406 | msec | PQW43787B-07.xml | Test | | | 1 | Screening | 2003-04-36 | -36 |", "score": 0.5926, "match_basis": "verbatim_token+domain_route:EG"}, {"md_atom_id": "md_dmEG_ex_a017", "md_file": "knowledge_base/domains/EG/examples.md", "md_atom_type": "TABLE_ROW", "md_parent_section": "§EG.1 [Example 1]", "md_verbatim": "| 5 | XYZ | EG | XYZ-US-701-002 | 5 | 334PT89 | QTCBAG | QTcB Interval, Aggregate | INTERVAL | SUPINE | | | 469 | 469 | msec | PQW43787B-07.xml | Test | Y | | 1 | Screening | 2003-04-36 | -36 |", "score": 0.588, "match_basis": "verbatim_token+domain_route:EG"}, {"md_atom_id": "md_dmEG_ex_a018", "md_file": "knowledge_base/domains/EG/examples.md", "md_atom_type": "TABLE_ROW", "md_parent_section": "§EG.1 [Example 1]", "md_verbatim": "| 6 | XYZ | EG | XYZ-US-701-002 | 6 | 334PT89 | QTCFAG | QTcF Interval, Aggregate | INTERVAL | SUPINE | | | 448 | 448 | msec | PQW43787B-07.xml | Test | Y | | 1 | Screening | 2003-04-36 | -36 |", "score": 0.588, "match_basis": "verbatim_token+domain_route:EG"}], "candidate_count": 5, "zero_candidate": false}
{"pdf_atom_id": "ig34_p0190_a004", "pdf_atom_type": "TABLE_ROW", "pdf_source": "SDTMIG_v3.4", "pdf_page": 190, "pdf_parent_section": "§6.3.3 ECG Test Results (EG)", "pdf_verbatim": "| 2 | XYZ | EG | XYZ-US-701-002 | 2 | 334PT89 | PRAG | PR Interval, Aggregate | INTERVAL | SUPINE | 0.15 | sec | 150 | 150 | msec | P0W436789-07.xml | Test Lab | | | | 1 | Screening | 2003-04-15T11:58 | -36 |", "figure_ref": null, "candidates": [{"md_atom_id": "md_dmEG_ex_a014", "md_file": "knowledge_base/domains/EG/examples.md", "md_atom_type": "TABLE_ROW", "md_parent_section": "§EG.1 [Example 1]", "md_verbatim": "| 2 | XYZ | EG | XYZ-US-701-002 | 2 | 334PT89 | PRAG | PR Interval, Aggregate | INTERVAL | SUPINE | 0.15 | sec | 150 | 150 | msec | PQW43787B-07.xml | Test | Y | | 1 | Screening | 2003-04-36 | -36 |", "score": 0.8373, "match_basis": "verbatim_token+domain_route:EG"}, {"md_atom_id": "md_dmEG_ex_a016", "md_file": "knowledge_base/domains/EG/examples.md", "md_atom_type": "TABLE_ROW", "md_parent_section": "§EG.1 [Example 1]", "md_verbatim": "| 4 | XYZ | EG | XYZ-US-701-002 | 4 | 334PT89 | QTAG | QT Interval, Aggregate | INTERVAL | SUPINE | 0.406 | sec | 406 | 406 | msec | PQW43787B-07.xml | Test | | | 1 | Screening | 2003-04-36 | -36 |", "score": 0.7871, "match_basis": "verbatim_token+domain_route:EG"}, {"md_atom_id": "md_dmEG_ex_a017", "md_file": "knowledge_base/domains/EG/examples.md", "md_atom_type": "TABLE_ROW", "md_parent_section": "§EG.1 [Example 1]", "md_verbatim": "| 5 | XYZ | EG | XYZ-US-701-002 | 5 | 334PT89 | QTCBAG | QTcB Interval, Aggregate | INTERVAL | SUPINE | | | 469 | 469 | msec | PQW43787B-07.xml | Test | Y | | 1 | Screening | 2003-04-36 | -36 |", "score": 0.775, "match_basis": "verbatim_token+domain_route:EG"}, {"md_atom_id": "md_dmEG_ex_a018", "md_file": "knowledge_base/domains/EG/examples.md", "md_atom_type": "TABLE_ROW", "md_parent_section": "§EG.1 [Example 1]", "md_verbatim": "| 6 | XYZ | EG | XYZ-US-701-002 | 6 | 334PT89 | QTCFAG | QTcF Interval, Aggregate | INTERVAL | SUPINE | | | 448 | 448 | msec | PQW43787B-07.xml | Test | Y | | 1 | Screening | 2003-04-36 | -36 |", "score": 0.775, "match_basis": "verbatim_token+domain_route:EG"}, {"md_atom_id": "md_dmEG_ex_a015", "md_file": "knowledge_base/domains/EG/examples.md", "md_atom_type": "TABLE_ROW", "md_parent_section": "§EG.1 [Example 1]", "md_verbatim": "| 3 | XYZ | EG | XYZ-US-701-002 | 3 | 334PT89 | QRSAG | QRS Duration, Aggregate | INTERVAL | SUPINE | 0.103 | sec | 103 | 103 | msec | PQW43787B-07.xml | Test | | | 1 | Screening | 2003-04-36 | -36 |", "score": 0.7478, "match_basis": "verbatim_token+domain_route:EG"}], "candidate_count": 5, "zero_candidate": false}
{"pdf_atom_id": "ig34_p0190_a005", "pdf_atom_type": "TABLE_ROW", "pdf_source": "SDTMIG_v3.4", "pdf_page": 190, "pdf_parent_section": "§6.3.3 ECG Test Results (EG)", "pdf_verbatim": "| 3 | XYZ | EG | XYZ-US-701-002 | 3 | 334PT89 | QRSAG | QRS Duration, Aggregate | INTERVAL | SUPINE | 0.103 | sec | 103 | 103 | msec | P0W436789-07.xml | Test Lab | | | | 1 | Screening | 2003-04-15T11:58 | -36 |", "figure_ref": null, "candidates": [{"md_atom_id": "md_dmEG_ex_a015", "md_file": "knowledge_base/domains/EG/examples.md", "md_atom_type": "TABLE_ROW", "md_parent_section": "§EG.1 [Example 1]", "md_verbatim": "| 3 | XYZ | EG | XYZ-US-701-002 | 3 | 334PT89 | QRSAG | QRS Duration, Aggregate | INTERVAL | SUPINE | 0.103 | sec | 103 | 103 | msec | PQW43787B-07.xml | Test | | | 1 | Screening | 2003-04-36 | -36 |", "score": 0.8545, "match_basis": "verbatim_token+domain_route:EG"}, {"md_atom_id": "md_dmEG_ex_a014", "md_file": "knowledge_base/domains/EG/examples.md", "md_atom_type": "TABLE_ROW", "md_parent_section": "§EG.1 [Example 1]", "md_verbatim": "| 2 | XYZ | EG | XYZ-US-701-002 | 2 | 334PT89 | PRAG | PR Interval, Aggregate | INTERVAL | SUPINE | 0.15 | sec | 150 | 150 | msec | PQW43787B-07.xml | Test | Y | | 1 | Screening | 2003-04-36 | -36 |", "score": 0.7478, "match_basis": "verbatim_token+domain_route:EG"}, {"md_atom_id": "md_dmEG_ex_a016", "md_file": "knowledge_base/domains/EG/examples.md", "md_atom_type": "TABLE_ROW", "md_parent_section": "§EG.1 [Example 1]", "md_verbatim": "| 4 | XYZ | EG | XYZ-US-701-002 | 4 | 334PT89 | QTAG | QT Interval, Aggregate | INTERVAL | SUPINE | 0.406 | sec | 406 | 406 | msec | PQW43787B-07.xml | Test | | | 1 | Screening | 2003-04-36 | -36 |", "score": 0.7478, "match_basis": "verbatim_token+domain_route:EG"}, {"md_atom_id": "md_dmEG_ex_a017", "md_file": "knowledge_base/domains/EG/examples.md", "md_atom_type": "TABLE_ROW", "md_parent_section": "§EG.1 [Example 1]", "md_verbatim": "| 5 | XYZ | EG | XYZ-US-701-002 | 5 | 334PT89 | QTCBAG | QTcB Interval, Aggregate | INTERVAL | SUPINE | | | 469 | 469 | msec | PQW43787B-07.xml | Test | Y | | 1 | Screening | 2003-04-36 | -36 |", "score": 0.738, "match_basis": "verbatim_token+domain_route:EG"}, {"md_atom_id": "md_dmEG_ex_a018", "md_file": "knowledge_base/domains/EG/examples.md", "md_atom_type": "TABLE_ROW", "md_parent_section": "§EG.1 [Example 1]", "md_verbatim": "| 6 | XYZ | EG | XYZ-US-701-002 | 6 | 334PT89 | QTCFAG | QTcF Interval, Aggregate | INTERVAL | SUPINE | | | 448 | 448 | msec | PQW43787B-07.xml | Test | Y | | 1 | Screening | 2003-04-36 | -36 |", "score": 0.738, "match_basis": "verbatim_token+domain_route:EG"}], "candidate_count": 5, "zero_candidate": false}
{"pdf_atom_id": "ig34_p0190_a006", "pdf_atom_type": "TABLE_ROW", "pdf_source": "SDTMIG_v3.4", "pdf_page": 190, "pdf_parent_section": "§6.3.3 ECG Test Results (EG)", "pdf_verbatim": "| 4 | XYZ | EG | XYZ-US-701-002 | 4 | 334PT89 | QTAG | QT Interval, Aggregate | INTERVAL | SUPINE | 0.408 | sec | 406 | 406 | msec | P0W436789-07.xml | Test Lab | | | | 1 | Screening | 2003-04-15T11:58 | -36 |", "figure_ref": null, "candidates": [{"md_atom_id": "md_dmEG_ex_a016", "md_file": "knowledge_base/domains/EG/examples.md", "md_atom_type": "TABLE_ROW", "md_parent_section": "§EG.1 [Example 1]", "md_verbatim": "| 4 | XYZ | EG | XYZ-US-701-002 | 4 | 334PT89 | QTAG | QT Interval, Aggregate | INTERVAL | SUPINE | 0.406 | sec | 406 | 406 | msec | PQW43787B-07.xml | Test | | | 1 | Screening | 2003-04-36 | -36 |", "score": 0.83, "match_basis": "verbatim_token+domain_route:EG"}, {"md_atom_id": "md_dmEG_ex_a014", "md_file": "knowledge_base/domains/EG/examples.md", "md_atom_type": "TABLE_ROW", "md_parent_section": "§EG.1 [Example 1]", "md_verbatim": "| 2 | XYZ | EG | XYZ-US-701-002 | 2 | 334PT89 | PRAG | PR Interval, Aggregate | INTERVAL | SUPINE | 0.15 | sec | 150 | 150 | msec | PQW43787B-07.xml | Test | Y | | 1 | Screening | 2003-04-36 | -36 |", "score": 0.781, "match_basis": "verbatim_token+domain_route:EG"}, {"md_atom_id": "md_dmEG_ex_a017", "md_file": "knowledge_base/domains/EG/examples.md", "md_atom_type": "TABLE_ROW", "md_parent_section": "§EG.1 [Example 1]", "md_verbatim": "| 5 | XYZ | EG | XYZ-US-701-002 | 5 | 334PT89 | QTCBAG | QTcB Interval, Aggregate | INTERVAL | SUPINE | | | 469 | 469 | msec | PQW43787B-07.xml | Test | Y | | 1 | Screening | 2003-04-36 | -36 |", "score": 0.7692, "match_basis": "verbatim_token+domain_route:EG"}, {"md_atom_id": "md_dmEG_ex_a018", "md_file": "knowledge_base/domains/EG/examples.md", "md_atom_type": "TABLE_ROW", "md_parent_section": "§EG.1 [Example 1]", "md_verbatim": "| 6 | XYZ | EG | XYZ-US-701-002 | 6 | 334PT89 | QTCFAG | QTcF Interval, Aggregate | INTERVAL | SUPINE | | | 448 | 448 | msec | PQW43787B-07.xml | Test | Y | | 1 | Screening | 2003-04-36 | -36 |", "score": 0.7692, "match_basis": "verbatim_token+domain_route:EG"}, {"md_atom_id": "md_dmEG_ex_a015", "md_file": "knowledge_base/domains/EG/examples.md", "md_atom_type": "TABLE_ROW", "md_parent_section": "§EG.1 [Example 1]", "md_verbatim": "| 3 | XYZ | EG | XYZ-US-701-002 | 3 | 334PT89 | QRSAG | QRS Duration, Aggregate | INTERVAL | SUPINE | 0.103 | sec | 103 | 103 | msec | PQW43787B-07.xml | Test | | | 1 | Screening | 2003-04-36 | -36 |", "score": 0.7429, "match_basis": "verbatim_token+domain_route:EG"}], "candidate_count": 5, "zero_candidate": false}
{"pdf_atom_id": "ig34_p0190_a007", "pdf_atom_type": "TABLE_ROW", "pdf_source": "SDTMIG_v3.4", "pdf_page": 190, "pdf_parent_section": "§6.3.3 ECG Test Results (EG)", "pdf_verbatim": "| 5 | XYZ | EG | XYZ-US-701-002 | 5 | 334PT89 | QTCBAG | QTcB Interval, Aggregate | INTERVAL | SUPINE | | | 469 | 469 | msec | P0W436789-07.xml | Test Lab | | Y | | 1 | Screening | 2003-04-15T11:58 | -36 |", "figure_ref": null, "candidates": [{"md_atom_id": "md_dmEG_ex_a017", "md_file": "knowledge_base/domains/EG/examples.md", "md_atom_type": "TABLE_ROW", "md_parent_section": "§EG.1 [Example 1]", "md_verbatim": "| 5 | XYZ | EG | XYZ-US-701-002 | 5 | 334PT89 | QTCBAG | QTcB Interval, Aggregate | INTERVAL | SUPINE | | | 469 | 469 | msec | PQW43787B-07.xml | Test | Y | | 1 | Screening | 2003-04-36 | -36 |", "score": 0.8426, "match_basis": "verbatim_token+domain_route:EG"}, {"md_atom_id": "md_dmEG_ex_a018", "md_file": "knowledge_base/domains/EG/examples.md", "md_atom_type": "TABLE_ROW", "md_parent_section": "§EG.1 [Example 1]", "md_verbatim": "| 6 | XYZ | EG | XYZ-US-701-002 | 6 | 334PT89 | QTCFAG | QTcF Interval, Aggregate | INTERVAL | SUPINE | | | 448 | 448 | msec | PQW43787B-07.xml | Test | Y | | 1 | Screening | 2003-04-36 | -36 |", "score": 0.7785, "match_basis": "verbatim_token+domain_route:EG"}, {"md_atom_id": "md_dmEG_ex_a014", "md_file": "knowledge_base/domains/EG/examples.md", "md_atom_type": "TABLE_ROW", "md_parent_section": "§EG.1 [Example 1]", "md_verbatim": "| 2 | XYZ | EG | XYZ-US-701-002 | 2 | 334PT89 | PRAG | PR Interval, Aggregate | INTERVAL | SUPINE | 0.15 | sec | 150 | 150 | msec | PQW43787B-07.xml | Test | Y | | 1 | Screening | 2003-04-36 | -36 |", "score": 0.775, "match_basis": "verbatim_token+domain_route:EG"}, {"md_atom_id": "md_dmEG_ex_a016", "md_file": "knowledge_base/domains/EG/examples.md", "md_atom_type": "TABLE_ROW", "md_parent_section": "§EG.1 [Example 1]", "md_verbatim": "| 4 | XYZ | EG | XYZ-US-701-002 | 4 | 334PT89 | QTAG | QT Interval, Aggregate | INTERVAL | SUPINE | 0.406 | sec | 406 | 406 | msec | PQW43787B-07.xml | Test | | | 1 | Screening | 2003-04-36 | -36 |", "score": 0.775, "match_basis": "verbatim_token+domain_route:EG"}, {"md_atom_id": "md_dmEG_ex_a015", "md_file": "knowledge_base/domains/EG/examples.md", "md_atom_type": "TABLE_ROW", "md_parent_section": "§EG.1 [Example 1]", "md_verbatim": "| 3 | XYZ | EG | XYZ-US-701-002 | 3 | 334PT89 | QRSAG | QRS Duration, Aggregate | INTERVAL | SUPINE | 0.103 | sec | 103 | 103 | msec | PQW43787B-07.xml | Test | | | 1 | Screening | 2003-04-36 | -36 |", "score": 0.738, "match_basis": "verbatim_token+domain_route:EG"}], "candidate_count": 5, "zero_candidate": false}
{"pdf_atom_id": "ig34_p0190_a008", "pdf_atom_type": "TABLE_ROW", "pdf_source": "SDTMIG_v3.4", "pdf_page": 190, "pdf_parent_section": "§6.3.3 ECG Test Results (EG)", "pdf_verbatim": "| 6 | XYZ | EG | XYZ-US-701-002 | 6 | 334PT89 | QTCFAG | QTcF Interval, Aggregate | INTERVAL | SUPINE | | | 446 | 446 | msec | P0W436789-07.xml | Test Lab | | Y | | 1 | Screening | 2003-04-15T11:58 | -36 |", "figure_ref": null, "candidates": [{"md_atom_id": "md_dmEG_ex_a018", "md_file": "knowledge_base/domains/EG/examples.md", "md_atom_type": "TABLE_ROW", "md_parent_section": "§EG.1 [Example 1]", "md_verbatim": "| 6 | XYZ | EG | XYZ-US-701-002 | 6 | 334PT89 | QTCFAG | QTcF Interval, Aggregate | INTERVAL | SUPINE | | | 448 | 448 | msec | PQW43787B-07.xml | Test | Y | | 1 | Screening | 2003-04-36 | -36 |", "score": 0.8258, "match_basis": "verbatim_token+domain_route:EG"}, {"md_atom_id": "md_dmEG_ex_a017", "md_file": "knowledge_base/domains/EG/examples.md", "md_atom_type": "TABLE_ROW", "md_parent_section": "§EG.1 [Example 1]", "md_verbatim": "| 5 | XYZ | EG | XYZ-US-701-002 | 5 | 334PT89 | QTCBAG | QTcB Interval, Aggregate | INTERVAL | SUPINE | | | 469 | 469 | msec | PQW43787B-07.xml | Test | Y | | 1 | Screening | 2003-04-36 | -36 |", "score": 0.7785, "match_basis": "verbatim_token+domain_route:EG"}, {"md_atom_id": "md_dmEG_ex_a014", "md_file": "knowledge_base/domains/EG/examples.md", "md_atom_type": "TABLE_ROW", "md_parent_section": "§EG.1 [Example 1]", "md_verbatim": "| 2 | XYZ | EG | XYZ-US-701-002 | 2 | 334PT89 | PRAG | PR Interval, Aggregate | INTERVAL | SUPINE | 0.15 | sec | 150 | 150 | msec | PQW43787B-07.xml | Test | Y | | 1 | Screening | 2003-04-36 | -36 |", "score": 0.775, "match_basis": "verbatim_token+domain_route:EG"}, {"md_atom_id": "md_dmEG_ex_a016", "md_file": "knowledge_base/domains/EG/examples.md", "md_atom_type": "TABLE_ROW", "md_parent_section": "§EG.1 [Example 1]", "md_verbatim": "| 4 | XYZ | EG | XYZ-US-701-002 | 4 | 334PT89 | QTAG | QT Interval, Aggregate | INTERVAL | SUPINE | 0.406 | sec | 406 | 406 | msec | PQW43787B-07.xml | Test | | | 1 | Screening | 2003-04-36 | -36 |", "score": 0.775, "match_basis": "verbatim_token+domain_route:EG"}, {"md_atom_id": "md_dmEG_ex_a015", "md_file": "knowledge_base/domains/EG/examples.md", "md_atom_type": "TABLE_ROW", "md_parent_section": "§EG.1 [Example 1]", "md_verbatim": "| 3 | XYZ | EG | XYZ-US-701-002 | 3 | 334PT89 | QRSAG | QRS Duration, Aggregate | INTERVAL | SUPINE | 0.103 | sec | 103 | 103 | msec | PQW43787B-07.xml | Test | | | 1 | Screening | 2003-04-36 | -36 |", "score": 0.738, "match_basis": "verbatim_token+domain_route:EG"}], "candidate_count": 5, "zero_candidate": false}
{"pdf_atom_id": "ig34_p0190_a009", "pdf_atom_type": "TABLE_ROW", "pdf_source": "SDTMIG_v3.4", "pdf_page": 190, "pdf_parent_section": "§6.3.3 ECG Test Results (EG)", "pdf_verbatim": "| 7 | XYZ | EG | XYZ-US-701-002 | 7 | 334PT89 | SPRTARRY | Supraventricular Tachyarrhythmias | FINDING | SUPINE | ATRIAL FIBRILLATION | | ATRIAL FIBRILLATION | | | P0W436789-07.xml | Test Lab | | | | 1 | Screening | 2003-04-15T11:58 | -36 |", "figure_ref": null, "candidates": [{"md_atom_id": "md_dmEG_ex_a019", "md_file": "knowledge_base/domains/EG/examples.md", "md_atom_type": "TABLE_ROW", "md_parent_section": "§EG.1 [Example 1]", "md_verbatim": "| 7 | XYZ | EG | XYZ-US-701-002 | 7 | 334PT89 | SPRATRY | Supraventricular Tachyarrhythmias | FINDING | SUPINE | ATRIAL FIBRILLATION | | ATRIAL FIBRILLATION | | | PQW43787B-07.xml | Lab | | | 1 | Screening | 15T11:58 | -36 |", "score": 0.8565, "match_basis": "verbatim_token+domain_route:EG"}, {"md_atom_id": "md_dmEG_ex_a020", "md_file": "knowledge_base/domains/EG/examples.md", "md_atom_type": "TABLE_ROW", "md_parent_section": "§EG.1 [Example 1]", "md_verbatim": "| 8 | XYZ | EG | XYZ-US-701-002 | 8 | 334PT89 | SPRATRY | Supraventricular Tachyarrhythmias | FINDING | SUPINE | ATRIAL FLUTTER | | ATRIAL FLUTTER | | | PQW43787B-07.xml | Lab | | | 1 | Screening | 15T11:58 | -36 |", "score": 0.7711, "match_basis": "verbatim_token+domain_route:EG"}, {"md_atom_id": "md_dmEG_ex_a022", "md_file": "knowledge_base/domains/EG/examples.md", "md_atom_type": "TABLE_ROW", "md_parent_section": "§EG.1 [Example 1]", "md_verbatim": "| 10 | XYZ | EG | XYZ-US-701-002 | 10 | 334PT89 | CHPTEN2 | Chamber Hypertrophy or Enlargement | FINDING | SUPINE | LEFT VENTRICULAR HYPERTROPHY | | LEFT VENTRICULAR HYPERTROPHY | | | PQW43787B-07.xml | Lab | | | 1 | Screening | 15T11:58 | -36 |", "score": 0.5932, "match_basis": "verbatim_token+domain_route:EG"}, {"md_atom_id": "md_dmEG_ex_a021", "md_file": "knowledge_base/domains/EG/examples.md", "md_atom_type": "TABLE_ROW", "md_parent_section": "§EG.1 [Example 1]", "md_verbatim": "| 9 | XYZ | EG | XYZ-US-701-002 | 9 | 334PT89 | STSTWUN | ST Segment, T wave, and U wave Changes: nonspecific or Enlargement | FINDING | SUPINE | PROLONGED QT | | PROLONGED QT | | | PQW43787B-07.xml | Lab | | | 1 | Screening | 15T11:58 | -36 |", "score": 0.5512, "match_basis": "verbatim_token+domain_route:EG"}, {"md_atom_id": "md_dmEG_ex_a015", "md_file": "knowledge_base/domains/EG/examples.md", "md_atom_type": "TABLE_ROW", "md_parent_section": "§EG.1 [Example 1]", "md_verbatim": "| 3 | XYZ | EG | XYZ-US-701-002 | 3 | 334PT89 | QRSAG | QRS Duration, Aggregate | INTERVAL | SUPINE | 0.103 | sec | 103 | 103 | msec | PQW43787B-07.xml | Test | | | 1 | Screening | 2003-04-36 | -36 |", "score": 0.55, "match_basis": "verbatim_token+domain_route:EG"}], "candidate_count": 5, "zero_candidate": false}
