{"pdf_atom_id": "ig34_p0210_a019", "pdf_atom_type": "HEADING", "pdf_source": "SDTMIG_v3.4", "pdf_page": 210, "pdf_parent_section": "§6.3.5.3 Cell Phenotype Findings (CP)", "pdf_verbatim": "Example 1b", "figure_ref": null, "candidates": [{"md_atom_id": "md_dmCP_ex_a004", "md_file": "knowledge_base/domains/CP/examples.md", "md_atom_type": "HEADING", "md_parent_section": "§CP [CP — Examples]", "md_verbatim": "## Example 1", "score": 1.0, "match_basis": "verbatim_token+domain_route:CP"}, {"md_atom_id": "md_dmCP_ex_a007", "md_file": "knowledge_base/domains/CP/examples.md", "md_atom_type": "HEADING", "md_parent_section": "§CP.1 [Example 1]", "md_verbatim": "### Example 1a", "score": 1.0, "match_basis": "verbatim_token+domain_route:CP"}, {"md_atom_id": "md_dmCP_ex_a033", "md_file": "knowledge_base/domains/CP/examples.md", "md_atom_type": "HEADING", "md_parent_section": "§CP.1 [Example 1]", "md_verbatim": "### Example 1b", "score": 1.0, "match_basis": "verbatim_token+domain_route:CP"}, {"md_atom_id": "md_dmCP_ex_a043", "md_file": "knowledge_base/domains/CP/examples.md", "md_atom_type": "HEADING", "md_parent_section": "§CP [CP — Examples]", "md_verbatim": "## Example 2", "score": 1.0, "match_basis": "verbatim_token+domain_route:CP"}, {"md_atom_id": "md_dmCP_ex_a051", "md_file": "knowledge_base/domains/CP/examples.md", "md_atom_type": "HEADING", "md_parent_section": "§CP [CP — Examples]", "md_verbatim": "## Example 3", "score": 1.0, "match_basis": "verbatim_token+domain_route:CP"}, {"md_atom_id": "md_dmCP_ex_a061", "md_file": "knowledge_base/domains/CP/examples.md", "md_atom_type": "HEADING", "md_parent_section": "§CP [CP — Examples]", "md_verbatim": "## Example 4", "score": 1.0, "match_basis": "verbatim_token+domain_route:CP"}, {"md_atom_id": "md_dmCP_ex_a067", "md_file": "knowledge_base/domains/CP/examples.md", "md_atom_type": "HEADING", "md_parent_section": "§CP [CP — Examples]", "md_verbatim": "## Example 5", "score": 1.0, "match_basis": "verbatim_token+domain_route:CP"}, {"md_atom_id": "md_dmCP_ex_a072", "md_file": "knowledge_base/domains/CP/examples.md", "md_atom_type": "HEADING", "md_parent_section": "§CP [CP — Examples]", "md_verbatim": "## Example 6", "score": 1.0, "match_basis": "verbatim_token+domain_route:CP"}, {"md_atom_id": "md_dmCP_ex_a080", "md_file": "knowledge_base/domains/CP/examples.md", "md_atom_type": "HEADING", "md_parent_section": "§CP [CP — Examples]", "md_verbatim": "## Example 7", "score": 1.0, "match_basis": "verbatim_token+domain_route:CP"}, {"md_atom_id": "md_dmCP_ex_a087", "md_file": "knowledge_base/domains/CP/examples.md", "md_atom_type": "HEADING", "md_parent_section": "§CP [CP — Examples]", "md_verbatim": "## Example 8", "score": 1.0, "match_basis": "verbatim_token+domain_route:CP"}], "candidate_count": 10, "zero_candidate": false}
{"pdf_atom_id": "ig34_p0210_a020", "pdf_atom_type": "LIST_ITEM", "pdf_source": "SDTMIG_v3.4", "pdf_page": 210, "pdf_parent_section": "§6.3.5.3 Cell Phenotype Findings (CP)", "pdf_verbatim": "Row 1: The total leukocyte count is reported for a whole blood specimen in which the CD45 marker is used to identify the leukocyte population. FSC and SSC are used to exclude debris and non-singlets from data collection events. Because FSC and SSC are nearly always used in this manner in the first data collection gate, they are usually assumed and are often not reported (i.e., the sponsor could have chosen to leave CPGATDEF null).", "figure_ref": null, "candidates": [{"md_atom_id": "md_dmCP_ex_a034", "md_file": "knowledge_base/domains/CP/examples.md", "md_atom_type": "SENTENCE", "md_parent_section": "§CP.1.b [Example 1b]", "md_verbatim": "**Row 1:** The total leukocyte count is reported for a whole blood specimen in which the CD45 marker is used to identify the leukocyte population. FSC and SSC are used to exclude debris and non-singlets from data collection events.", "score": 0.6732, "match_basis": "verbatim_token+domain_route:CP"}, {"md_atom_id": "md_dmCP_assn_a026", "md_file": "knowledge_base/domains/CP/assumptions.md", "md_atom_type": "LIST_ITEM", "md_parent_section": "§CP [CP — Assumptions]", "md_verbatim": "   e. Forward (FSC) and Side (SSC) light scatter: These parameters are generally used to perform initial gating to exclude debris non-singlets and are often reapplied to differentiate cell subpopulations in the \"inclusion\" gate. However, FSC and SSC are often not included in marker string definitions as it is generally taken for granted that they were used. In contrast, they are usually included in a descriptions of a gating strategy, and would generally be included in CPGATDEF when the full gating strategy is shown. Labs/sponsors may choose whether to include FSC and SSC parameters in CPMRKSTR. It is recommended to include them when they are needed to differentiate one test from another. For example, because there is no universal expression marker specific for lymphocytes, FSC and SSC are used to define the lymphocyte subpopulation within a CD45+ leukocyte population. A test of \"Lymphocytes/Leukocytes\" defined only in terms of CD45 expression would not make sense as it would be \"CD45+/CD45+\". In this case, it makes sense to define lymphocytes as \"CD45+SSClo\" so that the value in CPMRKSTR is \"CD45+SSClo/CD45+\".", "score": 0.5665, "match_basis": "verbatim_token+domain_route:CP"}, {"md_atom_id": "md_dmCP_assn_a039", "md_file": "knowledge_base/domains/CP/assumptions.md", "md_atom_type": "LIST_ITEM", "md_parent_section": "§CP [CP — Assumptions]", "md_verbatim": "   h. Explicitly indicating the cellular sublocation for a marker: In most cases, the location of a marker on or within a cell is not necessary; however, there are situations in which a marker can be expressed in more than a single cellular compartment and there is a need for the test to distinguish between marker expression in one compartment versus another. To accommodate this, using a lowercase letter in front of the marker is recommended. The cell sublocations are usually related to the cell surface (plasma membrane), cytoplasm, and nucleus. Use m, c, or n in front of the marker to denote \"membrane\", \"cytoplasm\", and \"nucleus\", respectively. An example of a marker often associated with a need to indicate cell location is CD152 (CTLA4), where cytoplasmic expression may define a test to distinguish it from whole cell expression. In this case, \"cCD152\" is used to denote that it is the cytoplasmic expression of CD152 that is measured for the test.", "score": 0.504, "match_basis": "verbatim_token+domain_route:CP"}, {"md_atom_id": "md_dmCP_assn_a003", "md_file": "knowledge_base/domains/CP/assumptions.md", "md_atom_type": "LIST_ITEM", "md_parent_section": "§CP [CP — Assumptions]", "md_verbatim": "2. The CP domain is only used for tests which include a phenotyping component that relies on using cell markers to identify a specific population of cells (e.g., quantitative cell phenotyping), or on which the test is conducted (e.g., quantitative single marker expression, target/receptor occupancy). For example, a test which measures gamma-interferon expression in helper T lymphocytes defined as the CD45+CD3+CD4+CD8- population is an appropriate test for including in CP, whereas a test which measures gamma interferon secretion in an undefined \"PBMC\" (peripheral blood mononuclear cell) population is not appropriate.", "score": 0.503, "match_basis": "verbatim_token+domain_route:CP"}, {"md_atom_id": "md_dmCP_assn_a025", "md_file": "knowledge_base/domains/CP/assumptions.md", "md_atom_type": "LIST_ITEM", "md_parent_section": "§CP [CP — Assumptions]", "md_verbatim": "   d. The order of markers within a string is consistent across similar tests, generally proceeding in the order that defines the cell hierarchy from highest to lowest, followed by additional non-lineage-defining markers, and ending with cell state and viability markers. This order maintains alignment with how a test is identified using the ordered combination of CPTEST, CPSMRKS, and CPCELSTA. For example, a test for proliferating viable activated central memory helper T-lymphocytes would be operationally defined in CPMRKSTR as similar to \"CD45+CD3+CD19-CD4+CD8-CD197+CD45RA-CD278+Ki67+7AAD-\", where the order of markers in the string is \"CD45\" (leukocyte), \"CD3+CD19-\" (T lymphocyte), \"CD4+CD8-\" (helper), \"CD197+CD45RA-\" (central memory), \"CD278+\" (activated), Ki67+ (proliferating), 7AAD- (viable). Corresponding to this marker-based definition of the test, and using the appropriate Controlled Terminology terms, CPTEST is \"TLym Help Cen Mem Sub\", CPCELSTA is \"ACTIVATED; PROLIFERATING\", and CPCSMRKS is \"CD278+Ki67+\". If the sponsor also chose to include the viability status as a cell state in addition to the activation and proliferative states, CPCELSTA would be similar to \"ACTIVATED; PROLIFERATING; VIABLE\" and the corresponding CPCSMRKS value would be \"CD278+Ki67+7AAD-\". In this example, the named cell population in CPTEST has not been further divided into an unnamed sublineage based on additional sublineage markers; therefore, CPSBMRKS is null.", "score": 0.5008, "match_basis": "verbatim_token+domain_route:CP"}], "candidate_count": 5, "zero_candidate": false}
{"pdf_atom_id": "ig34_p0210_a021", "pdf_atom_type": "LIST_ITEM", "pdf_source": "SDTMIG_v3.4", "pdf_page": 210, "pdf_parent_section": "§6.3.5.3 Cell Phenotype Findings (CP)", "pdf_verbatim": "Rows 2-3: The total lymphocyte subpopulation of leukocytes is reported in row 2 as an absolute cell count, and in row 3 as a percentage of leukocytes. In these cases, FSC and SSC were used as subgates to isolate the lymphocyte lineage within the leukocyte (CD45+) population. Because FSC and SSC (in addition to the CD45 leukocyte marker) are used to define the lymphocyte lineage, they are included in CPMRKSTR, where they are used to distinguish between the lymphocyte and other leukocyte lineages.", "figure_ref": null, "candidates": [{"md_atom_id": "md_dmCP_ex_a035", "md_file": "knowledge_base/domains/CP/examples.md", "md_atom_type": "SENTENCE", "md_parent_section": "§CP.1.b [Example 1b]", "md_verbatim": "**Rows 2-3:** The total lymphocyte subpopulation of leukocytes is reported in row 2 as an absolute cell count, and in row 3 as a percentage of leukocytes. In these cases, FSC and SSC were used as subgates to isolate the lymphocyte lineage within the leukocyte (CD45+) population. Because FSC and SSC (in addition to the CD45 leukocyte marker) are used to define the lymphocyte lineage, they are included in CPMRKSTR.", "score": 0.8269, "match_basis": "verbatim_token+domain_route:CP"}, {"md_atom_id": "md_dmCP_assn_a026", "md_file": "knowledge_base/domains/CP/assumptions.md", "md_atom_type": "LIST_ITEM", "md_parent_section": "§CP [CP — Assumptions]", "md_verbatim": "   e. Forward (FSC) and Side (SSC) light scatter: These parameters are generally used to perform initial gating to exclude debris non-singlets and are often reapplied to differentiate cell subpopulations in the \"inclusion\" gate. However, FSC and SSC are often not included in marker string definitions as it is generally taken for granted that they were used. In contrast, they are usually included in a descriptions of a gating strategy, and would generally be included in CPGATDEF when the full gating strategy is shown. Labs/sponsors may choose whether to include FSC and SSC parameters in CPMRKSTR. It is recommended to include them when they are needed to differentiate one test from another. For example, because there is no universal expression marker specific for lymphocytes, FSC and SSC are used to define the lymphocyte subpopulation within a CD45+ leukocyte population. A test of \"Lymphocytes/Leukocytes\" defined only in terms of CD45 expression would not make sense as it would be \"CD45+/CD45+\". In this case, it makes sense to define lymphocytes as \"CD45+SSClo\" so that the value in CPMRKSTR is \"CD45+SSClo/CD45+\".", "score": 0.5562, "match_basis": "verbatim_token+domain_route:CP"}, {"md_atom_id": "md_dmCP_assn_a037", "md_file": "knowledge_base/domains/CP/assumptions.md", "md_atom_type": "LIST_ITEM", "md_parent_section": "§CP [CP — Assumptions]", "md_verbatim": "      v. \"hi\" (the marker is expressed at a distinctly higher level than in cells that are \"+\", such that they are distinguishable from the \"+\" population and define their own subpopulation)", "score": 0.5387, "match_basis": "verbatim_token+domain_route:CP"}, {"md_atom_id": "md_dmCP_assn_a020", "md_file": "knowledge_base/domains/CP/assumptions.md", "md_atom_type": "LIST_ITEM", "md_parent_section": "§CP [CP — Assumptions]", "md_verbatim": "   b. Viability marker(s) used to define a test are included in the full marker string in CPMRKSTR regardless of whether the viability status is stated explicitly in CPCELSTA. Moreover, if viability is explicitly stated in CPGATE, marker(s) used to designate viability are included in CPGATDEF. For example, if the value in CPGATE is \"Lymphocytes, Viable\" and 7AAD- was used to define the viable state, 7AAD- is included in CPGATDEF, in addition to being included in the complete marker string in CPMRKSTR.", "score": 0.5382, "match_basis": "verbatim_token+domain_route:CP"}, {"md_atom_id": "md_dmCP_assn_a010", "md_file": "knowledge_base/domains/CP/assumptions.md", "md_atom_type": "LIST_ITEM", "md_parent_section": "§CP [CP — Assumptions]", "md_verbatim": "      ii. It is expected that CPMRKSTR is populated, and that it contains the entire set of markers used to define the test, including those that are also present in CPSBMRKS and/or CPCSMRKS.", "score": 0.5265, "match_basis": "verbatim_token+domain_route:CP"}], "candidate_count": 5, "zero_candidate": false}
{"pdf_atom_id": "ig34_p0210_a022", "pdf_atom_type": "LIST_ITEM", "pdf_source": "SDTMIG_v3.4", "pdf_page": 210, "pdf_parent_section": "§6.3.5.3 Cell Phenotype Findings (CP)", "pdf_verbatim": "Row 4: Illustrates an alternative way a sponsor chose to construct the value of CPMRKSTR using the gate name in CPGATE (operationally defined in CPGATDEF) as the denominator. Although the preferred method for constructing CPMRKSTR is to use markers to define both the numerator and denominator, the method shown in this example for designating the denominator can be useful, particularly when the denominator string is merely a very long repeat of the majority of markers in the numerator.", "figure_ref": null, "candidates": [{"md_atom_id": "md_dmCP_ex_a036", "md_file": "knowledge_base/domains/CP/examples.md", "md_atom_type": "SENTENCE", "md_parent_section": "§CP.1.b [Example 1b]", "md_verbatim": "**Row 4:** Illustrates an alternative way a sponsor chose to construct the value of CPMRKSTR using the gate name in CPGATE (operationally defined in CPGATDEF) as the denominator.", "score": 0.5983, "match_basis": "verbatim_token+domain_route:CP"}, {"md_atom_id": "md_dmCP_assn_a026", "md_file": "knowledge_base/domains/CP/assumptions.md", "md_atom_type": "LIST_ITEM", "md_parent_section": "§CP [CP — Assumptions]", "md_verbatim": "   e. Forward (FSC) and Side (SSC) light scatter: These parameters are generally used to perform initial gating to exclude debris non-singlets and are often reapplied to differentiate cell subpopulations in the \"inclusion\" gate. However, FSC and SSC are often not included in marker string definitions as it is generally taken for granted that they were used. In contrast, they are usually included in a descriptions of a gating strategy, and would generally be included in CPGATDEF when the full gating strategy is shown. Labs/sponsors may choose whether to include FSC and SSC parameters in CPMRKSTR. It is recommended to include them when they are needed to differentiate one test from another. For example, because there is no universal expression marker specific for lymphocytes, FSC and SSC are used to define the lymphocyte subpopulation within a CD45+ leukocyte population. A test of \"Lymphocytes/Leukocytes\" defined only in terms of CD45 expression would not make sense as it would be \"CD45+/CD45+\". In this case, it makes sense to define lymphocytes as \"CD45+SSClo\" so that the value in CPMRKSTR is \"CD45+SSClo/CD45+\".", "score": 0.5408, "match_basis": "verbatim_token+domain_route:CP"}, {"md_atom_id": "md_dmCP_assn_a024", "md_file": "knowledge_base/domains/CP/assumptions.md", "md_atom_type": "LIST_ITEM", "md_parent_section": "§CP [CP — Assumptions]", "md_verbatim": "   c. When referring to a marker using the cluster of differentiation (CD) designation, \"CD\" should be included as part of the marker reference. For example, a marker string for helper T lymphocytes comprising CD45, CD3, CD4, and CD8 markers would be \"CD45+CD3+CD4+CD8-\" (rather than \"45+3+4+8-\").", "score": 0.535, "match_basis": "verbatim_token+domain_route:CP"}, {"md_atom_id": "md_dmCP_assn_a020", "md_file": "knowledge_base/domains/CP/assumptions.md", "md_atom_type": "LIST_ITEM", "md_parent_section": "§CP [CP — Assumptions]", "md_verbatim": "   b. Viability marker(s) used to define a test are included in the full marker string in CPMRKSTR regardless of whether the viability status is stated explicitly in CPCELSTA. Moreover, if viability is explicitly stated in CPGATE, marker(s) used to designate viability are included in CPGATDEF. For example, if the value in CPGATE is \"Lymphocytes, Viable\" and 7AAD- was used to define the viable state, 7AAD- is included in CPGATDEF, in addition to being included in the complete marker string in CPMRKSTR.", "score": 0.5301, "match_basis": "verbatim_token+domain_route:CP"}, {"md_atom_id": "md_dmCP_assn_a025", "md_file": "knowledge_base/domains/CP/assumptions.md", "md_atom_type": "LIST_ITEM", "md_parent_section": "§CP [CP — Assumptions]", "md_verbatim": "   d. The order of markers within a string is consistent across similar tests, generally proceeding in the order that defines the cell hierarchy from highest to lowest, followed by additional non-lineage-defining markers, and ending with cell state and viability markers. This order maintains alignment with how a test is identified using the ordered combination of CPTEST, CPSMRKS, and CPCELSTA. For example, a test for proliferating viable activated central memory helper T-lymphocytes would be operationally defined in CPMRKSTR as similar to \"CD45+CD3+CD19-CD4+CD8-CD197+CD45RA-CD278+Ki67+7AAD-\", where the order of markers in the string is \"CD45\" (leukocyte), \"CD3+CD19-\" (T lymphocyte), \"CD4+CD8-\" (helper), \"CD197+CD45RA-\" (central memory), \"CD278+\" (activated), Ki67+ (proliferating), 7AAD- (viable). Corresponding to this marker-based definition of the test, and using the appropriate Controlled Terminology terms, CPTEST is \"TLym Help Cen Mem Sub\", CPCELSTA is \"ACTIVATED; PROLIFERATING\", and CPCSMRKS is \"CD278+Ki67+\". If the sponsor also chose to include the viability status as a cell state in addition to the activation and proliferative states, CPCELSTA would be similar to \"ACTIVATED; PROLIFERATING; VIABLE\" and the corresponding CPCSMRKS value would be \"CD278+Ki67+7AAD-\". In this example, the named cell population in CPTEST has not been further divided into an unnamed sublineage based on additional sublineage markers; therefore, CPSBMRKS is null.", "score": 0.5241, "match_basis": "verbatim_token+domain_route:CP"}], "candidate_count": 5, "zero_candidate": false}
{"pdf_atom_id": "ig34_p0210_a023", "pdf_atom_type": "CODE_LITERAL", "pdf_source": "SDTMIG_v3.4", "pdf_page": 210, "pdf_parent_section": "§6.3.5.3 Cell Phenotype Findings (CP)", "pdf_verbatim": "cp.xpt", "figure_ref": null, "candidates": [{"md_atom_id": "md_dmCP_ex_a015", "md_file": "knowledge_base/domains/CP/examples.md", "md_atom_type": "SENTENCE", "md_parent_section": "§CP.1.a [Example 1a]", "md_verbatim": "**cp.xpt**", "score": 0.79, "match_basis": "verbatim_token+domain_route:CP"}, {"md_atom_id": "md_dmCP_ex_a037", "md_file": "knowledge_base/domains/CP/examples.md", "md_atom_type": "SENTENCE", "md_parent_section": "§CP.1.b [Example 1b]", "md_verbatim": "**cp.xpt**", "score": 0.79, "match_basis": "verbatim_token+domain_route:CP"}, {"md_atom_id": "md_dmCP_ex_a086", "md_file": "knowledge_base/domains/CP/examples.md", "md_atom_type": "SENTENCE", "md_parent_section": "§CP.7 [Example 7]", "md_verbatim": "*(cp.xpt table contains 3 rows with columns including CPBDAGNT, CPGATE, CPGATDEF.)*", "score": 0.2054, "match_basis": "verbatim_token+domain_route:CP"}, {"md_atom_id": "md_dmCP_ex_a079", "md_file": "knowledge_base/domains/CP/examples.md", "md_atom_type": "SENTENCE", "md_parent_section": "§CP.6 [Example 6]", "md_verbatim": "*(cp.xpt table contains 32 rows with extensive use of CPSPTSTD and marker string variables.)*", "score": 0.2043, "match_basis": "verbatim_token+domain_route:CP"}, {"md_atom_id": "md_dmCP_ex_a094", "md_file": "knowledge_base/domains/CP/examples.md", "md_atom_type": "SENTENCE", "md_parent_section": "§CP.8 [Example 8]", "md_verbatim": "*(cp.xpt table contains 11 rows with columns including CPBDAGNT, CPTSTCND, CPREPNUM, CPCOLSRT.)*", "score": 0.2022, "match_basis": "verbatim_token+domain_route:CP"}, {"md_atom_id": "md_dmCP_ex_a066", "md_file": "knowledge_base/domains/CP/examples.md", "md_atom_type": "SENTENCE", "md_parent_section": "§CP.4 [Example 4]", "md_verbatim": "*(cp.xpt table contains 7 rows with columns including CPTSTCND, CPCNDAGT, CPREPNUM, CPCOLSRT, CPANMETH.)*", "score": 0.2013, "match_basis": "verbatim_token+domain_route:CP"}, {"md_atom_id": "md_dmCP_ex_a071", "md_file": "knowledge_base/domains/CP/examples.md", "md_atom_type": "SENTENCE", "md_parent_section": "§CP.5 [Example 5]", "md_verbatim": "*(cp.xpt table contains 8 rows with columns including CPGATE, CPGATDEF, and detailed marker string information.)*", "score": 0.2009, "match_basis": "verbatim_token+domain_route:CP"}, {"md_atom_id": "md_dmCP_ex_a060", "md_file": "knowledge_base/domains/CP/examples.md", "md_atom_type": "SENTENCE", "md_parent_section": "§CP.3 [Example 3]", "md_verbatim": "*(Due to extreme table width, the cp.xpt table for this example contains 12 rows of data with columns including CPSBMRKS, CPCELSTA, CPCSMRKS, CPGRPID, and other standard CP variables.)*", "score": 0.1977, "match_basis": "verbatim_token+domain_route:CP"}, {"md_atom_id": "md_dmCP_ex_a100", "md_file": "knowledge_base/domains/CP/examples.md", "md_atom_type": "SENTENCE", "md_parent_section": "§CP.9 [Example 9]", "md_verbatim": "*(cp.xpt table contains 14 rows illustrating indirect receptor occupancy detection with multiple binding agents, assay conditions, and calculated results.)*", "score": 0.1975, "match_basis": "verbatim_token+domain_route:CP"}, {"md_atom_id": "md_dmCP_ex_a050", "md_file": "knowledge_base/domains/CP/examples.md", "md_atom_type": "SENTENCE", "md_parent_section": "§CP.2 [Example 2]", "md_verbatim": "*(Due to extreme table width, the cp.xpt table for this example contains columns: Row, STUDYID, DOMAIN, USUBJID, CPSEQ, CPGRPID, CPTESTCD, CPTEST, CPSBMRKS, CPCELSTA, CPCSMRKS, CPGATE, CPGATDEF, CPCAT, CPORRES, CPORRESU, CPSTRESC, CPSTRESN, CPRESU, CPRESSCL, CPRESTYP, CPMETHOD, CPSPEC, CPDTC — with 11 rows of data.)*", "score": 0.1951, "match_basis": "verbatim_token+domain_route:CP"}], "candidate_count": 10, "zero_candidate": false}
{"pdf_atom_id": "ig34_p0210_a024", "pdf_atom_type": "TABLE_HEADER", "pdf_source": "SDTMIG_v3.4", "pdf_page": 210, "pdf_parent_section": "§6.3.5.3 Cell Phenotype Findings (CP)", "pdf_verbatim": "| Row | STUDYID | DOMAIN | USUBJID | CPSEQ | CPTESTCD | CPTEST | CPMRKSTR | CPGATE | CPGATDEF | CPCAT | CPORRES | CPORRESU | CPSTRESC | CPSTRESN | CPSTRESU | CPRESSCL | CPRESTYP | CPSPEC | CPMETHOD | CPDTC |", "figure_ref": null, "candidates": [{"md_atom_id": "md_dmCP_ex_a038", "md_file": "knowledge_base/domains/CP/examples.md", "md_atom_type": "TABLE_HEADER", "md_parent_section": "§CP.1.b [Example 1b]", "md_verbatim": "| Row | STUDYID | DOMAIN | USUBJID | CPSEQ | CPTESTCD | CPTEST | CPMRKSTR | CPGATE | CPGATDEF | CPCAT | CPORRES | CPORRESU | CPSTRESC | CPSTRESN | CPRESU | CPRESSCL | CPRESTYP | CPMETHOD | CPSPEC | CPDTC |\n|-----|---------|--------|---------|-------|----------|--------|----------|--------|----------|-------|---------|----------|----------|----------|--------|----------|----------|----------|--------|-------|", "score": 1.0, "match_basis": "verbatim_token+domain_route:CP"}, {"md_atom_id": "md_dmCP_ex_a016", "md_file": "knowledge_base/domains/CP/examples.md", "md_atom_type": "TABLE_HEADER", "md_parent_section": "§CP.1.a [Example 1a]", "md_verbatim": "| Row | STUDYID | DOMAIN | USUBJID | CPSEQ | CPTESTCD | CPTEST | CPMRKSTR | CPCAT | CPORRES | CPORRESU | CPSTRESC | CPSTRESN | CPRESU | CPRESSCL | CPRESTYP | CPSPEC | CPMETHOD | CPDTC |\n|-----|---------|--------|---------|-------|----------|--------|----------|-------|---------|----------|----------|----------|--------|----------|----------|--------|----------|-------|", "score": 0.9382, "match_basis": "verbatim_token+domain_route:CP"}, {"md_atom_id": "md_dmCP_ex_a050", "md_file": "knowledge_base/domains/CP/examples.md", "md_atom_type": "SENTENCE", "md_parent_section": "§CP.2 [Example 2]", "md_verbatim": "*(Due to extreme table width, the cp.xpt table for this example contains columns: Row, STUDYID, DOMAIN, USUBJID, CPSEQ, CPGRPID, CPTESTCD, CPTEST, CPSBMRKS, CPCELSTA, CPCSMRKS, CPGATE, CPGATDEF, CPCAT, CPORRES, CPORRESU, CPSTRESC, CPSTRESN, CPRESU, CPRESSCL, CPRESTYP, CPMETHOD, CPSPEC, CPDTC — with 11 rows of data.)*", "score": 0.5228, "match_basis": "verbatim_token+domain_route:CP"}, {"md_atom_id": "md_dmCP_ex_a018", "md_file": "knowledge_base/domains/CP/examples.md", "md_atom_type": "TABLE_ROW", "md_parent_section": "§CP.1.a [Example 1a]", "md_verbatim": "| 2 | ABCD | CP | ABCD-001-001 | 2 | LYM | Lymphocytes | CD45+FSC SSC | IMMUNOPHENOTYPING | 1710 | 10^6/L | 1710 | 1710 | 10^6/L | QUANTITATIVE | NUMBER CONCENTRATION | BLOOD | FLOW CYTOMETRY | 2021-08-16T04:20 |", "score": 0.3575, "match_basis": "verbatim_token+domain_route:CP"}, {"md_atom_id": "md_dmCP_ex_a019", "md_file": "knowledge_base/domains/CP/examples.md", "md_atom_type": "TABLE_ROW", "md_parent_section": "§CP.1.a [Example 1a]", "md_verbatim": "| 3 | ABCD | CP | ABCD-001-001 | 3 | LYMLE | Lymphocytes/Leukocytes | CD45+FSC SSC/CD45+ | IMMUNOPHENOTYPING | 25.8 | % | 25.8 | 25.8 | | QUANTITATIVE | NUMBER FRACTION | BLOOD | FLOW CYTOMETRY | 2021-08-16T04:20 |", "score": 0.3575, "match_basis": "verbatim_token+domain_route:CP"}], "candidate_count": 5, "zero_candidate": false}
{"pdf_atom_id": "ig34_p0210_a025", "pdf_atom_type": "TABLE_ROW", "pdf_source": "SDTMIG_v3.4", "pdf_page": 210, "pdf_parent_section": "§6.3.5.3 Cell Phenotype Findings (CP)", "pdf_verbatim": "| 1 | ABCD | CP | ABCD-001-001 | 1 | WBC | Leukocytes | CD45+ | FSC SSC | LEUK | CD45+ | IMMUNOPHENOTYPING | 6630 | 10^6/L | 6630 | 10^6/L | 6630 | QUANTITATIVE | NUMBER CONCENTRATION | BLOOD | FLOW CYTOMETRY | 2021-08-16T04:20 |", "figure_ref": null, "candidates": [{"md_atom_id": "md_dmCP_ex_a039", "md_file": "knowledge_base/domains/CP/examples.md", "md_atom_type": "TABLE_ROW", "md_parent_section": "§CP.1.b [Example 1b]", "md_verbatim": "| 1 | ABCD | CP | ABCD-001-001 | 1 | WBC | Leukocytes | CD45+ | FSC SSC | IMMUNOPHENOTYPING | 6630 | 10^6/L | 6630 | 6630 | 10^6/L | QUANTITATIVE | NUMBER CONCENTRATION | FLOW CYTOMETRY | BLOOD | 2021-08-16T04:20 |", "score": 1.0, "match_basis": "verbatim_token+domain_route:CP"}, {"md_atom_id": "md_dmCP_ex_a017", "md_file": "knowledge_base/domains/CP/examples.md", "md_atom_type": "TABLE_ROW", "md_parent_section": "§CP.1.a [Example 1a]", "md_verbatim": "| 1 | ABCD | CP | ABCD-001-001 | 1 | WBC | Leukocytes | CD45+ | IMMUNOPHENOTYPING | 6630 | 10^6/L | 6630 | 6630 | 10^6/L | QUANTITATIVE | NUMBER CONCENTRATION | BLOOD | FLOW CYTOMETRY | 2021-08-16T04:20 |", "score": 0.9836, "match_basis": "verbatim_token+domain_route:CP"}, {"md_atom_id": "md_dmCP_ex_a040", "md_file": "knowledge_base/domains/CP/examples.md", "md_atom_type": "TABLE_ROW", "md_parent_section": "§CP.1.b [Example 1b]", "md_verbatim": "| 2 | ABCD | CP | ABCD-001-001 | 2 | LYM | Lymphocytes | CD45+FSC SSC | LEUK | CD45+ | IMMUNOPHENOTYPING | 1710 | 10^6/L | 1710 | 1710 | 10^6/L | QUANTITATIVE | NUMBER CONCENTRATION | FLOW CYTOMETRY | BLOOD | 2021-08-16T04:20 |", "score": 0.91, "match_basis": "verbatim_token+domain_route:CP"}, {"md_atom_id": "md_dmCP_ex_a042", "md_file": "knowledge_base/domains/CP/examples.md", "md_atom_type": "TABLE_ROW", "md_parent_section": "§CP.1.b [Example 1b]", "md_verbatim": "| 4 | ABCD | CP | ABCD-001-001 | 4 | LYM | Lymphocytes | CD45+FSC SSC | LEUK | CD45+ | IMMUNOPHENOTYPING | 1710 | 10^6/L | 1710 | 1710 | 10^6/L | QUANTITATIVE | NUMBER CONCENTRATION | FLOW CYTOMETRY | BLOOD | 2021-08-16T04:20 |", "score": 0.91, "match_basis": "verbatim_token+domain_route:CP"}, {"md_atom_id": "md_dmCP_ex_a018", "md_file": "knowledge_base/domains/CP/examples.md", "md_atom_type": "TABLE_ROW", "md_parent_section": "§CP.1.a [Example 1a]", "md_verbatim": "| 2 | ABCD | CP | ABCD-001-001 | 2 | LYM | Lymphocytes | CD45+FSC SSC | IMMUNOPHENOTYPING | 1710 | 10^6/L | 1710 | 1710 | 10^6/L | QUANTITATIVE | NUMBER CONCENTRATION | BLOOD | FLOW CYTOMETRY | 2021-08-16T04:20 |", "score": 0.895, "match_basis": "verbatim_token+domain_route:CP"}], "candidate_count": 5, "zero_candidate": false}
{"pdf_atom_id": "ig34_p0210_a026", "pdf_atom_type": "TABLE_ROW", "pdf_source": "SDTMIG_v3.4", "pdf_page": 210, "pdf_parent_section": "§6.3.5.3 Cell Phenotype Findings (CP)", "pdf_verbatim": "| 2 | ABCD | CP | ABCD-001-001 | 2 | LYM | Lymphocytes | CD45+FSC SSC | LEUK | CD45+ | IMMUNOPHENOTYPING | 1710 | 10^6/L | 1710 | 10^6/L | 1710 | QUANTITATIVE | NUMBER CONCENTRATION | BLOOD | FLOW CYTOMETRY | 2021-08-16T04:20 |", "figure_ref": null, "candidates": [{"md_atom_id": "md_dmCP_ex_a040", "md_file": "knowledge_base/domains/CP/examples.md", "md_atom_type": "TABLE_ROW", "md_parent_section": "§CP.1.b [Example 1b]", "md_verbatim": "| 2 | ABCD | CP | ABCD-001-001 | 2 | LYM | Lymphocytes | CD45+FSC SSC | LEUK | CD45+ | IMMUNOPHENOTYPING | 1710 | 10^6/L | 1710 | 1710 | 10^6/L | QUANTITATIVE | NUMBER CONCENTRATION | FLOW CYTOMETRY | BLOOD | 2021-08-16T04:20 |", "score": 1.0, "match_basis": "verbatim_token+domain_route:CP"}, {"md_atom_id": "md_dmCP_ex_a042", "md_file": "knowledge_base/domains/CP/examples.md", "md_atom_type": "TABLE_ROW", "md_parent_section": "§CP.1.b [Example 1b]", "md_verbatim": "| 4 | ABCD | CP | ABCD-001-001 | 4 | LYM | Lymphocytes | CD45+FSC SSC | LEUK | CD45+ | IMMUNOPHENOTYPING | 1710 | 10^6/L | 1710 | 1710 | 10^6/L | QUANTITATIVE | NUMBER CONCENTRATION | FLOW CYTOMETRY | BLOOD | 2021-08-16T04:20 |", "score": 1.0, "match_basis": "verbatim_token+domain_route:CP"}, {"md_atom_id": "md_dmCP_ex_a018", "md_file": "knowledge_base/domains/CP/examples.md", "md_atom_type": "TABLE_ROW", "md_parent_section": "§CP.1.a [Example 1a]", "md_verbatim": "| 2 | ABCD | CP | ABCD-001-001 | 2 | LYM | Lymphocytes | CD45+FSC SSC | IMMUNOPHENOTYPING | 1710 | 10^6/L | 1710 | 1710 | 10^6/L | QUANTITATIVE | NUMBER CONCENTRATION | BLOOD | FLOW CYTOMETRY | 2021-08-16T04:20 |", "score": 0.984, "match_basis": "verbatim_token+domain_route:CP"}, {"md_atom_id": "md_dmCP_ex_a039", "md_file": "knowledge_base/domains/CP/examples.md", "md_atom_type": "TABLE_ROW", "md_parent_section": "§CP.1.b [Example 1b]", "md_verbatim": "| 1 | ABCD | CP | ABCD-001-001 | 1 | WBC | Leukocytes | CD45+ | FSC SSC | IMMUNOPHENOTYPING | 6630 | 10^6/L | 6630 | 6630 | 10^6/L | QUANTITATIVE | NUMBER CONCENTRATION | FLOW CYTOMETRY | BLOOD | 2021-08-16T04:20 |", "score": 0.91, "match_basis": "verbatim_token+domain_route:CP"}, {"md_atom_id": "md_dmCP_ex_a017", "md_file": "knowledge_base/domains/CP/examples.md", "md_atom_type": "TABLE_ROW", "md_parent_section": "§CP.1.a [Example 1a]", "md_verbatim": "| 1 | ABCD | CP | ABCD-001-001 | 1 | WBC | Leukocytes | CD45+ | IMMUNOPHENOTYPING | 6630 | 10^6/L | 6630 | 6630 | 10^6/L | QUANTITATIVE | NUMBER CONCENTRATION | BLOOD | FLOW CYTOMETRY | 2021-08-16T04:20 |", "score": 0.895, "match_basis": "verbatim_token+domain_route:CP"}], "candidate_count": 5, "zero_candidate": false}
{"pdf_atom_id": "ig34_p0210_a027", "pdf_atom_type": "TABLE_ROW", "pdf_source": "SDTMIG_v3.4", "pdf_page": 210, "pdf_parent_section": "§6.3.5.3 Cell Phenotype Findings (CP)", "pdf_verbatim": "| 3 | ABCD | CP | ABCD-001-001 | 3 | LYMLE | Lymphocytes/Leukocytes | CD45+FSC SSC/CD45+ | LEUK | CD45+ | IMMUNOPHENOTYPING | 25.8 | % | 25.8 | % | 25.8 | QUANTITATIVE | NUMBER FRACTION | BLOOD | FLOW CYTOMETRY | 2021-08-16T04:20 |", "figure_ref": null, "candidates": [{"md_atom_id": "md_dmCP_ex_a019", "md_file": "knowledge_base/domains/CP/examples.md", "md_atom_type": "TABLE_ROW", "md_parent_section": "§CP.1.a [Example 1a]", "md_verbatim": "| 3 | ABCD | CP | ABCD-001-001 | 3 | LYMLE | Lymphocytes/Leukocytes | CD45+FSC SSC/CD45+ | IMMUNOPHENOTYPING | 25.8 | % | 25.8 | 25.8 | | QUANTITATIVE | NUMBER FRACTION | BLOOD | FLOW CYTOMETRY | 2021-08-16T04:20 |", "score": 1.0, "match_basis": "verbatim_token+domain_route:CP"}, {"md_atom_id": "md_dmCP_ex_a041", "md_file": "knowledge_base/domains/CP/examples.md", "md_atom_type": "TABLE_ROW", "md_parent_section": "§CP.1.b [Example 1b]", "md_verbatim": "| 3 | ABCD | CP | ABCD-001-001 | 3 | LYMLE | Lymphocytes/Leukocytes | CD45+FSC SSC/CD45+ | | | IMMUNOPHENOTYPING | 25.8 | % | 25.8 | 25.8 | | QUANTITATIVE | NUMBER FRACTION | FLOW CYTOMETRY | BLOOD | 2021-08-16T04:20 |", "score": 1.0, "match_basis": "verbatim_token+domain_route:CP"}, {"md_atom_id": "md_dmCP_ex_a021", "md_file": "knowledge_base/domains/CP/examples.md", "md_atom_type": "TABLE_ROW", "md_parent_section": "§CP.1.a [Example 1a]", "md_verbatim": "| 5 | ABCD | CP | ABCD-001-001 | 5 | BLYCELY | B-Lymphocytes/Lymphocytes | CD45+CD3-CD19+CD14-CD56-/CD45+FSC SSC | IMMUNOPHENOTYPING | 6.1 | % | 6.1 | 6.1 | | QUANTITATIVE | NUMBER FRACTION | BLOOD | FLOW CYTOMETRY | 2021-08-16T04:20 |", "score": 0.8786, "match_basis": "verbatim_token+domain_route:CP"}, {"md_atom_id": "md_dmCP_ex_a029", "md_file": "knowledge_base/domains/CP/examples.md", "md_atom_type": "TABLE_ROW", "md_parent_section": "§CP.1.a [Example 1a]", "md_verbatim": "| 13 | ABCD | CP | ABCD-001-001 | 13 | MONOCLE | Monocytes/Leukocytes | CD45+CD3-CD19-CD14+CD56-/FSC SSC/CD45+ | IMMUNOPHENOTYPING | 9.3 | % | 9.3 | 9.3 | | QUANTITATIVE | NUMBER FRACTION | BLOOD | FLOW CYTOMETRY | 2021-08-16T04:20 |", "score": 0.8714, "match_basis": "verbatim_token+domain_route:CP"}, {"md_atom_id": "md_dmCP_ex_a040", "md_file": "knowledge_base/domains/CP/examples.md", "md_atom_type": "TABLE_ROW", "md_parent_section": "§CP.1.b [Example 1b]", "md_verbatim": "| 2 | ABCD | CP | ABCD-001-001 | 2 | LYM | Lymphocytes | CD45+FSC SSC | LEUK | CD45+ | IMMUNOPHENOTYPING | 1710 | 10^6/L | 1710 | 1710 | 10^6/L | QUANTITATIVE | NUMBER CONCENTRATION | FLOW CYTOMETRY | BLOOD | 2021-08-16T04:20 |", "score": 0.8699, "match_basis": "verbatim_token+domain_route:CP"}], "candidate_count": 5, "zero_candidate": false}
{"pdf_atom_id": "ig34_p0211_a001", "pdf_atom_type": "TABLE_ROW", "pdf_source": "SDTMIG_v3.4", "pdf_page": 211, "pdf_parent_section": "§6.3.5.3 Cell Phenotype Findings (CP)", "pdf_verbatim": "| 4 | ABCD | CP | ABCD-001-001 | 3 | LYMLE | Lymphocytes/Leukocytes | CD45+FSC SSC/LEUK | LEUK | CD45+ | IMMUNOPHENOTYPING | 25.8 | % | 25.8 | % | 25.8 | QUANTITATIVE | NUMBER FRACTION | BLOOD | FLOW CYTOMETRY | 2021-08-16T04:20 |", "figure_ref": null, "candidates": [{"md_atom_id": "md_dmCP_ex_a019", "md_file": "knowledge_base/domains/CP/examples.md", "md_atom_type": "TABLE_ROW", "md_parent_section": "§CP.1.a [Example 1a]", "md_verbatim": "| 3 | ABCD | CP | ABCD-001-001 | 3 | LYMLE | Lymphocytes/Leukocytes | CD45+FSC SSC/CD45+ | IMMUNOPHENOTYPING | 25.8 | % | 25.8 | 25.8 | | QUANTITATIVE | NUMBER FRACTION | BLOOD | FLOW CYTOMETRY | 2021-08-16T04:20 |", "score": 1.0, "match_basis": "verbatim_token+domain_route:CP"}, {"md_atom_id": "md_dmCP_ex_a041", "md_file": "knowledge_base/domains/CP/examples.md", "md_atom_type": "TABLE_ROW", "md_parent_section": "§CP.1.b [Example 1b]", "md_verbatim": "| 3 | ABCD | CP | ABCD-001-001 | 3 | LYMLE | Lymphocytes/Leukocytes | CD45+FSC SSC/CD45+ | | | IMMUNOPHENOTYPING | 25.8 | % | 25.8 | 25.8 | | QUANTITATIVE | NUMBER FRACTION | FLOW CYTOMETRY | BLOOD | 2021-08-16T04:20 |", "score": 1.0, "match_basis": "verbatim_token+domain_route:CP"}, {"md_atom_id": "md_dmCP_ex_a021", "md_file": "knowledge_base/domains/CP/examples.md", "md_atom_type": "TABLE_ROW", "md_parent_section": "§CP.1.a [Example 1a]", "md_verbatim": "| 5 | ABCD | CP | ABCD-001-001 | 5 | BLYCELY | B-Lymphocytes/Lymphocytes | CD45+CD3-CD19+CD14-CD56-/CD45+FSC SSC | IMMUNOPHENOTYPING | 6.1 | % | 6.1 | 6.1 | | QUANTITATIVE | NUMBER FRACTION | BLOOD | FLOW CYTOMETRY | 2021-08-16T04:20 |", "score": 0.8786, "match_basis": "verbatim_token+domain_route:CP"}, {"md_atom_id": "md_dmCP_ex_a029", "md_file": "knowledge_base/domains/CP/examples.md", "md_atom_type": "TABLE_ROW", "md_parent_section": "§CP.1.a [Example 1a]", "md_verbatim": "| 13 | ABCD | CP | ABCD-001-001 | 13 | MONOCLE | Monocytes/Leukocytes | CD45+CD3-CD19-CD14+CD56-/FSC SSC/CD45+ | IMMUNOPHENOTYPING | 9.3 | % | 9.3 | 9.3 | | QUANTITATIVE | NUMBER FRACTION | BLOOD | FLOW CYTOMETRY | 2021-08-16T04:20 |", "score": 0.8714, "match_basis": "verbatim_token+domain_route:CP"}, {"md_atom_id": "md_dmCP_ex_a040", "md_file": "knowledge_base/domains/CP/examples.md", "md_atom_type": "TABLE_ROW", "md_parent_section": "§CP.1.b [Example 1b]", "md_verbatim": "| 2 | ABCD | CP | ABCD-001-001 | 2 | LYM | Lymphocytes | CD45+FSC SSC | LEUK | CD45+ | IMMUNOPHENOTYPING | 1710 | 10^6/L | 1710 | 1710 | 10^6/L | QUANTITATIVE | NUMBER CONCENTRATION | FLOW CYTOMETRY | BLOOD | 2021-08-16T04:20 |", "score": 0.8699, "match_basis": "verbatim_token+domain_route:CP"}], "candidate_count": 5, "zero_candidate": false}
{"pdf_atom_id": "ig34_p0211_a002", "pdf_atom_type": "HEADING", "pdf_source": "SDTMIG_v3.4", "pdf_page": 211, "pdf_parent_section": "§6.3.5.3 Cell Phenotype Findings (CP)", "pdf_verbatim": "Example 2", "figure_ref": null, "candidates": [{"md_atom_id": "md_dmCP_ex_a004", "md_file": "knowledge_base/domains/CP/examples.md", "md_atom_type": "HEADING", "md_parent_section": "§CP [CP — Examples]", "md_verbatim": "## Example 1", "score": 1.0, "match_basis": "verbatim_token+domain_route:CP"}, {"md_atom_id": "md_dmCP_ex_a007", "md_file": "knowledge_base/domains/CP/examples.md", "md_atom_type": "HEADING", "md_parent_section": "§CP.1 [Example 1]", "md_verbatim": "### Example 1a", "score": 1.0, "match_basis": "verbatim_token+domain_route:CP"}, {"md_atom_id": "md_dmCP_ex_a033", "md_file": "knowledge_base/domains/CP/examples.md", "md_atom_type": "HEADING", "md_parent_section": "§CP.1 [Example 1]", "md_verbatim": "### Example 1b", "score": 1.0, "match_basis": "verbatim_token+domain_route:CP"}, {"md_atom_id": "md_dmCP_ex_a043", "md_file": "knowledge_base/domains/CP/examples.md", "md_atom_type": "HEADING", "md_parent_section": "§CP [CP — Examples]", "md_verbatim": "## Example 2", "score": 1.0, "match_basis": "verbatim_token+domain_route:CP"}, {"md_atom_id": "md_dmCP_ex_a051", "md_file": "knowledge_base/domains/CP/examples.md", "md_atom_type": "HEADING", "md_parent_section": "§CP [CP — Examples]", "md_verbatim": "## Example 3", "score": 1.0, "match_basis": "verbatim_token+domain_route:CP"}, {"md_atom_id": "md_dmCP_ex_a061", "md_file": "knowledge_base/domains/CP/examples.md", "md_atom_type": "HEADING", "md_parent_section": "§CP [CP — Examples]", "md_verbatim": "## Example 4", "score": 1.0, "match_basis": "verbatim_token+domain_route:CP"}, {"md_atom_id": "md_dmCP_ex_a067", "md_file": "knowledge_base/domains/CP/examples.md", "md_atom_type": "HEADING", "md_parent_section": "§CP [CP — Examples]", "md_verbatim": "## Example 5", "score": 1.0, "match_basis": "verbatim_token+domain_route:CP"}, {"md_atom_id": "md_dmCP_ex_a072", "md_file": "knowledge_base/domains/CP/examples.md", "md_atom_type": "HEADING", "md_parent_section": "§CP [CP — Examples]", "md_verbatim": "## Example 6", "score": 1.0, "match_basis": "verbatim_token+domain_route:CP"}, {"md_atom_id": "md_dmCP_ex_a080", "md_file": "knowledge_base/domains/CP/examples.md", "md_atom_type": "HEADING", "md_parent_section": "§CP [CP — Examples]", "md_verbatim": "## Example 7", "score": 1.0, "match_basis": "verbatim_token+domain_route:CP"}, {"md_atom_id": "md_dmCP_ex_a087", "md_file": "knowledge_base/domains/CP/examples.md", "md_atom_type": "HEADING", "md_parent_section": "§CP [CP — Examples]", "md_verbatim": "## Example 8", "score": 1.0, "match_basis": "verbatim_token+domain_route:CP"}], "candidate_count": 10, "zero_candidate": false}
{"pdf_atom_id": "ig34_p0211_a003", "pdf_atom_type": "SENTENCE", "pdf_source": "SDTMIG_v3.4", "pdf_page": 211, "pdf_parent_section": "§6.3.5.3 Cell Phenotype Findings (CP)", "pdf_verbatim": "This example shows data from a lymphocyte apoptosis assay and how the new permissible variables CPCELSTA and CPCSMRKS are used to indicate the biological state of the cell population measured in the test (e.g., viable, apoptotic, activated, exhausted, senescent, proliferating). Although in most cases only viable cells are measured in a test, making it unnecessary to specifically indicate their viability status in the dataset, there are other situations (e.g., when the ratio of viable to non-viable cells is of particular interest) when each cell state needs to be explicitly indicated in order to differentiate the tests. The principles illustrated in the example using CPCELSTA and CPCSMRKS variables also apply to more complex tests where the biological state of the cell population is considered to be integral to the test.", "figure_ref": null, "candidates": [{"md_atom_id": "md_dmCP_ex_a044", "md_file": "knowledge_base/domains/CP/examples.md", "md_atom_type": "SENTENCE", "md_parent_section": "§CP.2 [Example 2]", "md_verbatim": "This example shows data from a lymphocyte apoptosis assay and how the new permissible variables CPCELSTA and CPCSMRKS are used to indicate the biological state of the cell population measured in the test (e.g., viable, apoptotic, activated, exhausted, senescent, proliferating). Although in most cases only viable cells are measured in a test, making it unnecessary to specifically indicate their viability status in the test, there are other situations (e.g., when the ratio of viable to non-viable cells is of particular interest) when each cell state needs to be explicitly indicated in order to differentiate the tests. The principles illustrated in the example using CPCELSTA and CPCSMRKS variables also apply to more complex tests when the biological state of the cell population is considered to be integral to the test.", "score": 0.9951, "match_basis": "verbatim_token+domain_route:CP"}, {"md_atom_id": "md_dmCP_ex_a049", "md_file": "knowledge_base/domains/CP/examples.md", "md_atom_type": "SENTENCE", "md_parent_section": "§CP.2 [Example 2]", "md_verbatim": "**Rows 9-11:** Illustrate a need to pre-coordinate information into the test name when the test incorporates results from two or more records (e.g., a ratio) in which key component(s) of the test are split across multiple variables. In the example, rows 9 and 10 use the CPCELSTA variable to indicate that the measured lymphocyte subpopulation includes only viable cells (row 9) or dying (non-viable cells, row 10). The ratio of viable to nonviable lymphocytes in row 11 is calculated using data from rows 9 and 10.", "score": 0.5781, "match_basis": "verbatim_token+domain_route:CP"}, {"md_atom_id": "md_dmCP_ex_a048", "md_file": "knowledge_base/domains/CP/examples.md", "md_atom_type": "SENTENCE", "md_parent_section": "§CP.2 [Example 2]", "md_verbatim": "**Rows 7-8:** Illustrate using CPTEST, CPCELSTA, and CPCSMRKS variables to present findings when the cell population has more than a single cell state of interest (e.g., both viable and apoptotic). In this case, viability marker 7AAD is used in combination with apoptosis marker ANXV.", "score": 0.5739, "match_basis": "verbatim_token+domain_route:CP"}, {"md_atom_id": "md_dmCP_ex_a046", "md_file": "knowledge_base/domains/CP/examples.md", "md_atom_type": "SENTENCE", "md_parent_section": "§CP.2 [Example 2]", "md_verbatim": "**Rows 3-4:** Illustrate using CPCELSTA and CPCSMRKS to provide (1) the cell state descriptor in CPCELSTA, and (2) the markers used to define the cell state in CPCSMRKS. These variables further define CPTEST to be a subset of cells named in CPTEST; therefore the suffix \"Sub\" is appended to the value in CPTEST. In this example, the sponsor is interested in contrasting viable cells with those in the process of dying (non-viable), so each population is reported and the records differentiated using CPCELSTA and CPCSMRKS.", "score": 0.5669, "match_basis": "verbatim_token+domain_route:CP"}, {"md_atom_id": "md_dmCP_ex_a005", "md_file": "knowledge_base/domains/CP/examples.md", "md_atom_type": "SENTENCE", "md_parent_section": "§CP.1 [Example 1]", "md_verbatim": "Example 1a illustrates use of the CPMRKSTR variable for an assay panel that enumerates several of the major named cell subpopulations of leukocytes. For most cases involving simple phenotyping, and when used in accordance with CP domain guidance, the CPMRKSTR variable is sufficient for providing the marker information needed to fully describe a test. As such, CPMRKSTR is the only new CP test qualifier variable having a Core designation of \"Expected\". In such a case, the sponsor may determine whether to include other permissible CP test qualifier variables, based on the needs of the data recipient. This example presents records that might typically be reported for a panel of tests quantifying T-cell, B-cell, monocyte, and natural killer (NK) cell populations, and for subtyping T-cells. In this example, the sponsor determined that none of the permissible CP test qualifier variables were needed to accurately comprehend or distinguish among tests in the dataset, so chose to include only the CPMRKSTR (complete markers string) information.", "score": 0.5535, "match_basis": "verbatim_token+domain_route:CP"}], "candidate_count": 5, "zero_candidate": false}
{"pdf_atom_id": "ig34_p0211_a004", "pdf_atom_type": "LIST_ITEM", "pdf_source": "SDTMIG_v3.4", "pdf_page": 211, "pdf_parent_section": "§6.3.5.3 Cell Phenotype Findings (CP)", "pdf_verbatim": "Rows 1-2: Forward light scatter (FSC) and side scatter (SSC) are almost always applied as the first gating parameters to distinguish singlets and viable cells from doublets and debris. In row 1, a lymphocyte (LYM) count is reported which does not explicitly provide viability information. Nevertheless, it is generally assumed that FSC SSC gating is applied to exclude doublets, debris, and dead cells. Secondary FSC and SSC gating is then used to distinguish the lymphocyte population from other CD45+ leukocytes. In contrast, row 2 explicitly calls out cell viability based on the use of viability marker 7AAD to exclude cells that are in the process of dying (7AAD+). This is indicated in the Marker String (CPMRKSTR) and Gate Definition (CPGATEDEF) variables. In addition, the term \"VIABLE\" is included in the gate name (CPGATE).", "figure_ref": null, "candidates": [{"md_atom_id": "md_dmCP_ex_a045", "md_file": "knowledge_base/domains/CP/examples.md", "md_atom_type": "SENTENCE", "md_parent_section": "§CP.2 [Example 2]", "md_verbatim": "**Rows 1-2:** Forward light scatter (FSC) and side scatter (SSC) are almost always applied as the first gating parameters to distinguish singlets and viable cells from doublets and debris. In row 1, a lymphocyte (LYM) count is reported which does not explicitly provide viability information. Nevertheless, it is generally assumed that FSC SSC gating is applied to exclude doublets, debris, and dead cells. Secondary FSC and SSC gating is then used to distinguish the lymphocyte population from other CD45+ leukocytes. In contrast, row 2 explicitly calls out cell viability based on the use of viability marker 7AAD-. This is indicated in the Marker String (CPMRKSTR) and Gate Definition (CPGATDEF) variables. In addition, the term \"VIABLE\" is included in the gate (CPGATE).", "score": 0.8869, "match_basis": "verbatim_token+domain_route:CP"}, {"md_atom_id": "md_dmCP_assn_a026", "md_file": "knowledge_base/domains/CP/assumptions.md", "md_atom_type": "LIST_ITEM", "md_parent_section": "§CP [CP — Assumptions]", "md_verbatim": "   e. Forward (FSC) and Side (SSC) light scatter: These parameters are generally used to perform initial gating to exclude debris non-singlets and are often reapplied to differentiate cell subpopulations in the \"inclusion\" gate. However, FSC and SSC are often not included in marker string definitions as it is generally taken for granted that they were used. In contrast, they are usually included in a descriptions of a gating strategy, and would generally be included in CPGATDEF when the full gating strategy is shown. Labs/sponsors may choose whether to include FSC and SSC parameters in CPMRKSTR. It is recommended to include them when they are needed to differentiate one test from another. For example, because there is no universal expression marker specific for lymphocytes, FSC and SSC are used to define the lymphocyte subpopulation within a CD45+ leukocyte population. A test of \"Lymphocytes/Leukocytes\" defined only in terms of CD45 expression would not make sense as it would be \"CD45+/CD45+\". In this case, it makes sense to define lymphocytes as \"CD45+SSClo\" so that the value in CPMRKSTR is \"CD45+SSClo/CD45+\".", "score": 0.618, "match_basis": "verbatim_token+domain_route:CP"}, {"md_atom_id": "md_dmCP_assn_a025", "md_file": "knowledge_base/domains/CP/assumptions.md", "md_atom_type": "LIST_ITEM", "md_parent_section": "§CP [CP — Assumptions]", "md_verbatim": "   d. The order of markers within a string is consistent across similar tests, generally proceeding in the order that defines the cell hierarchy from highest to lowest, followed by additional non-lineage-defining markers, and ending with cell state and viability markers. This order maintains alignment with how a test is identified using the ordered combination of CPTEST, CPSMRKS, and CPCELSTA. For example, a test for proliferating viable activated central memory helper T-lymphocytes would be operationally defined in CPMRKSTR as similar to \"CD45+CD3+CD19-CD4+CD8-CD197+CD45RA-CD278+Ki67+7AAD-\", where the order of markers in the string is \"CD45\" (leukocyte), \"CD3+CD19-\" (T lymphocyte), \"CD4+CD8-\" (helper), \"CD197+CD45RA-\" (central memory), \"CD278+\" (activated), Ki67+ (proliferating), 7AAD- (viable). Corresponding to this marker-based definition of the test, and using the appropriate Controlled Terminology terms, CPTEST is \"TLym Help Cen Mem Sub\", CPCELSTA is \"ACTIVATED; PROLIFERATING\", and CPCSMRKS is \"CD278+Ki67+\". If the sponsor also chose to include the viability status as a cell state in addition to the activation and proliferative states, CPCELSTA would be similar to \"ACTIVATED; PROLIFERATING; VIABLE\" and the corresponding CPCSMRKS value would be \"CD278+Ki67+7AAD-\". In this example, the named cell population in CPTEST has not been further divided into an unnamed sublineage based on additional sublineage markers; therefore, CPSBMRKS is null.", "score": 0.5645, "match_basis": "verbatim_token+domain_route:CP"}, {"md_atom_id": "md_dmCP_assn_a020", "md_file": "knowledge_base/domains/CP/assumptions.md", "md_atom_type": "LIST_ITEM", "md_parent_section": "§CP [CP — Assumptions]", "md_verbatim": "   b. Viability marker(s) used to define a test are included in the full marker string in CPMRKSTR regardless of whether the viability status is stated explicitly in CPCELSTA. Moreover, if viability is explicitly stated in CPGATE, marker(s) used to designate viability are included in CPGATDEF. For example, if the value in CPGATE is \"Lymphocytes, Viable\" and 7AAD- was used to define the viable state, 7AAD- is included in CPGATDEF, in addition to being included in the complete marker string in CPMRKSTR.", "score": 0.5619, "match_basis": "verbatim_token+domain_route:CP"}, {"md_atom_id": "md_dmCP_assn_a019", "md_file": "knowledge_base/domains/CP/assumptions.md", "md_atom_type": "LIST_ITEM", "md_parent_section": "§CP [CP — Assumptions]", "md_verbatim": "   a. Because the majority of cell phenotyping tests of interest are for viable cells, the word \"Viable\" is not generally included in the test name (CPTEST) and usually does not need to be explicitly stated in CPCELSTA. Because populating CPCELSTA and CSMRKS with viability information necessitates appending the \"Sub\" suffix to the value in CPTEST (assumption 5), it is recommended that CPCELSTA and CPCSMRKS generally not be used unless a selective viability stain was included in the test in order to differentiate the record for viable cells from record(s) for cells in a different vital state. For example, when viable cells are being compared to apoptotic and/or non-viable cells, it is necessary to differentiate those records using CPCELSTA and CPCSMRKS. In such cases where CPCELSTA and CPCSMRKS are populated, the \"Sub\" suffix is appended to the value in CPTEST (assumption 5).", "score": 0.5445, "match_basis": "verbatim_token+domain_route:CP"}], "candidate_count": 5, "zero_candidate": false}
{"pdf_atom_id": "ig34_p0211_a005", "pdf_atom_type": "LIST_ITEM", "pdf_source": "SDTMIG_v3.4", "pdf_page": 211, "pdf_parent_section": "§6.3.5.3 Cell Phenotype Findings (CP)", "pdf_verbatim": "Rows 3-4: Illustrate using CPCELSTA and CPCSMRKS to provide (1) the cell state descriptor in CPCELSTA, and (2) the markers used to define the cell state in CPCSMRKS. These variables further define CPTEST to be a subset of cells named in CPTEST, therefore the suffix \"Sub\" is appended to the value in CPTEST. In this example, the sponsor is interested in contrasting viable cells with those in the process of dying (non-viable), so each population is reported and the records differentiated using CPCELSTA and CPCSMRKS.", "figure_ref": null, "candidates": [{"md_atom_id": "md_dmCP_ex_a046", "md_file": "knowledge_base/domains/CP/examples.md", "md_atom_type": "SENTENCE", "md_parent_section": "§CP.2 [Example 2]", "md_verbatim": "**Rows 3-4:** Illustrate using CPCELSTA and CPCSMRKS to provide (1) the cell state descriptor in CPCELSTA, and (2) the markers used to define the cell state in CPCSMRKS. These variables further define CPTEST to be a subset of cells named in CPTEST; therefore the suffix \"Sub\" is appended to the value in CPTEST. In this example, the sponsor is interested in contrasting viable cells with those in the process of dying (non-viable), so each population is reported and the records differentiated using CPCELSTA and CPCSMRKS.", "score": 0.91, "match_basis": "verbatim_token+domain_route:CP"}, {"md_atom_id": "md_dmCP_assn_a019", "md_file": "knowledge_base/domains/CP/assumptions.md", "md_atom_type": "LIST_ITEM", "md_parent_section": "§CP [CP — Assumptions]", "md_verbatim": "   a. Because the majority of cell phenotyping tests of interest are for viable cells, the word \"Viable\" is not generally included in the test name (CPTEST) and usually does not need to be explicitly stated in CPCELSTA. Because populating CPCELSTA and CSMRKS with viability information necessitates appending the \"Sub\" suffix to the value in CPTEST (assumption 5), it is recommended that CPCELSTA and CPCSMRKS generally not be used unless a selective viability stain was included in the test in order to differentiate the record for viable cells from record(s) for cells in a different vital state. For example, when viable cells are being compared to apoptotic and/or non-viable cells, it is necessary to differentiate those records using CPCELSTA and CPCSMRKS. In such cases where CPCELSTA and CPCSMRKS are populated, the \"Sub\" suffix is appended to the value in CPTEST (assumption 5).", "score": 0.6, "match_basis": "verbatim_token+domain_route:CP"}, {"md_atom_id": "md_dmCP_assn_a025", "md_file": "knowledge_base/domains/CP/assumptions.md", "md_atom_type": "LIST_ITEM", "md_parent_section": "§CP [CP — Assumptions]", "md_verbatim": "   d. The order of markers within a string is consistent across similar tests, generally proceeding in the order that defines the cell hierarchy from highest to lowest, followed by additional non-lineage-defining markers, and ending with cell state and viability markers. This order maintains alignment with how a test is identified using the ordered combination of CPTEST, CPSMRKS, and CPCELSTA. For example, a test for proliferating viable activated central memory helper T-lymphocytes would be operationally defined in CPMRKSTR as similar to \"CD45+CD3+CD19-CD4+CD8-CD197+CD45RA-CD278+Ki67+7AAD-\", where the order of markers in the string is \"CD45\" (leukocyte), \"CD3+CD19-\" (T lymphocyte), \"CD4+CD8-\" (helper), \"CD197+CD45RA-\" (central memory), \"CD278+\" (activated), Ki67+ (proliferating), 7AAD- (viable). Corresponding to this marker-based definition of the test, and using the appropriate Controlled Terminology terms, CPTEST is \"TLym Help Cen Mem Sub\", CPCELSTA is \"ACTIVATED; PROLIFERATING\", and CPCSMRKS is \"CD278+Ki67+\". If the sponsor also chose to include the viability status as a cell state in addition to the activation and proliferative states, CPCELSTA would be similar to \"ACTIVATED; PROLIFERATING; VIABLE\" and the corresponding CPCSMRKS value would be \"CD278+Ki67+7AAD-\". In this example, the named cell population in CPTEST has not been further divided into an unnamed sublineage based on additional sublineage markers; therefore, CPSBMRKS is null.", "score": 0.5752, "match_basis": "verbatim_token+domain_route:CP"}, {"md_atom_id": "md_dmCP_assn_a006", "md_file": "knowledge_base/domains/CP/assumptions.md", "md_atom_type": "LIST_ITEM", "md_parent_section": "§CP [CP — Assumptions]", "md_verbatim": "5. The combination of values in CPTEST, CPSBMRKS, CPCELSTA, and CPCSMRKS are used to uniquely identify a test. When 1 or more of the variables CPSBMRKS, CPCELSTA, or CPCSMRKS are populated, the Test Name (CPTEST) must be populated with the test name variant containing the \"Sub\" suffix to indicate that the finding/result pertains to a subpopulation of the cell type named in CPTEST.", "score": 0.569, "match_basis": "verbatim_token+domain_route:CP"}, {"md_atom_id": "md_dmCP_assn_a026", "md_file": "knowledge_base/domains/CP/assumptions.md", "md_atom_type": "LIST_ITEM", "md_parent_section": "§CP [CP — Assumptions]", "md_verbatim": "   e. Forward (FSC) and Side (SSC) light scatter: These parameters are generally used to perform initial gating to exclude debris non-singlets and are often reapplied to differentiate cell subpopulations in the \"inclusion\" gate. However, FSC and SSC are often not included in marker string definitions as it is generally taken for granted that they were used. In contrast, they are usually included in a descriptions of a gating strategy, and would generally be included in CPGATDEF when the full gating strategy is shown. Labs/sponsors may choose whether to include FSC and SSC parameters in CPMRKSTR. It is recommended to include them when they are needed to differentiate one test from another. For example, because there is no universal expression marker specific for lymphocytes, FSC and SSC are used to define the lymphocyte subpopulation within a CD45+ leukocyte population. A test of \"Lymphocytes/Leukocytes\" defined only in terms of CD45 expression would not make sense as it would be \"CD45+/CD45+\". In this case, it makes sense to define lymphocytes as \"CD45+SSClo\" so that the value in CPMRKSTR is \"CD45+SSClo/CD45+\".", "score": 0.5684, "match_basis": "verbatim_token+domain_route:CP"}], "candidate_count": 5, "zero_candidate": false}
{"pdf_atom_id": "ig34_p0211_a006", "pdf_atom_type": "LIST_ITEM", "pdf_source": "SDTMIG_v3.4", "pdf_page": 211, "pdf_parent_section": "§6.3.5.3 Cell Phenotype Findings (CP)", "pdf_verbatim": "Rows 5-6: Illustrate using CPCELSTA and CPCSMRKS for the apoptotic cell state. The sponsor is reporting the apoptotic lymphocyte subpopulation, both as a cell count (row 5) and as a percentage of total lymphocytes (row 6). The apoptotic cell state in CPCELSTA is defined as cells that are ANXV+ in CPCSMRKS. As in rows 3 and 4, the suffix \"Sub\" is added to the value in CPTEST to indicate that it is a subpopulation of lymphocytes (i.e., apoptotic) being measured.", "figure_ref": null, "candidates": [{"md_atom_id": "md_dmCP_ex_a047", "md_file": "knowledge_base/domains/CP/examples.md", "md_atom_type": "SENTENCE", "md_parent_section": "§CP.2 [Example 2]", "md_verbatim": "**Rows 5-6:** Illustrate using CPCELSTA and CPCSMRKS for the apoptotic lymphocyte subpopulation, both as a cell count (row 5) and as a percentage of total lymphocytes (row 6). The apoptotic cell state in CPCELSTA is defined as cells that are ANXV+ in CPCSMRKS. As in rows 3 and 4, the suffix \"Sub\" is added to the value of CPTEST to indicate it is a subpopulation of lymphocytes (i.e., apoptotic, being defined).", "score": 0.8236, "match_basis": "verbatim_token+domain_route:CP"}, {"md_atom_id": "md_dmCP_assn_a006", "md_file": "knowledge_base/domains/CP/assumptions.md", "md_atom_type": "LIST_ITEM", "md_parent_section": "§CP [CP — Assumptions]", "md_verbatim": "5. The combination of values in CPTEST, CPSBMRKS, CPCELSTA, and CPCSMRKS are used to uniquely identify a test. When 1 or more of the variables CPSBMRKS, CPCELSTA, or CPCSMRKS are populated, the Test Name (CPTEST) must be populated with the test name variant containing the \"Sub\" suffix to indicate that the finding/result pertains to a subpopulation of the cell type named in CPTEST.", "score": 0.5719, "match_basis": "verbatim_token+domain_route:CP"}, {"md_atom_id": "md_dmCP_assn_a019", "md_file": "knowledge_base/domains/CP/assumptions.md", "md_atom_type": "LIST_ITEM", "md_parent_section": "§CP [CP — Assumptions]", "md_verbatim": "   a. Because the majority of cell phenotyping tests of interest are for viable cells, the word \"Viable\" is not generally included in the test name (CPTEST) and usually does not need to be explicitly stated in CPCELSTA. Because populating CPCELSTA and CSMRKS with viability information necessitates appending the \"Sub\" suffix to the value in CPTEST (assumption 5), it is recommended that CPCELSTA and CPCSMRKS generally not be used unless a selective viability stain was included in the test in order to differentiate the record for viable cells from record(s) for cells in a different vital state. For example, when viable cells are being compared to apoptotic and/or non-viable cells, it is necessary to differentiate those records using CPCELSTA and CPCSMRKS. In such cases where CPCELSTA and CPCSMRKS are populated, the \"Sub\" suffix is appended to the value in CPTEST (assumption 5).", "score": 0.5308, "match_basis": "verbatim_token+domain_route:CP"}, {"md_atom_id": "md_dmCP_assn_a020", "md_file": "knowledge_base/domains/CP/assumptions.md", "md_atom_type": "LIST_ITEM", "md_parent_section": "§CP [CP — Assumptions]", "md_verbatim": "   b. Viability marker(s) used to define a test are included in the full marker string in CPMRKSTR regardless of whether the viability status is stated explicitly in CPCELSTA. Moreover, if viability is explicitly stated in CPGATE, marker(s) used to designate viability are included in CPGATDEF. For example, if the value in CPGATE is \"Lymphocytes, Viable\" and 7AAD- was used to define the viable state, 7AAD- is included in CPGATDEF, in addition to being included in the complete marker string in CPMRKSTR.", "score": 0.517, "match_basis": "verbatim_token+domain_route:CP"}, {"md_atom_id": "md_dmCP_assn_a009", "md_file": "knowledge_base/domains/CP/assumptions.md", "md_atom_type": "LIST_ITEM", "md_parent_section": "§CP [CP — Assumptions]", "md_verbatim": "      i. CPTEST is populated with the name of the cell type being measured, not with the set of markers used to define the cell type.", "score": 0.5164, "match_basis": "verbatim_token+domain_route:CP"}], "candidate_count": 5, "zero_candidate": false}
{"pdf_atom_id": "ig34_p0211_a007", "pdf_atom_type": "LIST_ITEM", "pdf_source": "SDTMIG_v3.4", "pdf_page": 211, "pdf_parent_section": "§6.3.5.3 Cell Phenotype Findings (CP)", "pdf_verbatim": "Rows 7-8: Illustrate using CPTEST, CPCELSTA, and CPCSMRKS variables to present findings when the cell population has more than a single cell state of interest (e.g., both viable and apoptotic). In this case, viability marker 7AAD is used in combination with apoptosis marker ANXV.", "figure_ref": null, "candidates": [{"md_atom_id": "md_dmCP_ex_a048", "md_file": "knowledge_base/domains/CP/examples.md", "md_atom_type": "SENTENCE", "md_parent_section": "§CP.2 [Example 2]", "md_verbatim": "**Rows 7-8:** Illustrate using CPTEST, CPCELSTA, and CPCSMRKS variables to present findings when the cell population has more than a single cell state of interest (e.g., both viable and apoptotic). In this case, viability marker 7AAD is used in combination with apoptosis marker ANXV.", "score": 0.91, "match_basis": "verbatim_token+domain_route:CP"}, {"md_atom_id": "md_dmCP_assn_a006", "md_file": "knowledge_base/domains/CP/assumptions.md", "md_atom_type": "LIST_ITEM", "md_parent_section": "§CP [CP — Assumptions]", "md_verbatim": "5. The combination of values in CPTEST, CPSBMRKS, CPCELSTA, and CPCSMRKS are used to uniquely identify a test. When 1 or more of the variables CPSBMRKS, CPCELSTA, or CPCSMRKS are populated, the Test Name (CPTEST) must be populated with the test name variant containing the \"Sub\" suffix to indicate that the finding/result pertains to a subpopulation of the cell type named in CPTEST.", "score": 0.6098, "match_basis": "verbatim_token+domain_route:CP"}, {"md_atom_id": "md_dmCP_assn_a019", "md_file": "knowledge_base/domains/CP/assumptions.md", "md_atom_type": "LIST_ITEM", "md_parent_section": "§CP [CP — Assumptions]", "md_verbatim": "   a. Because the majority of cell phenotyping tests of interest are for viable cells, the word \"Viable\" is not generally included in the test name (CPTEST) and usually does not need to be explicitly stated in CPCELSTA. Because populating CPCELSTA and CSMRKS with viability information necessitates appending the \"Sub\" suffix to the value in CPTEST (assumption 5), it is recommended that CPCELSTA and CPCSMRKS generally not be used unless a selective viability stain was included in the test in order to differentiate the record for viable cells from record(s) for cells in a different vital state. For example, when viable cells are being compared to apoptotic and/or non-viable cells, it is necessary to differentiate those records using CPCELSTA and CPCSMRKS. In such cases where CPCELSTA and CPCSMRKS are populated, the \"Sub\" suffix is appended to the value in CPTEST (assumption 5).", "score": 0.556, "match_basis": "verbatim_token+domain_route:CP"}, {"md_atom_id": "md_dmCP_assn_a025", "md_file": "knowledge_base/domains/CP/assumptions.md", "md_atom_type": "LIST_ITEM", "md_parent_section": "§CP [CP — Assumptions]", "md_verbatim": "   d. The order of markers within a string is consistent across similar tests, generally proceeding in the order that defines the cell hierarchy from highest to lowest, followed by additional non-lineage-defining markers, and ending with cell state and viability markers. This order maintains alignment with how a test is identified using the ordered combination of CPTEST, CPSMRKS, and CPCELSTA. For example, a test for proliferating viable activated central memory helper T-lymphocytes would be operationally defined in CPMRKSTR as similar to \"CD45+CD3+CD19-CD4+CD8-CD197+CD45RA-CD278+Ki67+7AAD-\", where the order of markers in the string is \"CD45\" (leukocyte), \"CD3+CD19-\" (T lymphocyte), \"CD4+CD8-\" (helper), \"CD197+CD45RA-\" (central memory), \"CD278+\" (activated), Ki67+ (proliferating), 7AAD- (viable). Corresponding to this marker-based definition of the test, and using the appropriate Controlled Terminology terms, CPTEST is \"TLym Help Cen Mem Sub\", CPCELSTA is \"ACTIVATED; PROLIFERATING\", and CPCSMRKS is \"CD278+Ki67+\". If the sponsor also chose to include the viability status as a cell state in addition to the activation and proliferative states, CPCELSTA would be similar to \"ACTIVATED; PROLIFERATING; VIABLE\" and the corresponding CPCSMRKS value would be \"CD278+Ki67+7AAD-\". In this example, the named cell population in CPTEST has not been further divided into an unnamed sublineage based on additional sublineage markers; therefore, CPSBMRKS is null.", "score": 0.5341, "match_basis": "verbatim_token+domain_route:CP"}, {"md_atom_id": "md_dmCP_assn_a020", "md_file": "knowledge_base/domains/CP/assumptions.md", "md_atom_type": "LIST_ITEM", "md_parent_section": "§CP [CP — Assumptions]", "md_verbatim": "   b. Viability marker(s) used to define a test are included in the full marker string in CPMRKSTR regardless of whether the viability status is stated explicitly in CPCELSTA. Moreover, if viability is explicitly stated in CPGATE, marker(s) used to designate viability are included in CPGATDEF. For example, if the value in CPGATE is \"Lymphocytes, Viable\" and 7AAD- was used to define the viable state, 7AAD- is included in CPGATDEF, in addition to being included in the complete marker string in CPMRKSTR.", "score": 0.534, "match_basis": "verbatim_token+domain_route:CP"}], "candidate_count": 5, "zero_candidate": false}
{"pdf_atom_id": "ig34_p0211_a008", "pdf_atom_type": "LIST_ITEM", "pdf_source": "SDTMIG_v3.4", "pdf_page": 211, "pdf_parent_section": "§6.3.5.3 Cell Phenotype Findings (CP)", "pdf_verbatim": "Rows 9-11: Illustrate a need to pre-coordinate information into the test name when the test incorporates results from two or more records (e.g., a ratio) in which key component(s) of the test are split across multiple variables. In the example, rows 9 and 10 use the CPCELSTA variable to indicate that the measured lymphocyte subpopulation includes only viable cells (row 9) or dying (non-viable cells, row 10). The ratio of viable to nonviable lymphocytes in row 11 is calculated using data from rows 9 and 10.", "figure_ref": null, "candidates": [{"md_atom_id": "md_dmCP_ex_a049", "md_file": "knowledge_base/domains/CP/examples.md", "md_atom_type": "SENTENCE", "md_parent_section": "§CP.2 [Example 2]", "md_verbatim": "**Rows 9-11:** Illustrate a need to pre-coordinate information into the test name when the test incorporates results from two or more records (e.g., a ratio) in which key component(s) of the test are split across multiple variables. In the example, rows 9 and 10 use the CPCELSTA variable to indicate that the measured lymphocyte subpopulation includes only viable cells (row 9) or dying (non-viable cells, row 10). The ratio of viable to nonviable lymphocytes in row 11 is calculated using data from rows 9 and 10.", "score": 0.91, "match_basis": "verbatim_token+domain_route:CP"}, {"md_atom_id": "md_dmCP_assn_a006", "md_file": "knowledge_base/domains/CP/assumptions.md", "md_atom_type": "LIST_ITEM", "md_parent_section": "§CP [CP — Assumptions]", "md_verbatim": "5. The combination of values in CPTEST, CPSBMRKS, CPCELSTA, and CPCSMRKS are used to uniquely identify a test. When 1 or more of the variables CPSBMRKS, CPCELSTA, or CPCSMRKS are populated, the Test Name (CPTEST) must be populated with the test name variant containing the \"Sub\" suffix to indicate that the finding/result pertains to a subpopulation of the cell type named in CPTEST.", "score": 0.5636, "match_basis": "verbatim_token+domain_route:CP"}, {"md_atom_id": "md_dmCP_assn_a019", "md_file": "knowledge_base/domains/CP/assumptions.md", "md_atom_type": "LIST_ITEM", "md_parent_section": "§CP [CP — Assumptions]", "md_verbatim": "   a. Because the majority of cell phenotyping tests of interest are for viable cells, the word \"Viable\" is not generally included in the test name (CPTEST) and usually does not need to be explicitly stated in CPCELSTA. Because populating CPCELSTA and CSMRKS with viability information necessitates appending the \"Sub\" suffix to the value in CPTEST (assumption 5), it is recommended that CPCELSTA and CPCSMRKS generally not be used unless a selective viability stain was included in the test in order to differentiate the record for viable cells from record(s) for cells in a different vital state. For example, when viable cells are being compared to apoptotic and/or non-viable cells, it is necessary to differentiate those records using CPCELSTA and CPCSMRKS. In such cases where CPCELSTA and CPCSMRKS are populated, the \"Sub\" suffix is appended to the value in CPTEST (assumption 5).", "score": 0.5573, "match_basis": "verbatim_token+domain_route:CP"}, {"md_atom_id": "md_dmCP_assn_a003", "md_file": "knowledge_base/domains/CP/assumptions.md", "md_atom_type": "LIST_ITEM", "md_parent_section": "§CP [CP — Assumptions]", "md_verbatim": "2. The CP domain is only used for tests which include a phenotyping component that relies on using cell markers to identify a specific population of cells (e.g., quantitative cell phenotyping), or on which the test is conducted (e.g., quantitative single marker expression, target/receptor occupancy). For example, a test which measures gamma-interferon expression in helper T lymphocytes defined as the CD45+CD3+CD4+CD8- population is an appropriate test for including in CP, whereas a test which measures gamma interferon secretion in an undefined \"PBMC\" (peripheral blood mononuclear cell) population is not appropriate.", "score": 0.5415, "match_basis": "verbatim_token+domain_route:CP"}, {"md_atom_id": "md_dmCP_assn_a020", "md_file": "knowledge_base/domains/CP/assumptions.md", "md_atom_type": "LIST_ITEM", "md_parent_section": "§CP [CP — Assumptions]", "md_verbatim": "   b. Viability marker(s) used to define a test are included in the full marker string in CPMRKSTR regardless of whether the viability status is stated explicitly in CPCELSTA. Moreover, if viability is explicitly stated in CPGATE, marker(s) used to designate viability are included in CPGATDEF. For example, if the value in CPGATE is \"Lymphocytes, Viable\" and 7AAD- was used to define the viable state, 7AAD- is included in CPGATDEF, in addition to being included in the complete marker string in CPMRKSTR.", "score": 0.536, "match_basis": "verbatim_token+domain_route:CP"}], "candidate_count": 5, "zero_candidate": false}
{"pdf_atom_id": "ig34_p0211_a009", "pdf_atom_type": "SENTENCE", "pdf_source": "SDTMIG_v3.4", "pdf_page": 211, "pdf_parent_section": "§6.3.5.3 Cell Phenotype Findings (CP)", "pdf_verbatim": "Because the ratio in row 11 is based on counts of both the viable (row 9) and the non-viable (row 10) lymphocyte subpopulations, it is not appropriate to use the CPCELSTA variable. Instead, the viability information is pre-coordinated into the value in CPTEST. Additionally, because the cell state (i.e., \"VIABLE\" or \"NON-VIABLE\") is pre-coordinated into the Test Name in row 11, the suffix \"Sub\" is no longer needed in CPTEST (i.e., the Test Name is \"Lymphocytes Viable/Lymphocytes NonViable\" rather than \"Lymphocytes Sub Viable/Lymphocytes Sub NonViable\". CPGRPID is used to group the related records for the ratio (row 11) with those used to calculate it (rows 9 and 10).", "figure_ref": null, "candidates": [{"md_atom_id": "md_dmCP_ex_a049", "md_file": "knowledge_base/domains/CP/examples.md", "md_atom_type": "SENTENCE", "md_parent_section": "§CP.2 [Example 2]", "md_verbatim": "**Rows 9-11:** Illustrate a need to pre-coordinate information into the test name when the test incorporates results from two or more records (e.g., a ratio) in which key component(s) of the test are split across multiple variables. In the example, rows 9 and 10 use the CPCELSTA variable to indicate that the measured lymphocyte subpopulation includes only viable cells (row 9) or dying (non-viable cells, row 10). The ratio of viable to nonviable lymphocytes in row 11 is calculated using data from rows 9 and 10.", "score": 0.6, "match_basis": "verbatim_token+domain_route:CP"}, {"md_atom_id": "md_dmCP_ex_a059", "md_file": "knowledge_base/domains/CP/examples.md", "md_atom_type": "SENTENCE", "md_parent_section": "§CP.3 [Example 3]", "md_verbatim": "**Row 12:** Demonstrates how CPSBMRKS, CPCELSTA, and CPCSMRKS work in combination with CPTEST to further define cell subpopulations based on any additional sublineage and cell state markers. The model allows for many combinations of values using these variables, thereby providing the flexibility to precisely specify a test. In all cases, the full complement of markers used for a test are populated into the CPMRKSTR variable.", "score": 0.5714, "match_basis": "verbatim_token+domain_route:CP"}, {"md_atom_id": "md_dmCP_ex_a046", "md_file": "knowledge_base/domains/CP/examples.md", "md_atom_type": "SENTENCE", "md_parent_section": "§CP.2 [Example 2]", "md_verbatim": "**Rows 3-4:** Illustrate using CPCELSTA and CPCSMRKS to provide (1) the cell state descriptor in CPCELSTA, and (2) the markers used to define the cell state in CPCSMRKS. These variables further define CPTEST to be a subset of cells named in CPTEST; therefore the suffix \"Sub\" is appended to the value in CPTEST. In this example, the sponsor is interested in contrasting viable cells with those in the process of dying (non-viable), so each population is reported and the records differentiated using CPCELSTA and CPCSMRKS.", "score": 0.5616, "match_basis": "verbatim_token+domain_route:CP"}, {"md_atom_id": "md_dmCP_ex_a047", "md_file": "knowledge_base/domains/CP/examples.md", "md_atom_type": "SENTENCE", "md_parent_section": "§CP.2 [Example 2]", "md_verbatim": "**Rows 5-6:** Illustrate using CPCELSTA and CPCSMRKS for the apoptotic lymphocyte subpopulation, both as a cell count (row 5) and as a percentage of total lymphocytes (row 6). The apoptotic cell state in CPCELSTA is defined as cells that are ANXV+ in CPCSMRKS. As in rows 3 and 4, the suffix \"Sub\" is added to the value of CPTEST to indicate it is a subpopulation of lymphocytes (i.e., apoptotic, being defined).", "score": 0.5614, "match_basis": "verbatim_token+domain_route:CP"}, {"md_atom_id": "md_dmCP_ex_a054", "md_file": "knowledge_base/domains/CP/examples.md", "md_atom_type": "SENTENCE", "md_parent_section": "§CP.3 [Example 3]", "md_verbatim": "**Rows 1-3:** Show use of CPCELSTA and CPCSMRKS to further subset the named cell population in CPTEST. In row 1, the total monocyte population, based on expression of CD14, is measured without any further subsetting. Rows 2 and 3 show that the monocyte population is further subdivided, based on the cell state, into \"proliferating\" and \"non-proliferating\" subpopulations as indicated by CPCELSTA value. The value \"Monocytes\" in CPTEST for these rows is appended with \"Sub\" to \"Monocytes Sub\" to indicate that the second record pertains to a subpopulation of monocytes (i.e., proliferating or non-proliferating). CPCSMRKS is used to indicate that positive expression of the Ki67 marker (i.e., Ki67+) is used to identify the proliferating subpopulation and cells that do not express the Ki67 marker (i.e., Ki67-) is used to identify the non-proliferating subpopulation.", "score": 0.5582, "match_basis": "verbatim_token+domain_route:CP"}], "candidate_count": 5, "zero_candidate": false}
{"pdf_atom_id": "ig34_p0211_a010", "pdf_atom_type": "CODE_LITERAL", "pdf_source": "SDTMIG_v3.4", "pdf_page": 211, "pdf_parent_section": "§6.3.5.3 Cell Phenotype Findings (CP)", "pdf_verbatim": "cp.xpt", "figure_ref": null, "candidates": [{"md_atom_id": "md_dmCP_ex_a015", "md_file": "knowledge_base/domains/CP/examples.md", "md_atom_type": "SENTENCE", "md_parent_section": "§CP.1.a [Example 1a]", "md_verbatim": "**cp.xpt**", "score": 0.79, "match_basis": "verbatim_token+domain_route:CP"}, {"md_atom_id": "md_dmCP_ex_a037", "md_file": "knowledge_base/domains/CP/examples.md", "md_atom_type": "SENTENCE", "md_parent_section": "§CP.1.b [Example 1b]", "md_verbatim": "**cp.xpt**", "score": 0.79, "match_basis": "verbatim_token+domain_route:CP"}, {"md_atom_id": "md_dmCP_ex_a086", "md_file": "knowledge_base/domains/CP/examples.md", "md_atom_type": "SENTENCE", "md_parent_section": "§CP.7 [Example 7]", "md_verbatim": "*(cp.xpt table contains 3 rows with columns including CPBDAGNT, CPGATE, CPGATDEF.)*", "score": 0.2054, "match_basis": "verbatim_token+domain_route:CP"}, {"md_atom_id": "md_dmCP_ex_a079", "md_file": "knowledge_base/domains/CP/examples.md", "md_atom_type": "SENTENCE", "md_parent_section": "§CP.6 [Example 6]", "md_verbatim": "*(cp.xpt table contains 32 rows with extensive use of CPSPTSTD and marker string variables.)*", "score": 0.2043, "match_basis": "verbatim_token+domain_route:CP"}, {"md_atom_id": "md_dmCP_ex_a094", "md_file": "knowledge_base/domains/CP/examples.md", "md_atom_type": "SENTENCE", "md_parent_section": "§CP.8 [Example 8]", "md_verbatim": "*(cp.xpt table contains 11 rows with columns including CPBDAGNT, CPTSTCND, CPREPNUM, CPCOLSRT.)*", "score": 0.2022, "match_basis": "verbatim_token+domain_route:CP"}, {"md_atom_id": "md_dmCP_ex_a066", "md_file": "knowledge_base/domains/CP/examples.md", "md_atom_type": "SENTENCE", "md_parent_section": "§CP.4 [Example 4]", "md_verbatim": "*(cp.xpt table contains 7 rows with columns including CPTSTCND, CPCNDAGT, CPREPNUM, CPCOLSRT, CPANMETH.)*", "score": 0.2013, "match_basis": "verbatim_token+domain_route:CP"}, {"md_atom_id": "md_dmCP_ex_a071", "md_file": "knowledge_base/domains/CP/examples.md", "md_atom_type": "SENTENCE", "md_parent_section": "§CP.5 [Example 5]", "md_verbatim": "*(cp.xpt table contains 8 rows with columns including CPGATE, CPGATDEF, and detailed marker string information.)*", "score": 0.2009, "match_basis": "verbatim_token+domain_route:CP"}, {"md_atom_id": "md_dmCP_ex_a060", "md_file": "knowledge_base/domains/CP/examples.md", "md_atom_type": "SENTENCE", "md_parent_section": "§CP.3 [Example 3]", "md_verbatim": "*(Due to extreme table width, the cp.xpt table for this example contains 12 rows of data with columns including CPSBMRKS, CPCELSTA, CPCSMRKS, CPGRPID, and other standard CP variables.)*", "score": 0.1977, "match_basis": "verbatim_token+domain_route:CP"}, {"md_atom_id": "md_dmCP_ex_a100", "md_file": "knowledge_base/domains/CP/examples.md", "md_atom_type": "SENTENCE", "md_parent_section": "§CP.9 [Example 9]", "md_verbatim": "*(cp.xpt table contains 14 rows illustrating indirect receptor occupancy detection with multiple binding agents, assay conditions, and calculated results.)*", "score": 0.1975, "match_basis": "verbatim_token+domain_route:CP"}, {"md_atom_id": "md_dmCP_ex_a050", "md_file": "knowledge_base/domains/CP/examples.md", "md_atom_type": "SENTENCE", "md_parent_section": "§CP.2 [Example 2]", "md_verbatim": "*(Due to extreme table width, the cp.xpt table for this example contains columns: Row, STUDYID, DOMAIN, USUBJID, CPSEQ, CPGRPID, CPTESTCD, CPTEST, CPSBMRKS, CPCELSTA, CPCSMRKS, CPGATE, CPGATDEF, CPCAT, CPORRES, CPORRESU, CPSTRESC, CPSTRESN, CPRESU, CPRESSCL, CPRESTYP, CPMETHOD, CPSPEC, CPDTC — with 11 rows of data.)*", "score": 0.1951, "match_basis": "verbatim_token+domain_route:CP"}], "candidate_count": 10, "zero_candidate": false}
{"pdf_atom_id": "ig34_p0211_a011", "pdf_atom_type": "TABLE_HEADER", "pdf_source": "SDTMIG_v3.4", "pdf_page": 211, "pdf_parent_section": "§6.3.5.3 Cell Phenotype Findings (CP)", "pdf_verbatim": "| Row | STUDYID | DOMAIN | USUBJID | CPSEQ | CPGRPID | CPTESTCD | CPTEST | CPCELSTA | CPCSMRKS | CPMRKSTR | CPGATE | CPGATDEF | CPCAT | CPTSTPNL | CPORRES | CPORRESU | CPSTRESC | CPSTRESU | CPSTRESN | CPRESSCL | CPRESTYP | CPSPEC | CPMETHOD | CPDTC |", "figure_ref": null, "candidates": [{"md_atom_id": "md_dmCP_ex_a038", "md_file": "knowledge_base/domains/CP/examples.md", "md_atom_type": "TABLE_HEADER", "md_parent_section": "§CP.1.b [Example 1b]", "md_verbatim": "| Row | STUDYID | DOMAIN | USUBJID | CPSEQ | CPTESTCD | CPTEST | CPMRKSTR | CPGATE | CPGATDEF | CPCAT | CPORRES | CPORRESU | CPSTRESC | CPSTRESN | CPRESU | CPRESSCL | CPRESTYP | CPMETHOD | CPSPEC | CPDTC |\n|-----|---------|--------|---------|-------|----------|--------|----------|--------|----------|-------|---------|----------|----------|----------|--------|----------|----------|----------|--------|-------|", "score": 0.88, "match_basis": "verbatim_token+domain_route:CP"}, {"md_atom_id": "md_dmCP_ex_a016", "md_file": "knowledge_base/domains/CP/examples.md", "md_atom_type": "TABLE_HEADER", "md_parent_section": "§CP.1.a [Example 1a]", "md_verbatim": "| Row | STUDYID | DOMAIN | USUBJID | CPSEQ | CPTESTCD | CPTEST | CPMRKSTR | CPCAT | CPORRES | CPORRESU | CPSTRESC | CPSTRESN | CPRESU | CPRESSCL | CPRESTYP | CPSPEC | CPMETHOD | CPDTC |\n|-----|---------|--------|---------|-------|----------|--------|----------|-------|---------|----------|----------|----------|--------|----------|----------|--------|----------|-------|", "score": 0.8306, "match_basis": "verbatim_token+domain_route:CP"}, {"md_atom_id": "md_dmCP_ex_a050", "md_file": "knowledge_base/domains/CP/examples.md", "md_atom_type": "SENTENCE", "md_parent_section": "§CP.2 [Example 2]", "md_verbatim": "*(Due to extreme table width, the cp.xpt table for this example contains columns: Row, STUDYID, DOMAIN, USUBJID, CPSEQ, CPGRPID, CPTESTCD, CPTEST, CPSBMRKS, CPCELSTA, CPCSMRKS, CPGATE, CPGATDEF, CPCAT, CPORRES, CPORRESU, CPSTRESC, CPSTRESN, CPRESU, CPRESSCL, CPRESTYP, CPMETHOD, CPSPEC, CPDTC — with 11 rows of data.)*", "score": 0.5674, "match_basis": "verbatim_token+domain_route:CP"}, {"md_atom_id": "md_dmCP_ex_a021", "md_file": "knowledge_base/domains/CP/examples.md", "md_atom_type": "TABLE_ROW", "md_parent_section": "§CP.1.a [Example 1a]", "md_verbatim": "| 5 | ABCD | CP | ABCD-001-001 | 5 | BLYCELY | B-Lymphocytes/Lymphocytes | CD45+CD3-CD19+CD14-CD56-/CD45+FSC SSC | IMMUNOPHENOTYPING | 6.1 | % | 6.1 | 6.1 | | QUANTITATIVE | NUMBER FRACTION | BLOOD | FLOW CYTOMETRY | 2021-08-16T04:20 |", "score": 0.359, "match_basis": "verbatim_token+domain_route:CP"}, {"md_atom_id": "md_dmCP_ex_a031", "md_file": "knowledge_base/domains/CP/examples.md", "md_atom_type": "TABLE_ROW", "md_parent_section": "§CP.1.a [Example 1a]", "md_verbatim": "| 15 | ABCD | CP | ABCD-001-001 | 15 | NKLE | NK Cells/Leuk | CD45+CD3-CD19-CD14-CD56+FSC SSC/CD45+ | IMMUNOPHENOTYPING | 3.5 | % | 3.5 | 3.5 | | QUANTITATIVE | NUMBER FRACTION | BLOOD | FLOW CYTOMETRY | 2021-08-16T04:20 |", "score": 0.3557, "match_basis": "verbatim_token+domain_route:CP"}], "candidate_count": 5, "zero_candidate": false}
{"pdf_atom_id": "ig34_p0211_a012", "pdf_atom_type": "TABLE_ROW", "pdf_source": "SDTMIG_v3.4", "pdf_page": 211, "pdf_parent_section": "§6.3.5.3 Cell Phenotype Findings (CP)", "pdf_verbatim": "| 1 | IM001-123 | CP | 0005 00542 | 1 |  | LYM | Lymphocytes |  |  | CD45+FSC SSC | LEUK | CD45+ | IMMUNOPHENOTYPING | LYM APOPTOSIS COUNT | 3500 | 10^6/L | 3500 | 10^6/L | 3500 | QUANTITATIVE | NUMBER CONCENTRATION | BLOOD | FLOW CYTOMETRY | 2020-08-16T12:20 |", "figure_ref": null, "candidates": [{"md_atom_id": "md_dmCP_ex_a040", "md_file": "knowledge_base/domains/CP/examples.md", "md_atom_type": "TABLE_ROW", "md_parent_section": "§CP.1.b [Example 1b]", "md_verbatim": "| 2 | ABCD | CP | ABCD-001-001 | 2 | LYM | Lymphocytes | CD45+FSC SSC | LEUK | CD45+ | IMMUNOPHENOTYPING | 1710 | 10^6/L | 1710 | 1710 | 10^6/L | QUANTITATIVE | NUMBER CONCENTRATION | FLOW CYTOMETRY | BLOOD | 2021-08-16T04:20 |", "score": 0.8206, "match_basis": "verbatim_token+domain_route:CP"}, {"md_atom_id": "md_dmCP_ex_a042", "md_file": "knowledge_base/domains/CP/examples.md", "md_atom_type": "TABLE_ROW", "md_parent_section": "§CP.1.b [Example 1b]", "md_verbatim": "| 4 | ABCD | CP | ABCD-001-001 | 4 | LYM | Lymphocytes | CD45+FSC SSC | LEUK | CD45+ | IMMUNOPHENOTYPING | 1710 | 10^6/L | 1710 | 1710 | 10^6/L | QUANTITATIVE | NUMBER CONCENTRATION | FLOW CYTOMETRY | BLOOD | 2021-08-16T04:20 |", "score": 0.8206, "match_basis": "verbatim_token+domain_route:CP"}, {"md_atom_id": "md_dmCP_ex_a018", "md_file": "knowledge_base/domains/CP/examples.md", "md_atom_type": "TABLE_ROW", "md_parent_section": "§CP.1.a [Example 1a]", "md_verbatim": "| 2 | ABCD | CP | ABCD-001-001 | 2 | LYM | Lymphocytes | CD45+FSC SSC | IMMUNOPHENOTYPING | 1710 | 10^6/L | 1710 | 1710 | 10^6/L | QUANTITATIVE | NUMBER CONCENTRATION | BLOOD | FLOW CYTOMETRY | 2021-08-16T04:20 |", "score": 0.8082, "match_basis": "verbatim_token+domain_route:CP"}, {"md_atom_id": "md_dmCP_ex_a039", "md_file": "knowledge_base/domains/CP/examples.md", "md_atom_type": "TABLE_ROW", "md_parent_section": "§CP.1.b [Example 1b]", "md_verbatim": "| 1 | ABCD | CP | ABCD-001-001 | 1 | WBC | Leukocytes | CD45+ | FSC SSC | IMMUNOPHENOTYPING | 6630 | 10^6/L | 6630 | 6630 | 10^6/L | QUANTITATIVE | NUMBER CONCENTRATION | FLOW CYTOMETRY | BLOOD | 2021-08-16T04:20 |", "score": 0.778, "match_basis": "verbatim_token+domain_route:CP"}, {"md_atom_id": "md_dmCP_ex_a017", "md_file": "knowledge_base/domains/CP/examples.md", "md_atom_type": "TABLE_ROW", "md_parent_section": "§CP.1.a [Example 1a]", "md_verbatim": "| 1 | ABCD | CP | ABCD-001-001 | 1 | WBC | Leukocytes | CD45+ | IMMUNOPHENOTYPING | 6630 | 10^6/L | 6630 | 6630 | 10^6/L | QUANTITATIVE | NUMBER CONCENTRATION | BLOOD | FLOW CYTOMETRY | 2021-08-16T04:20 |", "score": 0.766, "match_basis": "verbatim_token+domain_route:CP"}], "candidate_count": 5, "zero_candidate": false}
{"pdf_atom_id": "ig34_p0211_a013", "pdf_atom_type": "TABLE_ROW", "pdf_source": "SDTMIG_v3.4", "pdf_page": 211, "pdf_parent_section": "§6.3.5.3 Cell Phenotype Findings (CP)", "pdf_verbatim": "| 2 | IM001-123 | CP | 0005 00542 | 2 |  | LYM | Lymphocytes |  |  | CD45+7AAD-FSC SSC | LEUK, VIABLE | CD45+7AAD- | IMMUNOPHENOTYPING | LYM APOPTOSIS COUNT | 3325 | 10^6/L | 3325 | 10^6/L | 3325 | QUANTITATIVE | NUMBER CONCENTRATION | BLOOD | FLOW CYTOMETRY | 2020-08-16T12:20 |", "figure_ref": null, "candidates": [{"md_atom_id": "md_dmCP_ex_a040", "md_file": "knowledge_base/domains/CP/examples.md", "md_atom_type": "TABLE_ROW", "md_parent_section": "§CP.1.b [Example 1b]", "md_verbatim": "| 2 | ABCD | CP | ABCD-001-001 | 2 | LYM | Lymphocytes | CD45+FSC SSC | LEUK | CD45+ | IMMUNOPHENOTYPING | 1710 | 10^6/L | 1710 | 1710 | 10^6/L | QUANTITATIVE | NUMBER CONCENTRATION | FLOW CYTOMETRY | BLOOD | 2021-08-16T04:20 |", "score": 0.7961, "match_basis": "verbatim_token+domain_route:CP"}, {"md_atom_id": "md_dmCP_ex_a042", "md_file": "knowledge_base/domains/CP/examples.md", "md_atom_type": "TABLE_ROW", "md_parent_section": "§CP.1.b [Example 1b]", "md_verbatim": "| 4 | ABCD | CP | ABCD-001-001 | 4 | LYM | Lymphocytes | CD45+FSC SSC | LEUK | CD45+ | IMMUNOPHENOTYPING | 1710 | 10^6/L | 1710 | 1710 | 10^6/L | QUANTITATIVE | NUMBER CONCENTRATION | FLOW CYTOMETRY | BLOOD | 2021-08-16T04:20 |", "score": 0.7961, "match_basis": "verbatim_token+domain_route:CP"}, {"md_atom_id": "md_dmCP_ex_a018", "md_file": "knowledge_base/domains/CP/examples.md", "md_atom_type": "TABLE_ROW", "md_parent_section": "§CP.1.a [Example 1a]", "md_verbatim": "| 2 | ABCD | CP | ABCD-001-001 | 2 | LYM | Lymphocytes | CD45+FSC SSC | IMMUNOPHENOTYPING | 1710 | 10^6/L | 1710 | 1710 | 10^6/L | QUANTITATIVE | NUMBER CONCENTRATION | BLOOD | FLOW CYTOMETRY | 2021-08-16T04:20 |", "score": 0.7845, "match_basis": "verbatim_token+domain_route:CP"}, {"md_atom_id": "md_dmCP_ex_a039", "md_file": "knowledge_base/domains/CP/examples.md", "md_atom_type": "TABLE_ROW", "md_parent_section": "§CP.1.b [Example 1b]", "md_verbatim": "| 1 | ABCD | CP | ABCD-001-001 | 1 | WBC | Leukocytes | CD45+ | FSC SSC | IMMUNOPHENOTYPING | 6630 | 10^6/L | 6630 | 6630 | 10^6/L | QUANTITATIVE | NUMBER CONCENTRATION | FLOW CYTOMETRY | BLOOD | 2021-08-16T04:20 |", "score": 0.7566, "match_basis": "verbatim_token+domain_route:CP"}, {"md_atom_id": "md_dmCP_ex_a020", "md_file": "knowledge_base/domains/CP/examples.md", "md_atom_type": "TABLE_ROW", "md_parent_section": "§CP.1.a [Example 1a]", "md_verbatim": "| 4 | ABCD | CP | ABCD-001-001 | 4 | BLYCE | B-Lymphocytes | CD45+CD3-CD19+CD14-CD56- | IMMUNOPHENOTYPING | 104 | 10^6/L | 104 | 104 | 10^6/L | QUANTITATIVE | NUMBER CONCENTRATION | BLOOD | FLOW CYTOMETRY | 2021-08-16T04:20 |", "score": 0.7459, "match_basis": "verbatim_token+domain_route:CP"}], "candidate_count": 5, "zero_candidate": false}
{"pdf_atom_id": "ig34_p0211_a014", "pdf_atom_type": "TABLE_ROW", "pdf_source": "SDTMIG_v3.4", "pdf_page": 211, "pdf_parent_section": "§6.3.5.3 Cell Phenotype Findings (CP)", "pdf_verbatim": "| 3 | IM001-123 | CP | 0005 00542 | 3 | 1 | LYS | Lym Sub | VIABLE | 7AAD- | CD45+7AAD- | LYM | FSC SSC/CD45+ | IMMUNOPHENOTYPING | LYM APOPTOSIS COUNT | 3325 | 10^6/L | 3325 | 10^6/L | 3325 | QUANTITATIVE | NUMBER CONCENTRATION | BLOOD | FLOW CYTOMETRY | 2020-08-16T12:20 |", "figure_ref": null, "candidates": [{"md_atom_id": "md_dmCP_ex_a018", "md_file": "knowledge_base/domains/CP/examples.md", "md_atom_type": "TABLE_ROW", "md_parent_section": "§CP.1.a [Example 1a]", "md_verbatim": "| 2 | ABCD | CP | ABCD-001-001 | 2 | LYM | Lymphocytes | CD45+FSC SSC | IMMUNOPHENOTYPING | 1710 | 10^6/L | 1710 | 1710 | 10^6/L | QUANTITATIVE | NUMBER CONCENTRATION | BLOOD | FLOW CYTOMETRY | 2021-08-16T04:20 |", "score": 0.7437, "match_basis": "verbatim_token+domain_route:CP"}, {"md_atom_id": "md_dmCP_ex_a026", "md_file": "knowledge_base/domains/CP/examples.md", "md_atom_type": "TABLE_ROW", "md_parent_section": "§CP.1.a [Example 1a]", "md_verbatim": "| 10 | ABCD | CP | ABCD-001-001 | 10 | TLC | TLym Cytx | CD45+CD3+CD4-CD8+ | IMMUNOPHENOTYPING | 682 | 10^6/L | 682 | 682 | | QUANTITATIVE | NUMBER CONCENTRATION | BLOOD | FLOW CYTOMETRY | 2021-08-16T04:20 |", "score": 0.742, "match_basis": "verbatim_token+domain_route:CP"}, {"md_atom_id": "md_dmCP_ex_a040", "md_file": "knowledge_base/domains/CP/examples.md", "md_atom_type": "TABLE_ROW", "md_parent_section": "§CP.1.b [Example 1b]", "md_verbatim": "| 2 | ABCD | CP | ABCD-001-001 | 2 | LYM | Lymphocytes | CD45+FSC SSC | LEUK | CD45+ | IMMUNOPHENOTYPING | 1710 | 10^6/L | 1710 | 1710 | 10^6/L | QUANTITATIVE | NUMBER CONCENTRATION | FLOW CYTOMETRY | BLOOD | 2021-08-16T04:20 |", "score": 0.7371, "match_basis": "verbatim_token+domain_route:CP"}, {"md_atom_id": "md_dmCP_ex_a042", "md_file": "knowledge_base/domains/CP/examples.md", "md_atom_type": "TABLE_ROW", "md_parent_section": "§CP.1.b [Example 1b]", "md_verbatim": "| 4 | ABCD | CP | ABCD-001-001 | 4 | LYM | Lymphocytes | CD45+FSC SSC | LEUK | CD45+ | IMMUNOPHENOTYPING | 1710 | 10^6/L | 1710 | 1710 | 10^6/L | QUANTITATIVE | NUMBER CONCENTRATION | FLOW CYTOMETRY | BLOOD | 2021-08-16T04:20 |", "score": 0.7371, "match_basis": "verbatim_token+domain_route:CP"}, {"md_atom_id": "md_dmCP_ex_a039", "md_file": "knowledge_base/domains/CP/examples.md", "md_atom_type": "TABLE_ROW", "md_parent_section": "§CP.1.b [Example 1b]", "md_verbatim": "| 1 | ABCD | CP | ABCD-001-001 | 1 | WBC | Leukocytes | CD45+ | FSC SSC | IMMUNOPHENOTYPING | 6630 | 10^6/L | 6630 | 6630 | 10^6/L | QUANTITATIVE | NUMBER CONCENTRATION | FLOW CYTOMETRY | BLOOD | 2021-08-16T04:20 |", "score": 0.7346, "match_basis": "verbatim_token+domain_route:CP"}], "candidate_count": 5, "zero_candidate": false}
{"pdf_atom_id": "ig34_p0211_a015", "pdf_atom_type": "TABLE_ROW", "pdf_source": "SDTMIG_v3.4", "pdf_page": 211, "pdf_parent_section": "§6.3.5.3 Cell Phenotype Findings (CP)", "pdf_verbatim": "| 4 | IM001-123 | CP | 0005 00542 | 4 | 1 | LYS | Lym Sub | NON-VIABLE | 7AAD+ | CD45+7AAD+ | LYM | FSC SSC/CD45+ | IMMUNOPHENOTYPING | LYM APOPTOSIS COUNT | 175 | 10^6/L | 175 | 10^6/L | 175 | QUANTITATIVE | NUMBER CONCENTRATION | BLOOD | FLOW CYTOMETRY | 2020-08-16T12:20 |", "figure_ref": null, "candidates": [{"md_atom_id": "md_dmCP_ex_a018", "md_file": "knowledge_base/domains/CP/examples.md", "md_atom_type": "TABLE_ROW", "md_parent_section": "§CP.1.a [Example 1a]", "md_verbatim": "| 2 | ABCD | CP | ABCD-001-001 | 2 | LYM | Lymphocytes | CD45+FSC SSC | IMMUNOPHENOTYPING | 1710 | 10^6/L | 1710 | 1710 | 10^6/L | QUANTITATIVE | NUMBER CONCENTRATION | BLOOD | FLOW CYTOMETRY | 2021-08-16T04:20 |", "score": 0.7437, "match_basis": "verbatim_token+domain_route:CP"}, {"md_atom_id": "md_dmCP_ex_a026", "md_file": "knowledge_base/domains/CP/examples.md", "md_atom_type": "TABLE_ROW", "md_parent_section": "§CP.1.a [Example 1a]", "md_verbatim": "| 10 | ABCD | CP | ABCD-001-001 | 10 | TLC | TLym Cytx | CD45+CD3+CD4-CD8+ | IMMUNOPHENOTYPING | 682 | 10^6/L | 682 | 682 | | QUANTITATIVE | NUMBER CONCENTRATION | BLOOD | FLOW CYTOMETRY | 2021-08-16T04:20 |", "score": 0.742, "match_basis": "verbatim_token+domain_route:CP"}, {"md_atom_id": "md_dmCP_ex_a040", "md_file": "knowledge_base/domains/CP/examples.md", "md_atom_type": "TABLE_ROW", "md_parent_section": "§CP.1.b [Example 1b]", "md_verbatim": "| 2 | ABCD | CP | ABCD-001-001 | 2 | LYM | Lymphocytes | CD45+FSC SSC | LEUK | CD45+ | IMMUNOPHENOTYPING | 1710 | 10^6/L | 1710 | 1710 | 10^6/L | QUANTITATIVE | NUMBER CONCENTRATION | FLOW CYTOMETRY | BLOOD | 2021-08-16T04:20 |", "score": 0.7371, "match_basis": "verbatim_token+domain_route:CP"}, {"md_atom_id": "md_dmCP_ex_a042", "md_file": "knowledge_base/domains/CP/examples.md", "md_atom_type": "TABLE_ROW", "md_parent_section": "§CP.1.b [Example 1b]", "md_verbatim": "| 4 | ABCD | CP | ABCD-001-001 | 4 | LYM | Lymphocytes | CD45+FSC SSC | LEUK | CD45+ | IMMUNOPHENOTYPING | 1710 | 10^6/L | 1710 | 1710 | 10^6/L | QUANTITATIVE | NUMBER CONCENTRATION | FLOW CYTOMETRY | BLOOD | 2021-08-16T04:20 |", "score": 0.7371, "match_basis": "verbatim_token+domain_route:CP"}, {"md_atom_id": "md_dmCP_ex_a039", "md_file": "knowledge_base/domains/CP/examples.md", "md_atom_type": "TABLE_ROW", "md_parent_section": "§CP.1.b [Example 1b]", "md_verbatim": "| 1 | ABCD | CP | ABCD-001-001 | 1 | WBC | Leukocytes | CD45+ | FSC SSC | IMMUNOPHENOTYPING | 6630 | 10^6/L | 6630 | 6630 | 10^6/L | QUANTITATIVE | NUMBER CONCENTRATION | FLOW CYTOMETRY | BLOOD | 2021-08-16T04:20 |", "score": 0.7346, "match_basis": "verbatim_token+domain_route:CP"}], "candidate_count": 5, "zero_candidate": false}
{"pdf_atom_id": "ig34_p0211_a016", "pdf_atom_type": "TABLE_ROW", "pdf_source": "SDTMIG_v3.4", "pdf_page": 211, "pdf_parent_section": "§6.3.5.3 Cell Phenotype Findings (CP)", "pdf_verbatim": "| 5 | IM001-123 | CP | 0005 00542 | 5 | 1 | LYS | Lym Sub | APOPTOTIC | ANXV+ | CD45+ANXV+ | LYM | FSC SSC/CD45+ | IMMUNOPHENOTYPING | LYM APOPTOSIS COUNT | 700 | 10^6/L | 700 | 10^6/L | 700 | QUANTITATIVE | NUMBER CONCENTRATION | BLOOD | FLOW CYTOMETRY | 2020-08-16T12:20 |", "figure_ref": null, "candidates": [{"md_atom_id": "md_dmCP_ex_a018", "md_file": "knowledge_base/domains/CP/examples.md", "md_atom_type": "TABLE_ROW", "md_parent_section": "§CP.1.a [Example 1a]", "md_verbatim": "| 2 | ABCD | CP | ABCD-001-001 | 2 | LYM | Lymphocytes | CD45+FSC SSC | IMMUNOPHENOTYPING | 1710 | 10^6/L | 1710 | 1710 | 10^6/L | QUANTITATIVE | NUMBER CONCENTRATION | BLOOD | FLOW CYTOMETRY | 2021-08-16T04:20 |", "score": 0.7505, "match_basis": "verbatim_token+domain_route:CP"}, {"md_atom_id": "md_dmCP_ex_a026", "md_file": "knowledge_base/domains/CP/examples.md", "md_atom_type": "TABLE_ROW", "md_parent_section": "§CP.1.a [Example 1a]", "md_verbatim": "| 10 | ABCD | CP | ABCD-001-001 | 10 | TLC | TLym Cytx | CD45+CD3+CD4-CD8+ | IMMUNOPHENOTYPING | 682 | 10^6/L | 682 | 682 | | QUANTITATIVE | NUMBER CONCENTRATION | BLOOD | FLOW CYTOMETRY | 2021-08-16T04:20 |", "score": 0.749, "match_basis": "verbatim_token+domain_route:CP"}, {"md_atom_id": "md_dmCP_ex_a040", "md_file": "knowledge_base/domains/CP/examples.md", "md_atom_type": "TABLE_ROW", "md_parent_section": "§CP.1.b [Example 1b]", "md_verbatim": "| 2 | ABCD | CP | ABCD-001-001 | 2 | LYM | Lymphocytes | CD45+FSC SSC | LEUK | CD45+ | IMMUNOPHENOTYPING | 1710 | 10^6/L | 1710 | 1710 | 10^6/L | QUANTITATIVE | NUMBER CONCENTRATION | FLOW CYTOMETRY | BLOOD | 2021-08-16T04:20 |", "score": 0.7437, "match_basis": "verbatim_token+domain_route:CP"}, {"md_atom_id": "md_dmCP_ex_a042", "md_file": "knowledge_base/domains/CP/examples.md", "md_atom_type": "TABLE_ROW", "md_parent_section": "§CP.1.b [Example 1b]", "md_verbatim": "| 4 | ABCD | CP | ABCD-001-001 | 4 | LYM | Lymphocytes | CD45+FSC SSC | LEUK | CD45+ | IMMUNOPHENOTYPING | 1710 | 10^6/L | 1710 | 1710 | 10^6/L | QUANTITATIVE | NUMBER CONCENTRATION | FLOW CYTOMETRY | BLOOD | 2021-08-16T04:20 |", "score": 0.7437, "match_basis": "verbatim_token+domain_route:CP"}, {"md_atom_id": "md_dmCP_ex_a039", "md_file": "knowledge_base/domains/CP/examples.md", "md_atom_type": "TABLE_ROW", "md_parent_section": "§CP.1.b [Example 1b]", "md_verbatim": "| 1 | ABCD | CP | ABCD-001-001 | 1 | WBC | Leukocytes | CD45+ | FSC SSC | IMMUNOPHENOTYPING | 6630 | 10^6/L | 6630 | 6630 | 10^6/L | QUANTITATIVE | NUMBER CONCENTRATION | FLOW CYTOMETRY | BLOOD | 2021-08-16T04:20 |", "score": 0.7412, "match_basis": "verbatim_token+domain_route:CP"}], "candidate_count": 5, "zero_candidate": false}
{"pdf_atom_id": "ig34_p0212_a001", "pdf_atom_type": "TABLE_ROW", "pdf_source": "SDTMIG_v3.4", "pdf_page": 212, "pdf_parent_section": "§6.3.5.3 Cell Phenotype Findings (CP)", "pdf_verbatim": "| 6 | IM001-123 | CP | 0005 00542 | 6 | 1 | LYSLY | Lym Sub/Lym | APOPTOTIC | ANXV+ | CD45+ANXV+/CD45+FSC SSC |  | LYM FSC SSC/CD45+ | IMMUNOPHENOTYPING | LYM APOPTOSIS COUNT | 21 | % | 21 | % | 21 | QUANTITATIVE | NUMBER FRACTION | BLOOD | FLOW CYTOMETRY | 2020-08-16T04:20 |", "figure_ref": null, "candidates": [{"md_atom_id": "md_dmCP_ex_a023", "md_file": "knowledge_base/domains/CP/examples.md", "md_atom_type": "TABLE_ROW", "md_parent_section": "§CP.1.a [Example 1a]", "md_verbatim": "| 7 | ABCD | CP | ABCD-001-001 | 7 | TLYLY | TLym/Lym | CD45+CD3+CD19-CD14-CD56-/CD45+FSC SSC | IMMUNOPHENOTYPING | 64.8 | % | 64.8 | 64.8 | | QUANTITATIVE | NUMBER FRACTION | BLOOD | FLOW CYTOMETRY | 2021-08-16T04:20 |", "score": 0.7562, "match_basis": "verbatim_token+domain_route:CP"}, {"md_atom_id": "md_dmCP_ex_a019", "md_file": "knowledge_base/domains/CP/examples.md", "md_atom_type": "TABLE_ROW", "md_parent_section": "§CP.1.a [Example 1a]", "md_verbatim": "| 3 | ABCD | CP | ABCD-001-001 | 3 | LYMLE | Lymphocytes/Leukocytes | CD45+FSC SSC/CD45+ | IMMUNOPHENOTYPING | 25.8 | % | 25.8 | 25.8 | | QUANTITATIVE | NUMBER FRACTION | BLOOD | FLOW CYTOMETRY | 2021-08-16T04:20 |", "score": 0.742, "match_basis": "verbatim_token+domain_route:CP"}, {"md_atom_id": "md_dmCP_ex_a041", "md_file": "knowledge_base/domains/CP/examples.md", "md_atom_type": "TABLE_ROW", "md_parent_section": "§CP.1.b [Example 1b]", "md_verbatim": "| 3 | ABCD | CP | ABCD-001-001 | 3 | LYMLE | Lymphocytes/Leukocytes | CD45+FSC SSC/CD45+ | | | IMMUNOPHENOTYPING | 25.8 | % | 25.8 | 25.8 | | QUANTITATIVE | NUMBER FRACTION | FLOW CYTOMETRY | BLOOD | 2021-08-16T04:20 |", "score": 0.742, "match_basis": "verbatim_token+domain_route:CP"}, {"md_atom_id": "md_dmCP_ex_a031", "md_file": "knowledge_base/domains/CP/examples.md", "md_atom_type": "TABLE_ROW", "md_parent_section": "§CP.1.a [Example 1a]", "md_verbatim": "| 15 | ABCD | CP | ABCD-001-001 | 15 | NKLE | NK Cells/Leuk | CD45+CD3-CD19-CD14-CD56+FSC SSC/CD45+ | IMMUNOPHENOTYPING | 3.5 | % | 3.5 | 3.5 | | QUANTITATIVE | NUMBER FRACTION | BLOOD | FLOW CYTOMETRY | 2021-08-16T04:20 |", "score": 0.736, "match_basis": "verbatim_token+domain_route:CP"}, {"md_atom_id": "md_dmCP_ex_a027", "md_file": "knowledge_base/domains/CP/examples.md", "md_atom_type": "TABLE_ROW", "md_parent_section": "§CP.1.a [Example 1a]", "md_verbatim": "| 11 | ABCD | CP | ABCD-001-001 | 11 | TLYCTLY | TLym Cytx/TLym | CD45+CD3+CD4-CD8+/CD45+CD3+CD19-CD14-CD56- | IMMUNOPHENOTYPING | 61.6 | % | 61.6 | 61.6 | | QUANTITATIVE | NUMBER FRACTION | BLOOD | FLOW CYTOMETRY | 2021-08-16T04:20 |", "score": 0.7333, "match_basis": "verbatim_token+domain_route:CP"}], "candidate_count": 5, "zero_candidate": false}
{"pdf_atom_id": "ig34_p0212_a002", "pdf_atom_type": "TABLE_ROW", "pdf_source": "SDTMIG_v3.4", "pdf_page": 212, "pdf_parent_section": "§6.3.5.3 Cell Phenotype Findings (CP)", "pdf_verbatim": "| 7 | IM001-123 | CP | 0005 00542 | 7 | 6 | LYS | Lym Sub | VIABLE; APOPTOTIC | ANXV- | CD45+7AAD-ANXV+ | LYM | FSC SSC/CD45+ | IMMUNOPHENOTYPING | LYM APOPTOSIS COUNT | 665 | 10^6/L | 665 | 10^6/L | 665 | QUANTITATIVE | NUMBER CONCENTRATION | BLOOD | FLOW CYTOMETRY | 2020-08-16T12:20 |", "figure_ref": null, "candidates": [{"md_atom_id": "md_dmCP_ex_a018", "md_file": "knowledge_base/domains/CP/examples.md", "md_atom_type": "TABLE_ROW", "md_parent_section": "§CP.1.a [Example 1a]", "md_verbatim": "| 2 | ABCD | CP | ABCD-001-001 | 2 | LYM | Lymphocytes | CD45+FSC SSC | IMMUNOPHENOTYPING | 1710 | 10^6/L | 1710 | 1710 | 10^6/L | QUANTITATIVE | NUMBER CONCENTRATION | BLOOD | FLOW CYTOMETRY | 2021-08-16T04:20 |", "score": 0.7308, "match_basis": "verbatim_token+domain_route:CP"}, {"md_atom_id": "md_dmCP_ex_a026", "md_file": "knowledge_base/domains/CP/examples.md", "md_atom_type": "TABLE_ROW", "md_parent_section": "§CP.1.a [Example 1a]", "md_verbatim": "| 10 | ABCD | CP | ABCD-001-001 | 10 | TLC | TLym Cytx | CD45+CD3+CD4-CD8+ | IMMUNOPHENOTYPING | 682 | 10^6/L | 682 | 682 | | QUANTITATIVE | NUMBER CONCENTRATION | BLOOD | FLOW CYTOMETRY | 2021-08-16T04:20 |", "score": 0.7288, "match_basis": "verbatim_token+domain_route:CP"}, {"md_atom_id": "md_dmCP_ex_a040", "md_file": "knowledge_base/domains/CP/examples.md", "md_atom_type": "TABLE_ROW", "md_parent_section": "§CP.1.b [Example 1b]", "md_verbatim": "| 2 | ABCD | CP | ABCD-001-001 | 2 | LYM | Lymphocytes | CD45+FSC SSC | LEUK | CD45+ | IMMUNOPHENOTYPING | 1710 | 10^6/L | 1710 | 1710 | 10^6/L | QUANTITATIVE | NUMBER CONCENTRATION | FLOW CYTOMETRY | BLOOD | 2021-08-16T04:20 |", "score": 0.7248, "match_basis": "verbatim_token+domain_route:CP"}, {"md_atom_id": "md_dmCP_ex_a042", "md_file": "knowledge_base/domains/CP/examples.md", "md_atom_type": "TABLE_ROW", "md_parent_section": "§CP.1.b [Example 1b]", "md_verbatim": "| 4 | ABCD | CP | ABCD-001-001 | 4 | LYM | Lymphocytes | CD45+FSC SSC | LEUK | CD45+ | IMMUNOPHENOTYPING | 1710 | 10^6/L | 1710 | 1710 | 10^6/L | QUANTITATIVE | NUMBER CONCENTRATION | FLOW CYTOMETRY | BLOOD | 2021-08-16T04:20 |", "score": 0.7248, "match_basis": "verbatim_token+domain_route:CP"}, {"md_atom_id": "md_dmCP_ex_a039", "md_file": "knowledge_base/domains/CP/examples.md", "md_atom_type": "TABLE_ROW", "md_parent_section": "§CP.1.b [Example 1b]", "md_verbatim": "| 1 | ABCD | CP | ABCD-001-001 | 1 | WBC | Leukocytes | CD45+ | FSC SSC | IMMUNOPHENOTYPING | 6630 | 10^6/L | 6630 | 6630 | 10^6/L | QUANTITATIVE | NUMBER CONCENTRATION | FLOW CYTOMETRY | BLOOD | 2021-08-16T04:20 |", "score": 0.7222, "match_basis": "verbatim_token+domain_route:CP"}], "candidate_count": 5, "zero_candidate": false}
{"pdf_atom_id": "ig34_p0212_a003", "pdf_atom_type": "TABLE_ROW", "pdf_source": "SDTMIG_v3.4", "pdf_page": 212, "pdf_parent_section": "§6.3.5.3 Cell Phenotype Findings (CP)", "pdf_verbatim": "| 8 | IM001-123 | CP | 0005 00542 | 8 | 6 | LYSLY | Lym Sub/Lym | VIABLE; APOPTOTIC | ANXV- | CD45+7AAD-ANXV+/CD45+FSC SSC |  | FSC SSC/CD45+ | IMMUNOPHENOTYPING | LYM APOPTOSIS COUNT | 20 | % | 20 | % | 20 | QUANTITATIVE | NUMBER FRACTION | BLOOD | FLOW CYTOMETRY | 2020-08-16T12:20 |", "figure_ref": null, "candidates": [{"md_atom_id": "md_dmCP_ex_a023", "md_file": "knowledge_base/domains/CP/examples.md", "md_atom_type": "TABLE_ROW", "md_parent_section": "§CP.1.a [Example 1a]", "md_verbatim": "| 7 | ABCD | CP | ABCD-001-001 | 7 | TLYLY | TLym/Lym | CD45+CD3+CD19-CD14-CD56-/CD45+FSC SSC | IMMUNOPHENOTYPING | 64.8 | % | 64.8 | 64.8 | | QUANTITATIVE | NUMBER FRACTION | BLOOD | FLOW CYTOMETRY | 2021-08-16T04:20 |", "score": 0.7173, "match_basis": "verbatim_token+domain_route:CP"}, {"md_atom_id": "md_dmCP_ex_a019", "md_file": "knowledge_base/domains/CP/examples.md", "md_atom_type": "TABLE_ROW", "md_parent_section": "§CP.1.a [Example 1a]", "md_verbatim": "| 3 | ABCD | CP | ABCD-001-001 | 3 | LYMLE | Lymphocytes/Leukocytes | CD45+FSC SSC/CD45+ | IMMUNOPHENOTYPING | 25.8 | % | 25.8 | 25.8 | | QUANTITATIVE | NUMBER FRACTION | BLOOD | FLOW CYTOMETRY | 2021-08-16T04:20 |", "score": 0.7056, "match_basis": "verbatim_token+domain_route:CP"}, {"md_atom_id": "md_dmCP_ex_a041", "md_file": "knowledge_base/domains/CP/examples.md", "md_atom_type": "TABLE_ROW", "md_parent_section": "§CP.1.b [Example 1b]", "md_verbatim": "| 3 | ABCD | CP | ABCD-001-001 | 3 | LYMLE | Lymphocytes/Leukocytes | CD45+FSC SSC/CD45+ | | | IMMUNOPHENOTYPING | 25.8 | % | 25.8 | 25.8 | | QUANTITATIVE | NUMBER FRACTION | FLOW CYTOMETRY | BLOOD | 2021-08-16T04:20 |", "score": 0.7056, "match_basis": "verbatim_token+domain_route:CP"}, {"md_atom_id": "md_dmCP_ex_a031", "md_file": "knowledge_base/domains/CP/examples.md", "md_atom_type": "TABLE_ROW", "md_parent_section": "§CP.1.a [Example 1a]", "md_verbatim": "| 15 | ABCD | CP | ABCD-001-001 | 15 | NKLE | NK Cells/Leuk | CD45+CD3-CD19-CD14-CD56+FSC SSC/CD45+ | IMMUNOPHENOTYPING | 3.5 | % | 3.5 | 3.5 | | QUANTITATIVE | NUMBER FRACTION | BLOOD | FLOW CYTOMETRY | 2021-08-16T04:20 |", "score": 0.7, "match_basis": "verbatim_token+domain_route:CP"}, {"md_atom_id": "md_dmCP_ex_a027", "md_file": "knowledge_base/domains/CP/examples.md", "md_atom_type": "TABLE_ROW", "md_parent_section": "§CP.1.a [Example 1a]", "md_verbatim": "| 11 | ABCD | CP | ABCD-001-001 | 11 | TLYCTLY | TLym Cytx/TLym | CD45+CD3+CD4-CD8+/CD45+CD3+CD19-CD14-CD56- | IMMUNOPHENOTYPING | 61.6 | % | 61.6 | 61.6 | | QUANTITATIVE | NUMBER FRACTION | BLOOD | FLOW CYTOMETRY | 2021-08-16T04:20 |", "score": 0.6972, "match_basis": "verbatim_token+domain_route:CP"}], "candidate_count": 5, "zero_candidate": false}
{"pdf_atom_id": "ig34_p0212_a004", "pdf_atom_type": "TABLE_ROW", "pdf_source": "SDTMIG_v3.4", "pdf_page": 212, "pdf_parent_section": "§6.3.5.3 Cell Phenotype Findings (CP)", "pdf_verbatim": "| 9 | IM001-123 | CP | 0005 00542 | 9 | 2 | LYS | Lym Sub | VIABLE | 7AAD- | CD45+7AAD- | LYM | FSC SSC/CD45+ | IMMUNOPHENOTYPING | LYM APOPTOSIS COUNT | 3325 | 10^6/L | 3325 | 10^6/L | 3325 | QUANTITATIVE | NUMBER CONCENTRATION | BLOOD | FLOW CYTOMETRY | 2020-08-16T12:20 |", "figure_ref": null, "candidates": [{"md_atom_id": "md_dmCP_ex_a018", "md_file": "knowledge_base/domains/CP/examples.md", "md_atom_type": "TABLE_ROW", "md_parent_section": "§CP.1.a [Example 1a]", "md_verbatim": "| 2 | ABCD | CP | ABCD-001-001 | 2 | LYM | Lymphocytes | CD45+FSC SSC | IMMUNOPHENOTYPING | 1710 | 10^6/L | 1710 | 1710 | 10^6/L | QUANTITATIVE | NUMBER CONCENTRATION | BLOOD | FLOW CYTOMETRY | 2021-08-16T04:20 |", "score": 0.7437, "match_basis": "verbatim_token+domain_route:CP"}, {"md_atom_id": "md_dmCP_ex_a026", "md_file": "knowledge_base/domains/CP/examples.md", "md_atom_type": "TABLE_ROW", "md_parent_section": "§CP.1.a [Example 1a]", "md_verbatim": "| 10 | ABCD | CP | ABCD-001-001 | 10 | TLC | TLym Cytx | CD45+CD3+CD4-CD8+ | IMMUNOPHENOTYPING | 682 | 10^6/L | 682 | 682 | | QUANTITATIVE | NUMBER CONCENTRATION | BLOOD | FLOW CYTOMETRY | 2021-08-16T04:20 |", "score": 0.742, "match_basis": "verbatim_token+domain_route:CP"}, {"md_atom_id": "md_dmCP_ex_a040", "md_file": "knowledge_base/domains/CP/examples.md", "md_atom_type": "TABLE_ROW", "md_parent_section": "§CP.1.b [Example 1b]", "md_verbatim": "| 2 | ABCD | CP | ABCD-001-001 | 2 | LYM | Lymphocytes | CD45+FSC SSC | LEUK | CD45+ | IMMUNOPHENOTYPING | 1710 | 10^6/L | 1710 | 1710 | 10^6/L | QUANTITATIVE | NUMBER CONCENTRATION | FLOW CYTOMETRY | BLOOD | 2021-08-16T04:20 |", "score": 0.7371, "match_basis": "verbatim_token+domain_route:CP"}, {"md_atom_id": "md_dmCP_ex_a042", "md_file": "knowledge_base/domains/CP/examples.md", "md_atom_type": "TABLE_ROW", "md_parent_section": "§CP.1.b [Example 1b]", "md_verbatim": "| 4 | ABCD | CP | ABCD-001-001 | 4 | LYM | Lymphocytes | CD45+FSC SSC | LEUK | CD45+ | IMMUNOPHENOTYPING | 1710 | 10^6/L | 1710 | 1710 | 10^6/L | QUANTITATIVE | NUMBER CONCENTRATION | FLOW CYTOMETRY | BLOOD | 2021-08-16T04:20 |", "score": 0.7371, "match_basis": "verbatim_token+domain_route:CP"}, {"md_atom_id": "md_dmCP_ex_a039", "md_file": "knowledge_base/domains/CP/examples.md", "md_atom_type": "TABLE_ROW", "md_parent_section": "§CP.1.b [Example 1b]", "md_verbatim": "| 1 | ABCD | CP | ABCD-001-001 | 1 | WBC | Leukocytes | CD45+ | FSC SSC | IMMUNOPHENOTYPING | 6630 | 10^6/L | 6630 | 6630 | 10^6/L | QUANTITATIVE | NUMBER CONCENTRATION | FLOW CYTOMETRY | BLOOD | 2021-08-16T04:20 |", "score": 0.7346, "match_basis": "verbatim_token+domain_route:CP"}], "candidate_count": 5, "zero_candidate": false}
{"pdf_atom_id": "ig34_p0212_a005", "pdf_atom_type": "TABLE_ROW", "pdf_source": "SDTMIG_v3.4", "pdf_page": 212, "pdf_parent_section": "§6.3.5.3 Cell Phenotype Findings (CP)", "pdf_verbatim": "| 10 | IM001-123 | CP | 0005 00542 | 10 | 2 | LYS | Lym Sub | NON-VIABLE | 7AAD+ | CD45+7AAD+ | LYM | FSC SSC/CD45+ | IMMUNOPHENOTYPING | LYM APOPTOSIS COUNT | 175 | 10^6/L | 175 | 10^6/L | 175 | QUANTITATIVE | NUMBER CONCENTRATION | BLOOD | FLOW CYTOMETRY | 2020-08-16T12:20 |", "figure_ref": null, "candidates": [{"md_atom_id": "md_dmCP_ex_a018", "md_file": "knowledge_base/domains/CP/examples.md", "md_atom_type": "TABLE_ROW", "md_parent_section": "§CP.1.a [Example 1a]", "md_verbatim": "| 2 | ABCD | CP | ABCD-001-001 | 2 | LYM | Lymphocytes | CD45+FSC SSC | IMMUNOPHENOTYPING | 1710 | 10^6/L | 1710 | 1710 | 10^6/L | QUANTITATIVE | NUMBER CONCENTRATION | BLOOD | FLOW CYTOMETRY | 2021-08-16T04:20 |", "score": 0.7437, "match_basis": "verbatim_token+domain_route:CP"}, {"md_atom_id": "md_dmCP_ex_a026", "md_file": "knowledge_base/domains/CP/examples.md", "md_atom_type": "TABLE_ROW", "md_parent_section": "§CP.1.a [Example 1a]", "md_verbatim": "| 10 | ABCD | CP | ABCD-001-001 | 10 | TLC | TLym Cytx | CD45+CD3+CD4-CD8+ | IMMUNOPHENOTYPING | 682 | 10^6/L | 682 | 682 | | QUANTITATIVE | NUMBER CONCENTRATION | BLOOD | FLOW CYTOMETRY | 2021-08-16T04:20 |", "score": 0.742, "match_basis": "verbatim_token+domain_route:CP"}, {"md_atom_id": "md_dmCP_ex_a040", "md_file": "knowledge_base/domains/CP/examples.md", "md_atom_type": "TABLE_ROW", "md_parent_section": "§CP.1.b [Example 1b]", "md_verbatim": "| 2 | ABCD | CP | ABCD-001-001 | 2 | LYM | Lymphocytes | CD45+FSC SSC | LEUK | CD45+ | IMMUNOPHENOTYPING | 1710 | 10^6/L | 1710 | 1710 | 10^6/L | QUANTITATIVE | NUMBER CONCENTRATION | FLOW CYTOMETRY | BLOOD | 2021-08-16T04:20 |", "score": 0.7371, "match_basis": "verbatim_token+domain_route:CP"}, {"md_atom_id": "md_dmCP_ex_a042", "md_file": "knowledge_base/domains/CP/examples.md", "md_atom_type": "TABLE_ROW", "md_parent_section": "§CP.1.b [Example 1b]", "md_verbatim": "| 4 | ABCD | CP | ABCD-001-001 | 4 | LYM | Lymphocytes | CD45+FSC SSC | LEUK | CD45+ | IMMUNOPHENOTYPING | 1710 | 10^6/L | 1710 | 1710 | 10^6/L | QUANTITATIVE | NUMBER CONCENTRATION | FLOW CYTOMETRY | BLOOD | 2021-08-16T04:20 |", "score": 0.7371, "match_basis": "verbatim_token+domain_route:CP"}, {"md_atom_id": "md_dmCP_ex_a039", "md_file": "knowledge_base/domains/CP/examples.md", "md_atom_type": "TABLE_ROW", "md_parent_section": "§CP.1.b [Example 1b]", "md_verbatim": "| 1 | ABCD | CP | ABCD-001-001 | 1 | WBC | Leukocytes | CD45+ | FSC SSC | IMMUNOPHENOTYPING | 6630 | 10^6/L | 6630 | 6630 | 10^6/L | QUANTITATIVE | NUMBER CONCENTRATION | FLOW CYTOMETRY | BLOOD | 2021-08-16T04:20 |", "score": 0.7346, "match_basis": "verbatim_token+domain_route:CP"}], "candidate_count": 5, "zero_candidate": false}
{"pdf_atom_id": "ig34_p0212_a006", "pdf_atom_type": "TABLE_ROW", "pdf_source": "SDTMIG_v3.4", "pdf_page": 212, "pdf_parent_section": "§6.3.5.3 Cell Phenotype Findings (CP)", "pdf_verbatim": "| 11 | IM001-123 | CP | 0005 00542 | 11 | 2 | LYVLYNV | Lym Viable/Lym NonViable |  |  | CD45+7AAD-/CD45+7AAD+ | LYM | FSC SSC/CD45+ | IMMUNOPHENOTYPING | LYM APOPTOSIS COUNT | 19 | RATIO | 19 | RATIO | 19 | QUANTITATIVE | RATIO | BLOOD | FLOW CYTOMETRY | 2020-08-16T12:20 |", "figure_ref": null, "candidates": [{"md_atom_id": "md_dmCP_ex_a032", "md_file": "knowledge_base/domains/CP/examples.md", "md_atom_type": "TABLE_ROW", "md_parent_section": "§CP.1.a [Example 1a]", "md_verbatim": "| 16 | ABCD | CP | ABCD-001-001 | 16 | TLYHTLYC | TLym Help/TLym Cytx | CD45+CD3+CD4+CD8-/CD45+CD3+CD4-CD8+ | IMMUNOPHENOTYPING | 0.62 | | 0.62 | 0.62 | | QUANTITATIVE | RATIO | BLOOD | FLOW CYTOMETRY | 2021-08-16T04:20 |", "score": 0.6813, "match_basis": "verbatim_token+domain_route:CP"}, {"md_atom_id": "md_dmCP_ex_a023", "md_file": "knowledge_base/domains/CP/examples.md", "md_atom_type": "TABLE_ROW", "md_parent_section": "§CP.1.a [Example 1a]", "md_verbatim": "| 7 | ABCD | CP | ABCD-001-001 | 7 | TLYLY | TLym/Lym | CD45+CD3+CD19-CD14-CD56-/CD45+FSC SSC | IMMUNOPHENOTYPING | 64.8 | % | 64.8 | 64.8 | | QUANTITATIVE | NUMBER FRACTION | BLOOD | FLOW CYTOMETRY | 2021-08-16T04:20 |", "score": 0.6654, "match_basis": "verbatim_token+domain_route:CP"}, {"md_atom_id": "md_dmCP_ex_a018", "md_file": "knowledge_base/domains/CP/examples.md", "md_atom_type": "TABLE_ROW", "md_parent_section": "§CP.1.a [Example 1a]", "md_verbatim": "| 2 | ABCD | CP | ABCD-001-001 | 2 | LYM | Lymphocytes | CD45+FSC SSC | IMMUNOPHENOTYPING | 1710 | 10^6/L | 1710 | 1710 | 10^6/L | QUANTITATIVE | NUMBER CONCENTRATION | BLOOD | FLOW CYTOMETRY | 2021-08-16T04:20 |", "score": 0.6636, "match_basis": "verbatim_token+domain_route:CP"}, {"md_atom_id": "md_dmCP_ex_a026", "md_file": "knowledge_base/domains/CP/examples.md", "md_atom_type": "TABLE_ROW", "md_parent_section": "§CP.1.a [Example 1a]", "md_verbatim": "| 10 | ABCD | CP | ABCD-001-001 | 10 | TLC | TLym Cytx | CD45+CD3+CD4-CD8+ | IMMUNOPHENOTYPING | 682 | 10^6/L | 682 | 682 | | QUANTITATIVE | NUMBER CONCENTRATION | BLOOD | FLOW CYTOMETRY | 2021-08-16T04:20 |", "score": 0.6596, "match_basis": "verbatim_token+domain_route:CP"}, {"md_atom_id": "md_dmCP_ex_a040", "md_file": "knowledge_base/domains/CP/examples.md", "md_atom_type": "TABLE_ROW", "md_parent_section": "§CP.1.b [Example 1b]", "md_verbatim": "| 2 | ABCD | CP | ABCD-001-001 | 2 | LYM | Lymphocytes | CD45+FSC SSC | LEUK | CD45+ | IMMUNOPHENOTYPING | 1710 | 10^6/L | 1710 | 1710 | 10^6/L | QUANTITATIVE | NUMBER CONCENTRATION | FLOW CYTOMETRY | BLOOD | 2021-08-16T04:20 |", "score": 0.6587, "match_basis": "verbatim_token+domain_route:CP"}], "candidate_count": 5, "zero_candidate": false}
{"pdf_atom_id": "ig34_p0212_a007", "pdf_atom_type": "HEADING", "pdf_source": "SDTMIG_v3.4", "pdf_page": 212, "pdf_parent_section": "§6.3.5.3 Cell Phenotype Findings (CP)", "pdf_verbatim": "Example 3", "figure_ref": null, "candidates": [{"md_atom_id": "md_dmCP_ex_a004", "md_file": "knowledge_base/domains/CP/examples.md", "md_atom_type": "HEADING", "md_parent_section": "§CP [CP — Examples]", "md_verbatim": "## Example 1", "score": 1.0, "match_basis": "verbatim_token+domain_route:CP"}, {"md_atom_id": "md_dmCP_ex_a007", "md_file": "knowledge_base/domains/CP/examples.md", "md_atom_type": "HEADING", "md_parent_section": "§CP.1 [Example 1]", "md_verbatim": "### Example 1a", "score": 1.0, "match_basis": "verbatim_token+domain_route:CP"}, {"md_atom_id": "md_dmCP_ex_a033", "md_file": "knowledge_base/domains/CP/examples.md", "md_atom_type": "HEADING", "md_parent_section": "§CP.1 [Example 1]", "md_verbatim": "### Example 1b", "score": 1.0, "match_basis": "verbatim_token+domain_route:CP"}, {"md_atom_id": "md_dmCP_ex_a043", "md_file": "knowledge_base/domains/CP/examples.md", "md_atom_type": "HEADING", "md_parent_section": "§CP [CP — Examples]", "md_verbatim": "## Example 2", "score": 1.0, "match_basis": "verbatim_token+domain_route:CP"}, {"md_atom_id": "md_dmCP_ex_a051", "md_file": "knowledge_base/domains/CP/examples.md", "md_atom_type": "HEADING", "md_parent_section": "§CP [CP — Examples]", "md_verbatim": "## Example 3", "score": 1.0, "match_basis": "verbatim_token+domain_route:CP"}, {"md_atom_id": "md_dmCP_ex_a061", "md_file": "knowledge_base/domains/CP/examples.md", "md_atom_type": "HEADING", "md_parent_section": "§CP [CP — Examples]", "md_verbatim": "## Example 4", "score": 1.0, "match_basis": "verbatim_token+domain_route:CP"}, {"md_atom_id": "md_dmCP_ex_a067", "md_file": "knowledge_base/domains/CP/examples.md", "md_atom_type": "HEADING", "md_parent_section": "§CP [CP — Examples]", "md_verbatim": "## Example 5", "score": 1.0, "match_basis": "verbatim_token+domain_route:CP"}, {"md_atom_id": "md_dmCP_ex_a072", "md_file": "knowledge_base/domains/CP/examples.md", "md_atom_type": "HEADING", "md_parent_section": "§CP [CP — Examples]", "md_verbatim": "## Example 6", "score": 1.0, "match_basis": "verbatim_token+domain_route:CP"}, {"md_atom_id": "md_dmCP_ex_a080", "md_file": "knowledge_base/domains/CP/examples.md", "md_atom_type": "HEADING", "md_parent_section": "§CP [CP — Examples]", "md_verbatim": "## Example 7", "score": 1.0, "match_basis": "verbatim_token+domain_route:CP"}, {"md_atom_id": "md_dmCP_ex_a087", "md_file": "knowledge_base/domains/CP/examples.md", "md_atom_type": "HEADING", "md_parent_section": "§CP [CP — Examples]", "md_verbatim": "## Example 8", "score": 1.0, "match_basis": "verbatim_token+domain_route:CP"}], "candidate_count": 10, "zero_candidate": false}
{"pdf_atom_id": "ig34_p0212_a008", "pdf_atom_type": "SENTENCE", "pdf_source": "SDTMIG_v3.4", "pdf_page": 212, "pdf_parent_section": "§6.3.5.3 Cell Phenotype Findings (CP)", "pdf_verbatim": "This example shows data from a monocyte subset assay to highlight the use of new CP domain variables to capture cell sublineage information in CPSBMRKS, CPCELSTA and CPCSMRKS, and to illustrate how CPTEST is qualified by the content of those variables.", "figure_ref": null, "candidates": [{"md_atom_id": "md_dmCP_ex_a052", "md_file": "knowledge_base/domains/CP/examples.md", "md_atom_type": "SENTENCE", "md_parent_section": "§CP.3 [Example 3]", "md_verbatim": "This example shows data from a monocyte subset assay to highlight the use of new CP domain variables to capture cell sublineage information in CPSBMRKS, CPCELSTA and CPCSMRKS, and to illustrate how CPTEST is qualified by the context of those variables.", "score": 0.9789, "match_basis": "verbatim_token+domain_route:CP"}, {"md_atom_id": "md_dmCP_ex_a078", "md_file": "knowledge_base/domains/CP/examples.md", "md_atom_type": "SENTENCE", "md_parent_section": "§CP.6 [Example 6]", "md_verbatim": "**Rows 19-32:** No new concepts are introduced in these rows, but they are additional illustrations of using CPSBMRKS, CPCELSTA, CPCSMRKR and CPSPTSTD for a subset of pDC in which CD123+ is a marker of interest which is neither a cell sublineage nor cell state marker. These rows are included to reinforce the principles illustrated in rows 1-18.", "score": 0.5648, "match_basis": "verbatim_token+domain_route:CP"}, {"md_atom_id": "md_dmCP_ex_a053", "md_file": "knowledge_base/domains/CP/examples.md", "md_atom_type": "SENTENCE", "md_parent_section": "§CP.3 [Example 3]", "md_verbatim": "CPTEST is used to identify named cell populations (i.e., those cell types assigned names established by the scientific community). However, simply naming a cell type in CPTEST is often not sufficient for identifying or distinguishing among further subpopulations within that named population. In those cases, CPTEST alone does not contain the full complement of information needed to accurately define a test. 3 new variables that qualify CPTEST have been added to the CP domain specification for use when needed. Two of the variables, CPCELSTA and CPCSMRKS, support identifying a cell state, and the third variable, CPSBMRKS, supports identifying additional markers needed to subdivide the named population in CPTEST into further sublineages.", "score": 0.5643, "match_basis": "verbatim_token+domain_route:CP"}, {"md_atom_id": "md_dmCP_ex_a046", "md_file": "knowledge_base/domains/CP/examples.md", "md_atom_type": "SENTENCE", "md_parent_section": "§CP.2 [Example 2]", "md_verbatim": "**Rows 3-4:** Illustrate using CPCELSTA and CPCSMRKS to provide (1) the cell state descriptor in CPCELSTA, and (2) the markers used to define the cell state in CPCSMRKS. These variables further define CPTEST to be a subset of cells named in CPTEST; therefore the suffix \"Sub\" is appended to the value in CPTEST. In this example, the sponsor is interested in contrasting viable cells with those in the process of dying (non-viable), so each population is reported and the records differentiated using CPCELSTA and CPCSMRKS.", "score": 0.5611, "match_basis": "verbatim_token+domain_route:CP"}, {"md_atom_id": "md_dmCP_ex_a062", "md_file": "knowledge_base/domains/CP/examples.md", "md_atom_type": "SENTENCE", "md_parent_section": "§CP.4 [Example 4]", "md_verbatim": "This example shows data from a CCR5 cytotoxic T helper assay where test condition, stimulating agent, and replicate information is included to illustrate use of CPTSTCND, CPCNDAGT, CPREPNUM, and CPCOLSRT.", "score": 0.5544, "match_basis": "verbatim_token+domain_route:CP"}], "candidate_count": 5, "zero_candidate": false}
{"pdf_atom_id": "ig34_p0212_a009", "pdf_atom_type": "SENTENCE", "pdf_source": "SDTMIG_v3.4", "pdf_page": 212, "pdf_parent_section": "§6.3.5.3 Cell Phenotype Findings (CP)", "pdf_verbatim": "CPTEST is used to identify named cell populations (i.e., those cell types assigned names established by the scientific community). However, simply naming a cell type in CPTEST is often not sufficient for identifying or distinguishing among further subpopulations within that named population. In those cases, CPTEST alone does not contain the full complement of information needed to accurately define a test. For example, a test might be specific for a cell population existing in a certain state (e.g., activated, proliferating, apoptotic). Moreover, named populations can often be subdivided into sublineages which have not been assigned names; these may only be distinguishable by the 1 or more additional markers used to define the sublineage. To accommodate the need for further subsetting, 3 new variables that qualify CPTEST have been added to the CP domain specification for use when needed. Two of the variables, CPCELSTA and CPCSMRKS, support identifying a cell state. The third variable, CPSBMRKS, supports identifying additional markers needed to subdivide the named population in CPTEST into further sublineages.", "figure_ref": null, "candidates": [{"md_atom_id": "md_dmCP_ex_a053", "md_file": "knowledge_base/domains/CP/examples.md", "md_atom_type": "SENTENCE", "md_parent_section": "§CP.3 [Example 3]", "md_verbatim": "CPTEST is used to identify named cell populations (i.e., those cell types assigned names established by the scientific community). However, simply naming a cell type in CPTEST is often not sufficient for identifying or distinguishing among further subpopulations within that named population. In those cases, CPTEST alone does not contain the full complement of information needed to accurately define a test. 3 new variables that qualify CPTEST have been added to the CP domain specification for use when needed. Two of the variables, CPCELSTA and CPCSMRKS, support identifying a cell state, and the third variable, CPSBMRKS, supports identifying additional markers needed to subdivide the named population in CPTEST into further sublineages.", "score": 0.8813, "match_basis": "verbatim_token+domain_route:CP"}, {"md_atom_id": "md_dmCP_ex_a005", "md_file": "knowledge_base/domains/CP/examples.md", "md_atom_type": "SENTENCE", "md_parent_section": "§CP.1 [Example 1]", "md_verbatim": "Example 1a illustrates use of the CPMRKSTR variable for an assay panel that enumerates several of the major named cell subpopulations of leukocytes. For most cases involving simple phenotyping, and when used in accordance with CP domain guidance, the CPMRKSTR variable is sufficient for providing the marker information needed to fully describe a test. As such, CPMRKSTR is the only new CP test qualifier variable having a Core designation of \"Expected\". In such a case, the sponsor may determine whether to include other permissible CP test qualifier variables, based on the needs of the data recipient. This example presents records that might typically be reported for a panel of tests quantifying T-cell, B-cell, monocyte, and natural killer (NK) cell populations, and for subtyping T-cells. In this example, the sponsor determined that none of the permissible CP test qualifier variables were needed to accurately comprehend or distinguish among tests in the dataset, so chose to include only the CPMRKSTR (complete markers string) information.", "score": 0.6105, "match_basis": "verbatim_token+domain_route:CP"}, {"md_atom_id": "md_dmCP_ex_a059", "md_file": "knowledge_base/domains/CP/examples.md", "md_atom_type": "SENTENCE", "md_parent_section": "§CP.3 [Example 3]", "md_verbatim": "**Row 12:** Demonstrates how CPSBMRKS, CPCELSTA, and CPCSMRKS work in combination with CPTEST to further define cell subpopulations based on any additional sublineage and cell state markers. The model allows for many combinations of values using these variables, thereby providing the flexibility to precisely specify a test. In all cases, the full complement of markers used for a test are populated into the CPMRKSTR variable.", "score": 0.5933, "match_basis": "verbatim_token+domain_route:CP"}, {"md_atom_id": "md_dmCP_ex_a054", "md_file": "knowledge_base/domains/CP/examples.md", "md_atom_type": "SENTENCE", "md_parent_section": "§CP.3 [Example 3]", "md_verbatim": "**Rows 1-3:** Show use of CPCELSTA and CPCSMRKS to further subset the named cell population in CPTEST. In row 1, the total monocyte population, based on expression of CD14, is measured without any further subsetting. Rows 2 and 3 show that the monocyte population is further subdivided, based on the cell state, into \"proliferating\" and \"non-proliferating\" subpopulations as indicated by CPCELSTA value. The value \"Monocytes\" in CPTEST for these rows is appended with \"Sub\" to \"Monocytes Sub\" to indicate that the second record pertains to a subpopulation of monocytes (i.e., proliferating or non-proliferating). CPCSMRKS is used to indicate that positive expression of the Ki67 marker (i.e., Ki67+) is used to identify the proliferating subpopulation and cells that do not express the Ki67 marker (i.e., Ki67-) is used to identify the non-proliferating subpopulation.", "score": 0.5766, "match_basis": "verbatim_token+domain_route:CP"}, {"md_atom_id": "md_dmCP_ex_a046", "md_file": "knowledge_base/domains/CP/examples.md", "md_atom_type": "SENTENCE", "md_parent_section": "§CP.2 [Example 2]", "md_verbatim": "**Rows 3-4:** Illustrate using CPCELSTA and CPCSMRKS to provide (1) the cell state descriptor in CPCELSTA, and (2) the markers used to define the cell state in CPCSMRKS. These variables further define CPTEST to be a subset of cells named in CPTEST; therefore the suffix \"Sub\" is appended to the value in CPTEST. In this example, the sponsor is interested in contrasting viable cells with those in the process of dying (non-viable), so each population is reported and the records differentiated using CPCELSTA and CPCSMRKS.", "score": 0.5652, "match_basis": "verbatim_token+domain_route:CP"}], "candidate_count": 5, "zero_candidate": false}
{"pdf_atom_id": "ig34_p0212_a010", "pdf_atom_type": "SENTENCE", "pdf_source": "SDTMIG_v3.4", "pdf_page": 212, "pdf_parent_section": "§6.3.5.3 Cell Phenotype Findings (CP)", "pdf_verbatim": "In order to make it clear that 1 or more of these variables have been used to further subdivide CPTEST, the value of the named cell population in CPTEST is appended with \"Sub\" to denote that the true test is a subset, subpopulation, or sublineage of the parent population identified in CPTEST.", "figure_ref": null, "candidates": [{"md_atom_id": "md_dmCP_ex_a054", "md_file": "knowledge_base/domains/CP/examples.md", "md_atom_type": "SENTENCE", "md_parent_section": "§CP.3 [Example 3]", "md_verbatim": "**Rows 1-3:** Show use of CPCELSTA and CPCSMRKS to further subset the named cell population in CPTEST. In row 1, the total monocyte population, based on expression of CD14, is measured without any further subsetting. Rows 2 and 3 show that the monocyte population is further subdivided, based on the cell state, into \"proliferating\" and \"non-proliferating\" subpopulations as indicated by CPCELSTA value. The value \"Monocytes\" in CPTEST for these rows is appended with \"Sub\" to \"Monocytes Sub\" to indicate that the second record pertains to a subpopulation of monocytes (i.e., proliferating or non-proliferating). CPCSMRKS is used to indicate that positive expression of the Ki67 marker (i.e., Ki67+) is used to identify the proliferating subpopulation and cells that do not express the Ki67 marker (i.e., Ki67-) is used to identify the non-proliferating subpopulation.", "score": 0.58, "match_basis": "verbatim_token+domain_route:CP"}, {"md_atom_id": "md_dmCP_ex_a046", "md_file": "knowledge_base/domains/CP/examples.md", "md_atom_type": "SENTENCE", "md_parent_section": "§CP.2 [Example 2]", "md_verbatim": "**Rows 3-4:** Illustrate using CPCELSTA and CPCSMRKS to provide (1) the cell state descriptor in CPCELSTA, and (2) the markers used to define the cell state in CPCSMRKS. These variables further define CPTEST to be a subset of cells named in CPTEST; therefore the suffix \"Sub\" is appended to the value in CPTEST. In this example, the sponsor is interested in contrasting viable cells with those in the process of dying (non-viable), so each population is reported and the records differentiated using CPCELSTA and CPCSMRKS.", "score": 0.568, "match_basis": "verbatim_token+domain_route:CP"}, {"md_atom_id": "md_dmCP_ex_a057", "md_file": "knowledge_base/domains/CP/examples.md", "md_atom_type": "SENTENCE", "md_parent_section": "§CP.3 [Example 3]", "md_verbatim": "**Rows 7-9:** Show use of CPSBMRKS to further subset the named cell population in CPTEST into sublineages based on expression of additional markers CDxx and CDyy.", "score": 0.5591, "match_basis": "verbatim_token+domain_route:CP"}, {"md_atom_id": "md_dmCP_ex_a053", "md_file": "knowledge_base/domains/CP/examples.md", "md_atom_type": "SENTENCE", "md_parent_section": "§CP.3 [Example 3]", "md_verbatim": "CPTEST is used to identify named cell populations (i.e., those cell types assigned names established by the scientific community). However, simply naming a cell type in CPTEST is often not sufficient for identifying or distinguishing among further subpopulations within that named population. In those cases, CPTEST alone does not contain the full complement of information needed to accurately define a test. 3 new variables that qualify CPTEST have been added to the CP domain specification for use when needed. Two of the variables, CPCELSTA and CPCSMRKS, support identifying a cell state, and the third variable, CPSBMRKS, supports identifying additional markers needed to subdivide the named population in CPTEST into further sublineages.", "score": 0.5459, "match_basis": "verbatim_token+domain_route:CP"}, {"md_atom_id": "md_dmCP_ex_a059", "md_file": "knowledge_base/domains/CP/examples.md", "md_atom_type": "SENTENCE", "md_parent_section": "§CP.3 [Example 3]", "md_verbatim": "**Row 12:** Demonstrates how CPSBMRKS, CPCELSTA, and CPCSMRKS work in combination with CPTEST to further define cell subpopulations based on any additional sublineage and cell state markers. The model allows for many combinations of values using these variables, thereby providing the flexibility to precisely specify a test. In all cases, the full complement of markers used for a test are populated into the CPMRKSTR variable.", "score": 0.5419, "match_basis": "verbatim_token+domain_route:CP"}], "candidate_count": 5, "zero_candidate": false}
{"pdf_atom_id": "ig34_p0212_a011", "pdf_atom_type": "SENTENCE", "pdf_source": "SDTMIG_v3.4", "pdf_page": 212, "pdf_parent_section": "§6.3.5.3 Cell Phenotype Findings (CP)", "pdf_verbatim": "When considering the need to use the CPSBMRKS variable, it is important to note that CPTEST is populated with the hierarchically lowest (most granular) named population, to which \"Sub\" is then appended. This ensures that CPSBMRKS contains only those additional marker(s) required to further differentiate subset(s) within the named population identified in CPTEST. For example, if 2 additional markers, CDxx and CDyy, are used to further classify T lymphocyte helper 2 cells into CDxx+CDyy- and CDxx-CDyy+ sublineages, CPTEST would contain the most granular named population (TLymHelp 2) appended with \"Sub\" in each of the 2 records (i.e., \"TLym Help 2 Sub\"), and CPSBMRKS would contain \"CDxx+CDyy-\" in 1 of the records and \"CDxx-CDyy+\" in the other.", "figure_ref": null, "candidates": [{"md_atom_id": "md_dmCP_ex_a046", "md_file": "knowledge_base/domains/CP/examples.md", "md_atom_type": "SENTENCE", "md_parent_section": "§CP.2 [Example 2]", "md_verbatim": "**Rows 3-4:** Illustrate using CPCELSTA and CPCSMRKS to provide (1) the cell state descriptor in CPCELSTA, and (2) the markers used to define the cell state in CPCSMRKS. These variables further define CPTEST to be a subset of cells named in CPTEST; therefore the suffix \"Sub\" is appended to the value in CPTEST. In this example, the sponsor is interested in contrasting viable cells with those in the process of dying (non-viable), so each population is reported and the records differentiated using CPCELSTA and CPCSMRKS.", "score": 0.5993, "match_basis": "verbatim_token+domain_route:CP"}, {"md_atom_id": "md_dmCP_ex_a054", "md_file": "knowledge_base/domains/CP/examples.md", "md_atom_type": "SENTENCE", "md_parent_section": "§CP.3 [Example 3]", "md_verbatim": "**Rows 1-3:** Show use of CPCELSTA and CPCSMRKS to further subset the named cell population in CPTEST. In row 1, the total monocyte population, based on expression of CD14, is measured without any further subsetting. Rows 2 and 3 show that the monocyte population is further subdivided, based on the cell state, into \"proliferating\" and \"non-proliferating\" subpopulations as indicated by CPCELSTA value. The value \"Monocytes\" in CPTEST for these rows is appended with \"Sub\" to \"Monocytes Sub\" to indicate that the second record pertains to a subpopulation of monocytes (i.e., proliferating or non-proliferating). CPCSMRKS is used to indicate that positive expression of the Ki67 marker (i.e., Ki67+) is used to identify the proliferating subpopulation and cells that do not express the Ki67 marker (i.e., Ki67-) is used to identify the non-proliferating subpopulation.", "score": 0.5824, "match_basis": "verbatim_token+domain_route:CP"}, {"md_atom_id": "md_dmCP_ex_a053", "md_file": "knowledge_base/domains/CP/examples.md", "md_atom_type": "SENTENCE", "md_parent_section": "§CP.3 [Example 3]", "md_verbatim": "CPTEST is used to identify named cell populations (i.e., those cell types assigned names established by the scientific community). However, simply naming a cell type in CPTEST is often not sufficient for identifying or distinguishing among further subpopulations within that named population. In those cases, CPTEST alone does not contain the full complement of information needed to accurately define a test. 3 new variables that qualify CPTEST have been added to the CP domain specification for use when needed. Two of the variables, CPCELSTA and CPCSMRKS, support identifying a cell state, and the third variable, CPSBMRKS, supports identifying additional markers needed to subdivide the named population in CPTEST into further sublineages.", "score": 0.5817, "match_basis": "verbatim_token+domain_route:CP"}, {"md_atom_id": "md_dmCP_ex_a057", "md_file": "knowledge_base/domains/CP/examples.md", "md_atom_type": "SENTENCE", "md_parent_section": "§CP.3 [Example 3]", "md_verbatim": "**Rows 7-9:** Show use of CPSBMRKS to further subset the named cell population in CPTEST into sublineages based on expression of additional markers CDxx and CDyy.", "score": 0.5738, "match_basis": "verbatim_token+domain_route:CP"}, {"md_atom_id": "md_dmCP_ex_a083", "md_file": "knowledge_base/domains/CP/examples.md", "md_atom_type": "SENTENCE", "md_parent_section": "§CP.7 [Example 7]", "md_verbatim": "**Row 1:** The sponsor chose to submit only the final calculated result for target occupancy as reported by the lab, i.e., records used for the calculation were not submitted. The CPMRKSTR variable includes markers identifying the cell population (CD45+CD14+) and the target of interest (CDxx) on which occupancy was measured. CPGATE contains the name of the gate used to virtually isolate the cell population of interest and CPGATDEF contains the gate definition or gating strategy.", "score": 0.5617, "match_basis": "verbatim_token+domain_route:CP"}], "candidate_count": 5, "zero_candidate": false}
{"pdf_atom_id": "ig34_p0212_a012", "pdf_atom_type": "LIST_ITEM", "pdf_source": "SDTMIG_v3.4", "pdf_page": 212, "pdf_parent_section": "§6.3.5.3 Cell Phenotype Findings (CP)", "pdf_verbatim": "Rows 1-3: Show use of CPCELSTA and CPCSMRKS to further subset the named cell population in CPTEST. In row 1, the total monocyte population, based on expression of CD14, is measured without any further subsetting. Rows 2 and 3 show that the monocyte population is further subdivided, based on the cell state, into \"proliferating\" and \"non-proliferating\" subpopulations as indicated by the CPCELSTA value. The value \"Monocytes\" in CPTEST for these rows is appended with \"Sub\" to \"Monocytes Sub\" to indicate that the record pertains to a subpopulation of monocytes (i.e., proliferating or non-proliferating). CPCELSTA is used to indicate that row 2 contains data for the proliferating subpopulation and row 3 contains data for the non-proliferating subpopulation. The CPCSMRKS variable is used to indicate that positive expression of the Ki67 marker (i.e., Ki67+) is used to identify the proliferating subpopulation and cells that do not express the Ki67 marker (i.e., Ki67-) is used to identify the non-proliferating subpopulation. The full set of markers used for the test are included in CPMRKSTR, and the cell gating strategy is identified in CPGATE and CPGATEDEF using the pipe character (|) to separate each level of the gate in CPGATEDEF.", "figure_ref": null, "candidates": [{"md_atom_id": "md_dmCP_ex_a054", "md_file": "knowledge_base/domains/CP/examples.md", "md_atom_type": "SENTENCE", "md_parent_section": "§CP.3 [Example 3]", "md_verbatim": "**Rows 1-3:** Show use of CPCELSTA and CPCSMRKS to further subset the named cell population in CPTEST. In row 1, the total monocyte population, based on expression of CD14, is measured without any further subsetting. Rows 2 and 3 show that the monocyte population is further subdivided, based on the cell state, into \"proliferating\" and \"non-proliferating\" subpopulations as indicated by CPCELSTA value. The value \"Monocytes\" in CPTEST for these rows is appended with \"Sub\" to \"Monocytes Sub\" to indicate that the second record pertains to a subpopulation of monocytes (i.e., proliferating or non-proliferating). CPCSMRKS is used to indicate that positive expression of the Ki67 marker (i.e., Ki67+) is used to identify the proliferating subpopulation and cells that do not express the Ki67 marker (i.e., Ki67-) is used to identify the non-proliferating subpopulation.", "score": 0.7498, "match_basis": "verbatim_token+domain_route:CP"}, {"md_atom_id": "md_dmCP_assn_a025", "md_file": "knowledge_base/domains/CP/assumptions.md", "md_atom_type": "LIST_ITEM", "md_parent_section": "§CP [CP — Assumptions]", "md_verbatim": "   d. The order of markers within a string is consistent across similar tests, generally proceeding in the order that defines the cell hierarchy from highest to lowest, followed by additional non-lineage-defining markers, and ending with cell state and viability markers. This order maintains alignment with how a test is identified using the ordered combination of CPTEST, CPSMRKS, and CPCELSTA. For example, a test for proliferating viable activated central memory helper T-lymphocytes would be operationally defined in CPMRKSTR as similar to \"CD45+CD3+CD19-CD4+CD8-CD197+CD45RA-CD278+Ki67+7AAD-\", where the order of markers in the string is \"CD45\" (leukocyte), \"CD3+CD19-\" (T lymphocyte), \"CD4+CD8-\" (helper), \"CD197+CD45RA-\" (central memory), \"CD278+\" (activated), Ki67+ (proliferating), 7AAD- (viable). Corresponding to this marker-based definition of the test, and using the appropriate Controlled Terminology terms, CPTEST is \"TLym Help Cen Mem Sub\", CPCELSTA is \"ACTIVATED; PROLIFERATING\", and CPCSMRKS is \"CD278+Ki67+\". If the sponsor also chose to include the viability status as a cell state in addition to the activation and proliferative states, CPCELSTA would be similar to \"ACTIVATED; PROLIFERATING; VIABLE\" and the corresponding CPCSMRKS value would be \"CD278+Ki67+7AAD-\". In this example, the named cell population in CPTEST has not been further divided into an unnamed sublineage based on additional sublineage markers; therefore, CPSBMRKS is null.", "score": 0.5943, "match_basis": "verbatim_token+domain_route:CP"}, {"md_atom_id": "md_dmCP_assn_a006", "md_file": "knowledge_base/domains/CP/assumptions.md", "md_atom_type": "LIST_ITEM", "md_parent_section": "§CP [CP — Assumptions]", "md_verbatim": "5. The combination of values in CPTEST, CPSBMRKS, CPCELSTA, and CPCSMRKS are used to uniquely identify a test. When 1 or more of the variables CPSBMRKS, CPCELSTA, or CPCSMRKS are populated, the Test Name (CPTEST) must be populated with the test name variant containing the \"Sub\" suffix to indicate that the finding/result pertains to a subpopulation of the cell type named in CPTEST.", "score": 0.5778, "match_basis": "verbatim_token+domain_route:CP"}, {"md_atom_id": "md_dmCP_assn_a019", "md_file": "knowledge_base/domains/CP/assumptions.md", "md_atom_type": "LIST_ITEM", "md_parent_section": "§CP [CP — Assumptions]", "md_verbatim": "   a. Because the majority of cell phenotyping tests of interest are for viable cells, the word \"Viable\" is not generally included in the test name (CPTEST) and usually does not need to be explicitly stated in CPCELSTA. Because populating CPCELSTA and CSMRKS with viability information necessitates appending the \"Sub\" suffix to the value in CPTEST (assumption 5), it is recommended that CPCELSTA and CPCSMRKS generally not be used unless a selective viability stain was included in the test in order to differentiate the record for viable cells from record(s) for cells in a different vital state. For example, when viable cells are being compared to apoptotic and/or non-viable cells, it is necessary to differentiate those records using CPCELSTA and CPCSMRKS. In such cases where CPCELSTA and CPCSMRKS are populated, the \"Sub\" suffix is appended to the value in CPTEST (assumption 5).", "score": 0.5712, "match_basis": "verbatim_token+domain_route:CP"}, {"md_atom_id": "md_dmCP_assn_a026", "md_file": "knowledge_base/domains/CP/assumptions.md", "md_atom_type": "LIST_ITEM", "md_parent_section": "§CP [CP — Assumptions]", "md_verbatim": "   e. Forward (FSC) and Side (SSC) light scatter: These parameters are generally used to perform initial gating to exclude debris non-singlets and are often reapplied to differentiate cell subpopulations in the \"inclusion\" gate. However, FSC and SSC are often not included in marker string definitions as it is generally taken for granted that they were used. In contrast, they are usually included in a descriptions of a gating strategy, and would generally be included in CPGATDEF when the full gating strategy is shown. Labs/sponsors may choose whether to include FSC and SSC parameters in CPMRKSTR. It is recommended to include them when they are needed to differentiate one test from another. For example, because there is no universal expression marker specific for lymphocytes, FSC and SSC are used to define the lymphocyte subpopulation within a CD45+ leukocyte population. A test of \"Lymphocytes/Leukocytes\" defined only in terms of CD45 expression would not make sense as it would be \"CD45+/CD45+\". In this case, it makes sense to define lymphocytes as \"CD45+SSClo\" so that the value in CPMRKSTR is \"CD45+SSClo/CD45+\".", "score": 0.57, "match_basis": "verbatim_token+domain_route:CP"}], "candidate_count": 5, "zero_candidate": false}
{"pdf_atom_id": "ig34_p0212_a013", "pdf_atom_type": "LIST_ITEM", "pdf_source": "SDTMIG_v3.4", "pdf_page": 212, "pdf_parent_section": "§6.3.5.3 Cell Phenotype Findings (CP)", "pdf_verbatim": "Rows 4-5: Show the proliferating (from row 2) and non-proliferating (from row 3) monocyte subpopulations expressed as a percentage of total monocytes (from row 1). The numerators in CPTEST for rows 4-5 use the named cell population appended with \"Sub\" (i.e., Monocytes Sub), and CPCELSTA and CPCSMRKS are used to differentiate the proliferating and the non-proliferating subpopulations. The grouping value in CPGRPID indicates the data for monocytes in row 1 is used as the denominator for these tests.", "figure_ref": null, "candidates": [{"md_atom_id": "md_dmCP_ex_a054", "md_file": "knowledge_base/domains/CP/examples.md", "md_atom_type": "SENTENCE", "md_parent_section": "§CP.3 [Example 3]", "md_verbatim": "**Rows 1-3:** Show use of CPCELSTA and CPCSMRKS to further subset the named cell population in CPTEST. In row 1, the total monocyte population, based on expression of CD14, is measured without any further subsetting. Rows 2 and 3 show that the monocyte population is further subdivided, based on the cell state, into \"proliferating\" and \"non-proliferating\" subpopulations as indicated by CPCELSTA value. The value \"Monocytes\" in CPTEST for these rows is appended with \"Sub\" to \"Monocytes Sub\" to indicate that the second record pertains to a subpopulation of monocytes (i.e., proliferating or non-proliferating). CPCSMRKS is used to indicate that positive expression of the Ki67 marker (i.e., Ki67+) is used to identify the proliferating subpopulation and cells that do not express the Ki67 marker (i.e., Ki67-) is used to identify the non-proliferating subpopulation.", "score": 0.5808, "match_basis": "verbatim_token+domain_route:CP"}, {"md_atom_id": "md_dmCP_assn_a006", "md_file": "knowledge_base/domains/CP/assumptions.md", "md_atom_type": "LIST_ITEM", "md_parent_section": "§CP [CP — Assumptions]", "md_verbatim": "5. The combination of values in CPTEST, CPSBMRKS, CPCELSTA, and CPCSMRKS are used to uniquely identify a test. When 1 or more of the variables CPSBMRKS, CPCELSTA, or CPCSMRKS are populated, the Test Name (CPTEST) must be populated with the test name variant containing the \"Sub\" suffix to indicate that the finding/result pertains to a subpopulation of the cell type named in CPTEST.", "score": 0.5774, "match_basis": "verbatim_token+domain_route:CP"}, {"md_atom_id": "md_dmCP_ex_a055", "md_file": "knowledge_base/domains/CP/examples.md", "md_atom_type": "SENTENCE", "md_parent_section": "§CP.3 [Example 3]", "md_verbatim": "**Rows 4-5:** Show the proliferating (from row 2) and non-proliferating (from row 3) monocyte subpopulations expressed as a percentage of total monocytes (from row 1).", "score": 0.5685, "match_basis": "verbatim_token+domain_route:CP"}, {"md_atom_id": "md_dmCP_assn_a019", "md_file": "knowledge_base/domains/CP/assumptions.md", "md_atom_type": "LIST_ITEM", "md_parent_section": "§CP [CP — Assumptions]", "md_verbatim": "   a. Because the majority of cell phenotyping tests of interest are for viable cells, the word \"Viable\" is not generally included in the test name (CPTEST) and usually does not need to be explicitly stated in CPCELSTA. Because populating CPCELSTA and CSMRKS with viability information necessitates appending the \"Sub\" suffix to the value in CPTEST (assumption 5), it is recommended that CPCELSTA and CPCSMRKS generally not be used unless a selective viability stain was included in the test in order to differentiate the record for viable cells from record(s) for cells in a different vital state. For example, when viable cells are being compared to apoptotic and/or non-viable cells, it is necessary to differentiate those records using CPCELSTA and CPCSMRKS. In such cases where CPCELSTA and CPCSMRKS are populated, the \"Sub\" suffix is appended to the value in CPTEST (assumption 5).", "score": 0.5579, "match_basis": "verbatim_token+domain_route:CP"}, {"md_atom_id": "md_dmCP_assn_a025", "md_file": "knowledge_base/domains/CP/assumptions.md", "md_atom_type": "LIST_ITEM", "md_parent_section": "§CP [CP — Assumptions]", "md_verbatim": "   d. The order of markers within a string is consistent across similar tests, generally proceeding in the order that defines the cell hierarchy from highest to lowest, followed by additional non-lineage-defining markers, and ending with cell state and viability markers. This order maintains alignment with how a test is identified using the ordered combination of CPTEST, CPSMRKS, and CPCELSTA. For example, a test for proliferating viable activated central memory helper T-lymphocytes would be operationally defined in CPMRKSTR as similar to \"CD45+CD3+CD19-CD4+CD8-CD197+CD45RA-CD278+Ki67+7AAD-\", where the order of markers in the string is \"CD45\" (leukocyte), \"CD3+CD19-\" (T lymphocyte), \"CD4+CD8-\" (helper), \"CD197+CD45RA-\" (central memory), \"CD278+\" (activated), Ki67+ (proliferating), 7AAD- (viable). Corresponding to this marker-based definition of the test, and using the appropriate Controlled Terminology terms, CPTEST is \"TLym Help Cen Mem Sub\", CPCELSTA is \"ACTIVATED; PROLIFERATING\", and CPCSMRKS is \"CD278+Ki67+\". If the sponsor also chose to include the viability status as a cell state in addition to the activation and proliferative states, CPCELSTA would be similar to \"ACTIVATED; PROLIFERATING; VIABLE\" and the corresponding CPCSMRKS value would be \"CD278+Ki67+7AAD-\". In this example, the named cell population in CPTEST has not been further divided into an unnamed sublineage based on additional sublineage markers; therefore, CPSBMRKS is null.", "score": 0.5243, "match_basis": "verbatim_token+domain_route:CP"}], "candidate_count": 5, "zero_candidate": false}
{"pdf_atom_id": "ig34_p0212_a014", "pdf_atom_type": "SENTENCE", "pdf_source": "SDTMIG_v3.4", "pdf_page": 212, "pdf_parent_section": "§6.3.5.3 Cell Phenotype Findings (CP)", "pdf_verbatim": "Data from rows 1-3 are used to perform the additional measurements shown in the tests defined in rows 4-6; CPGRPID is used to indicate which records belong to the group.", "figure_ref": null, "candidates": [{"md_atom_id": "md_dmCP_ex_a049", "md_file": "knowledge_base/domains/CP/examples.md", "md_atom_type": "SENTENCE", "md_parent_section": "§CP.2 [Example 2]", "md_verbatim": "**Rows 9-11:** Illustrate a need to pre-coordinate information into the test name when the test incorporates results from two or more records (e.g., a ratio) in which key component(s) of the test are split across multiple variables. In the example, rows 9 and 10 use the CPCELSTA variable to indicate that the measured lymphocyte subpopulation includes only viable cells (row 9) or dying (non-viable cells, row 10). The ratio of viable to nonviable lymphocytes in row 11 is calculated using data from rows 9 and 10.", "score": 0.5105, "match_basis": "verbatim_token+domain_route:CP"}, {"md_atom_id": "md_dmCP_ex_a093", "md_file": "knowledge_base/domains/CP/examples.md", "md_atom_type": "SENTENCE", "md_parent_section": "§CP.8 [Example 8]", "md_verbatim": "**Rows 9-11:** Rows 9 and 10 show values for specific binding of the therapeutic antibody (CDxx antibody) in the unaltered (native) specimen (Row 9) and the specimen to which excess CDxx antibody was added (saturated assay condition) (Row 10). Specific binding was determined by subtracting the appropriate background measured in Rows 7 and 8 from the mean target bound (Row 3) and mean target total (Row 6). Row 11 shows the final result for CDxx antibody occupancy on the CDxx target protein as the quotient of the specific binding in the native specimen (Row 9) to the specific binding measuring the total CDxx available for binding (Row 10).", "score": 0.498, "match_basis": "verbatim_token+domain_route:CP"}, {"md_atom_id": "md_dmCP_ex_a069", "md_file": "knowledge_base/domains/CP/examples.md", "md_atom_type": "SENTENCE", "md_parent_section": "§CP.5 [Example 5]", "md_verbatim": "**Rows 1-3:** Incorporates both standard proportion analysis and single marker expression for a cell state marker in the B lymphocyte assay using CPGRPID to group the related record. In accordance with CP guidance for quantitative single marker expression, row 3 contains the marker being measured followed by \"Expression\". CPMRKSTR uses the recommended format of listing the marker being measured first, followed by the unit in which expression was quantified (median fluorescence intensity, MdFI in the example), and lastly by the complete marker string of the cell population on which expression was measured. GATE and GATEDEF show the gating strategy so it is clear which gate was used to make the quantitative measurement of expression.", "score": 0.4967, "match_basis": "verbatim_token+domain_route:CP"}, {"md_atom_id": "md_dmCP_ex_a096", "md_file": "knowledge_base/domains/CP/examples.md", "md_atom_type": "SENTENCE", "md_parent_section": "§CP.9 [Example 9]", "md_verbatim": "This example shows data from a monocyte receptor occupancy indirect detection assay for a target of interest relying upon externally applied assay conditions and several binding agents to measure the parameters reported.", "score": 0.4955, "match_basis": "verbatim_token+domain_route:CP"}, {"md_atom_id": "md_dmCP_ex_a054", "md_file": "knowledge_base/domains/CP/examples.md", "md_atom_type": "SENTENCE", "md_parent_section": "§CP.3 [Example 3]", "md_verbatim": "**Rows 1-3:** Show use of CPCELSTA and CPCSMRKS to further subset the named cell population in CPTEST. In row 1, the total monocyte population, based on expression of CD14, is measured without any further subsetting. Rows 2 and 3 show that the monocyte population is further subdivided, based on the cell state, into \"proliferating\" and \"non-proliferating\" subpopulations as indicated by CPCELSTA value. The value \"Monocytes\" in CPTEST for these rows is appended with \"Sub\" to \"Monocytes Sub\" to indicate that the second record pertains to a subpopulation of monocytes (i.e., proliferating or non-proliferating). CPCSMRKS is used to indicate that positive expression of the Ki67 marker (i.e., Ki67+) is used to identify the proliferating subpopulation and cells that do not express the Ki67 marker (i.e., Ki67-) is used to identify the non-proliferating subpopulation.", "score": 0.4933, "match_basis": "verbatim_token+domain_route:CP"}], "candidate_count": 5, "zero_candidate": false}
{"pdf_atom_id": "ig34_p0213_a001", "pdf_atom_type": "LIST_ITEM", "pdf_source": "SDTMIG_v3.4", "pdf_page": 213, "pdf_parent_section": "§6.3.5.3 Cell Phenotype Findings (CP)", "pdf_verbatim": "Row 6: Shows the ratio of the proliferating monocyte subpopulation to the non-proliferating monocyte subpopulation. For this calculated test, CPCELSTA and CPCSMRKS are not populated because (as in Example 2), the cell state information from rows 4 and 5 are pre-coordinated into the test name (CPTEST) in row 6. Pre-coordination of the cell state into the test name also eliminates the need to append \"Sub\" to the cell name in the numerator and denominator of the test. CPMRKSTR contains the full marker string for each side of the ratio. CPGRPID is used to indicate which grouping of related records are used to perform the calculation. In the example, the lab did not provide \"RATIO\" as a unit of measure for the test and the sponsor chose not to include \"RATIO\" in CPORRESU and CPSTRESU, but did include it as the Result Type in CPRESTYP.", "figure_ref": null, "candidates": [{"md_atom_id": "md_dmCP_assn_a025", "md_file": "knowledge_base/domains/CP/assumptions.md", "md_atom_type": "LIST_ITEM", "md_parent_section": "§CP [CP — Assumptions]", "md_verbatim": "   d. The order of markers within a string is consistent across similar tests, generally proceeding in the order that defines the cell hierarchy from highest to lowest, followed by additional non-lineage-defining markers, and ending with cell state and viability markers. This order maintains alignment with how a test is identified using the ordered combination of CPTEST, CPSMRKS, and CPCELSTA. For example, a test for proliferating viable activated central memory helper T-lymphocytes would be operationally defined in CPMRKSTR as similar to \"CD45+CD3+CD19-CD4+CD8-CD197+CD45RA-CD278+Ki67+7AAD-\", where the order of markers in the string is \"CD45\" (leukocyte), \"CD3+CD19-\" (T lymphocyte), \"CD4+CD8-\" (helper), \"CD197+CD45RA-\" (central memory), \"CD278+\" (activated), Ki67+ (proliferating), 7AAD- (viable). Corresponding to this marker-based definition of the test, and using the appropriate Controlled Terminology terms, CPTEST is \"TLym Help Cen Mem Sub\", CPCELSTA is \"ACTIVATED; PROLIFERATING\", and CPCSMRKS is \"CD278+Ki67+\". If the sponsor also chose to include the viability status as a cell state in addition to the activation and proliferative states, CPCELSTA would be similar to \"ACTIVATED; PROLIFERATING; VIABLE\" and the corresponding CPCSMRKS value would be \"CD278+Ki67+7AAD-\". In this example, the named cell population in CPTEST has not been further divided into an unnamed sublineage based on additional sublineage markers; therefore, CPSBMRKS is null.", "score": 0.5708, "match_basis": "verbatim_token+domain_route:CP"}, {"md_atom_id": "md_dmCP_assn_a019", "md_file": "knowledge_base/domains/CP/assumptions.md", "md_atom_type": "LIST_ITEM", "md_parent_section": "§CP [CP — Assumptions]", "md_verbatim": "   a. Because the majority of cell phenotyping tests of interest are for viable cells, the word \"Viable\" is not generally included in the test name (CPTEST) and usually does not need to be explicitly stated in CPCELSTA. Because populating CPCELSTA and CSMRKS with viability information necessitates appending the \"Sub\" suffix to the value in CPTEST (assumption 5), it is recommended that CPCELSTA and CPCSMRKS generally not be used unless a selective viability stain was included in the test in order to differentiate the record for viable cells from record(s) for cells in a different vital state. For example, when viable cells are being compared to apoptotic and/or non-viable cells, it is necessary to differentiate those records using CPCELSTA and CPCSMRKS. In such cases where CPCELSTA and CPCSMRKS are populated, the \"Sub\" suffix is appended to the value in CPTEST (assumption 5).", "score": 0.5574, "match_basis": "verbatim_token+domain_route:CP"}, {"md_atom_id": "md_dmCP_assn_a026", "md_file": "knowledge_base/domains/CP/assumptions.md", "md_atom_type": "LIST_ITEM", "md_parent_section": "§CP [CP — Assumptions]", "md_verbatim": "   e. Forward (FSC) and Side (SSC) light scatter: These parameters are generally used to perform initial gating to exclude debris non-singlets and are often reapplied to differentiate cell subpopulations in the \"inclusion\" gate. However, FSC and SSC are often not included in marker string definitions as it is generally taken for granted that they were used. In contrast, they are usually included in a descriptions of a gating strategy, and would generally be included in CPGATDEF when the full gating strategy is shown. Labs/sponsors may choose whether to include FSC and SSC parameters in CPMRKSTR. It is recommended to include them when they are needed to differentiate one test from another. For example, because there is no universal expression marker specific for lymphocytes, FSC and SSC are used to define the lymphocyte subpopulation within a CD45+ leukocyte population. A test of \"Lymphocytes/Leukocytes\" defined only in terms of CD45 expression would not make sense as it would be \"CD45+/CD45+\". In this case, it makes sense to define lymphocytes as \"CD45+SSClo\" so that the value in CPMRKSTR is \"CD45+SSClo/CD45+\".", "score": 0.554, "match_basis": "verbatim_token+domain_route:CP"}, {"md_atom_id": "md_dmCP_assn_a006", "md_file": "knowledge_base/domains/CP/assumptions.md", "md_atom_type": "LIST_ITEM", "md_parent_section": "§CP [CP — Assumptions]", "md_verbatim": "5. The combination of values in CPTEST, CPSBMRKS, CPCELSTA, and CPCSMRKS are used to uniquely identify a test. When 1 or more of the variables CPSBMRKS, CPCELSTA, or CPCSMRKS are populated, the Test Name (CPTEST) must be populated with the test name variant containing the \"Sub\" suffix to indicate that the finding/result pertains to a subpopulation of the cell type named in CPTEST.", "score": 0.5476, "match_basis": "verbatim_token+domain_route:CP"}, {"md_atom_id": "md_dmCP_assn_a015", "md_file": "knowledge_base/domains/CP/assumptions.md", "md_atom_type": "LIST_ITEM", "md_parent_section": "§CP [CP — Assumptions]", "md_verbatim": "      iii. The general form of the delimiter used to separate the marker being quantified from the cell population on which it is measured is \"<space>xxxx<space>\", where \"xxxx\" represents a character string used as delimiting text. It is recommended that the delimiting text is the abbreviation for the unit of measure used to report the level of expression of the quantified marker (e.g., \"MESF\", \"MdFI\"). An example which follows this guidance is: CPTEST = \"CD99 Expression\" and CPMRKSTR = \"CD99 MESF CD45+CD3-CD19+CD99+\", where \"MESF\" is the text delimiter and is followed by the entire marker string defining the cell population on which CD99 was measured, which includes the CD99 marker itself.", "score": 0.5379, "match_basis": "verbatim_token+domain_route:CP"}], "candidate_count": 5, "zero_candidate": false}
{"pdf_atom_id": "ig34_p0213_a002", "pdf_atom_type": "LIST_ITEM", "pdf_source": "SDTMIG_v3.4", "pdf_page": 213, "pdf_parent_section": "§6.3.5.3 Cell Phenotype Findings (CP)", "pdf_verbatim": "Rows 7-9: Show use of CPSBMRKS to further subset the named cell population in CPTEST into sublineages based on expression of additional markers CDxx and CDyy. In row 7, the total monocyte population, based on expression of CD14, is measured without any further subsetting. Rows 8 and 9 show that this monocyte population is further subdivided into two distinct sublineages, based on expression of CDxx and CDyy. Because those sublineages do not have established names, they are distinguished from one another using the CPSBMRKS variable. The value of \"Monocytes\" in the CPTEST variable for these rows is appended with the \"Sub\" suffix to \"Monocytes Sub\". The CPSBMRKS variable is used to indicate that row 8 contains data for the CDxx+CDyy- monocyte sublineage and row 9 contains data for the CDxx-CDyy+ sublineage. The full set of markers used for the test are included in CPMRKSTR, and the cell gating strategy is identified in CPGATE and CPGATEDEF using the pipe character (|) to separate each level of the gate in CPGATEDEF.", "figure_ref": null, "candidates": [{"md_atom_id": "md_dmCP_assn_a025", "md_file": "knowledge_base/domains/CP/assumptions.md", "md_atom_type": "LIST_ITEM", "md_parent_section": "§CP [CP — Assumptions]", "md_verbatim": "   d. The order of markers within a string is consistent across similar tests, generally proceeding in the order that defines the cell hierarchy from highest to lowest, followed by additional non-lineage-defining markers, and ending with cell state and viability markers. This order maintains alignment with how a test is identified using the ordered combination of CPTEST, CPSMRKS, and CPCELSTA. For example, a test for proliferating viable activated central memory helper T-lymphocytes would be operationally defined in CPMRKSTR as similar to \"CD45+CD3+CD19-CD4+CD8-CD197+CD45RA-CD278+Ki67+7AAD-\", where the order of markers in the string is \"CD45\" (leukocyte), \"CD3+CD19-\" (T lymphocyte), \"CD4+CD8-\" (helper), \"CD197+CD45RA-\" (central memory), \"CD278+\" (activated), Ki67+ (proliferating), 7AAD- (viable). Corresponding to this marker-based definition of the test, and using the appropriate Controlled Terminology terms, CPTEST is \"TLym Help Cen Mem Sub\", CPCELSTA is \"ACTIVATED; PROLIFERATING\", and CPCSMRKS is \"CD278+Ki67+\". If the sponsor also chose to include the viability status as a cell state in addition to the activation and proliferative states, CPCELSTA would be similar to \"ACTIVATED; PROLIFERATING; VIABLE\" and the corresponding CPCSMRKS value would be \"CD278+Ki67+7AAD-\". In this example, the named cell population in CPTEST has not been further divided into an unnamed sublineage based on additional sublineage markers; therefore, CPSBMRKS is null.", "score": 0.5828, "match_basis": "verbatim_token+domain_route:CP"}, {"md_atom_id": "md_dmCP_ex_a054", "md_file": "knowledge_base/domains/CP/examples.md", "md_atom_type": "SENTENCE", "md_parent_section": "§CP.3 [Example 3]", "md_verbatim": "**Rows 1-3:** Show use of CPCELSTA and CPCSMRKS to further subset the named cell population in CPTEST. In row 1, the total monocyte population, based on expression of CD14, is measured without any further subsetting. Rows 2 and 3 show that the monocyte population is further subdivided, based on the cell state, into \"proliferating\" and \"non-proliferating\" subpopulations as indicated by CPCELSTA value. The value \"Monocytes\" in CPTEST for these rows is appended with \"Sub\" to \"Monocytes Sub\" to indicate that the second record pertains to a subpopulation of monocytes (i.e., proliferating or non-proliferating). CPCSMRKS is used to indicate that positive expression of the Ki67 marker (i.e., Ki67+) is used to identify the proliferating subpopulation and cells that do not express the Ki67 marker (i.e., Ki67-) is used to identify the non-proliferating subpopulation.", "score": 0.5767, "match_basis": "verbatim_token+domain_route:CP"}, {"md_atom_id": "md_dmCP_assn_a026", "md_file": "knowledge_base/domains/CP/assumptions.md", "md_atom_type": "LIST_ITEM", "md_parent_section": "§CP [CP — Assumptions]", "md_verbatim": "   e. Forward (FSC) and Side (SSC) light scatter: These parameters are generally used to perform initial gating to exclude debris non-singlets and are often reapplied to differentiate cell subpopulations in the \"inclusion\" gate. However, FSC and SSC are often not included in marker string definitions as it is generally taken for granted that they were used. In contrast, they are usually included in a descriptions of a gating strategy, and would generally be included in CPGATDEF when the full gating strategy is shown. Labs/sponsors may choose whether to include FSC and SSC parameters in CPMRKSTR. It is recommended to include them when they are needed to differentiate one test from another. For example, because there is no universal expression marker specific for lymphocytes, FSC and SSC are used to define the lymphocyte subpopulation within a CD45+ leukocyte population. A test of \"Lymphocytes/Leukocytes\" defined only in terms of CD45 expression would not make sense as it would be \"CD45+/CD45+\". In this case, it makes sense to define lymphocytes as \"CD45+SSClo\" so that the value in CPMRKSTR is \"CD45+SSClo/CD45+\".", "score": 0.5692, "match_basis": "verbatim_token+domain_route:CP"}, {"md_atom_id": "md_dmCP_assn_a015", "md_file": "knowledge_base/domains/CP/assumptions.md", "md_atom_type": "LIST_ITEM", "md_parent_section": "§CP [CP — Assumptions]", "md_verbatim": "      iii. The general form of the delimiter used to separate the marker being quantified from the cell population on which it is measured is \"<space>xxxx<space>\", where \"xxxx\" represents a character string used as delimiting text. It is recommended that the delimiting text is the abbreviation for the unit of measure used to report the level of expression of the quantified marker (e.g., \"MESF\", \"MdFI\"). An example which follows this guidance is: CPTEST = \"CD99 Expression\" and CPMRKSTR = \"CD99 MESF CD45+CD3-CD19+CD99+\", where \"MESF\" is the text delimiter and is followed by the entire marker string defining the cell population on which CD99 was measured, which includes the CD99 marker itself.", "score": 0.5662, "match_basis": "verbatim_token+domain_route:CP"}, {"md_atom_id": "md_dmCP_assn_a006", "md_file": "knowledge_base/domains/CP/assumptions.md", "md_atom_type": "LIST_ITEM", "md_parent_section": "§CP [CP — Assumptions]", "md_verbatim": "5. The combination of values in CPTEST, CPSBMRKS, CPCELSTA, and CPCSMRKS are used to uniquely identify a test. When 1 or more of the variables CPSBMRKS, CPCELSTA, or CPCSMRKS are populated, the Test Name (CPTEST) must be populated with the test name variant containing the \"Sub\" suffix to indicate that the finding/result pertains to a subpopulation of the cell type named in CPTEST.", "score": 0.55, "match_basis": "verbatim_token+domain_route:CP"}], "candidate_count": 5, "zero_candidate": false}
{"pdf_atom_id": "ig34_p0213_a003", "pdf_atom_type": "LIST_ITEM", "pdf_source": "SDTMIG_v3.4", "pdf_page": 213, "pdf_parent_section": "§6.3.5.3 Cell Phenotype Findings (CP)", "pdf_verbatim": "Rows 10-11: Show the monocyte sublineages defined in rows 8-9 expressed as a percentage of total monocytes (row 7). The numerators in CPTEST for rows 10-11 use the named cell population appended with \"Sub\" (i.e., \"Monocytes Sub\"), and CPSBMRKS is used to differentiate the CDxx+CDyy- from the CDxx-CDyy+ sublineages. CPGRPID indicates that the result for monocytes in row 7 is used as the denominator.", "figure_ref": null, "candidates": [{"md_atom_id": "md_dmCP_assn_a006", "md_file": "knowledge_base/domains/CP/assumptions.md", "md_atom_type": "LIST_ITEM", "md_parent_section": "§CP [CP — Assumptions]", "md_verbatim": "5. The combination of values in CPTEST, CPSBMRKS, CPCELSTA, and CPCSMRKS are used to uniquely identify a test. When 1 or more of the variables CPSBMRKS, CPCELSTA, or CPCSMRKS are populated, the Test Name (CPTEST) must be populated with the test name variant containing the \"Sub\" suffix to indicate that the finding/result pertains to a subpopulation of the cell type named in CPTEST.", "score": 0.5648, "match_basis": "verbatim_token+domain_route:CP"}, {"md_atom_id": "md_dmCP_assn_a019", "md_file": "knowledge_base/domains/CP/assumptions.md", "md_atom_type": "LIST_ITEM", "md_parent_section": "§CP [CP — Assumptions]", "md_verbatim": "   a. Because the majority of cell phenotyping tests of interest are for viable cells, the word \"Viable\" is not generally included in the test name (CPTEST) and usually does not need to be explicitly stated in CPCELSTA. Because populating CPCELSTA and CSMRKS with viability information necessitates appending the \"Sub\" suffix to the value in CPTEST (assumption 5), it is recommended that CPCELSTA and CPCSMRKS generally not be used unless a selective viability stain was included in the test in order to differentiate the record for viable cells from record(s) for cells in a different vital state. For example, when viable cells are being compared to apoptotic and/or non-viable cells, it is necessary to differentiate those records using CPCELSTA and CPCSMRKS. In such cases where CPCELSTA and CPCSMRKS are populated, the \"Sub\" suffix is appended to the value in CPTEST (assumption 5).", "score": 0.5213, "match_basis": "verbatim_token+domain_route:CP"}, {"md_atom_id": "md_dmCP_ex_a058", "md_file": "knowledge_base/domains/CP/examples.md", "md_atom_type": "SENTENCE", "md_parent_section": "§CP.3 [Example 3]", "md_verbatim": "**Rows 10-11:** Show the monocyte sublineages defined in rows 8-9 expressed as a percentage of total monocytes (row 7).", "score": 0.5183, "match_basis": "verbatim_token+domain_route:CP"}, {"md_atom_id": "md_dmCP_assn_a026", "md_file": "knowledge_base/domains/CP/assumptions.md", "md_atom_type": "LIST_ITEM", "md_parent_section": "§CP [CP — Assumptions]", "md_verbatim": "   e. Forward (FSC) and Side (SSC) light scatter: These parameters are generally used to perform initial gating to exclude debris non-singlets and are often reapplied to differentiate cell subpopulations in the \"inclusion\" gate. However, FSC and SSC are often not included in marker string definitions as it is generally taken for granted that they were used. In contrast, they are usually included in a descriptions of a gating strategy, and would generally be included in CPGATDEF when the full gating strategy is shown. Labs/sponsors may choose whether to include FSC and SSC parameters in CPMRKSTR. It is recommended to include them when they are needed to differentiate one test from another. For example, because there is no universal expression marker specific for lymphocytes, FSC and SSC are used to define the lymphocyte subpopulation within a CD45+ leukocyte population. A test of \"Lymphocytes/Leukocytes\" defined only in terms of CD45 expression would not make sense as it would be \"CD45+/CD45+\". In this case, it makes sense to define lymphocytes as \"CD45+SSClo\" so that the value in CPMRKSTR is \"CD45+SSClo/CD45+\".", "score": 0.5163, "match_basis": "verbatim_token+domain_route:CP"}, {"md_atom_id": "md_dmCP_assn_a025", "md_file": "knowledge_base/domains/CP/assumptions.md", "md_atom_type": "LIST_ITEM", "md_parent_section": "§CP [CP — Assumptions]", "md_verbatim": "   d. The order of markers within a string is consistent across similar tests, generally proceeding in the order that defines the cell hierarchy from highest to lowest, followed by additional non-lineage-defining markers, and ending with cell state and viability markers. This order maintains alignment with how a test is identified using the ordered combination of CPTEST, CPSMRKS, and CPCELSTA. For example, a test for proliferating viable activated central memory helper T-lymphocytes would be operationally defined in CPMRKSTR as similar to \"CD45+CD3+CD19-CD4+CD8-CD197+CD45RA-CD278+Ki67+7AAD-\", where the order of markers in the string is \"CD45\" (leukocyte), \"CD3+CD19-\" (T lymphocyte), \"CD4+CD8-\" (helper), \"CD197+CD45RA-\" (central memory), \"CD278+\" (activated), Ki67+ (proliferating), 7AAD- (viable). Corresponding to this marker-based definition of the test, and using the appropriate Controlled Terminology terms, CPTEST is \"TLym Help Cen Mem Sub\", CPCELSTA is \"ACTIVATED; PROLIFERATING\", and CPCSMRKS is \"CD278+Ki67+\". If the sponsor also chose to include the viability status as a cell state in addition to the activation and proliferative states, CPCELSTA would be similar to \"ACTIVATED; PROLIFERATING; VIABLE\" and the corresponding CPCSMRKS value would be \"CD278+Ki67+7AAD-\". In this example, the named cell population in CPTEST has not been further divided into an unnamed sublineage based on additional sublineage markers; therefore, CPSBMRKS is null.", "score": 0.5153, "match_basis": "verbatim_token+domain_route:CP"}], "candidate_count": 5, "zero_candidate": false}
{"pdf_atom_id": "ig34_p0213_a004", "pdf_atom_type": "SENTENCE", "pdf_source": "SDTMIG_v3.4", "pdf_page": 213, "pdf_parent_section": "§6.3.5.3 Cell Phenotype Findings (CP)", "pdf_verbatim": "Data from rows 7-9 are used to perform the additional measurements shown in the tests defined in rows 10-11; CPGRPID is used to indicate which records belong to the group.", "figure_ref": null, "candidates": [{"md_atom_id": "md_dmCP_ex_a049", "md_file": "knowledge_base/domains/CP/examples.md", "md_atom_type": "SENTENCE", "md_parent_section": "§CP.2 [Example 2]", "md_verbatim": "**Rows 9-11:** Illustrate a need to pre-coordinate information into the test name when the test incorporates results from two or more records (e.g., a ratio) in which key component(s) of the test are split across multiple variables. In the example, rows 9 and 10 use the CPCELSTA variable to indicate that the measured lymphocyte subpopulation includes only viable cells (row 9) or dying (non-viable cells, row 10). The ratio of viable to nonviable lymphocytes in row 11 is calculated using data from rows 9 and 10.", "score": 0.5105, "match_basis": "verbatim_token+domain_route:CP"}, {"md_atom_id": "md_dmCP_ex_a093", "md_file": "knowledge_base/domains/CP/examples.md", "md_atom_type": "SENTENCE", "md_parent_section": "§CP.8 [Example 8]", "md_verbatim": "**Rows 9-11:** Rows 9 and 10 show values for specific binding of the therapeutic antibody (CDxx antibody) in the unaltered (native) specimen (Row 9) and the specimen to which excess CDxx antibody was added (saturated assay condition) (Row 10). Specific binding was determined by subtracting the appropriate background measured in Rows 7 and 8 from the mean target bound (Row 3) and mean target total (Row 6). Row 11 shows the final result for CDxx antibody occupancy on the CDxx target protein as the quotient of the specific binding in the native specimen (Row 9) to the specific binding measuring the total CDxx available for binding (Row 10).", "score": 0.498, "match_basis": "verbatim_token+domain_route:CP"}, {"md_atom_id": "md_dmCP_ex_a069", "md_file": "knowledge_base/domains/CP/examples.md", "md_atom_type": "SENTENCE", "md_parent_section": "§CP.5 [Example 5]", "md_verbatim": "**Rows 1-3:** Incorporates both standard proportion analysis and single marker expression for a cell state marker in the B lymphocyte assay using CPGRPID to group the related record. In accordance with CP guidance for quantitative single marker expression, row 3 contains the marker being measured followed by \"Expression\". CPMRKSTR uses the recommended format of listing the marker being measured first, followed by the unit in which expression was quantified (median fluorescence intensity, MdFI in the example), and lastly by the complete marker string of the cell population on which expression was measured. GATE and GATEDEF show the gating strategy so it is clear which gate was used to make the quantitative measurement of expression.", "score": 0.4967, "match_basis": "verbatim_token+domain_route:CP"}, {"md_atom_id": "md_dmCP_ex_a096", "md_file": "knowledge_base/domains/CP/examples.md", "md_atom_type": "SENTENCE", "md_parent_section": "§CP.9 [Example 9]", "md_verbatim": "This example shows data from a monocyte receptor occupancy indirect detection assay for a target of interest relying upon externally applied assay conditions and several binding agents to measure the parameters reported.", "score": 0.4955, "match_basis": "verbatim_token+domain_route:CP"}, {"md_atom_id": "md_dmCP_ex_a054", "md_file": "knowledge_base/domains/CP/examples.md", "md_atom_type": "SENTENCE", "md_parent_section": "§CP.3 [Example 3]", "md_verbatim": "**Rows 1-3:** Show use of CPCELSTA and CPCSMRKS to further subset the named cell population in CPTEST. In row 1, the total monocyte population, based on expression of CD14, is measured without any further subsetting. Rows 2 and 3 show that the monocyte population is further subdivided, based on the cell state, into \"proliferating\" and \"non-proliferating\" subpopulations as indicated by CPCELSTA value. The value \"Monocytes\" in CPTEST for these rows is appended with \"Sub\" to \"Monocytes Sub\" to indicate that the second record pertains to a subpopulation of monocytes (i.e., proliferating or non-proliferating). CPCSMRKS is used to indicate that positive expression of the Ki67 marker (i.e., Ki67+) is used to identify the proliferating subpopulation and cells that do not express the Ki67 marker (i.e., Ki67-) is used to identify the non-proliferating subpopulation.", "score": 0.4933, "match_basis": "verbatim_token+domain_route:CP"}], "candidate_count": 5, "zero_candidate": false}
{"pdf_atom_id": "ig34_p0213_a005", "pdf_atom_type": "LIST_ITEM", "pdf_source": "SDTMIG_v3.4", "pdf_page": 213, "pdf_parent_section": "§6.3.5.3 Cell Phenotype Findings (CP)", "pdf_verbatim": "Row 12: Demonstrates how CPSBMRKS, CPCELSTA, and CPCSMRKS work in combination with CPTEST to further define cell subpopulations based on any additional sublineage and cell state markers. The model allows for many combinations of values using these variables, thereby providing the flexibility to precisely specify a test. In all cases, the full complement of markers used for a test are populated into the CPMRKSTR variable.", "figure_ref": null, "candidates": [{"md_atom_id": "md_dmCP_ex_a059", "md_file": "knowledge_base/domains/CP/examples.md", "md_atom_type": "SENTENCE", "md_parent_section": "§CP.3 [Example 3]", "md_verbatim": "**Row 12:** Demonstrates how CPSBMRKS, CPCELSTA, and CPCSMRKS work in combination with CPTEST to further define cell subpopulations based on any additional sublineage and cell state markers. The model allows for many combinations of values using these variables, thereby providing the flexibility to precisely specify a test. In all cases, the full complement of markers used for a test are populated into the CPMRKSTR variable.", "score": 0.91, "match_basis": "verbatim_token+domain_route:CP"}, {"md_atom_id": "md_dmCP_assn_a006", "md_file": "knowledge_base/domains/CP/assumptions.md", "md_atom_type": "LIST_ITEM", "md_parent_section": "§CP [CP — Assumptions]", "md_verbatim": "5. The combination of values in CPTEST, CPSBMRKS, CPCELSTA, and CPCSMRKS are used to uniquely identify a test. When 1 or more of the variables CPSBMRKS, CPCELSTA, or CPCSMRKS are populated, the Test Name (CPTEST) must be populated with the test name variant containing the \"Sub\" suffix to indicate that the finding/result pertains to a subpopulation of the cell type named in CPTEST.", "score": 0.5844, "match_basis": "verbatim_token+domain_route:CP"}, {"md_atom_id": "md_dmCP_assn_a025", "md_file": "knowledge_base/domains/CP/assumptions.md", "md_atom_type": "LIST_ITEM", "md_parent_section": "§CP [CP — Assumptions]", "md_verbatim": "   d. The order of markers within a string is consistent across similar tests, generally proceeding in the order that defines the cell hierarchy from highest to lowest, followed by additional non-lineage-defining markers, and ending with cell state and viability markers. This order maintains alignment with how a test is identified using the ordered combination of CPTEST, CPSMRKS, and CPCELSTA. For example, a test for proliferating viable activated central memory helper T-lymphocytes would be operationally defined in CPMRKSTR as similar to \"CD45+CD3+CD19-CD4+CD8-CD197+CD45RA-CD278+Ki67+7AAD-\", where the order of markers in the string is \"CD45\" (leukocyte), \"CD3+CD19-\" (T lymphocyte), \"CD4+CD8-\" (helper), \"CD197+CD45RA-\" (central memory), \"CD278+\" (activated), Ki67+ (proliferating), 7AAD- (viable). Corresponding to this marker-based definition of the test, and using the appropriate Controlled Terminology terms, CPTEST is \"TLym Help Cen Mem Sub\", CPCELSTA is \"ACTIVATED; PROLIFERATING\", and CPCSMRKS is \"CD278+Ki67+\". If the sponsor also chose to include the viability status as a cell state in addition to the activation and proliferative states, CPCELSTA would be similar to \"ACTIVATED; PROLIFERATING; VIABLE\" and the corresponding CPCSMRKS value would be \"CD278+Ki67+7AAD-\". In this example, the named cell population in CPTEST has not been further divided into an unnamed sublineage based on additional sublineage markers; therefore, CPSBMRKS is null.", "score": 0.5842, "match_basis": "verbatim_token+domain_route:CP"}, {"md_atom_id": "md_dmCP_assn_a020", "md_file": "knowledge_base/domains/CP/assumptions.md", "md_atom_type": "LIST_ITEM", "md_parent_section": "§CP [CP — Assumptions]", "md_verbatim": "   b. Viability marker(s) used to define a test are included in the full marker string in CPMRKSTR regardless of whether the viability status is stated explicitly in CPCELSTA. Moreover, if viability is explicitly stated in CPGATE, marker(s) used to designate viability are included in CPGATDEF. For example, if the value in CPGATE is \"Lymphocytes, Viable\" and 7AAD- was used to define the viable state, 7AAD- is included in CPGATDEF, in addition to being included in the complete marker string in CPMRKSTR.", "score": 0.5548, "match_basis": "verbatim_token+domain_route:CP"}, {"md_atom_id": "md_dmCP_assn_a021", "md_file": "knowledge_base/domains/CP/assumptions.md", "md_atom_type": "LIST_ITEM", "md_parent_section": "§CP [CP — Assumptions]", "md_verbatim": "8. Recommended formatting of marker string variables CPMRKSTR, CPSBMRKS, and CPCSMRKS: The marker string variables provide critical information for defining a test. Although there are no current plans to control their values through CDISC Controlled Terminology codelists, adherence to the following formatting guidelines helps to preclude ambiguities that can lead to uncertainty in uniquely understanding a test and its associated result.", "score": 0.5457, "match_basis": "verbatim_token+domain_route:CP"}], "candidate_count": 5, "zero_candidate": false}
{"pdf_atom_id": "ig34_p0213_a006", "pdf_atom_type": "CODE_LITERAL", "pdf_source": "SDTMIG_v3.4", "pdf_page": 213, "pdf_parent_section": "§6.3.5.3 Cell Phenotype Findings (CP)", "pdf_verbatim": "cp.xpt", "figure_ref": null, "candidates": [{"md_atom_id": "md_dmCP_ex_a015", "md_file": "knowledge_base/domains/CP/examples.md", "md_atom_type": "SENTENCE", "md_parent_section": "§CP.1.a [Example 1a]", "md_verbatim": "**cp.xpt**", "score": 0.79, "match_basis": "verbatim_token+domain_route:CP"}, {"md_atom_id": "md_dmCP_ex_a037", "md_file": "knowledge_base/domains/CP/examples.md", "md_atom_type": "SENTENCE", "md_parent_section": "§CP.1.b [Example 1b]", "md_verbatim": "**cp.xpt**", "score": 0.79, "match_basis": "verbatim_token+domain_route:CP"}, {"md_atom_id": "md_dmCP_ex_a086", "md_file": "knowledge_base/domains/CP/examples.md", "md_atom_type": "SENTENCE", "md_parent_section": "§CP.7 [Example 7]", "md_verbatim": "*(cp.xpt table contains 3 rows with columns including CPBDAGNT, CPGATE, CPGATDEF.)*", "score": 0.2054, "match_basis": "verbatim_token+domain_route:CP"}, {"md_atom_id": "md_dmCP_ex_a079", "md_file": "knowledge_base/domains/CP/examples.md", "md_atom_type": "SENTENCE", "md_parent_section": "§CP.6 [Example 6]", "md_verbatim": "*(cp.xpt table contains 32 rows with extensive use of CPSPTSTD and marker string variables.)*", "score": 0.2043, "match_basis": "verbatim_token+domain_route:CP"}, {"md_atom_id": "md_dmCP_ex_a094", "md_file": "knowledge_base/domains/CP/examples.md", "md_atom_type": "SENTENCE", "md_parent_section": "§CP.8 [Example 8]", "md_verbatim": "*(cp.xpt table contains 11 rows with columns including CPBDAGNT, CPTSTCND, CPREPNUM, CPCOLSRT.)*", "score": 0.2022, "match_basis": "verbatim_token+domain_route:CP"}, {"md_atom_id": "md_dmCP_ex_a066", "md_file": "knowledge_base/domains/CP/examples.md", "md_atom_type": "SENTENCE", "md_parent_section": "§CP.4 [Example 4]", "md_verbatim": "*(cp.xpt table contains 7 rows with columns including CPTSTCND, CPCNDAGT, CPREPNUM, CPCOLSRT, CPANMETH.)*", "score": 0.2013, "match_basis": "verbatim_token+domain_route:CP"}, {"md_atom_id": "md_dmCP_ex_a071", "md_file": "knowledge_base/domains/CP/examples.md", "md_atom_type": "SENTENCE", "md_parent_section": "§CP.5 [Example 5]", "md_verbatim": "*(cp.xpt table contains 8 rows with columns including CPGATE, CPGATDEF, and detailed marker string information.)*", "score": 0.2009, "match_basis": "verbatim_token+domain_route:CP"}, {"md_atom_id": "md_dmCP_ex_a060", "md_file": "knowledge_base/domains/CP/examples.md", "md_atom_type": "SENTENCE", "md_parent_section": "§CP.3 [Example 3]", "md_verbatim": "*(Due to extreme table width, the cp.xpt table for this example contains 12 rows of data with columns including CPSBMRKS, CPCELSTA, CPCSMRKS, CPGRPID, and other standard CP variables.)*", "score": 0.1977, "match_basis": "verbatim_token+domain_route:CP"}, {"md_atom_id": "md_dmCP_ex_a100", "md_file": "knowledge_base/domains/CP/examples.md", "md_atom_type": "SENTENCE", "md_parent_section": "§CP.9 [Example 9]", "md_verbatim": "*(cp.xpt table contains 14 rows illustrating indirect receptor occupancy detection with multiple binding agents, assay conditions, and calculated results.)*", "score": 0.1975, "match_basis": "verbatim_token+domain_route:CP"}, {"md_atom_id": "md_dmCP_ex_a050", "md_file": "knowledge_base/domains/CP/examples.md", "md_atom_type": "SENTENCE", "md_parent_section": "§CP.2 [Example 2]", "md_verbatim": "*(Due to extreme table width, the cp.xpt table for this example contains columns: Row, STUDYID, DOMAIN, USUBJID, CPSEQ, CPGRPID, CPTESTCD, CPTEST, CPSBMRKS, CPCELSTA, CPCSMRKS, CPGATE, CPGATDEF, CPCAT, CPORRES, CPORRESU, CPSTRESC, CPSTRESN, CPRESU, CPRESSCL, CPRESTYP, CPMETHOD, CPSPEC, CPDTC — with 11 rows of data.)*", "score": 0.1951, "match_basis": "verbatim_token+domain_route:CP"}], "candidate_count": 10, "zero_candidate": false}
{"pdf_atom_id": "ig34_p0213_a007", "pdf_atom_type": "TABLE_HEADER", "pdf_source": "SDTMIG_v3.4", "pdf_page": 213, "pdf_parent_section": "§6.3.5.3 Cell Phenotype Findings (CP)", "pdf_verbatim": "| Row | STUDYID | DOMAIN | USUBJID | CPSEQ | CPGRPID | CPTESTCD | CPTEST | CPSBMRKS | CPCELSTA | CPCSMRKS | CPMRKSTR | CPGATE | CPGATDEF | CPCAT | CPTSTPNL | CPORRES | CPORRESU | CPSTRESC | CPSTRESU | CPSTRESN | CPRESSCL | CPRESTYP | CPSPEC | CPMETHOD | CPDTC |", "figure_ref": null, "candidates": [{"md_atom_id": "md_dmCP_ex_a038", "md_file": "knowledge_base/domains/CP/examples.md", "md_atom_type": "TABLE_HEADER", "md_parent_section": "§CP.1.b [Example 1b]", "md_verbatim": "| Row | STUDYID | DOMAIN | USUBJID | CPSEQ | CPTESTCD | CPTEST | CPMRKSTR | CPGATE | CPGATDEF | CPCAT | CPORRES | CPORRESU | CPSTRESC | CPSTRESN | CPRESU | CPRESSCL | CPRESTYP | CPMETHOD | CPSPEC | CPDTC |\n|-----|---------|--------|---------|-------|----------|--------|----------|--------|----------|-------|---------|----------|----------|----------|--------|----------|----------|----------|--------|-------|", "score": 0.8636, "match_basis": "verbatim_token+domain_route:CP"}, {"md_atom_id": "md_dmCP_ex_a016", "md_file": "knowledge_base/domains/CP/examples.md", "md_atom_type": "TABLE_HEADER", "md_parent_section": "§CP.1.a [Example 1a]", "md_verbatim": "| Row | STUDYID | DOMAIN | USUBJID | CPSEQ | CPTESTCD | CPTEST | CPMRKSTR | CPCAT | CPORRES | CPORRESU | CPSTRESC | CPSTRESN | CPRESU | CPRESSCL | CPRESTYP | CPSPEC | CPMETHOD | CPDTC |\n|-----|---------|--------|---------|-------|----------|--------|----------|-------|---------|----------|----------|----------|--------|----------|----------|--------|----------|-------|", "score": 0.8159, "match_basis": "verbatim_token+domain_route:CP"}, {"md_atom_id": "md_dmCP_ex_a050", "md_file": "knowledge_base/domains/CP/examples.md", "md_atom_type": "SENTENCE", "md_parent_section": "§CP.2 [Example 2]", "md_verbatim": "*(Due to extreme table width, the cp.xpt table for this example contains columns: Row, STUDYID, DOMAIN, USUBJID, CPSEQ, CPGRPID, CPTESTCD, CPTEST, CPSBMRKS, CPCELSTA, CPCSMRKS, CPGATE, CPGATDEF, CPCAT, CPORRES, CPORRESU, CPSTRESC, CPSTRESN, CPRESU, CPRESSCL, CPRESTYP, CPMETHOD, CPSPEC, CPDTC — with 11 rows of data.)*", "score": 0.5819, "match_basis": "verbatim_token+domain_route:CP"}, {"md_atom_id": "md_dmCP_ex_a021", "md_file": "knowledge_base/domains/CP/examples.md", "md_atom_type": "TABLE_ROW", "md_parent_section": "§CP.1.a [Example 1a]", "md_verbatim": "| 5 | ABCD | CP | ABCD-001-001 | 5 | BLYCELY | B-Lymphocytes/Lymphocytes | CD45+CD3-CD19+CD14-CD56-/CD45+FSC SSC | IMMUNOPHENOTYPING | 6.1 | % | 6.1 | 6.1 | | QUANTITATIVE | NUMBER FRACTION | BLOOD | FLOW CYTOMETRY | 2021-08-16T04:20 |", "score": 0.3586, "match_basis": "verbatim_token+domain_route:CP"}, {"md_atom_id": "md_dmCP_ex_a031", "md_file": "knowledge_base/domains/CP/examples.md", "md_atom_type": "TABLE_ROW", "md_parent_section": "§CP.1.a [Example 1a]", "md_verbatim": "| 15 | ABCD | CP | ABCD-001-001 | 15 | NKLE | NK Cells/Leuk | CD45+CD3-CD19-CD14-CD56+FSC SSC/CD45+ | IMMUNOPHENOTYPING | 3.5 | % | 3.5 | 3.5 | | QUANTITATIVE | NUMBER FRACTION | BLOOD | FLOW CYTOMETRY | 2021-08-16T04:20 |", "score": 0.3554, "match_basis": "verbatim_token+domain_route:CP"}], "candidate_count": 5, "zero_candidate": false}
{"pdf_atom_id": "ig34_p0213_a008", "pdf_atom_type": "TABLE_ROW", "pdf_source": "SDTMIG_v3.4", "pdf_page": 213, "pdf_parent_section": "§6.3.5.3 Cell Phenotype Findings (CP)", "pdf_verbatim": "| 1 | ABC-123 | CP | ABCD-001-001 | 1 | 1 | MONO | Monocytes |  |  |  | CD14+ | MONO FSC+SSC+CD14+ | IMMUNOPHENOTYPING | MONOCYTES | 394 | 10^6/L | 394 | 10^6/L | 394 | QUANTITATIVE | NUMBER CONCENTRATION | BLOOD | FLOW CYTOMETRY | 2020-08-16T08:00 |", "figure_ref": null, "candidates": [{"md_atom_id": "md_dmCP_ex_a028", "md_file": "knowledge_base/domains/CP/examples.md", "md_atom_type": "TABLE_ROW", "md_parent_section": "§CP.1.a [Example 1a]", "md_verbatim": "| 12 | ABCD | CP | ABCD-001-001 | 12 | MONO | Monocytes | CD45+CD3-CD19-CD14+CD56- | IMMUNOPHENOTYPING | 613 | 10^6/L | 613 | 613 | | QUANTITATIVE | NUMBER CONCENTRATION | BLOOD | FLOW CYTOMETRY | 2021-08-16T04:20 |", "score": 0.8875, "match_basis": "verbatim_token+domain_route:CP"}, {"md_atom_id": "md_dmCP_ex_a018", "md_file": "knowledge_base/domains/CP/examples.md", "md_atom_type": "TABLE_ROW", "md_parent_section": "§CP.1.a [Example 1a]", "md_verbatim": "| 2 | ABCD | CP | ABCD-001-001 | 2 | LYM | Lymphocytes | CD45+FSC SSC | IMMUNOPHENOTYPING | 1710 | 10^6/L | 1710 | 1710 | 10^6/L | QUANTITATIVE | NUMBER CONCENTRATION | BLOOD | FLOW CYTOMETRY | 2021-08-16T04:20 |", "score": 0.8537, "match_basis": "verbatim_token+domain_route:CP"}, {"md_atom_id": "md_dmCP_ex_a039", "md_file": "knowledge_base/domains/CP/examples.md", "md_atom_type": "TABLE_ROW", "md_parent_section": "§CP.1.b [Example 1b]", "md_verbatim": "| 1 | ABCD | CP | ABCD-001-001 | 1 | WBC | Leukocytes | CD45+ | FSC SSC | IMMUNOPHENOTYPING | 6630 | 10^6/L | 6630 | 6630 | 10^6/L | QUANTITATIVE | NUMBER CONCENTRATION | FLOW CYTOMETRY | BLOOD | 2021-08-16T04:20 |", "score": 0.8537, "match_basis": "verbatim_token+domain_route:CP"}, {"md_atom_id": "md_dmCP_ex_a040", "md_file": "knowledge_base/domains/CP/examples.md", "md_atom_type": "TABLE_ROW", "md_parent_section": "§CP.1.b [Example 1b]", "md_verbatim": "| 2 | ABCD | CP | ABCD-001-001 | 2 | LYM | Lymphocytes | CD45+FSC SSC | LEUK | CD45+ | IMMUNOPHENOTYPING | 1710 | 10^6/L | 1710 | 1710 | 10^6/L | QUANTITATIVE | NUMBER CONCENTRATION | FLOW CYTOMETRY | BLOOD | 2021-08-16T04:20 |", "score": 0.8429, "match_basis": "verbatim_token+domain_route:CP"}, {"md_atom_id": "md_dmCP_ex_a042", "md_file": "knowledge_base/domains/CP/examples.md", "md_atom_type": "TABLE_ROW", "md_parent_section": "§CP.1.b [Example 1b]", "md_verbatim": "| 4 | ABCD | CP | ABCD-001-001 | 4 | LYM | Lymphocytes | CD45+FSC SSC | LEUK | CD45+ | IMMUNOPHENOTYPING | 1710 | 10^6/L | 1710 | 1710 | 10^6/L | QUANTITATIVE | NUMBER CONCENTRATION | FLOW CYTOMETRY | BLOOD | 2021-08-16T04:20 |", "score": 0.8429, "match_basis": "verbatim_token+domain_route:CP"}], "candidate_count": 5, "zero_candidate": false}
