{"pdf_atom_id": "ig34_p0090_a013", "pdf_atom_type": "LIST_ITEM", "pdf_source": "SDTMIG_v3.4", "pdf_page": 90, "pdf_parent_section": "§5.5 [Subject Visits (SV)]", "pdf_verbatim": "Row 13: The visit called \"WEEK 2\" did not occur due to clinic closure. SVOCCUR = \"N\" and SVREASOC contains the reason the visit did not occur.", "figure_ref": null, "candidates": [{"md_atom_id": "md_dmSV_ex_a042", "md_file": "knowledge_base/domains/SV/examples.md", "md_atom_type": "SENTENCE", "md_parent_section": "§SV.1 [Example 1]", "md_verbatim": "**Row 13:** The visit called \"WEEK 2\" did not occur due to clinic closure. SVOCCUR = \"N\" and SVREASOC contains the reason the visit did not occur.", "score": 0.91, "match_basis": "verbatim_token+domain_route:SV"}, {"md_atom_id": "md_dmSV_ex_a037", "md_file": "knowledge_base/domains/SV/examples.md", "md_atom_type": "SENTENCE", "md_parent_section": "§SV.1 [Example 1]", "md_verbatim": "**Row 4:** Shows that for subject 85, the visit called \"WEEK 1\" did not occur; the reason it did not occur is represented in SVREASOC.", "score": 0.5326, "match_basis": "verbatim_token+domain_route:SV"}, {"md_atom_id": "md_dmSV_assn_a008", "md_file": "knowledge_base/domains/SV/assumptions.md", "md_atom_type": "LIST_ITEM", "md_parent_section": "§SV [SV — Assumptions]", "md_verbatim": "   c. For unplanned visits, SVPRESP and SVOCCUR are null.", "score": 0.4915, "match_basis": "verbatim_token+domain_route:SV"}, {"md_atom_id": "md_dmSV_assn_a007", "md_file": "knowledge_base/domains/SV/assumptions.md", "md_atom_type": "LIST_ITEM", "md_parent_section": "§SV [SV — Assumptions]", "md_verbatim": "   b. For planned visits, SVOCCUR indicates whether the visit occurred.", "score": 0.4857, "match_basis": "verbatim_token+domain_route:SV"}, {"md_atom_id": "md_dmSV_assn_a027", "md_file": "knowledge_base/domains/SV/assumptions.md", "md_atom_type": "LIST_ITEM", "md_parent_section": "§SV [SV — Assumptions]", "md_verbatim": "16. SVOCCUR = \"N\" records are only to be created for planned visits that were expected to occur before the end of the subject's participation.", "score": 0.4674, "match_basis": "verbatim_token+domain_route:SV"}], "candidate_count": 5, "zero_candidate": false}
{"pdf_atom_id": "ig34_p0090_a014", "pdf_atom_type": "LIST_ITEM", "pdf_source": "SDTMIG_v3.4", "pdf_page": 90, "pdf_parent_section": "§5.5 [Subject Visits (SV)]", "pdf_verbatim": "Row 14: Shows an unscheduled visit. SVUPDES provides the information that this visit dealt with evaluation of an adverse event. Since this visit was not planned, VISITDY was not populated, SVPRESP and SVOCCUR are both null. VISITNUM is populated as required, but the sponsor chose not to populate VISIT. Data collected at this encounter may be in a Findings domain such as EG, LB, or VS, in which VISITNUM is treated as an important timing variable. This visit was over remote audio video due to having an adverse event during a pandemic.", "figure_ref": null, "candidates": [{"md_atom_id": "md_dmSV_ex_a043", "md_file": "knowledge_base/domains/SV/examples.md", "md_atom_type": "SENTENCE", "md_parent_section": "§SV.1 [Example 1]", "md_verbatim": "**Row 14:** Shows an unscheduled visit. SVUPDES provides the information that this visit dealt with evaluation of an adverse event. Since this visit was not planned, VISITDY was not populated, SVPRESP and SVOCCUR are both null. VISITNUM is populated as required, but the sponsor chose not to populate VISIT. Data collected at this encounter may be in a Findings domain such as EG, LB, or VS, in which VISITNUM is treated as an important timing variable. This visit was over remote audio video due to having an adverse event during a pandemic.", "score": 0.91, "match_basis": "verbatim_token+domain_route:SV"}, {"md_atom_id": "md_dmSV_assn_a011", "md_file": "knowledge_base/domains/SV/assumptions.md", "md_atom_type": "LIST_ITEM", "md_parent_section": "§SV [SV — Assumptions]", "md_verbatim": "6. Records for unplanned visits should be included in the SV dataset. For unplanned visits, SVUPDES can be populated with a description of the reason for the unplanned visit. Some judgment may be required to determine what constitutes an unplanned visit. When data are collected outside a planned visit, that act of collecting data may or may not be described as a \"visit.\" The encounter should generally be treated as a visit if data from the encounter are included in any domain for which VISITNUM is included; a record with a missing value for VISITNUM is generally less useful than a record with VISITNUM populated. If the occasion is considered a visit, its date/times must be included in the SV table and a value of VISITNUM must be assigned. Refer to Section 4.4.5, Clinical Encounters and Visits, for information on the population of visit variables for unplanned visits.", "score": 0.5876, "match_basis": "verbatim_token+domain_route:SV"}, {"md_atom_id": "md_dmSV_assn_a022", "md_file": "knowledge_base/domains/SV/assumptions.md", "md_atom_type": "LIST_ITEM", "md_parent_section": "§SV [SV — Assumptions]", "md_verbatim": "    b. The purpose of --DTC and --DY in other domains with start and end dates (Event and Intervention Domains) is to record the date on which data was collected. For a visit that occurred, it is not necessary to submit the date on which information about the visit was collected. When SVPRESP = \"Y\" and SVOCCUR = \"N\", --DTC and --DY are available for use to represent the date on which it was recorded that the visit did not take place.", "score": 0.5494, "match_basis": "verbatim_token+domain_route:SV"}, {"md_atom_id": "md_dmSV_assn_a016", "md_file": "knowledge_base/domains/SV/assumptions.md", "md_atom_type": "LIST_ITEM", "md_parent_section": "§SV [SV — Assumptions]", "md_verbatim": "11. For many studies, all visits are assumed to occur within 1 calendar day, and only 1 date is collected for the visit. In such a case, the values for SVENDTC duplicate values in SVSTDTC. However, if the data for a visit is actually collected over several physical visits and/or over several days, then SVSTDTC and SVENDTC should reflect this fact. Note that it is fairly common for screening data to be collected over several days, but for the data to be treated as belonging to a single planned screening visit, even in studies for which all other visits are single-day visits.", "score": 0.5209, "match_basis": "verbatim_token+domain_route:SV"}, {"md_atom_id": "md_dmSV_assn_a010", "md_file": "knowledge_base/domains/SV/assumptions.md", "md_atom_type": "LIST_ITEM", "md_parent_section": "§SV [SV — Assumptions]", "md_verbatim": "5. The identification of an actual visit with a planned visit sometimes calls for judgment. In general, data collection forms are prepared for particular visits, and the fact that data was collected on a form labeled with a planned visit is sufficient to make the association. Occasionally, the association will not be so clear, and the sponsor will need to make decisions about how to label actual visits. The sponsor's rules for making such decisions should be documented in the Define-XML document.", "score": 0.5122, "match_basis": "verbatim_token+domain_route:SV"}], "candidate_count": 5, "zero_candidate": false}
{"pdf_atom_id": "ig34_p0090_a015", "pdf_atom_type": "LIST_ITEM", "pdf_source": "SDTMIG_v3.4", "pdf_page": 90, "pdf_parent_section": "§5.5 [Subject Visits (SV)]", "pdf_verbatim": "Row 15: This subject had their last visit, a follow-up visit on study day 26, eight days after the unscheduled visit.", "figure_ref": null, "candidates": [{"md_atom_id": "md_dmSV_ex_a044", "md_file": "knowledge_base/domains/SV/examples.md", "md_atom_type": "SENTENCE", "md_parent_section": "§SV.1 [Example 1]", "md_verbatim": "**Row 15:** This subject had their last visit, a follow-up visit on study day 26, eight days after the unscheduled visit.", "score": 0.91, "match_basis": "verbatim_token+domain_route:SV"}, {"md_atom_id": "md_dmSV_assn_a003", "md_file": "knowledge_base/domains/SV/assumptions.md", "md_atom_type": "LIST_ITEM", "md_parent_section": "§SV [SV — Assumptions]", "md_verbatim": "2. Subjects can have 1 and only 1 record per VISITNUM.", "score": 0.4857, "match_basis": "verbatim_token+domain_route:SV"}, {"md_atom_id": "md_dmSV_ex_a004", "md_file": "knowledge_base/domains/SV/examples.md", "md_atom_type": "SENTENCE", "md_parent_section": "§SV.1 [Example 1]", "md_verbatim": "This is the planned schedule of visits for the study in this example.", "score": 0.4798, "match_basis": "verbatim_token+domain_route:SV"}, {"md_atom_id": "md_dmSV_assn_a004", "md_file": "knowledge_base/domains/SV/assumptions.md", "md_atom_type": "LIST_ITEM", "md_parent_section": "§SV [SV — Assumptions]", "md_verbatim": "3. Subjects who screen fail, withdraw, die, or otherwise discontinue study participation will not have records for planned visits subsequent to their final disposition event.", "score": 0.4724, "match_basis": "verbatim_token+domain_route:SV"}, {"md_atom_id": "md_dmSV_assn_a005", "md_file": "knowledge_base/domains/SV/assumptions.md", "md_atom_type": "LIST_ITEM", "md_parent_section": "§SV [SV — Assumptions]", "md_verbatim": "4. Planned and unplanned visits with a subject, whether or not they are physical visits to the investigational site, are represented in this domain.", "score": 0.4717, "match_basis": "verbatim_token+domain_route:SV"}], "candidate_count": 5, "zero_candidate": false}
{"pdf_atom_id": "ig34_p0090_a016", "pdf_atom_type": "CODE_LITERAL", "pdf_source": "SDTMIG_v3.4", "pdf_page": 90, "pdf_parent_section": "§5.5 [Subject Visits (SV)]", "pdf_verbatim": "sv.xpt", "figure_ref": null, "candidates": [{"md_atom_id": "md_dmSV_ex_a009", "md_file": "knowledge_base/domains/SV/examples.md", "md_atom_type": "SENTENCE", "md_parent_section": "§SV.1 [Example 1]", "md_verbatim": "**tv.xpt**", "score": 0.79, "match_basis": "verbatim_token+domain_route:SV"}, {"md_atom_id": "md_dmSV_ex_a026", "md_file": "knowledge_base/domains/SV/examples.md", "md_atom_type": "SENTENCE", "md_parent_section": "§SV.1 [Example 1]", "md_verbatim": "**ds.xpt**", "score": 0.79, "match_basis": "verbatim_token+domain_route:SV"}, {"md_atom_id": "md_dmSV_ex_a045", "md_file": "knowledge_base/domains/SV/examples.md", "md_atom_type": "SENTENCE", "md_parent_section": "§SV.1 [Example 1]", "md_verbatim": "**sv.xpt**", "score": 0.79, "match_basis": "verbatim_token+domain_route:SV"}, {"md_atom_id": "md_dmSV_ex_a035", "md_file": "knowledge_base/domains/SV/examples.md", "md_atom_type": "SENTENCE", "md_parent_section": "§SV.1 [Example 1]", "md_verbatim": "**Row 1:** Shows that screening data for subject 37 was collected during a period of 4 days. This subject is shown as a screen failure in ds.xpt and therefore would have a null DM.RFSTDTC, hence the study day values in SVSTDY and SVENDY, which are based on the sponsor-defined reference start date, are null.", "score": 0.1957, "match_basis": "verbatim_token+domain_route:SV"}, {"md_atom_id": "md_dmSV_assn_a001", "md_file": "knowledge_base/domains/SV/assumptions.md", "md_atom_type": "HEADING", "md_parent_section": "§SV [SV — Assumptions]", "md_verbatim": "# SV — Assumptions", "score": 0.19, "match_basis": "verbatim_token+domain_route:SV"}, {"md_atom_id": "md_dmSV_assn_a002", "md_file": "knowledge_base/domains/SV/assumptions.md", "md_atom_type": "LIST_ITEM", "md_parent_section": "§SV [SV — Assumptions]", "md_verbatim": "1. The Subject Visits domain allows the submission of data on the timing of the trial visits for a subject, including both those visits they actually passed through in their participation in the trial and those visits that did not occur. Refer to Section 7.3.1, Trial Visits (TV), as the TV dataset defines the planned visits for the trial.", "score": 0.19, "match_basis": "verbatim_token+domain_route:SV"}, {"md_atom_id": "md_dmSV_assn_a003", "md_file": "knowledge_base/domains/SV/assumptions.md", "md_atom_type": "LIST_ITEM", "md_parent_section": "§SV [SV — Assumptions]", "md_verbatim": "2. Subjects can have 1 and only 1 record per VISITNUM.", "score": 0.19, "match_basis": "verbatim_token+domain_route:SV"}, {"md_atom_id": "md_dmSV_assn_a004", "md_file": "knowledge_base/domains/SV/assumptions.md", "md_atom_type": "LIST_ITEM", "md_parent_section": "§SV [SV — Assumptions]", "md_verbatim": "3. Subjects who screen fail, withdraw, die, or otherwise discontinue study participation will not have records for planned visits subsequent to their final disposition event.", "score": 0.19, "match_basis": "verbatim_token+domain_route:SV"}, {"md_atom_id": "md_dmSV_assn_a005", "md_file": "knowledge_base/domains/SV/assumptions.md", "md_atom_type": "LIST_ITEM", "md_parent_section": "§SV [SV — Assumptions]", "md_verbatim": "4. Planned and unplanned visits with a subject, whether or not they are physical visits to the investigational site, are represented in this domain.", "score": 0.19, "match_basis": "verbatim_token+domain_route:SV"}, {"md_atom_id": "md_dmSV_assn_a006", "md_file": "knowledge_base/domains/SV/assumptions.md", "md_atom_type": "LIST_ITEM", "md_parent_section": "§SV [SV — Assumptions]", "md_verbatim": "   a. SVPRESP = \"Y\" identifies rows for planned visits.", "score": 0.19, "match_basis": "verbatim_token+domain_route:SV"}], "candidate_count": 10, "zero_candidate": false}
{"pdf_atom_id": "ig34_p0090_a017", "pdf_atom_type": "TABLE_HEADER", "pdf_source": "SDTMIG_v3.4", "pdf_page": 90, "pdf_parent_section": "§5.5 [Subject Visits (SV)]", "pdf_verbatim": "Row | STUDYID | DOMAIN | USUBJID | VISITNUM | VISIT | SVPRESP | SVOCCUR | SVREASOC | SVCNTMOD | SVEPCHGI | VISITDY | SVSTDTC | SVENDTC | SVSTDY | SVENDY | SVUPDES", "figure_ref": null, "candidates": [{"md_atom_id": "md_dmSV_ex_a046", "md_file": "knowledge_base/domains/SV/examples.md", "md_atom_type": "TABLE_HEADER", "md_parent_section": "§SV.1 [Example 1]", "md_verbatim": "| Row | STUDYID | DOMAIN | USUBJID | VISITNUM | VISIT | SVPRESP | SVOCCUR | SVREASOC | SVCNTMOD | SVEPCHGI | VISITDY | SVSTDTC | SVENDTC | SVSTDY | SVENDY | SVUPDES |\n|-----|---------|--------|---------|----------|-------|---------|---------|----------|----------|----------|---------|---------|---------|--------|--------|---------|", "score": 1.0, "match_basis": "verbatim_token+domain_route:SV"}, {"md_atom_id": "md_dmSV_ex_a010", "md_file": "knowledge_base/domains/SV/examples.md", "md_atom_type": "TABLE_HEADER", "md_parent_section": "§SV.1 [Example 1]", "md_verbatim": "| Row | STUDYID | DOMAIN | VISITNUM | VISIT | VISITDY | TVSTRL | TVENRL |\n|-----|---------|--------|----------|-------|---------|--------|--------|", "score": 0.569, "match_basis": "verbatim_token+domain_route:SV"}, {"md_atom_id": "md_dmSV_ex_a027", "md_file": "knowledge_base/domains/SV/examples.md", "md_atom_type": "TABLE_HEADER", "md_parent_section": "§SV.1 [Example 1]", "md_verbatim": "| Row | STUDYID | DOMAIN | USUBJID | DSSEQ | DSTERM | DSDECOD | DSCAT | DSSCAT | EPOCH | DSDTC | DSSTDTC | DSSTDY |\n|-----|---------|--------|---------|-------|--------|---------|-------|--------|-------|-------|---------|--------|", "score": 0.5326, "match_basis": "verbatim_token+domain_route:SV"}, {"md_atom_id": "md_dmSV_ex_a033", "md_file": "knowledge_base/domains/SV/examples.md", "md_atom_type": "TABLE_ROW", "md_parent_section": "§SV.1 [Example 1]", "md_verbatim": "| 6 | 123456 | DS | 101 | 2 | WITHDRAWAL BY SUBJECT | WITHDRAWAL BY SUBJECT | DISPOSITION EVENT | STUDY PARTICIPATION | TREATMENT | 2020-03-16 | 2020-03-16 | 28 |", "score": 0.3849, "match_basis": "verbatim_token+domain_route:SV"}, {"md_atom_id": "md_dmSV_ex_a031", "md_file": "knowledge_base/domains/SV/examples.md", "md_atom_type": "TABLE_ROW", "md_parent_section": "§SV.1 [Example 1]", "md_verbatim": "| 4 | 123456 | DS | 85 | 2 | COMPLETED | COMPLETED | DISPOSITION EVENT | STUDY PARTICIPATION | TREATMENT | 2020-02-27 | 2020-02-27 | 72 |", "score": 0.3753, "match_basis": "verbatim_token+domain_route:SV"}], "candidate_count": 5, "zero_candidate": false}
{"pdf_atom_id": "ig34_p0090_a018", "pdf_atom_type": "TABLE_ROW", "pdf_source": "SDTMIG_v3.4", "pdf_page": 90, "pdf_parent_section": "§5.5 [Subject Visits (SV)]", "pdf_verbatim": "1 | 123456 | SV | 37 | 1 | SCREEN | Y | Y | | IN PERSON | | 1 | 2019-09-08 | 2019-09-09 | | |", "figure_ref": null, "candidates": [{"md_atom_id": "md_dmSV_ex_a047", "md_file": "knowledge_base/domains/SV/examples.md", "md_atom_type": "TABLE_ROW", "md_parent_section": "§SV.1 [Example 1]", "md_verbatim": "| 1 | 123456 | SV | 37 | 1 | SCREEN | Y | Y | | IN PERSON | | | 2019-09-10 | 2019-09-16 | | | |", "score": 1.0, "match_basis": "verbatim_token+domain_route:SV"}, {"md_atom_id": "md_dmSV_ex_a048", "md_file": "knowledge_base/domains/SV/examples.md", "md_atom_type": "TABLE_ROW", "md_parent_section": "§SV.1 [Example 1]", "md_verbatim": "| 2 | 123456 | SV | 85 | 1 | SCREEN | Y | Y | | IN PERSON | | | 2019-12-13 | 2019-12-18 | -6 | -1 | |", "score": 1.0, "match_basis": "verbatim_token+domain_route:SV"}, {"md_atom_id": "md_dmSV_ex_a056", "md_file": "knowledge_base/domains/SV/examples.md", "md_atom_type": "TABLE_ROW", "md_parent_section": "§SV.1 [Example 1]", "md_verbatim": "| 10 | 123456 | SV | 101 | 1 | SCREEN | Y | Y | | IN PERSON | | | 2020-02-13 | 2020-02-18 | -6 | -1 | |", "score": 0.8235, "match_basis": "verbatim_token+domain_route:SV"}, {"md_atom_id": "md_dmSV_ex_a049", "md_file": "knowledge_base/domains/SV/examples.md", "md_atom_type": "TABLE_ROW", "md_parent_section": "§SV.1 [Example 1]", "md_verbatim": "| 3 | 123456 | SV | 85 | 2 | DAY 1 | Y | Y | | IN PERSON | | 1 | 2019-12-19 | 2019-12-19 | 1 | 1 | |", "score": 0.8, "match_basis": "verbatim_token+domain_route:SV"}, {"md_atom_id": "md_dmSV_ex_a051", "md_file": "knowledge_base/domains/SV/examples.md", "md_atom_type": "TABLE_ROW", "md_parent_section": "§SV.1 [Example 1]", "md_verbatim": "| 5 | 123456 | SV | 85 | 4 | WEEK 2 | Y | Y | | IN PERSON | | 15 | 2020-01-02 | 2020-01-02 | 15 | 15 | |", "score": 0.6667, "match_basis": "verbatim_token+domain_route:SV"}], "candidate_count": 5, "zero_candidate": false}
{"pdf_atom_id": "ig34_p0090_a019", "pdf_atom_type": "TABLE_ROW", "pdf_source": "SDTMIG_v3.4", "pdf_page": 90, "pdf_parent_section": "§5.5 [Subject Visits (SV)]", "pdf_verbatim": "2 | 123456 | SV | 85 | 1 | SCREEN | Y | Y | | IN PERSON | | 1 | 2019-12-13 | 2019-12-13 | 8 | -1 |", "figure_ref": null, "candidates": [{"md_atom_id": "md_dmSV_ex_a047", "md_file": "knowledge_base/domains/SV/examples.md", "md_atom_type": "TABLE_ROW", "md_parent_section": "§SV.1 [Example 1]", "md_verbatim": "| 1 | 123456 | SV | 37 | 1 | SCREEN | Y | Y | | IN PERSON | | | 2019-09-10 | 2019-09-16 | | | |", "score": 1.0, "match_basis": "verbatim_token+domain_route:SV"}, {"md_atom_id": "md_dmSV_ex_a048", "md_file": "knowledge_base/domains/SV/examples.md", "md_atom_type": "TABLE_ROW", "md_parent_section": "§SV.1 [Example 1]", "md_verbatim": "| 2 | 123456 | SV | 85 | 1 | SCREEN | Y | Y | | IN PERSON | | | 2019-12-13 | 2019-12-18 | -6 | -1 | |", "score": 1.0, "match_basis": "verbatim_token+domain_route:SV"}, {"md_atom_id": "md_dmSV_ex_a056", "md_file": "knowledge_base/domains/SV/examples.md", "md_atom_type": "TABLE_ROW", "md_parent_section": "§SV.1 [Example 1]", "md_verbatim": "| 10 | 123456 | SV | 101 | 1 | SCREEN | Y | Y | | IN PERSON | | | 2020-02-13 | 2020-02-18 | -6 | -1 | |", "score": 0.8235, "match_basis": "verbatim_token+domain_route:SV"}, {"md_atom_id": "md_dmSV_ex_a049", "md_file": "knowledge_base/domains/SV/examples.md", "md_atom_type": "TABLE_ROW", "md_parent_section": "§SV.1 [Example 1]", "md_verbatim": "| 3 | 123456 | SV | 85 | 2 | DAY 1 | Y | Y | | IN PERSON | | 1 | 2019-12-19 | 2019-12-19 | 1 | 1 | |", "score": 0.8, "match_basis": "verbatim_token+domain_route:SV"}, {"md_atom_id": "md_dmSV_ex_a051", "md_file": "knowledge_base/domains/SV/examples.md", "md_atom_type": "TABLE_ROW", "md_parent_section": "§SV.1 [Example 1]", "md_verbatim": "| 5 | 123456 | SV | 85 | 4 | WEEK 2 | Y | Y | | IN PERSON | | 15 | 2020-01-02 | 2020-01-02 | 15 | 15 | |", "score": 0.6667, "match_basis": "verbatim_token+domain_route:SV"}], "candidate_count": 5, "zero_candidate": false}
{"pdf_atom_id": "ig34_p0090_a020", "pdf_atom_type": "TABLE_ROW", "pdf_source": "SDTMIG_v3.4", "pdf_page": 90, "pdf_parent_section": "§5.5 [Subject Visits (SV)]", "pdf_verbatim": "3 | 123456 | SV | 85 | 2 | DAY 1 | Y | Y | | IN PERSON | | 1 | 2019-12-13 | 2019-12-13 | 1 | 1 |", "figure_ref": null, "candidates": [{"md_atom_id": "md_dmSV_ex_a049", "md_file": "knowledge_base/domains/SV/examples.md", "md_atom_type": "TABLE_ROW", "md_parent_section": "§SV.1 [Example 1]", "md_verbatim": "| 3 | 123456 | SV | 85 | 2 | DAY 1 | Y | Y | | IN PERSON | | 1 | 2019-12-19 | 2019-12-19 | 1 | 1 | |", "score": 1.0, "match_basis": "verbatim_token+domain_route:SV"}, {"md_atom_id": "md_dmSV_ex_a047", "md_file": "knowledge_base/domains/SV/examples.md", "md_atom_type": "TABLE_ROW", "md_parent_section": "§SV.1 [Example 1]", "md_verbatim": "| 1 | 123456 | SV | 37 | 1 | SCREEN | Y | Y | | IN PERSON | | | 2019-09-10 | 2019-09-16 | | | |", "score": 0.8, "match_basis": "verbatim_token+domain_route:SV"}, {"md_atom_id": "md_dmSV_ex_a048", "md_file": "knowledge_base/domains/SV/examples.md", "md_atom_type": "TABLE_ROW", "md_parent_section": "§SV.1 [Example 1]", "md_verbatim": "| 2 | 123456 | SV | 85 | 1 | SCREEN | Y | Y | | IN PERSON | | | 2019-12-13 | 2019-12-18 | -6 | -1 | |", "score": 0.8, "match_basis": "verbatim_token+domain_route:SV"}, {"md_atom_id": "md_dmSV_ex_a057", "md_file": "knowledge_base/domains/SV/examples.md", "md_atom_type": "TABLE_ROW", "md_parent_section": "§SV.1 [Example 1]", "md_verbatim": "| 11 | 123456 | SV | 101 | 2 | DAY 1 | Y | Y | | IN PERSON | | 1 | 2020-02-19 | 2020-02-19 | 1 | 1 | |", "score": 0.7857, "match_basis": "verbatim_token+domain_route:SV"}, {"md_atom_id": "md_dmSV_ex_a051", "md_file": "knowledge_base/domains/SV/examples.md", "md_atom_type": "TABLE_ROW", "md_parent_section": "§SV.1 [Example 1]", "md_verbatim": "| 5 | 123456 | SV | 85 | 4 | WEEK 2 | Y | Y | | IN PERSON | | 15 | 2020-01-02 | 2020-01-02 | 15 | 15 | |", "score": 0.72, "match_basis": "verbatim_token+domain_route:SV"}], "candidate_count": 5, "zero_candidate": false}
{"pdf_atom_id": "ig34_p0090_a021", "pdf_atom_type": "TABLE_ROW", "pdf_source": "SDTMIG_v3.4", "pdf_page": 90, "pdf_parent_section": "§5.5 [Subject Visits (SV)]", "pdf_verbatim": "4 | 123456 | SV | 85 | 3 | WEEK 1 | Y | N | SUBJECT LACKED TRANSPORTATION | IN PERSON | | 8 | | | |", "figure_ref": null, "candidates": [{"md_atom_id": "md_dmSV_ex_a050", "md_file": "knowledge_base/domains/SV/examples.md", "md_atom_type": "TABLE_ROW", "md_parent_section": "§SV.1 [Example 1]", "md_verbatim": "| 4 | 123456 | SV | 85 | 3 | WEEK 1 | Y | N | SUBJECT LACKED TRANSPORTATION | | | 8 | | | | | |", "score": 0.9226, "match_basis": "verbatim_token+domain_route:SV"}, {"md_atom_id": "md_dmSV_ex_a051", "md_file": "knowledge_base/domains/SV/examples.md", "md_atom_type": "TABLE_ROW", "md_parent_section": "§SV.1 [Example 1]", "md_verbatim": "| 5 | 123456 | SV | 85 | 4 | WEEK 2 | Y | Y | | IN PERSON | | 15 | 2020-01-02 | 2020-01-02 | 15 | 15 | |", "score": 0.5818, "match_basis": "verbatim_token+domain_route:SV"}, {"md_atom_id": "md_dmSV_ex_a052", "md_file": "knowledge_base/domains/SV/examples.md", "md_atom_type": "TABLE_ROW", "md_parent_section": "§SV.1 [Example 1]", "md_verbatim": "| 6 | 123456 | SV | 85 | 5 | WEEK 4 | Y | Y | | IN PERSON | | 29 | 2020-01-16 | 2020-01-16 | 30 | 30 | |", "score": 0.5818, "match_basis": "verbatim_token+domain_route:SV"}, {"md_atom_id": "md_dmSV_ex_a053", "md_file": "knowledge_base/domains/SV/examples.md", "md_atom_type": "TABLE_ROW", "md_parent_section": "§SV.1 [Example 1]", "md_verbatim": "| 7 | 123456 | SV | 85 | 6 | WEEK 6 | Y | Y | | IN PERSON | | 43 | 2020-01-30 | 2020-01-30 | 43 | 43 | |", "score": 0.5818, "match_basis": "verbatim_token+domain_route:SV"}, {"md_atom_id": "md_dmSV_ex_a054", "md_file": "knowledge_base/domains/SV/examples.md", "md_atom_type": "TABLE_ROW", "md_parent_section": "§SV.1 [Example 1]", "md_verbatim": "| 8 | 123456 | SV | 85 | 7 | WEEK 8 | Y | Y | | IN PERSON | | 57 | 2020-02-13 | 2020-02-13 | 57 | 57 | |", "score": 0.5818, "match_basis": "verbatim_token+domain_route:SV"}], "candidate_count": 5, "zero_candidate": false}
{"pdf_atom_id": "ig34_p0090_a022", "pdf_atom_type": "TABLE_ROW", "pdf_source": "SDTMIG_v3.4", "pdf_page": 90, "pdf_parent_section": "§5.5 [Subject Visits (SV)]", "pdf_verbatim": "5 | 123456 | SV | 85 | 4 | WEEK 2 | Y | Y | | IN PERSON | | 15 | 2020-01-02 | 2020-01-02 | 15 | 15 |", "figure_ref": null, "candidates": [{"md_atom_id": "md_dmSV_ex_a051", "md_file": "knowledge_base/domains/SV/examples.md", "md_atom_type": "TABLE_ROW", "md_parent_section": "§SV.1 [Example 1]", "md_verbatim": "| 5 | 123456 | SV | 85 | 4 | WEEK 2 | Y | Y | | IN PERSON | | 15 | 2020-01-02 | 2020-01-02 | 15 | 15 | |", "score": 1.0, "match_basis": "verbatim_token+domain_route:SV"}, {"md_atom_id": "md_dmSV_ex_a052", "md_file": "knowledge_base/domains/SV/examples.md", "md_atom_type": "TABLE_ROW", "md_parent_section": "§SV.1 [Example 1]", "md_verbatim": "| 6 | 123456 | SV | 85 | 5 | WEEK 4 | Y | Y | | IN PERSON | | 29 | 2020-01-16 | 2020-01-16 | 30 | 30 | |", "score": 1.0, "match_basis": "verbatim_token+domain_route:SV"}, {"md_atom_id": "md_dmSV_ex_a053", "md_file": "knowledge_base/domains/SV/examples.md", "md_atom_type": "TABLE_ROW", "md_parent_section": "§SV.1 [Example 1]", "md_verbatim": "| 7 | 123456 | SV | 85 | 6 | WEEK 6 | Y | Y | | IN PERSON | | 43 | 2020-01-30 | 2020-01-30 | 43 | 43 | |", "score": 1.0, "match_basis": "verbatim_token+domain_route:SV"}, {"md_atom_id": "md_dmSV_ex_a054", "md_file": "knowledge_base/domains/SV/examples.md", "md_atom_type": "TABLE_ROW", "md_parent_section": "§SV.1 [Example 1]", "md_verbatim": "| 8 | 123456 | SV | 85 | 7 | WEEK 8 | Y | Y | | IN PERSON | | 57 | 2020-02-13 | 2020-02-13 | 57 | 57 | |", "score": 1.0, "match_basis": "verbatim_token+domain_route:SV"}, {"md_atom_id": "md_dmSV_ex_a058", "md_file": "knowledge_base/domains/SV/examples.md", "md_atom_type": "TABLE_ROW", "md_parent_section": "§SV.1 [Example 1]", "md_verbatim": "| 12 | 123456 | SV | 101 | 3 | WEEK 1 | Y | Y | | IN PERSON | | 8 | 2020-02-25 | 2020-02-25 | 7 | 7 | |", "score": 0.9538, "match_basis": "verbatim_token+domain_route:SV"}], "candidate_count": 5, "zero_candidate": false}
{"pdf_atom_id": "ig34_p0090_a023", "pdf_atom_type": "TABLE_ROW", "pdf_source": "SDTMIG_v3.4", "pdf_page": 90, "pdf_parent_section": "§5.5 [Subject Visits (SV)]", "pdf_verbatim": "6 | 123456 | SV | 85 | 5 | WEEK 4 | Y | Y | | IN PERSON | | 29 | 2020-01-02 | 2020-01-30 | 30 | 30 |", "figure_ref": null, "candidates": [{"md_atom_id": "md_dmSV_ex_a051", "md_file": "knowledge_base/domains/SV/examples.md", "md_atom_type": "TABLE_ROW", "md_parent_section": "§SV.1 [Example 1]", "md_verbatim": "| 5 | 123456 | SV | 85 | 4 | WEEK 2 | Y | Y | | IN PERSON | | 15 | 2020-01-02 | 2020-01-02 | 15 | 15 | |", "score": 1.0, "match_basis": "verbatim_token+domain_route:SV"}, {"md_atom_id": "md_dmSV_ex_a052", "md_file": "knowledge_base/domains/SV/examples.md", "md_atom_type": "TABLE_ROW", "md_parent_section": "§SV.1 [Example 1]", "md_verbatim": "| 6 | 123456 | SV | 85 | 5 | WEEK 4 | Y | Y | | IN PERSON | | 29 | 2020-01-16 | 2020-01-16 | 30 | 30 | |", "score": 1.0, "match_basis": "verbatim_token+domain_route:SV"}, {"md_atom_id": "md_dmSV_ex_a053", "md_file": "knowledge_base/domains/SV/examples.md", "md_atom_type": "TABLE_ROW", "md_parent_section": "§SV.1 [Example 1]", "md_verbatim": "| 7 | 123456 | SV | 85 | 6 | WEEK 6 | Y | Y | | IN PERSON | | 43 | 2020-01-30 | 2020-01-30 | 43 | 43 | |", "score": 1.0, "match_basis": "verbatim_token+domain_route:SV"}, {"md_atom_id": "md_dmSV_ex_a054", "md_file": "knowledge_base/domains/SV/examples.md", "md_atom_type": "TABLE_ROW", "md_parent_section": "§SV.1 [Example 1]", "md_verbatim": "| 8 | 123456 | SV | 85 | 7 | WEEK 8 | Y | Y | | IN PERSON | | 57 | 2020-02-13 | 2020-02-13 | 57 | 57 | |", "score": 1.0, "match_basis": "verbatim_token+domain_route:SV"}, {"md_atom_id": "md_dmSV_ex_a058", "md_file": "knowledge_base/domains/SV/examples.md", "md_atom_type": "TABLE_ROW", "md_parent_section": "§SV.1 [Example 1]", "md_verbatim": "| 12 | 123456 | SV | 101 | 3 | WEEK 1 | Y | Y | | IN PERSON | | 8 | 2020-02-25 | 2020-02-25 | 7 | 7 | |", "score": 0.9538, "match_basis": "verbatim_token+domain_route:SV"}], "candidate_count": 5, "zero_candidate": false}
{"pdf_atom_id": "ig34_p0090_a024", "pdf_atom_type": "TABLE_ROW", "pdf_source": "SDTMIG_v3.4", "pdf_page": 90, "pdf_parent_section": "§5.5 [Subject Visits (SV)]", "pdf_verbatim": "7 | 123456 | SV | 85 | 6 | WEEK 6 | Y | Y | | IN PERSON | | 43 | 2020-01-30 | 2020-01-30 | 43 | 43 |", "figure_ref": null, "candidates": [{"md_atom_id": "md_dmSV_ex_a051", "md_file": "knowledge_base/domains/SV/examples.md", "md_atom_type": "TABLE_ROW", "md_parent_section": "§SV.1 [Example 1]", "md_verbatim": "| 5 | 123456 | SV | 85 | 4 | WEEK 2 | Y | Y | | IN PERSON | | 15 | 2020-01-02 | 2020-01-02 | 15 | 15 | |", "score": 1.0, "match_basis": "verbatim_token+domain_route:SV"}, {"md_atom_id": "md_dmSV_ex_a052", "md_file": "knowledge_base/domains/SV/examples.md", "md_atom_type": "TABLE_ROW", "md_parent_section": "§SV.1 [Example 1]", "md_verbatim": "| 6 | 123456 | SV | 85 | 5 | WEEK 4 | Y | Y | | IN PERSON | | 29 | 2020-01-16 | 2020-01-16 | 30 | 30 | |", "score": 1.0, "match_basis": "verbatim_token+domain_route:SV"}, {"md_atom_id": "md_dmSV_ex_a053", "md_file": "knowledge_base/domains/SV/examples.md", "md_atom_type": "TABLE_ROW", "md_parent_section": "§SV.1 [Example 1]", "md_verbatim": "| 7 | 123456 | SV | 85 | 6 | WEEK 6 | Y | Y | | IN PERSON | | 43 | 2020-01-30 | 2020-01-30 | 43 | 43 | |", "score": 1.0, "match_basis": "verbatim_token+domain_route:SV"}, {"md_atom_id": "md_dmSV_ex_a054", "md_file": "knowledge_base/domains/SV/examples.md", "md_atom_type": "TABLE_ROW", "md_parent_section": "§SV.1 [Example 1]", "md_verbatim": "| 8 | 123456 | SV | 85 | 7 | WEEK 8 | Y | Y | | IN PERSON | | 57 | 2020-02-13 | 2020-02-13 | 57 | 57 | |", "score": 1.0, "match_basis": "verbatim_token+domain_route:SV"}, {"md_atom_id": "md_dmSV_ex_a058", "md_file": "knowledge_base/domains/SV/examples.md", "md_atom_type": "TABLE_ROW", "md_parent_section": "§SV.1 [Example 1]", "md_verbatim": "| 12 | 123456 | SV | 101 | 3 | WEEK 1 | Y | Y | | IN PERSON | | 8 | 2020-02-25 | 2020-02-25 | 7 | 7 | |", "score": 0.9538, "match_basis": "verbatim_token+domain_route:SV"}], "candidate_count": 5, "zero_candidate": false}
{"pdf_atom_id": "ig34_p0090_a025", "pdf_atom_type": "TABLE_ROW", "pdf_source": "SDTMIG_v3.4", "pdf_page": 90, "pdf_parent_section": "§5.5 [Subject Visits (SV)]", "pdf_verbatim": "8 | 123456 | SV | 85 | 7 | WEEK 8 | Y | Y | | IN PERSON | | 57 | 2020-02-13 | 2020-02-13 | 57 | 57 |", "figure_ref": null, "candidates": [{"md_atom_id": "md_dmSV_ex_a051", "md_file": "knowledge_base/domains/SV/examples.md", "md_atom_type": "TABLE_ROW", "md_parent_section": "§SV.1 [Example 1]", "md_verbatim": "| 5 | 123456 | SV | 85 | 4 | WEEK 2 | Y | Y | | IN PERSON | | 15 | 2020-01-02 | 2020-01-02 | 15 | 15 | |", "score": 1.0, "match_basis": "verbatim_token+domain_route:SV"}, {"md_atom_id": "md_dmSV_ex_a052", "md_file": "knowledge_base/domains/SV/examples.md", "md_atom_type": "TABLE_ROW", "md_parent_section": "§SV.1 [Example 1]", "md_verbatim": "| 6 | 123456 | SV | 85 | 5 | WEEK 4 | Y | Y | | IN PERSON | | 29 | 2020-01-16 | 2020-01-16 | 30 | 30 | |", "score": 1.0, "match_basis": "verbatim_token+domain_route:SV"}, {"md_atom_id": "md_dmSV_ex_a053", "md_file": "knowledge_base/domains/SV/examples.md", "md_atom_type": "TABLE_ROW", "md_parent_section": "§SV.1 [Example 1]", "md_verbatim": "| 7 | 123456 | SV | 85 | 6 | WEEK 6 | Y | Y | | IN PERSON | | 43 | 2020-01-30 | 2020-01-30 | 43 | 43 | |", "score": 1.0, "match_basis": "verbatim_token+domain_route:SV"}, {"md_atom_id": "md_dmSV_ex_a054", "md_file": "knowledge_base/domains/SV/examples.md", "md_atom_type": "TABLE_ROW", "md_parent_section": "§SV.1 [Example 1]", "md_verbatim": "| 8 | 123456 | SV | 85 | 7 | WEEK 8 | Y | Y | | IN PERSON | | 57 | 2020-02-13 | 2020-02-13 | 57 | 57 | |", "score": 1.0, "match_basis": "verbatim_token+domain_route:SV"}, {"md_atom_id": "md_dmSV_ex_a058", "md_file": "knowledge_base/domains/SV/examples.md", "md_atom_type": "TABLE_ROW", "md_parent_section": "§SV.1 [Example 1]", "md_verbatim": "| 12 | 123456 | SV | 101 | 3 | WEEK 1 | Y | Y | | IN PERSON | | 8 | 2020-02-25 | 2020-02-25 | 7 | 7 | |", "score": 0.9538, "match_basis": "verbatim_token+domain_route:SV"}], "candidate_count": 5, "zero_candidate": false}
{"pdf_atom_id": "ig34_p0091_a001", "pdf_atom_type": "TABLE_ROW", "pdf_source": "SDTMIG_v3.4", "pdf_page": 91, "pdf_parent_section": "§5.5 [Subject Visits (SV)]", "pdf_verbatim": "| 9 | 123456 | SV | 85 | 8 | FOLLOW-UP | Y | Y | | IN PERSON | | | 2020-02-27 | 2020-02-27 | 72 | 72 | |", "figure_ref": null, "candidates": [{"md_atom_id": "md_dmSV_ex_a055", "md_file": "knowledge_base/domains/SV/examples.md", "md_atom_type": "TABLE_ROW", "md_parent_section": "§SV.1 [Example 1]", "md_verbatim": "| 9 | 123456 | SV | 85 | 8 | FOLLOW-UP | Y | Y | | IN PERSON | | | 2020-02-27 | 2020-02-27 | 72 | 72 | |", "score": 1.0, "match_basis": "verbatim_token+domain_route:SV"}, {"md_atom_id": "md_dmSV_ex_a051", "md_file": "knowledge_base/domains/SV/examples.md", "md_atom_type": "TABLE_ROW", "md_parent_section": "§SV.1 [Example 1]", "md_verbatim": "| 5 | 123456 | SV | 85 | 4 | WEEK 2 | Y | Y | | IN PERSON | | 15 | 2020-01-02 | 2020-01-02 | 15 | 15 | |", "score": 0.775, "match_basis": "verbatim_token+domain_route:SV"}, {"md_atom_id": "md_dmSV_ex_a052", "md_file": "knowledge_base/domains/SV/examples.md", "md_atom_type": "TABLE_ROW", "md_parent_section": "§SV.1 [Example 1]", "md_verbatim": "| 6 | 123456 | SV | 85 | 5 | WEEK 4 | Y | Y | | IN PERSON | | 29 | 2020-01-16 | 2020-01-16 | 30 | 30 | |", "score": 0.775, "match_basis": "verbatim_token+domain_route:SV"}, {"md_atom_id": "md_dmSV_ex_a053", "md_file": "knowledge_base/domains/SV/examples.md", "md_atom_type": "TABLE_ROW", "md_parent_section": "§SV.1 [Example 1]", "md_verbatim": "| 7 | 123456 | SV | 85 | 6 | WEEK 6 | Y | Y | | IN PERSON | | 43 | 2020-01-30 | 2020-01-30 | 43 | 43 | |", "score": 0.775, "match_basis": "verbatim_token+domain_route:SV"}, {"md_atom_id": "md_dmSV_ex_a054", "md_file": "knowledge_base/domains/SV/examples.md", "md_atom_type": "TABLE_ROW", "md_parent_section": "§SV.1 [Example 1]", "md_verbatim": "| 8 | 123456 | SV | 85 | 7 | WEEK 8 | Y | Y | | IN PERSON | | 57 | 2020-02-13 | 2020-02-13 | 57 | 57 | |", "score": 0.775, "match_basis": "verbatim_token+domain_route:SV"}], "candidate_count": 5, "zero_candidate": false}
{"pdf_atom_id": "ig34_p0091_a002", "pdf_atom_type": "TABLE_ROW", "pdf_source": "SDTMIG_v3.4", "pdf_page": 91, "pdf_parent_section": "§5.5 [Subject Visits (SV)]", "pdf_verbatim": "| 10 | 123456 | SV | 101 | 1 | SCREEN | Y | Y | | IN PERSON | | | 2020-02-13 | 2020-02-18 | -6 | -1 | |", "figure_ref": null, "candidates": [{"md_atom_id": "md_dmSV_ex_a056", "md_file": "knowledge_base/domains/SV/examples.md", "md_atom_type": "TABLE_ROW", "md_parent_section": "§SV.1 [Example 1]", "md_verbatim": "| 10 | 123456 | SV | 101 | 1 | SCREEN | Y | Y | | IN PERSON | | | 2020-02-13 | 2020-02-18 | -6 | -1 | |", "score": 1.0, "match_basis": "verbatim_token+domain_route:SV"}, {"md_atom_id": "md_dmSV_ex_a047", "md_file": "knowledge_base/domains/SV/examples.md", "md_atom_type": "TABLE_ROW", "md_parent_section": "§SV.1 [Example 1]", "md_verbatim": "| 1 | 123456 | SV | 37 | 1 | SCREEN | Y | Y | | IN PERSON | | | 2019-09-10 | 2019-09-16 | | | |", "score": 0.8235, "match_basis": "verbatim_token+domain_route:SV"}, {"md_atom_id": "md_dmSV_ex_a048", "md_file": "knowledge_base/domains/SV/examples.md", "md_atom_type": "TABLE_ROW", "md_parent_section": "§SV.1 [Example 1]", "md_verbatim": "| 2 | 123456 | SV | 85 | 1 | SCREEN | Y | Y | | IN PERSON | | | 2019-12-13 | 2019-12-18 | -6 | -1 | |", "score": 0.8235, "match_basis": "verbatim_token+domain_route:SV"}, {"md_atom_id": "md_dmSV_ex_a057", "md_file": "knowledge_base/domains/SV/examples.md", "md_atom_type": "TABLE_ROW", "md_parent_section": "§SV.1 [Example 1]", "md_verbatim": "| 11 | 123456 | SV | 101 | 2 | DAY 1 | Y | Y | | IN PERSON | | 1 | 2020-02-19 | 2020-02-19 | 1 | 1 | |", "score": 0.8125, "match_basis": "verbatim_token+domain_route:SV"}, {"md_atom_id": "md_dmSV_ex_a058", "md_file": "knowledge_base/domains/SV/examples.md", "md_atom_type": "TABLE_ROW", "md_parent_section": "§SV.1 [Example 1]", "md_verbatim": "| 12 | 123456 | SV | 101 | 3 | WEEK 1 | Y | Y | | IN PERSON | | 8 | 2020-02-25 | 2020-02-25 | 7 | 7 | |", "score": 0.7882, "match_basis": "verbatim_token+domain_route:SV"}], "candidate_count": 5, "zero_candidate": false}
{"pdf_atom_id": "ig34_p0091_a003", "pdf_atom_type": "TABLE_ROW", "pdf_source": "SDTMIG_v3.4", "pdf_page": 91, "pdf_parent_section": "§5.5 [Subject Visits (SV)]", "pdf_verbatim": "| 11 | 123456 | SV | 101 | 2 | DAY 1 | Y | Y | | IN PERSON | | 1 | 2020-02-19 | 2020-02-19 | 1 | 1 | |", "figure_ref": null, "candidates": [{"md_atom_id": "md_dmSV_ex_a057", "md_file": "knowledge_base/domains/SV/examples.md", "md_atom_type": "TABLE_ROW", "md_parent_section": "§SV.1 [Example 1]", "md_verbatim": "| 11 | 123456 | SV | 101 | 2 | DAY 1 | Y | Y | | IN PERSON | | 1 | 2020-02-19 | 2020-02-19 | 1 | 1 | |", "score": 1.0, "match_basis": "verbatim_token+domain_route:SV"}, {"md_atom_id": "md_dmSV_ex_a058", "md_file": "knowledge_base/domains/SV/examples.md", "md_atom_type": "TABLE_ROW", "md_parent_section": "§SV.1 [Example 1]", "md_verbatim": "| 12 | 123456 | SV | 101 | 3 | WEEK 1 | Y | Y | | IN PERSON | | 8 | 2020-02-25 | 2020-02-25 | 7 | 7 | |", "score": 0.8714, "match_basis": "verbatim_token+domain_route:SV"}, {"md_atom_id": "md_dmSV_ex_a051", "md_file": "knowledge_base/domains/SV/examples.md", "md_atom_type": "TABLE_ROW", "md_parent_section": "§SV.1 [Example 1]", "md_verbatim": "| 5 | 123456 | SV | 85 | 4 | WEEK 2 | Y | Y | | IN PERSON | | 15 | 2020-01-02 | 2020-01-02 | 15 | 15 | |", "score": 0.8286, "match_basis": "verbatim_token+domain_route:SV"}, {"md_atom_id": "md_dmSV_ex_a052", "md_file": "knowledge_base/domains/SV/examples.md", "md_atom_type": "TABLE_ROW", "md_parent_section": "§SV.1 [Example 1]", "md_verbatim": "| 6 | 123456 | SV | 85 | 5 | WEEK 4 | Y | Y | | IN PERSON | | 29 | 2020-01-16 | 2020-01-16 | 30 | 30 | |", "score": 0.8286, "match_basis": "verbatim_token+domain_route:SV"}, {"md_atom_id": "md_dmSV_ex_a053", "md_file": "knowledge_base/domains/SV/examples.md", "md_atom_type": "TABLE_ROW", "md_parent_section": "§SV.1 [Example 1]", "md_verbatim": "| 7 | 123456 | SV | 85 | 6 | WEEK 6 | Y | Y | | IN PERSON | | 43 | 2020-01-30 | 2020-01-30 | 43 | 43 | |", "score": 0.8286, "match_basis": "verbatim_token+domain_route:SV"}], "candidate_count": 5, "zero_candidate": false}
{"pdf_atom_id": "ig34_p0091_a004", "pdf_atom_type": "TABLE_ROW", "pdf_source": "SDTMIG_v3.4", "pdf_page": 91, "pdf_parent_section": "§5.5 [Subject Visits (SV)]", "pdf_verbatim": "| 12 | 123456 | SV | 101 | 3 | WEEK 1 | Y | Y | | IN PERSON | | 8 | 2020-02-25 | 2020-02-25 | 7 | 7 | |", "figure_ref": null, "candidates": [{"md_atom_id": "md_dmSV_ex_a058", "md_file": "knowledge_base/domains/SV/examples.md", "md_atom_type": "TABLE_ROW", "md_parent_section": "§SV.1 [Example 1]", "md_verbatim": "| 12 | 123456 | SV | 101 | 3 | WEEK 1 | Y | Y | | IN PERSON | | 8 | 2020-02-25 | 2020-02-25 | 7 | 7 | |", "score": 1.0, "match_basis": "verbatim_token+domain_route:SV"}, {"md_atom_id": "md_dmSV_ex_a051", "md_file": "knowledge_base/domains/SV/examples.md", "md_atom_type": "TABLE_ROW", "md_parent_section": "§SV.1 [Example 1]", "md_verbatim": "| 5 | 123456 | SV | 85 | 4 | WEEK 2 | Y | Y | | IN PERSON | | 15 | 2020-01-02 | 2020-01-02 | 15 | 15 | |", "score": 0.9538, "match_basis": "verbatim_token+domain_route:SV"}, {"md_atom_id": "md_dmSV_ex_a052", "md_file": "knowledge_base/domains/SV/examples.md", "md_atom_type": "TABLE_ROW", "md_parent_section": "§SV.1 [Example 1]", "md_verbatim": "| 6 | 123456 | SV | 85 | 5 | WEEK 4 | Y | Y | | IN PERSON | | 29 | 2020-01-16 | 2020-01-16 | 30 | 30 | |", "score": 0.9538, "match_basis": "verbatim_token+domain_route:SV"}, {"md_atom_id": "md_dmSV_ex_a053", "md_file": "knowledge_base/domains/SV/examples.md", "md_atom_type": "TABLE_ROW", "md_parent_section": "§SV.1 [Example 1]", "md_verbatim": "| 7 | 123456 | SV | 85 | 6 | WEEK 6 | Y | Y | | IN PERSON | | 43 | 2020-01-30 | 2020-01-30 | 43 | 43 | |", "score": 0.9538, "match_basis": "verbatim_token+domain_route:SV"}, {"md_atom_id": "md_dmSV_ex_a054", "md_file": "knowledge_base/domains/SV/examples.md", "md_atom_type": "TABLE_ROW", "md_parent_section": "§SV.1 [Example 1]", "md_verbatim": "| 8 | 123456 | SV | 85 | 7 | WEEK 8 | Y | Y | | IN PERSON | | 57 | 2020-02-13 | 2020-02-13 | 57 | 57 | |", "score": 0.9538, "match_basis": "verbatim_token+domain_route:SV"}], "candidate_count": 5, "zero_candidate": false}
{"pdf_atom_id": "ig34_p0091_a005", "pdf_atom_type": "TABLE_ROW", "pdf_source": "SDTMIG_v3.4", "pdf_page": 91, "pdf_parent_section": "§5.5 [Subject Visits (SV)]", "pdf_verbatim": "| 13 | 123456 | SV | 101 | 4 | WEEK 2 | Y | N | CLINIC CLOSED DUE TO BAD WEATHER | | | 15 | | | | | |", "figure_ref": null, "candidates": [{"md_atom_id": "md_dmSV_ex_a059", "md_file": "knowledge_base/domains/SV/examples.md", "md_atom_type": "TABLE_ROW", "md_parent_section": "§SV.1 [Example 1]", "md_verbatim": "| 13 | 123456 | SV | 101 | 4 | WEEK 2 | Y | N | CLINIC CLOSED DUE TO BAD WEATHER | | | 15 | | | | | |", "score": 1.0, "match_basis": "verbatim_token+domain_route:SV"}, {"md_atom_id": "md_dmSV_ex_a058", "md_file": "knowledge_base/domains/SV/examples.md", "md_atom_type": "TABLE_ROW", "md_parent_section": "§SV.1 [Example 1]", "md_verbatim": "| 12 | 123456 | SV | 101 | 3 | WEEK 1 | Y | Y | | IN PERSON | | 8 | 2020-02-25 | 2020-02-25 | 7 | 7 | |", "score": 0.55, "match_basis": "verbatim_token+domain_route:SV"}, {"md_atom_id": "md_dmSV_ex_a013", "md_file": "knowledge_base/domains/SV/examples.md", "md_atom_type": "TABLE_ROW", "md_parent_section": "§SV.1 [Example 1]", "md_verbatim": "| 3 | 123456 | TV | 3 | WEEK 1 | 8 | 1 week after the start of the Treatment Epoch | |", "score": 0.5297, "match_basis": "verbatim_token+domain_route:SV"}, {"md_atom_id": "md_dmSV_ex_a051", "md_file": "knowledge_base/domains/SV/examples.md", "md_atom_type": "TABLE_ROW", "md_parent_section": "§SV.1 [Example 1]", "md_verbatim": "| 5 | 123456 | SV | 85 | 4 | WEEK 2 | Y | Y | | IN PERSON | | 15 | 2020-01-02 | 2020-01-02 | 15 | 15 | |", "score": 0.5286, "match_basis": "verbatim_token+domain_route:SV"}, {"md_atom_id": "md_dmSV_ex_a052", "md_file": "knowledge_base/domains/SV/examples.md", "md_atom_type": "TABLE_ROW", "md_parent_section": "§SV.1 [Example 1]", "md_verbatim": "| 6 | 123456 | SV | 85 | 5 | WEEK 4 | Y | Y | | IN PERSON | | 29 | 2020-01-16 | 2020-01-16 | 30 | 30 | |", "score": 0.5286, "match_basis": "verbatim_token+domain_route:SV"}], "candidate_count": 5, "zero_candidate": false}
{"pdf_atom_id": "ig34_p0091_a006", "pdf_atom_type": "TABLE_ROW", "pdf_source": "SDTMIG_v3.4", "pdf_page": 91, "pdf_parent_section": "§5.5 [Subject Visits (SV)]", "pdf_verbatim": "| 14 | 123456 | SV | 101 | 4.1 | | | | | REMOTE AUDIO VIDEO | Y | | 2020-03-07 | 2020-03-07 | 18 | 18 | EVALUATION OF AE |", "figure_ref": null, "candidates": [{"md_atom_id": "md_dmSV_ex_a060", "md_file": "knowledge_base/domains/SV/examples.md", "md_atom_type": "TABLE_ROW", "md_parent_section": "§SV.1 [Example 1]", "md_verbatim": "| 14 | 123456 | SV | 101 | 4.1 | | | | | REMOTE AUDIO VIDEO | Y | | 2020-03-07 | 2020-03-07 | 18 | 18 | EVALUATION OF AE |", "score": 1.0, "match_basis": "verbatim_token+domain_route:SV"}, {"md_atom_id": "md_dmSV_ex_a057", "md_file": "knowledge_base/domains/SV/examples.md", "md_atom_type": "TABLE_ROW", "md_parent_section": "§SV.1 [Example 1]", "md_verbatim": "| 11 | 123456 | SV | 101 | 2 | DAY 1 | Y | Y | | IN PERSON | | 1 | 2020-02-19 | 2020-02-19 | 1 | 1 | |", "score": 0.54, "match_basis": "verbatim_token+domain_route:SV"}, {"md_atom_id": "md_dmSV_ex_a058", "md_file": "knowledge_base/domains/SV/examples.md", "md_atom_type": "TABLE_ROW", "md_parent_section": "§SV.1 [Example 1]", "md_verbatim": "| 12 | 123456 | SV | 101 | 3 | WEEK 1 | Y | Y | | IN PERSON | | 8 | 2020-02-25 | 2020-02-25 | 7 | 7 | |", "score": 0.5355, "match_basis": "verbatim_token+domain_route:SV"}, {"md_atom_id": "md_dmSV_ex_a056", "md_file": "knowledge_base/domains/SV/examples.md", "md_atom_type": "TABLE_ROW", "md_parent_section": "§SV.1 [Example 1]", "md_verbatim": "| 10 | 123456 | SV | 101 | 1 | SCREEN | Y | Y | | IN PERSON | | | 2020-02-13 | 2020-02-18 | -6 | -1 | |", "score": 0.5273, "match_basis": "verbatim_token+domain_route:SV"}, {"md_atom_id": "md_dmSV_ex_a051", "md_file": "knowledge_base/domains/SV/examples.md", "md_atom_type": "TABLE_ROW", "md_parent_section": "§SV.1 [Example 1]", "md_verbatim": "| 5 | 123456 | SV | 85 | 4 | WEEK 2 | Y | Y | | IN PERSON | | 15 | 2020-01-02 | 2020-01-02 | 15 | 15 | |", "score": 0.5161, "match_basis": "verbatim_token+domain_route:SV"}], "candidate_count": 5, "zero_candidate": false}
{"pdf_atom_id": "ig34_p0091_a007", "pdf_atom_type": "TABLE_ROW", "pdf_source": "SDTMIG_v3.4", "pdf_page": 91, "pdf_parent_section": "§5.5 [Subject Visits (SV)]", "pdf_verbatim": "| 15 | 123456 | SV | 101 | 8 | FOLLOW-UP | Y | Y | | TELEPHONE CALL | Y | | 2020-03-16 | 2020-03-16 | 26 | 26 | |", "figure_ref": null, "candidates": [{"md_atom_id": "md_dmSV_ex_a061", "md_file": "knowledge_base/domains/SV/examples.md", "md_atom_type": "TABLE_ROW", "md_parent_section": "§SV.1 [Example 1]", "md_verbatim": "| 15 | 123456 | SV | 101 | 8 | FOLLOW-UP | Y | Y | | TELEPHONE CALL | Y | | 2020-03-16 | 2020-03-16 | 26 | 26 | |", "score": 1.0, "match_basis": "verbatim_token+domain_route:SV"}, {"md_atom_id": "md_dmSV_ex_a055", "md_file": "knowledge_base/domains/SV/examples.md", "md_atom_type": "TABLE_ROW", "md_parent_section": "§SV.1 [Example 1]", "md_verbatim": "| 9 | 123456 | SV | 85 | 8 | FOLLOW-UP | Y | Y | | IN PERSON | | | 2020-02-27 | 2020-02-27 | 72 | 72 | |", "score": 0.65, "match_basis": "verbatim_token+domain_route:SV"}, {"md_atom_id": "md_dmSV_ex_a057", "md_file": "knowledge_base/domains/SV/examples.md", "md_atom_type": "TABLE_ROW", "md_parent_section": "§SV.1 [Example 1]", "md_verbatim": "| 11 | 123456 | SV | 101 | 2 | DAY 1 | Y | Y | | IN PERSON | | 1 | 2020-02-19 | 2020-02-19 | 1 | 1 | |", "score": 0.568, "match_basis": "verbatim_token+domain_route:SV"}, {"md_atom_id": "md_dmSV_ex_a058", "md_file": "knowledge_base/domains/SV/examples.md", "md_atom_type": "TABLE_ROW", "md_parent_section": "§SV.1 [Example 1]", "md_verbatim": "| 12 | 123456 | SV | 101 | 3 | WEEK 1 | Y | Y | | IN PERSON | | 8 | 2020-02-25 | 2020-02-25 | 7 | 7 | |", "score": 0.5615, "match_basis": "verbatim_token+domain_route:SV"}, {"md_atom_id": "md_dmSV_ex_a056", "md_file": "knowledge_base/domains/SV/examples.md", "md_atom_type": "TABLE_ROW", "md_parent_section": "§SV.1 [Example 1]", "md_verbatim": "| 10 | 123456 | SV | 101 | 1 | SCREEN | Y | Y | | IN PERSON | | | 2020-02-13 | 2020-02-18 | -6 | -1 | |", "score": 0.55, "match_basis": "verbatim_token+domain_route:SV"}], "candidate_count": 5, "zero_candidate": false}
{"pdf_atom_id": "ig34_p0092_a001", "pdf_atom_type": "HEADING", "pdf_source": "SDTMIG_v3.4", "pdf_page": 92, "pdf_parent_section": "§6 [Domain Models Based on the General Observation Classes]", "pdf_verbatim": "6  Domain Models Based on the General Observation Classes", "figure_ref": null, "candidates": [{"md_atom_id": "md_ch02_a044", "md_file": "knowledge_base/chapters/ch02_fundamentals.md", "md_atom_type": "HEADING", "md_parent_section": "§2 [Fundamentals of the SDTM]", "md_verbatim": "## 2.3 The General Observation Classes", "score": 0.6871, "match_basis": "verbatim_token+global_search"}, {"md_atom_id": "md_ch02_a054", "md_file": "knowledge_base/chapters/ch02_fundamentals.md", "md_atom_type": "HEADING", "md_parent_section": "§2 [Fundamentals of the SDTM]", "md_verbatim": "## 2.4 Datasets Other than General Observation Class Domains", "score": 0.6366, "match_basis": "verbatim_token+global_search"}, {"md_atom_id": "md_model02_a001", "md_file": "knowledge_base/model/02_observation_classes.md", "md_atom_type": "HEADING", "md_parent_section": "§ SDTM v2.0 — Chapter 3.1: The General Observation Classes", "md_verbatim": "# SDTM v2.0 — Chapter 3.1: The General Observation Classes", "score": 0.6158, "match_basis": "verbatim_token+global_search"}, {"md_atom_id": "md_ch08_a223", "md_file": "knowledge_base/chapters/ch08_relationships.md", "md_atom_type": "HEADING", "md_parent_section": "§8.6 [Where Data Belong]", "md_verbatim": "### 8.6.1 Guidelines for Determining the General Observation Class", "score": 0.5375, "match_basis": "verbatim_token+global_search"}, {"md_atom_id": "md_model02_a061", "md_file": "knowledge_base/model/02_observation_classes.md", "md_atom_type": "HEADING", "md_parent_section": "§3.1.2 The Events Observation Class", "md_verbatim": "## 3.1.2 The Events Observation Class", "score": 0.5229, "match_basis": "verbatim_token+global_search"}], "candidate_count": 5, "zero_candidate": false}
{"pdf_atom_id": "ig34_p0092_a002", "pdf_atom_type": "HEADING", "pdf_source": "SDTMIG_v3.4", "pdf_page": 92, "pdf_parent_section": "§6 [Domain Models Based on the General Observation Classes]", "pdf_verbatim": "6.1  Models for Interventions Domains", "figure_ref": null, "candidates": [{"md_atom_id": "md_index_a035", "md_file": "knowledge_base/INDEX.md", "md_atom_type": "HEADING", "md_parent_section": "§ Domains (63 domains)", "md_verbatim": "### Interventions Domains", "score": 0.7571, "match_basis": "verbatim_token+global_search"}, {"md_atom_id": "md_ch04_a186", "md_file": "knowledge_base/chapters/ch04_general_assumptions.md", "md_atom_type": "HEADING", "md_parent_section": "§4.2.1 [Variable-Naming Conventions]", "md_verbatim": "#### 4.2.1.2 --TRT Conventions (Interventions)", "score": 0.564, "match_basis": "verbatim_token+global_search"}, {"md_atom_id": "md_varindex_a921", "md_file": "knowledge_base/VARIABLE_INDEX.md", "md_atom_type": "HEADING", "md_parent_section": "§ 二、领域专属变量（仅 1 个域，共 1499 个），按域分组", "md_verbatim": "### ML — Meal Data (Interventions)", "score": 0.564, "match_basis": "verbatim_token+global_search"}, {"md_atom_id": "md_varindex_a513", "md_file": "knowledge_base/VARIABLE_INDEX.md", "md_atom_type": "HEADING", "md_parent_section": "§ 二、领域专属变量（仅 1 个域，共 1499 个），按域分组", "md_verbatim": "### EX — Exposure (Interventions)", "score": 0.5444, "match_basis": "verbatim_token+global_search"}, {"md_atom_id": "md_varindex_a1173", "md_file": "knowledge_base/VARIABLE_INDEX.md", "md_atom_type": "HEADING", "md_parent_section": "§ 二、领域专属变量（仅 1 个域，共 1499 个），按域分组", "md_verbatim": "### PR — Procedures (Interventions)", "score": 0.5276, "match_basis": "verbatim_token+global_search"}], "candidate_count": 5, "zero_candidate": false}
{"pdf_atom_id": "ig34_p0092_a003", "pdf_atom_type": "SENTENCE", "pdf_source": "SDTMIG_v3.4", "pdf_page": 92, "pdf_parent_section": "§6.1 [Models for Interventions Domains]", "pdf_verbatim": "Most subject-level observations collected during the study should be represented according to one of the 3 SDTM general observation classes. The domains in the Interventions class include:", "figure_ref": null, "candidates": [{"md_atom_id": "md_ch02_a045", "md_file": "knowledge_base/chapters/ch02_fundamentals.md", "md_atom_type": "SENTENCE", "md_parent_section": "§2.3 [The General Observation Classes]", "md_verbatim": "Most subject-level observations should be represented according to 1 of the 3 SDTM general observation classes:", "score": 0.6975, "match_basis": "verbatim_token+global_search"}, {"md_atom_id": "md_model02_a004", "md_file": "knowledge_base/model/02_observation_classes.md", "md_atom_type": "SENTENCE", "md_parent_section": "§ Overview", "md_verbatim": "The majority of observations collected during a study can be divided among 3 general observation classes: Interventions, Events, and Findings.", "score": 0.5614, "match_basis": "verbatim_token+global_search"}, {"md_atom_id": "md_model01_a010", "md_file": "knowledge_base/model/01_concepts_and_terms.md", "md_atom_type": "SENTENCE", "md_parent_section": "§2.1 [Model Concepts and Terms — Variables]", "md_verbatim": "The SDTM includes a general model for representing data in 3 \"general observation\" classes.", "score": 0.5455, "match_basis": "verbatim_token+global_search"}, {"md_atom_id": "md_ch04_a976", "md_file": "knowledge_base/chapters/ch04_general_assumptions.md", "md_atom_type": "SENTENCE", "md_parent_section": "§4.5.6 [Supplemental Reason Variables]", "md_verbatim": "The SDTM general observation classes include the --REASND variable to submit the reason a response is not present (a result in a findings class or an --OCCUR value in an events or interventions variable).", "score": 0.5263, "match_basis": "verbatim_token+global_search"}, {"md_atom_id": "md_ch04_a607", "md_file": "knowledge_base/chapters/ch04_general_assumptions.md", "md_atom_type": "SENTENCE", "md_parent_section": "§4.4.5 [Clinical Encounters and Visits]", "md_verbatim": "For domains in the Events or Interventions observation classes, this could be the start date of the event or intervention.", "score": 0.5067, "match_basis": "verbatim_token+global_search"}], "candidate_count": 5, "zero_candidate": false}
{"pdf_atom_id": "ig34_p0092_a004", "pdf_atom_type": "HEADING", "pdf_source": "SDTMIG_v3.4", "pdf_page": 92, "pdf_parent_section": "§6.1 [Models for Interventions Domains]", "pdf_verbatim": "6.1.1  Procedure Agents (AG)", "figure_ref": null, "candidates": [{"md_atom_id": "md_varindex_a093", "md_file": "knowledge_base/VARIABLE_INDEX.md", "md_atom_type": "HEADING", "md_parent_section": "§ 二、领域专属变量（仅 1 个域，共 1499 个），按域分组", "md_verbatim": "### AG — Procedure Agents (Interventions)", "score": 0.6143, "match_basis": "verbatim_token+global_search"}, {"md_atom_id": "md_varindex_a1173", "md_file": "knowledge_base/VARIABLE_INDEX.md", "md_atom_type": "HEADING", "md_parent_section": "§ 二、领域专属变量（仅 1 个域，共 1499 个），按域分组", "md_verbatim": "### PR — Procedures (Interventions)", "score": 0.5182, "match_basis": "verbatim_token+global_search"}, {"md_atom_id": "md_model03_a063", "md_file": "knowledge_base/model/03_special_purpose_domains.md", "md_atom_type": "HEADING", "md_parent_section": "§ Comments (CO)", "md_verbatim": "## Comments (CO)", "score": 0.38, "match_basis": "verbatim_token+global_search"}, {"md_atom_id": "md_varindex_a421", "md_file": "knowledge_base/VARIABLE_INDEX.md", "md_atom_type": "HEADING", "md_parent_section": "§ 二、领域专属变量（仅 1 个域，共 1499 个），按域分组", "md_verbatim": "### DV — Protocol Deviations (Events)", "score": 0.3692, "match_basis": "verbatim_token+global_search"}, {"md_atom_id": "md_model05_a016", "md_file": "knowledge_base/model/05_study_level_data.md", "md_atom_type": "HEADING", "md_parent_section": "§ Trial Elements (TE)", "md_verbatim": "### Trial Elements (TE)", "score": 0.3667, "match_basis": "verbatim_token+global_search"}], "candidate_count": 5, "zero_candidate": false}
{"pdf_atom_id": "ig34_p0092_a005", "pdf_atom_type": "HEADING", "pdf_source": "SDTMIG_v3.4", "pdf_page": 92, "pdf_parent_section": "§6.1.1 [Procedure Agents (AG)]", "pdf_verbatim": "AG – Description/Overview", "figure_ref": null, "candidates": [{"md_atom_id": "md_dmAG_assn_a001", "md_file": "knowledge_base/domains/AG/assumptions.md", "md_atom_type": "HEADING", "md_parent_section": "§AG [AG — Assumptions]", "md_verbatim": "# AG — Assumptions", "score": 0.4857, "match_basis": "verbatim_token+domain_route:AG"}, {"md_atom_id": "md_dmAG_ex_a001", "md_file": "knowledge_base/domains/AG/examples.md", "md_atom_type": "HEADING", "md_parent_section": "§AG [AG — Examples]", "md_verbatim": "# AG — Examples", "score": 0.4, "match_basis": "verbatim_token+domain_route:AG"}, {"md_atom_id": "md_dmAG_ex_a002", "md_file": "knowledge_base/domains/AG/examples.md", "md_atom_type": "HEADING", "md_parent_section": "§AG.1 [Example 1]", "md_verbatim": "## Example 1", "score": 0.4, "match_basis": "verbatim_token+domain_route:AG"}, {"md_atom_id": "md_dmAG_ex_a017", "md_file": "knowledge_base/domains/AG/examples.md", "md_atom_type": "HEADING", "md_parent_section": "§AG.2 [Example 2]", "md_verbatim": "## Example 2", "score": 0.4, "match_basis": "verbatim_token+domain_route:AG"}], "candidate_count": 4, "zero_candidate": false}
{"pdf_atom_id": "ig34_p0092_a006", "pdf_atom_type": "SENTENCE", "pdf_source": "SDTMIG_v3.4", "pdf_page": 92, "pdf_parent_section": "§6.1.1 [Procedure Agents (AG)]", "pdf_verbatim": "An interventions domain that contains the agents administered to the subject as part of a procedure or assessment, as opposed to drugs, medications and therapies administered with therapeutic intent.", "figure_ref": null, "candidates": [{"md_atom_id": "md_dmAG_ex_a022", "md_file": "knowledge_base/domains/AG/examples.md", "md_atom_type": "SENTENCE", "md_parent_section": "§AG.2 [Example 2]", "md_verbatim": "The question as to whether a short-acting bronchodilator was administered in the 4 hours prior to the reversibility assessment is represented in the CM domain because this prior administration would have been for therapeutic effect, not as part of the procedure.", "score": 0.5709, "match_basis": "verbatim_token+domain_route:AG"}, {"md_atom_id": "md_dmAG_ex_a019", "md_file": "knowledge_base/domains/AG/examples.md", "md_atom_type": "SENTENCE", "md_parent_section": "§AG.2 [Example 2]", "md_verbatim": "Then the procedure agent (AG domain) was given as part of a reversibility assessment.", "score": 0.55, "match_basis": "verbatim_token+domain_route:AG"}, {"md_atom_id": "md_dmAG_ex_a028", "md_file": "knowledge_base/domains/AG/examples.md", "md_atom_type": "SENTENCE", "md_parent_section": "§AG.2 [Example 2]", "md_verbatim": "The administration of albuterol as part of the reversibility procedure is represented in the AG domain.", "score": 0.5393, "match_basis": "verbatim_token+domain_route:AG"}, {"md_atom_id": "md_dmAG_ex_a020", "md_file": "knowledge_base/domains/AG/examples.md", "md_atom_type": "SENTENCE", "md_parent_section": "§AG.2 [Example 2]", "md_verbatim": "Spirometry measurements (RE domain) were obtained before and after agent administration.", "score": 0.5221, "match_basis": "verbatim_token+domain_route:AG"}, {"md_atom_id": "md_dmAG_ex_a018", "md_file": "knowledge_base/domains/AG/examples.md", "md_atom_type": "SENTENCE", "md_parent_section": "§AG.2 [Example 2]", "md_verbatim": "In this example, first there was a check that the subject had not taken a short-acting bronchodilator in the previous 4 hours (Concomitant/Prior Medications (CM) domain).", "score": 0.5014, "match_basis": "verbatim_token+domain_route:AG"}], "candidate_count": 5, "zero_candidate": false}
{"pdf_atom_id": "ig34_p0092_a007", "pdf_atom_type": "HEADING", "pdf_source": "SDTMIG_v3.4", "pdf_page": 92, "pdf_parent_section": "§6.1.1 [Procedure Agents (AG)]", "pdf_verbatim": "AG – Specification", "figure_ref": null, "candidates": [{"md_atom_id": "md_dmAG_assn_a001", "md_file": "knowledge_base/domains/AG/assumptions.md", "md_atom_type": "HEADING", "md_parent_section": "§AG [AG — Assumptions]", "md_verbatim": "# AG — Assumptions", "score": 0.4667, "match_basis": "verbatim_token+domain_route:AG"}, {"md_atom_id": "md_dmAG_ex_a001", "md_file": "knowledge_base/domains/AG/examples.md", "md_atom_type": "HEADING", "md_parent_section": "§AG [AG — Examples]", "md_verbatim": "# AG — Examples", "score": 0.4, "match_basis": "verbatim_token+domain_route:AG"}, {"md_atom_id": "md_dmAG_ex_a002", "md_file": "knowledge_base/domains/AG/examples.md", "md_atom_type": "HEADING", "md_parent_section": "§AG.1 [Example 1]", "md_verbatim": "## Example 1", "score": 0.4, "match_basis": "verbatim_token+domain_route:AG"}, {"md_atom_id": "md_dmAG_ex_a017", "md_file": "knowledge_base/domains/AG/examples.md", "md_atom_type": "HEADING", "md_parent_section": "§AG.2 [Example 2]", "md_verbatim": "## Example 2", "score": 0.4, "match_basis": "verbatim_token+domain_route:AG"}], "candidate_count": 4, "zero_candidate": false}
{"pdf_atom_id": "ig34_p0092_a008", "pdf_atom_type": "CODE_LITERAL", "pdf_source": "SDTMIG_v3.4", "pdf_page": 92, "pdf_parent_section": "§6.1.1 [Procedure Agents (AG)]", "pdf_verbatim": "ag.xpt", "figure_ref": null, "candidates": [{"md_atom_id": "md_dmAG_ex_a011", "md_file": "knowledge_base/domains/AG/examples.md", "md_atom_type": "SENTENCE", "md_parent_section": "§AG.1 [Example 1]", "md_verbatim": "**ag.xpt**", "score": 0.79, "match_basis": "verbatim_token+domain_route:AG"}, {"md_atom_id": "md_dmAG_ex_a025", "md_file": "knowledge_base/domains/AG/examples.md", "md_atom_type": "SENTENCE", "md_parent_section": "§AG.2 [Example 2]", "md_verbatim": "**cm.xpt**", "score": 0.79, "match_basis": "verbatim_token+domain_route:AG"}, {"md_atom_id": "md_dmAG_ex_a030", "md_file": "knowledge_base/domains/AG/examples.md", "md_atom_type": "SENTENCE", "md_parent_section": "§AG.2 [Example 2]", "md_verbatim": "**ag.xpt**", "score": 0.79, "match_basis": "verbatim_token+domain_route:AG"}, {"md_atom_id": "md_dmAG_ex_a040", "md_file": "knowledge_base/domains/AG/examples.md", "md_atom_type": "SENTENCE", "md_parent_section": "§AG.2 [Example 2]", "md_verbatim": "**re.xpt**", "score": 0.79, "match_basis": "verbatim_token+domain_route:AG"}, {"md_atom_id": "md_dmAG_ex_a046", "md_file": "knowledge_base/domains/AG/examples.md", "md_atom_type": "SENTENCE", "md_parent_section": "§AG.2 [Example 2]", "md_verbatim": "**di.xpt**", "score": 0.79, "match_basis": "verbatim_token+domain_route:AG"}, {"md_atom_id": "md_dmAG_ex_a050", "md_file": "knowledge_base/domains/AG/examples.md", "md_atom_type": "SENTENCE", "md_parent_section": "§AG.2 [Example 2]", "md_verbatim": "**relrec.xpt**", "score": 0.31, "match_basis": "verbatim_token+domain_route:AG"}, {"md_atom_id": "md_dmAG_assn_a001", "md_file": "knowledge_base/domains/AG/assumptions.md", "md_atom_type": "HEADING", "md_parent_section": "§AG [AG — Assumptions]", "md_verbatim": "# AG — Assumptions", "score": 0.19, "match_basis": "verbatim_token+domain_route:AG"}, {"md_atom_id": "md_dmAG_assn_a002", "md_file": "knowledge_base/domains/AG/assumptions.md", "md_atom_type": "LIST_ITEM", "md_parent_section": "§AG [AG — Assumptions]", "md_verbatim": "1. Purpose of the domain: Some tests involve administration of substances, and it has been unclear in which domain these should be represented.", "score": 0.19, "match_basis": "verbatim_token+domain_route:AG"}, {"md_atom_id": "md_dmAG_assn_a003", "md_file": "knowledge_base/domains/AG/assumptions.md", "md_atom_type": "LIST_ITEM", "md_parent_section": "§AG [AG — Assumptions]", "md_verbatim": "   a. The Concomitant/Prior Medications (CM) domain seemed particularly inappropriate when the substance was one that would never be given as a medication. Even substances that are medications are not being used as such when they are given as part of a testing procedure.", "score": 0.19, "match_basis": "verbatim_token+domain_route:AG"}, {"md_atom_id": "md_dmAG_assn_a004", "md_file": "knowledge_base/domains/AG/assumptions.md", "md_atom_type": "LIST_ITEM", "md_parent_section": "§AG [AG — Assumptions]", "md_verbatim": "   b. The Exposure (EX) domain also seemed inappropriate; although the testing procedure might be part of the study plan, these data would not be used or analyzed in the same way as data about study treatments. The AG domain was created to fill this gap.", "score": 0.19, "match_basis": "verbatim_token+domain_route:AG"}], "candidate_count": 10, "zero_candidate": false}
{"pdf_atom_id": "ig34_p0092_a009", "pdf_atom_type": "SENTENCE", "pdf_source": "SDTMIG_v3.4", "pdf_page": 92, "pdf_parent_section": "§6.1.1 [Procedure Agents (AG)]", "pdf_verbatim": "ag.xpt, Procedure Agents — Interventions. One record per recorded intervention occurrence per subject, Tabulation.", "figure_ref": null, "candidates": [{"md_atom_id": "md_dmAG_ex_a049", "md_file": "knowledge_base/domains/AG/examples.md", "md_atom_type": "SENTENCE", "md_parent_section": "§AG.2 [Example 2]", "md_verbatim": "The relationship of the test agent to the spirometry measurements obtained before and after its administration and to the prior occurrence of short acting bronchodilator administration is recorded by means of a relationship in RELREC.", "score": 0.525, "match_basis": "verbatim_token+domain_route:AG"}, {"md_atom_id": "md_dmAG_ex_a028", "md_file": "knowledge_base/domains/AG/examples.md", "md_atom_type": "SENTENCE", "md_parent_section": "§AG.2 [Example 2]", "md_verbatim": "The administration of albuterol as part of the reversibility procedure is represented in the AG domain.", "score": 0.4876, "match_basis": "verbatim_token+domain_route:AG"}, {"md_atom_id": "md_dmAG_ex_a019", "md_file": "knowledge_base/domains/AG/examples.md", "md_atom_type": "SENTENCE", "md_parent_section": "§AG.2 [Example 2]", "md_verbatim": "Then the procedure agent (AG domain) was given as part of a reversibility assessment.", "score": 0.4846, "match_basis": "verbatim_token+domain_route:AG"}, {"md_atom_id": "md_dmAG_ex_a004", "md_file": "knowledge_base/domains/AG/examples.md", "md_atom_type": "SENTENCE", "md_parent_section": "§AG.1 [Example 1]", "md_verbatim": "Prior to the BAC, the subject had a skin-prick allergen test to help identify the allergen to be used for the BAC test.", "score": 0.464, "match_basis": "verbatim_token+domain_route:AG"}, {"md_atom_id": "md_dmAG_ex_a020", "md_file": "knowledge_base/domains/AG/examples.md", "md_atom_type": "SENTENCE", "md_parent_section": "§AG.2 [Example 2]", "md_verbatim": "Spirometry measurements (RE domain) were obtained before and after agent administration.", "score": 0.4593, "match_basis": "verbatim_token+domain_route:AG"}], "candidate_count": 5, "zero_candidate": false}
{"pdf_atom_id": "ig34_p0092_a010", "pdf_atom_type": "TABLE_HEADER", "pdf_source": "SDTMIG_v3.4", "pdf_page": 92, "pdf_parent_section": "§6.1.1 [Procedure Agents (AG)]", "pdf_verbatim": "| Variable Name | Variable Label | Type | Controlled Terms, Codelist or Format1 | Role | CDISC Notes | Core |", "figure_ref": null, "candidates": [{"md_atom_id": "md_dmAG_ex_a051", "md_file": "knowledge_base/domains/AG/examples.md", "md_atom_type": "TABLE_HEADER", "md_parent_section": "§AG.2 [Example 2]", "md_verbatim": "| Row | STUDYID | RDOMAIN | USUBJID | IDVAR | IDVARVAL | RELTYPE | RELID |\n|-----|---------|---------|---------|-------|----------|---------|-------|", "score": 0.4348, "match_basis": "verbatim_token+domain_route:AG"}, {"md_atom_id": "md_dmAG_ex_a047", "md_file": "knowledge_base/domains/AG/examples.md", "md_atom_type": "TABLE_HEADER", "md_parent_section": "§AG.2 [Example 2]", "md_verbatim": "| Row | STUDYID | DOMAIN | SPDEVID | DISEQ | DIPARMCD | DIPARM | DIVAL |\n|-----|---------|--------|---------|-------|----------|--------|-------|", "score": 0.4086, "match_basis": "verbatim_token+domain_route:AG"}, {"md_atom_id": "md_dmAG_ex_a041", "md_file": "knowledge_base/domains/AG/examples.md", "md_atom_type": "TABLE_HEADER", "md_parent_section": "§AG.2 [Example 2]", "md_verbatim": "| Row | STUDYID | DOMAIN | USUBJID | SPDEVID | RESEQ | REGRPID | RETESTCD | RETEST | REORRES | REORRESU | RESTRESC | RESTRESN | RESTRESU | VISIT | REDTC | RETPT | RETPTNUM | REELTM | RETPTREF | RERFTDTC |\n|-----|---------|--------|---------|---------|-------|---------|----------|--------|---------|----------|----------|----------|----------|-------|-------|-------|----------|--------|----------|----------|", "score": 0.4056, "match_basis": "verbatim_token+domain_route:AG"}, {"md_atom_id": "md_dmAG_ex_a012", "md_file": "knowledge_base/domains/AG/examples.md", "md_atom_type": "TABLE_HEADER", "md_parent_section": "§AG.1 [Example 1]", "md_verbatim": "| Row | STUDYID | DOMAIN | USUBJID | AGSEQ | AGTRT | AGPRESP | AGOCCUR | AGDOSE | AGDOSU | AGROUTE | VISIT | AGENDTC |\n|-----|---------|--------|---------|-------|-------|---------|---------|--------|--------|---------|-------|---------|", "score": 0.4, "match_basis": "verbatim_token+domain_route:AG"}, {"md_atom_id": "md_dmAG_ex_a026", "md_file": "knowledge_base/domains/AG/examples.md", "md_atom_type": "TABLE_HEADER", "md_parent_section": "§AG.2 [Example 2]", "md_verbatim": "| Row | STUDYID | DOMAIN | USUBJID | CMSEQ | CMSPID | CMTRT | CMCAT | CMPRESP | CMOCCUR | CMEVLINT |\n|-----|---------|--------|---------|-------|--------|-------|-------|---------|---------|----------|", "score": 0.4, "match_basis": "verbatim_token+domain_route:AG"}], "candidate_count": 5, "zero_candidate": false}
{"pdf_atom_id": "ig34_p0092_a011", "pdf_atom_type": "TABLE_ROW", "pdf_source": "SDTMIG_v3.4", "pdf_page": 92, "pdf_parent_section": "§6.1.1 [Procedure Agents (AG)]", "pdf_verbatim": "| STUDYID | Study Identifier | Char | | Identifier | Unique identifier for a study. | Req |", "figure_ref": null, "candidates": [{"md_atom_id": "md_dmAG_ex_a047", "md_file": "knowledge_base/domains/AG/examples.md", "md_atom_type": "TABLE_HEADER", "md_parent_section": "§AG.2 [Example 2]", "md_verbatim": "| Row | STUDYID | DOMAIN | SPDEVID | DISEQ | DIPARMCD | DIPARM | DIVAL |\n|-----|---------|--------|---------|-------|----------|--------|-------|", "score": 0.4098, "match_basis": "verbatim_token+domain_route:AG"}, {"md_atom_id": "md_dmAG_ex_a042", "md_file": "knowledge_base/domains/AG/examples.md", "md_atom_type": "TABLE_ROW", "md_parent_section": "§AG.2 [Example 2]", "md_verbatim": "| 1 | XYZ | RE | XYZ-001-001 | ABC001 | 1 | RV1 | FEV1 | Forced Expiratory Volume in 1 Second | 2.43 | L | 2.43 | 2.43 | L | VISIT 2 | 2013-06-18T10:00 | PRE-BRONCHODILATOR ADMINISTRATION | 1 | -PT5M | BRONCHODILATOR ADMINISTRATION | 2013-06-18T10:05 |", "score": 0.4075, "match_basis": "verbatim_token+domain_route:AG"}, {"md_atom_id": "md_dmAG_ex_a044", "md_file": "knowledge_base/domains/AG/examples.md", "md_atom_type": "TABLE_ROW", "md_parent_section": "§AG.2 [Example 2]", "md_verbatim": "| 3 | XYZ | RE | XYZ-001-001 | ABC001 | 3 | RV1 | PTCREV | Percentage Reversibility | 13.99 | % | 13.99 | 13.99 | % | VISIT 2 | 2013-06-18T10:00 | | | | BRONCHODILATOR ADMINISTRATION | 2013-06-18T10:05 |", "score": 0.4075, "match_basis": "verbatim_token+domain_route:AG"}, {"md_atom_id": "md_dmAG_ex_a043", "md_file": "knowledge_base/domains/AG/examples.md", "md_atom_type": "TABLE_ROW", "md_parent_section": "§AG.2 [Example 2]", "md_verbatim": "| 2 | XYZ | RE | XYZ-001-001 | ABC001 | 2 | RV1 | FEV1 | Forced Expiratory Volume in 1 Second | 2.77 | L | 2.77 | 2.77 | L | VISIT 2 | 2013-06-18T10:00 | POST-BRONCHODILATOR ADMINISTRATION | 2 | PT20M | BRONCHODILATOR ADMINISTRATION | 2013-06-18T10:05 |", "score": 0.4073, "match_basis": "verbatim_token+domain_route:AG"}, {"md_atom_id": "md_dmAG_ex_a051", "md_file": "knowledge_base/domains/AG/examples.md", "md_atom_type": "TABLE_HEADER", "md_parent_section": "§AG.2 [Example 2]", "md_verbatim": "| Row | STUDYID | RDOMAIN | USUBJID | IDVAR | IDVARVAL | RELTYPE | RELID |\n|-----|---------|---------|---------|-------|----------|---------|-------|", "score": 0.4067, "match_basis": "verbatim_token+domain_route:AG"}], "candidate_count": 5, "zero_candidate": false}
{"pdf_atom_id": "ig34_p0092_a012", "pdf_atom_type": "TABLE_ROW", "pdf_source": "SDTMIG_v3.4", "pdf_page": 92, "pdf_parent_section": "§6.1.1 [Procedure Agents (AG)]", "pdf_verbatim": "| DOMAIN | Domain Abbreviation | Char | AG | Identifier | Two-character abbreviation for the domain. | Req |", "figure_ref": null, "candidates": [{"md_atom_id": "md_dmAG_ex_a044", "md_file": "knowledge_base/domains/AG/examples.md", "md_atom_type": "TABLE_ROW", "md_parent_section": "§AG.2 [Example 2]", "md_verbatim": "| 3 | XYZ | RE | XYZ-001-001 | ABC001 | 3 | RV1 | PTCREV | Percentage Reversibility | 13.99 | % | 13.99 | 13.99 | % | VISIT 2 | 2013-06-18T10:00 | | | | BRONCHODILATOR ADMINISTRATION | 2013-06-18T10:05 |", "score": 0.4341, "match_basis": "verbatim_token+domain_route:AG"}, {"md_atom_id": "md_dmAG_ex_a032", "md_file": "knowledge_base/domains/AG/examples.md", "md_atom_type": "TABLE_ROW", "md_parent_section": "§AG.2 [Example 2]", "md_verbatim": "| 1 | XYZ | AG | XYZ-001-001 | 1 | RV1 | ALBUTEROL | Y | Y | 2 | PUFF | AEROSOL | ONCE | RESPIRATORY (INHALATION) | VISIT 2 | 2013-06-18T10:05 |", "score": 0.4333, "match_basis": "verbatim_token+domain_route:AG"}, {"md_atom_id": "md_dmAG_ex_a013", "md_file": "knowledge_base/domains/AG/examples.md", "md_atom_type": "TABLE_ROW", "md_parent_section": "§AG.1 [Example 1]", "md_verbatim": "| 1 | XYZ | AG | XYZ-001-001 | 1 | SALINE | Y | Y | 0 | SQ-u/mL | RESPIRATORY (INHALATION) | SCREENING | 2010-11-07T10:56:00 |", "score": 0.4277, "match_basis": "verbatim_token+domain_route:AG"}, {"md_atom_id": "md_dmAG_ex_a014", "md_file": "knowledge_base/domains/AG/examples.md", "md_atom_type": "TABLE_ROW", "md_parent_section": "§AG.1 [Example 1]", "md_verbatim": "| 2 | XYZ | AG | XYZ-001-001 | 2 | GRASS | Y | Y | 250 | SQ-u/mL | RESPIRATORY (INHALATION) | SCREENING | 2010-11-07T11:19:00 |", "score": 0.4277, "match_basis": "verbatim_token+domain_route:AG"}, {"md_atom_id": "md_dmAG_ex_a015", "md_file": "knowledge_base/domains/AG/examples.md", "md_atom_type": "TABLE_ROW", "md_parent_section": "§AG.1 [Example 1]", "md_verbatim": "| 3 | XYZ | AG | XYZ-001-001 | 3 | GRASS | Y | Y | 1000 | SQ-u/mL | RESPIRATORY (INHALATION) | SCREENING | 2010-11-07T11:43:00 |", "score": 0.4273, "match_basis": "verbatim_token+domain_route:AG"}], "candidate_count": 5, "zero_candidate": false}
{"pdf_atom_id": "ig34_p0092_a013", "pdf_atom_type": "TABLE_ROW", "pdf_source": "SDTMIG_v3.4", "pdf_page": 92, "pdf_parent_section": "§6.1.1 [Procedure Agents (AG)]", "pdf_verbatim": "| USUBJID | Unique Subject Identifier | Char | | Identifier | Identifier used to uniquely identify a subject across all studies for all applications or submissions involving the product. | Req |", "figure_ref": null, "candidates": [{"md_atom_id": "md_dmAG_ex_a042", "md_file": "knowledge_base/domains/AG/examples.md", "md_atom_type": "TABLE_ROW", "md_parent_section": "§AG.2 [Example 2]", "md_verbatim": "| 1 | XYZ | RE | XYZ-001-001 | ABC001 | 1 | RV1 | FEV1 | Forced Expiratory Volume in 1 Second | 2.43 | L | 2.43 | 2.43 | L | VISIT 2 | 2013-06-18T10:00 | PRE-BRONCHODILATOR ADMINISTRATION | 1 | -PT5M | BRONCHODILATOR ADMINISTRATION | 2013-06-18T10:05 |", "score": 0.4244, "match_basis": "verbatim_token+domain_route:AG"}, {"md_atom_id": "md_dmAG_ex_a013", "md_file": "knowledge_base/domains/AG/examples.md", "md_atom_type": "TABLE_ROW", "md_parent_section": "§AG.1 [Example 1]", "md_verbatim": "| 1 | XYZ | AG | XYZ-001-001 | 1 | SALINE | Y | Y | 0 | SQ-u/mL | RESPIRATORY (INHALATION) | SCREENING | 2010-11-07T10:56:00 |", "score": 0.4242, "match_basis": "verbatim_token+domain_route:AG"}, {"md_atom_id": "md_dmAG_ex_a014", "md_file": "knowledge_base/domains/AG/examples.md", "md_atom_type": "TABLE_ROW", "md_parent_section": "§AG.1 [Example 1]", "md_verbatim": "| 2 | XYZ | AG | XYZ-001-001 | 2 | GRASS | Y | Y | 250 | SQ-u/mL | RESPIRATORY (INHALATION) | SCREENING | 2010-11-07T11:19:00 |", "score": 0.4242, "match_basis": "verbatim_token+domain_route:AG"}, {"md_atom_id": "md_dmAG_ex_a015", "md_file": "knowledge_base/domains/AG/examples.md", "md_atom_type": "TABLE_ROW", "md_parent_section": "§AG.1 [Example 1]", "md_verbatim": "| 3 | XYZ | AG | XYZ-001-001 | 3 | GRASS | Y | Y | 1000 | SQ-u/mL | RESPIRATORY (INHALATION) | SCREENING | 2010-11-07T11:43:00 |", "score": 0.424, "match_basis": "verbatim_token+domain_route:AG"}, {"md_atom_id": "md_dmAG_ex_a016", "md_file": "knowledge_base/domains/AG/examples.md", "md_atom_type": "TABLE_ROW", "md_parent_section": "§AG.1 [Example 1]", "md_verbatim": "| 4 | XYZ | AG | XYZ-001-001 | 4 | GRASS | Y | Y | 2000 | SQ-u/mL | RESPIRATORY (INHALATION) | SCREENING | 2010-11-07T12:06:00 |", "score": 0.424, "match_basis": "verbatim_token+domain_route:AG"}], "candidate_count": 5, "zero_candidate": false}
{"pdf_atom_id": "ig34_p0092_a014", "pdf_atom_type": "TABLE_ROW", "pdf_source": "SDTMIG_v3.4", "pdf_page": 92, "pdf_parent_section": "§6.1.1 [Procedure Agents (AG)]", "pdf_verbatim": "| AGSEQ | Sequence Number | Num | | Identifier | Sequence number given to ensure uniqueness of subject records within a domain. May be any valid number. | Req |", "figure_ref": null, "candidates": [{"md_atom_id": "md_dmAG_ex_a052", "md_file": "knowledge_base/domains/AG/examples.md", "md_atom_type": "TABLE_ROW", "md_parent_section": "§AG.2 [Example 2]", "md_verbatim": "| 1 | XYZ | AG | XYZ-001-001 | AGSPID | RV1 | | 1 |", "score": 0.4095, "match_basis": "verbatim_token+domain_route:AG"}, {"md_atom_id": "md_dmAG_ex_a013", "md_file": "knowledge_base/domains/AG/examples.md", "md_atom_type": "TABLE_ROW", "md_parent_section": "§AG.1 [Example 1]", "md_verbatim": "| 1 | XYZ | AG | XYZ-001-001 | 1 | SALINE | Y | Y | 0 | SQ-u/mL | RESPIRATORY (INHALATION) | SCREENING | 2010-11-07T10:56:00 |", "score": 0.4066, "match_basis": "verbatim_token+domain_route:AG"}, {"md_atom_id": "md_dmAG_ex_a032", "md_file": "knowledge_base/domains/AG/examples.md", "md_atom_type": "TABLE_ROW", "md_parent_section": "§AG.2 [Example 2]", "md_verbatim": "| 1 | XYZ | AG | XYZ-001-001 | 1 | RV1 | ALBUTEROL | Y | Y | 2 | PUFF | AEROSOL | ONCE | RESPIRATORY (INHALATION) | VISIT 2 | 2013-06-18T10:05 |", "score": 0.4061, "match_basis": "verbatim_token+domain_route:AG"}, {"md_atom_id": "md_dmAG_ex_a042", "md_file": "knowledge_base/domains/AG/examples.md", "md_atom_type": "TABLE_ROW", "md_parent_section": "§AG.2 [Example 2]", "md_verbatim": "| 1 | XYZ | RE | XYZ-001-001 | ABC001 | 1 | RV1 | FEV1 | Forced Expiratory Volume in 1 Second | 2.43 | L | 2.43 | 2.43 | L | VISIT 2 | 2013-06-18T10:00 | PRE-BRONCHODILATOR ADMINISTRATION | 1 | -PT5M | BRONCHODILATOR ADMINISTRATION | 2013-06-18T10:05 |", "score": 0.4052, "match_basis": "verbatim_token+domain_route:AG"}, {"md_atom_id": "md_dmAG_ex_a044", "md_file": "knowledge_base/domains/AG/examples.md", "md_atom_type": "TABLE_ROW", "md_parent_section": "§AG.2 [Example 2]", "md_verbatim": "| 3 | XYZ | RE | XYZ-001-001 | ABC001 | 3 | RV1 | PTCREV | Percentage Reversibility | 13.99 | % | 13.99 | 13.99 | % | VISIT 2 | 2013-06-18T10:00 | | | | BRONCHODILATOR ADMINISTRATION | 2013-06-18T10:05 |", "score": 0.4052, "match_basis": "verbatim_token+domain_route:AG"}], "candidate_count": 5, "zero_candidate": false}
{"pdf_atom_id": "ig34_p0092_a015", "pdf_atom_type": "TABLE_ROW", "pdf_source": "SDTMIG_v3.4", "pdf_page": 92, "pdf_parent_section": "§6.1.1 [Procedure Agents (AG)]", "pdf_verbatim": "| AGGRPID | Group ID | Char | | Identifier | Used to tie together a block of related records in a single domain for a subject. | Perm |", "figure_ref": null, "candidates": [{"md_atom_id": "md_dmAG_ex_a053", "md_file": "knowledge_base/domains/AG/examples.md", "md_atom_type": "TABLE_ROW", "md_parent_section": "§AG.2 [Example 2]", "md_verbatim": "| 2 | XYZ | RE | XYZ-001-001 | REGRPID | RV1 | | 1 |", "score": 0.4295, "match_basis": "verbatim_token+domain_route:AG"}, {"md_atom_id": "md_dmAG_ex_a042", "md_file": "knowledge_base/domains/AG/examples.md", "md_atom_type": "TABLE_ROW", "md_parent_section": "§AG.2 [Example 2]", "md_verbatim": "| 1 | XYZ | RE | XYZ-001-001 | ABC001 | 1 | RV1 | FEV1 | Forced Expiratory Volume in 1 Second | 2.43 | L | 2.43 | 2.43 | L | VISIT 2 | 2013-06-18T10:00 | PRE-BRONCHODILATOR ADMINISTRATION | 1 | -PT5M | BRONCHODILATOR ADMINISTRATION | 2013-06-18T10:05 |", "score": 0.4159, "match_basis": "verbatim_token+domain_route:AG"}, {"md_atom_id": "md_dmAG_ex_a044", "md_file": "knowledge_base/domains/AG/examples.md", "md_atom_type": "TABLE_ROW", "md_parent_section": "§AG.2 [Example 2]", "md_verbatim": "| 3 | XYZ | RE | XYZ-001-001 | ABC001 | 3 | RV1 | PTCREV | Percentage Reversibility | 13.99 | % | 13.99 | 13.99 | % | VISIT 2 | 2013-06-18T10:00 | | | | BRONCHODILATOR ADMINISTRATION | 2013-06-18T10:05 |", "score": 0.4159, "match_basis": "verbatim_token+domain_route:AG"}, {"md_atom_id": "md_dmAG_ex_a043", "md_file": "knowledge_base/domains/AG/examples.md", "md_atom_type": "TABLE_ROW", "md_parent_section": "§AG.2 [Example 2]", "md_verbatim": "| 2 | XYZ | RE | XYZ-001-001 | ABC001 | 2 | RV1 | FEV1 | Forced Expiratory Volume in 1 Second | 2.77 | L | 2.77 | 2.77 | L | VISIT 2 | 2013-06-18T10:00 | POST-BRONCHODILATOR ADMINISTRATION | 2 | PT20M | BRONCHODILATOR ADMINISTRATION | 2013-06-18T10:05 |", "score": 0.4157, "match_basis": "verbatim_token+domain_route:AG"}, {"md_atom_id": "md_dmAG_ex_a027", "md_file": "knowledge_base/domains/AG/examples.md", "md_atom_type": "TABLE_ROW", "md_parent_section": "§AG.2 [Example 2]", "md_verbatim": "| 1 | XYZ | CM | XYZ-001-001 | 1 | RV1 | SHORT-ACTING BRONCHODILATOR | SHORT-ACTING BRONCHODILATOR | Y | N | -PT4H |", "score": 0.4154, "match_basis": "verbatim_token+domain_route:AG"}], "candidate_count": 5, "zero_candidate": false}
{"pdf_atom_id": "ig34_p0092_a016", "pdf_atom_type": "TABLE_ROW", "pdf_source": "SDTMIG_v3.4", "pdf_page": 92, "pdf_parent_section": "§6.1.1 [Procedure Agents (AG)]", "pdf_verbatim": "| AGSPID | Sponsor-Defined Identifier | Char | | Identifier | Sponsor-defined reference number. May be preprinted on the CRF as an explicit line identifier or defined in the sponsor's operational database. Example: Line number from the procedure or test page. | Perm |", "figure_ref": null, "candidates": [{"md_atom_id": "md_dmAG_ex_a013", "md_file": "knowledge_base/domains/AG/examples.md", "md_atom_type": "TABLE_ROW", "md_parent_section": "§AG.1 [Example 1]", "md_verbatim": "| 1 | XYZ | AG | XYZ-001-001 | 1 | SALINE | Y | Y | 0 | SQ-u/mL | RESPIRATORY (INHALATION) | SCREENING | 2010-11-07T10:56:00 |", "score": 0.4365, "match_basis": "verbatim_token+domain_route:AG"}, {"md_atom_id": "md_dmAG_ex_a042", "md_file": "knowledge_base/domains/AG/examples.md", "md_atom_type": "TABLE_ROW", "md_parent_section": "§AG.2 [Example 2]", "md_verbatim": "| 1 | XYZ | RE | XYZ-001-001 | ABC001 | 1 | RV1 | FEV1 | Forced Expiratory Volume in 1 Second | 2.43 | L | 2.43 | 2.43 | L | VISIT 2 | 2013-06-18T10:00 | PRE-BRONCHODILATOR ADMINISTRATION | 1 | -PT5M | BRONCHODILATOR ADMINISTRATION | 2013-06-18T10:05 |", "score": 0.43, "match_basis": "verbatim_token+domain_route:AG"}, {"md_atom_id": "md_dmAG_ex_a044", "md_file": "knowledge_base/domains/AG/examples.md", "md_atom_type": "TABLE_ROW", "md_parent_section": "§AG.2 [Example 2]", "md_verbatim": "| 3 | XYZ | RE | XYZ-001-001 | ABC001 | 3 | RV1 | PTCREV | Percentage Reversibility | 13.99 | % | 13.99 | 13.99 | % | VISIT 2 | 2013-06-18T10:00 | | | | BRONCHODILATOR ADMINISTRATION | 2013-06-18T10:05 |", "score": 0.43, "match_basis": "verbatim_token+domain_route:AG"}, {"md_atom_id": "md_dmAG_ex_a032", "md_file": "knowledge_base/domains/AG/examples.md", "md_atom_type": "TABLE_ROW", "md_parent_section": "§AG.2 [Example 2]", "md_verbatim": "| 1 | XYZ | AG | XYZ-001-001 | 1 | RV1 | ALBUTEROL | Y | Y | 2 | PUFF | AEROSOL | ONCE | RESPIRATORY (INHALATION) | VISIT 2 | 2013-06-18T10:05 |", "score": 0.429, "match_basis": "verbatim_token+domain_route:AG"}, {"md_atom_id": "md_dmAG_ex_a052", "md_file": "knowledge_base/domains/AG/examples.md", "md_atom_type": "TABLE_ROW", "md_parent_section": "§AG.2 [Example 2]", "md_verbatim": "| 1 | XYZ | AG | XYZ-001-001 | AGSPID | RV1 | | 1 |", "score": 0.4267, "match_basis": "verbatim_token+domain_route:AG"}], "candidate_count": 5, "zero_candidate": false}
{"pdf_atom_id": "ig34_p0092_a017", "pdf_atom_type": "TABLE_ROW", "pdf_source": "SDTMIG_v3.4", "pdf_page": 92, "pdf_parent_section": "§6.1.1 [Procedure Agents (AG)]", "pdf_verbatim": "| AGLNKID | Link ID | Char | | Identifier | Identifier used to link related records across domains.This may be a one-to-one or a one-to-many relationship. | Perm |", "figure_ref": null, "candidates": [{"md_atom_id": "md_dmAG_ex_a013", "md_file": "knowledge_base/domains/AG/examples.md", "md_atom_type": "TABLE_ROW", "md_parent_section": "§AG.1 [Example 1]", "md_verbatim": "| 1 | XYZ | AG | XYZ-001-001 | 1 | SALINE | Y | Y | 0 | SQ-u/mL | RESPIRATORY (INHALATION) | SCREENING | 2010-11-07T10:56:00 |", "score": 0.4361, "match_basis": "verbatim_token+domain_route:AG"}, {"md_atom_id": "md_dmAG_ex_a044", "md_file": "knowledge_base/domains/AG/examples.md", "md_atom_type": "TABLE_ROW", "md_parent_section": "§AG.2 [Example 2]", "md_verbatim": "| 3 | XYZ | RE | XYZ-001-001 | ABC001 | 3 | RV1 | PTCREV | Percentage Reversibility | 13.99 | % | 13.99 | 13.99 | % | VISIT 2 | 2013-06-18T10:00 | | | | BRONCHODILATOR ADMINISTRATION | 2013-06-18T10:05 |", "score": 0.4336, "match_basis": "verbatim_token+domain_route:AG"}, {"md_atom_id": "md_dmAG_ex_a032", "md_file": "knowledge_base/domains/AG/examples.md", "md_atom_type": "TABLE_ROW", "md_parent_section": "§AG.2 [Example 2]", "md_verbatim": "| 1 | XYZ | AG | XYZ-001-001 | 1 | RV1 | ALBUTEROL | Y | Y | 2 | PUFF | AEROSOL | ONCE | RESPIRATORY (INHALATION) | VISIT 2 | 2013-06-18T10:05 |", "score": 0.433, "match_basis": "verbatim_token+domain_route:AG"}, {"md_atom_id": "md_dmAG_ex_a014", "md_file": "knowledge_base/domains/AG/examples.md", "md_atom_type": "TABLE_ROW", "md_parent_section": "§AG.1 [Example 1]", "md_verbatim": "| 2 | XYZ | AG | XYZ-001-001 | 2 | GRASS | Y | Y | 250 | SQ-u/mL | RESPIRATORY (INHALATION) | SCREENING | 2010-11-07T11:19:00 |", "score": 0.4286, "match_basis": "verbatim_token+domain_route:AG"}, {"md_atom_id": "md_dmAG_ex_a015", "md_file": "knowledge_base/domains/AG/examples.md", "md_atom_type": "TABLE_ROW", "md_parent_section": "§AG.1 [Example 1]", "md_verbatim": "| 3 | XYZ | AG | XYZ-001-001 | 3 | GRASS | Y | Y | 1000 | SQ-u/mL | RESPIRATORY (INHALATION) | SCREENING | 2010-11-07T11:43:00 |", "score": 0.4282, "match_basis": "verbatim_token+domain_route:AG"}], "candidate_count": 5, "zero_candidate": false}
{"pdf_atom_id": "ig34_p0092_a018", "pdf_atom_type": "TABLE_ROW", "pdf_source": "SDTMIG_v3.4", "pdf_page": 92, "pdf_parent_section": "§6.1.1 [Procedure Agents (AG)]", "pdf_verbatim": "| AGLNKGRP | Link Group ID | Char | | Identifier | Identifier used to link related records across domains.This will usually be a many-to-one relationship. | Perm |", "figure_ref": null, "candidates": [{"md_atom_id": "md_dmAG_ex_a013", "md_file": "knowledge_base/domains/AG/examples.md", "md_atom_type": "TABLE_ROW", "md_parent_section": "§AG.1 [Example 1]", "md_verbatim": "| 1 | XYZ | AG | XYZ-001-001 | 1 | SALINE | Y | Y | 0 | SQ-u/mL | RESPIRATORY (INHALATION) | SCREENING | 2010-11-07T10:56:00 |", "score": 0.4323, "match_basis": "verbatim_token+domain_route:AG"}, {"md_atom_id": "md_dmAG_ex_a044", "md_file": "knowledge_base/domains/AG/examples.md", "md_atom_type": "TABLE_ROW", "md_parent_section": "§AG.2 [Example 2]", "md_verbatim": "| 3 | XYZ | RE | XYZ-001-001 | ABC001 | 3 | RV1 | PTCREV | Percentage Reversibility | 13.99 | % | 13.99 | 13.99 | % | VISIT 2 | 2013-06-18T10:00 | | | | BRONCHODILATOR ADMINISTRATION | 2013-06-18T10:05 |", "score": 0.4308, "match_basis": "verbatim_token+domain_route:AG"}, {"md_atom_id": "md_dmAG_ex_a032", "md_file": "knowledge_base/domains/AG/examples.md", "md_atom_type": "TABLE_ROW", "md_parent_section": "§AG.2 [Example 2]", "md_verbatim": "| 1 | XYZ | AG | XYZ-001-001 | 1 | RV1 | ALBUTEROL | Y | Y | 2 | PUFF | AEROSOL | ONCE | RESPIRATORY (INHALATION) | VISIT 2 | 2013-06-18T10:05 |", "score": 0.4297, "match_basis": "verbatim_token+domain_route:AG"}, {"md_atom_id": "md_dmAG_ex_a014", "md_file": "knowledge_base/domains/AG/examples.md", "md_atom_type": "TABLE_ROW", "md_parent_section": "§AG.1 [Example 1]", "md_verbatim": "| 2 | XYZ | AG | XYZ-001-001 | 2 | GRASS | Y | Y | 250 | SQ-u/mL | RESPIRATORY (INHALATION) | SCREENING | 2010-11-07T11:19:00 |", "score": 0.4255, "match_basis": "verbatim_token+domain_route:AG"}, {"md_atom_id": "md_dmAG_ex_a042", "md_file": "knowledge_base/domains/AG/examples.md", "md_atom_type": "TABLE_ROW", "md_parent_section": "§AG.2 [Example 2]", "md_verbatim": "| 1 | XYZ | RE | XYZ-001-001 | ABC001 | 1 | RV1 | FEV1 | Forced Expiratory Volume in 1 Second | 2.43 | L | 2.43 | 2.43 | L | VISIT 2 | 2013-06-18T10:00 | PRE-BRONCHODILATOR ADMINISTRATION | 1 | -PT5M | BRONCHODILATOR ADMINISTRATION | 2013-06-18T10:05 |", "score": 0.4254, "match_basis": "verbatim_token+domain_route:AG"}], "candidate_count": 5, "zero_candidate": false}
{"pdf_atom_id": "ig34_p0092_a019", "pdf_atom_type": "TABLE_ROW", "pdf_source": "SDTMIG_v3.4", "pdf_page": 92, "pdf_parent_section": "§6.1.1 [Procedure Agents (AG)]", "pdf_verbatim": "| AGTRT | Reported Agent Name | Char | | Topic | Verbatim medication name that is either preprinted or collected on a CRF. | Req |", "figure_ref": null, "candidates": [{"md_atom_id": "md_dmAG_ex_a044", "md_file": "knowledge_base/domains/AG/examples.md", "md_atom_type": "TABLE_ROW", "md_parent_section": "§AG.2 [Example 2]", "md_verbatim": "| 3 | XYZ | RE | XYZ-001-001 | ABC001 | 3 | RV1 | PTCREV | Percentage Reversibility | 13.99 | % | 13.99 | 13.99 | % | VISIT 2 | 2013-06-18T10:00 | | | | BRONCHODILATOR ADMINISTRATION | 2013-06-18T10:05 |", "score": 0.434, "match_basis": "verbatim_token+domain_route:AG"}, {"md_atom_id": "md_dmAG_ex_a042", "md_file": "knowledge_base/domains/AG/examples.md", "md_atom_type": "TABLE_ROW", "md_parent_section": "§AG.2 [Example 2]", "md_verbatim": "| 1 | XYZ | RE | XYZ-001-001 | ABC001 | 1 | RV1 | FEV1 | Forced Expiratory Volume in 1 Second | 2.43 | L | 2.43 | 2.43 | L | VISIT 2 | 2013-06-18T10:00 | PRE-BRONCHODILATOR ADMINISTRATION | 1 | -PT5M | BRONCHODILATOR ADMINISTRATION | 2013-06-18T10:05 |", "score": 0.4222, "match_basis": "verbatim_token+domain_route:AG"}, {"md_atom_id": "md_dmAG_ex_a013", "md_file": "knowledge_base/domains/AG/examples.md", "md_atom_type": "TABLE_ROW", "md_parent_section": "§AG.1 [Example 1]", "md_verbatim": "| 1 | XYZ | AG | XYZ-001-001 | 1 | SALINE | Y | Y | 0 | SQ-u/mL | RESPIRATORY (INHALATION) | SCREENING | 2010-11-07T10:56:00 |", "score": 0.4214, "match_basis": "verbatim_token+domain_route:AG"}, {"md_atom_id": "md_dmAG_ex_a014", "md_file": "knowledge_base/domains/AG/examples.md", "md_atom_type": "TABLE_ROW", "md_parent_section": "§AG.1 [Example 1]", "md_verbatim": "| 2 | XYZ | AG | XYZ-001-001 | 2 | GRASS | Y | Y | 250 | SQ-u/mL | RESPIRATORY (INHALATION) | SCREENING | 2010-11-07T11:19:00 |", "score": 0.4214, "match_basis": "verbatim_token+domain_route:AG"}, {"md_atom_id": "md_dmAG_ex_a015", "md_file": "knowledge_base/domains/AG/examples.md", "md_atom_type": "TABLE_ROW", "md_parent_section": "§AG.1 [Example 1]", "md_verbatim": "| 3 | XYZ | AG | XYZ-001-001 | 3 | GRASS | Y | Y | 1000 | SQ-u/mL | RESPIRATORY (INHALATION) | SCREENING | 2010-11-07T11:43:00 |", "score": 0.4212, "match_basis": "verbatim_token+domain_route:AG"}], "candidate_count": 5, "zero_candidate": false}
{"pdf_atom_id": "ig34_p0092_a020", "pdf_atom_type": "TABLE_ROW", "pdf_source": "SDTMIG_v3.4", "pdf_page": 92, "pdf_parent_section": "§6.1.1 [Procedure Agents (AG)]", "pdf_verbatim": "| AGMODIFY | Modified Reported Name | Char | | Synonym Qualifier | If AGTRT is modified to facilitate coding, then AGMODIFY will contain the modified text. | Perm |", "figure_ref": null, "candidates": [{"md_atom_id": "md_dmAG_ex_a044", "md_file": "knowledge_base/domains/AG/examples.md", "md_atom_type": "TABLE_ROW", "md_parent_section": "§AG.2 [Example 2]", "md_verbatim": "| 3 | XYZ | RE | XYZ-001-001 | ABC001 | 3 | RV1 | PTCREV | Percentage Reversibility | 13.99 | % | 13.99 | 13.99 | % | VISIT 2 | 2013-06-18T10:00 | | | | BRONCHODILATOR ADMINISTRATION | 2013-06-18T10:05 |", "score": 0.427, "match_basis": "verbatim_token+domain_route:AG"}, {"md_atom_id": "md_dmAG_ex_a027", "md_file": "knowledge_base/domains/AG/examples.md", "md_atom_type": "TABLE_ROW", "md_parent_section": "§AG.2 [Example 2]", "md_verbatim": "| 1 | XYZ | CM | XYZ-001-001 | 1 | RV1 | SHORT-ACTING BRONCHODILATOR | SHORT-ACTING BRONCHODILATOR | Y | N | -PT4H |", "score": 0.4234, "match_basis": "verbatim_token+domain_route:AG"}, {"md_atom_id": "md_dmAG_ex_a013", "md_file": "knowledge_base/domains/AG/examples.md", "md_atom_type": "TABLE_ROW", "md_parent_section": "§AG.1 [Example 1]", "md_verbatim": "| 1 | XYZ | AG | XYZ-001-001 | 1 | SALINE | Y | Y | 0 | SQ-u/mL | RESPIRATORY (INHALATION) | SCREENING | 2010-11-07T10:56:00 |", "score": 0.4135, "match_basis": "verbatim_token+domain_route:AG"}, {"md_atom_id": "md_dmAG_ex_a042", "md_file": "knowledge_base/domains/AG/examples.md", "md_atom_type": "TABLE_ROW", "md_parent_section": "§AG.2 [Example 2]", "md_verbatim": "| 1 | XYZ | RE | XYZ-001-001 | ABC001 | 1 | RV1 | FEV1 | Forced Expiratory Volume in 1 Second | 2.43 | L | 2.43 | 2.43 | L | VISIT 2 | 2013-06-18T10:00 | PRE-BRONCHODILATOR ADMINISTRATION | 1 | -PT5M | BRONCHODILATOR ADMINISTRATION | 2013-06-18T10:05 |", "score": 0.4105, "match_basis": "verbatim_token+domain_route:AG"}, {"md_atom_id": "md_dmAG_ex_a043", "md_file": "knowledge_base/domains/AG/examples.md", "md_atom_type": "TABLE_ROW", "md_parent_section": "§AG.2 [Example 2]", "md_verbatim": "| 2 | XYZ | RE | XYZ-001-001 | ABC001 | 2 | RV1 | FEV1 | Forced Expiratory Volume in 1 Second | 2.77 | L | 2.77 | 2.77 | L | VISIT 2 | 2013-06-18T10:00 | POST-BRONCHODILATOR ADMINISTRATION | 2 | PT20M | BRONCHODILATOR ADMINISTRATION | 2013-06-18T10:05 |", "score": 0.4103, "match_basis": "verbatim_token+domain_route:AG"}], "candidate_count": 5, "zero_candidate": false}
{"pdf_atom_id": "ig34_p0092_a021", "pdf_atom_type": "TABLE_ROW", "pdf_source": "SDTMIG_v3.4", "pdf_page": 92, "pdf_parent_section": "§6.1.1 [Procedure Agents (AG)]", "pdf_verbatim": "| AGDECOD | Standardized Agent Name | Char | * | Synonym Qualifier | Standardized or dictionary-derived text description of AGTRT or AGMODIFY. Equivalent to the generic medication name in WHO Drug. The sponsor is expected to provide the dictionary name and version used to map the terms utilizing the external codelist element in the Define-XML document. If an intervention term does not have a decode value in the dictionary, then AGDECOD will be left blank. | Perm |", "figure_ref": null, "candidates": [{"md_atom_id": "md_dmAG_assn_a013", "md_file": "knowledge_base/domains/AG/assumptions.md", "md_atom_type": "LIST_ITEM", "md_parent_section": "§AG [AG — Assumptions]", "md_verbatim": "   c. AGDECOD is the standardized agent term derived by the sponsor from the coding dictionary. It is possible that the reported term (AGTRT) or the modified term (AGMODIFY) can be coded using a standard dictionary. In such cases, sponsors are expected to provide the dictionary name and version used to map the terms utilizing the external codelist element in the Define-XML document.", "score": 0.5406, "match_basis": "verbatim_token+domain_route:AG"}, {"md_atom_id": "md_dmAG_ex_a044", "md_file": "knowledge_base/domains/AG/examples.md", "md_atom_type": "TABLE_ROW", "md_parent_section": "§AG.2 [Example 2]", "md_verbatim": "| 3 | XYZ | RE | XYZ-001-001 | ABC001 | 3 | RV1 | PTCREV | Percentage Reversibility | 13.99 | % | 13.99 | 13.99 | % | VISIT 2 | 2013-06-18T10:00 | | | | BRONCHODILATOR ADMINISTRATION | 2013-06-18T10:05 |", "score": 0.4344, "match_basis": "verbatim_token+domain_route:AG"}, {"md_atom_id": "md_dmAG_ex_a042", "md_file": "knowledge_base/domains/AG/examples.md", "md_atom_type": "TABLE_ROW", "md_parent_section": "§AG.2 [Example 2]", "md_verbatim": "| 1 | XYZ | RE | XYZ-001-001 | ABC001 | 1 | RV1 | FEV1 | Forced Expiratory Volume in 1 Second | 2.43 | L | 2.43 | 2.43 | L | VISIT 2 | 2013-06-18T10:00 | PRE-BRONCHODILATOR ADMINISTRATION | 1 | -PT5M | BRONCHODILATOR ADMINISTRATION | 2013-06-18T10:05 |", "score": 0.4225, "match_basis": "verbatim_token+domain_route:AG"}, {"md_atom_id": "md_dmAG_ex_a043", "md_file": "knowledge_base/domains/AG/examples.md", "md_atom_type": "TABLE_ROW", "md_parent_section": "§AG.2 [Example 2]", "md_verbatim": "| 2 | XYZ | RE | XYZ-001-001 | ABC001 | 2 | RV1 | FEV1 | Forced Expiratory Volume in 1 Second | 2.77 | L | 2.77 | 2.77 | L | VISIT 2 | 2013-06-18T10:00 | POST-BRONCHODILATOR ADMINISTRATION | 2 | PT20M | BRONCHODILATOR ADMINISTRATION | 2013-06-18T10:05 |", "score": 0.4223, "match_basis": "verbatim_token+domain_route:AG"}, {"md_atom_id": "md_dmAG_ex_a013", "md_file": "knowledge_base/domains/AG/examples.md", "md_atom_type": "TABLE_ROW", "md_parent_section": "§AG.1 [Example 1]", "md_verbatim": "| 1 | XYZ | AG | XYZ-001-001 | 1 | SALINE | Y | Y | 0 | SQ-u/mL | RESPIRATORY (INHALATION) | SCREENING | 2010-11-07T10:56:00 |", "score": 0.4222, "match_basis": "verbatim_token+domain_route:AG"}], "candidate_count": 5, "zero_candidate": false}
{"pdf_atom_id": "ig34_p0092_a022", "pdf_atom_type": "TABLE_ROW", "pdf_source": "SDTMIG_v3.4", "pdf_page": 92, "pdf_parent_section": "§6.1.1 [Procedure Agents (AG)]", "pdf_verbatim": "| AGCAT | Category for Agent | Char | * | Grouping Qualifier | Used to define a category of agent. Examples: \"CHALLENGE AGENT\", \"PET TRACER\". | Perm |", "figure_ref": null, "candidates": [{"md_atom_id": "md_dmAG_ex_a013", "md_file": "knowledge_base/domains/AG/examples.md", "md_atom_type": "TABLE_ROW", "md_parent_section": "§AG.1 [Example 1]", "md_verbatim": "| 1 | XYZ | AG | XYZ-001-001 | 1 | SALINE | Y | Y | 0 | SQ-u/mL | RESPIRATORY (INHALATION) | SCREENING | 2010-11-07T10:56:00 |", "score": 0.4366, "match_basis": "verbatim_token+domain_route:AG"}, {"md_atom_id": "md_dmAG_ex_a044", "md_file": "knowledge_base/domains/AG/examples.md", "md_atom_type": "TABLE_ROW", "md_parent_section": "§AG.2 [Example 2]", "md_verbatim": "| 3 | XYZ | RE | XYZ-001-001 | ABC001 | 3 | RV1 | PTCREV | Percentage Reversibility | 13.99 | % | 13.99 | 13.99 | % | VISIT 2 | 2013-06-18T10:00 | | | | BRONCHODILATOR ADMINISTRATION | 2013-06-18T10:05 |", "score": 0.4222, "match_basis": "verbatim_token+domain_route:AG"}, {"md_atom_id": "md_dmAG_ex_a014", "md_file": "knowledge_base/domains/AG/examples.md", "md_atom_type": "TABLE_ROW", "md_parent_section": "§AG.1 [Example 1]", "md_verbatim": "| 2 | XYZ | AG | XYZ-001-001 | 2 | GRASS | Y | Y | 250 | SQ-u/mL | RESPIRATORY (INHALATION) | SCREENING | 2010-11-07T11:19:00 |", "score": 0.4214, "match_basis": "verbatim_token+domain_route:AG"}, {"md_atom_id": "md_dmAG_ex_a015", "md_file": "knowledge_base/domains/AG/examples.md", "md_atom_type": "TABLE_ROW", "md_parent_section": "§AG.1 [Example 1]", "md_verbatim": "| 3 | XYZ | AG | XYZ-001-001 | 3 | GRASS | Y | Y | 1000 | SQ-u/mL | RESPIRATORY (INHALATION) | SCREENING | 2010-11-07T11:43:00 |", "score": 0.4212, "match_basis": "verbatim_token+domain_route:AG"}, {"md_atom_id": "md_dmAG_ex_a016", "md_file": "knowledge_base/domains/AG/examples.md", "md_atom_type": "TABLE_ROW", "md_parent_section": "§AG.1 [Example 1]", "md_verbatim": "| 4 | XYZ | AG | XYZ-001-001 | 4 | GRASS | Y | Y | 2000 | SQ-u/mL | RESPIRATORY (INHALATION) | SCREENING | 2010-11-07T12:06:00 |", "score": 0.4212, "match_basis": "verbatim_token+domain_route:AG"}], "candidate_count": 5, "zero_candidate": false}
{"pdf_atom_id": "ig34_p0092_a023", "pdf_atom_type": "TABLE_ROW", "pdf_source": "SDTMIG_v3.4", "pdf_page": 92, "pdf_parent_section": "§6.1.1 [Procedure Agents (AG)]", "pdf_verbatim": "| AGSCAT | Subcategory for Agent | Char | * | Grouping Qualifier | Further categorization of agent. | Perm |", "figure_ref": null, "candidates": [{"md_atom_id": "md_dmAG_ex_a013", "md_file": "knowledge_base/domains/AG/examples.md", "md_atom_type": "TABLE_ROW", "md_parent_section": "§AG.1 [Example 1]", "md_verbatim": "| 1 | XYZ | AG | XYZ-001-001 | 1 | SALINE | Y | Y | 0 | SQ-u/mL | RESPIRATORY (INHALATION) | SCREENING | 2010-11-07T10:56:00 |", "score": 0.4486, "match_basis": "verbatim_token+domain_route:AG"}, {"md_atom_id": "md_dmAG_ex_a014", "md_file": "knowledge_base/domains/AG/examples.md", "md_atom_type": "TABLE_ROW", "md_parent_section": "§AG.1 [Example 1]", "md_verbatim": "| 2 | XYZ | AG | XYZ-001-001 | 2 | GRASS | Y | Y | 250 | SQ-u/mL | RESPIRATORY (INHALATION) | SCREENING | 2010-11-07T11:19:00 |", "score": 0.44, "match_basis": "verbatim_token+domain_route:AG"}, {"md_atom_id": "md_dmAG_ex_a015", "md_file": "knowledge_base/domains/AG/examples.md", "md_atom_type": "TABLE_ROW", "md_parent_section": "§AG.1 [Example 1]", "md_verbatim": "| 3 | XYZ | AG | XYZ-001-001 | 3 | GRASS | Y | Y | 1000 | SQ-u/mL | RESPIRATORY (INHALATION) | SCREENING | 2010-11-07T11:43:00 |", "score": 0.4395, "match_basis": "verbatim_token+domain_route:AG"}, {"md_atom_id": "md_dmAG_ex_a016", "md_file": "knowledge_base/domains/AG/examples.md", "md_atom_type": "TABLE_ROW", "md_parent_section": "§AG.1 [Example 1]", "md_verbatim": "| 4 | XYZ | AG | XYZ-001-001 | 4 | GRASS | Y | Y | 2000 | SQ-u/mL | RESPIRATORY (INHALATION) | SCREENING | 2010-11-07T12:06:00 |", "score": 0.4395, "match_basis": "verbatim_token+domain_route:AG"}, {"md_atom_id": "md_dmAG_ex_a044", "md_file": "knowledge_base/domains/AG/examples.md", "md_atom_type": "TABLE_ROW", "md_parent_section": "§AG.2 [Example 2]", "md_verbatim": "| 3 | XYZ | RE | XYZ-001-001 | ABC001 | 3 | RV1 | PTCREV | Percentage Reversibility | 13.99 | % | 13.99 | 13.99 | % | VISIT 2 | 2013-06-18T10:00 | | | | BRONCHODILATOR ADMINISTRATION | 2013-06-18T10:05 |", "score": 0.4364, "match_basis": "verbatim_token+domain_route:AG"}], "candidate_count": 5, "zero_candidate": false}
{"pdf_atom_id": "ig34_p0092_a024", "pdf_atom_type": "TABLE_ROW", "pdf_source": "SDTMIG_v3.4", "pdf_page": 92, "pdf_parent_section": "§6.1.1 [Procedure Agents (AG)]", "pdf_verbatim": "| AGPRESP | AG Pre-Specified | Char | (NY) | Variable Qualifier | Used to indicate whether (\"Y\"/null) information about the use of a specific agent was solicited on the CRF. | Perm |", "figure_ref": null, "candidates": [{"md_atom_id": "md_dmAG_assn_a015", "md_file": "knowledge_base/domains/AG/assumptions.md", "md_atom_type": "LIST_ITEM", "md_parent_section": "§AG [AG — Assumptions]", "md_verbatim": "   a. AGPRESP is used to indicate whether an agent was prespecified.", "score": 0.4797, "match_basis": "verbatim_token+domain_route:AG"}, {"md_atom_id": "md_dmAG_ex_a013", "md_file": "knowledge_base/domains/AG/examples.md", "md_atom_type": "TABLE_ROW", "md_parent_section": "§AG.1 [Example 1]", "md_verbatim": "| 1 | XYZ | AG | XYZ-001-001 | 1 | SALINE | Y | Y | 0 | SQ-u/mL | RESPIRATORY (INHALATION) | SCREENING | 2010-11-07T10:56:00 |", "score": 0.4375, "match_basis": "verbatim_token+domain_route:AG"}, {"md_atom_id": "md_dmAG_ex_a032", "md_file": "knowledge_base/domains/AG/examples.md", "md_atom_type": "TABLE_ROW", "md_parent_section": "§AG.2 [Example 2]", "md_verbatim": "| 1 | XYZ | AG | XYZ-001-001 | 1 | RV1 | ALBUTEROL | Y | Y | 2 | PUFF | AEROSOL | ONCE | RESPIRATORY (INHALATION) | VISIT 2 | 2013-06-18T10:05 |", "score": 0.4346, "match_basis": "verbatim_token+domain_route:AG"}, {"md_atom_id": "md_dmAG_ex_a014", "md_file": "knowledge_base/domains/AG/examples.md", "md_atom_type": "TABLE_ROW", "md_parent_section": "§AG.1 [Example 1]", "md_verbatim": "| 2 | XYZ | AG | XYZ-001-001 | 2 | GRASS | Y | Y | 250 | SQ-u/mL | RESPIRATORY (INHALATION) | SCREENING | 2010-11-07T11:19:00 |", "score": 0.4309, "match_basis": "verbatim_token+domain_route:AG"}, {"md_atom_id": "md_dmAG_ex_a015", "md_file": "knowledge_base/domains/AG/examples.md", "md_atom_type": "TABLE_ROW", "md_parent_section": "§AG.1 [Example 1]", "md_verbatim": "| 3 | XYZ | AG | XYZ-001-001 | 3 | GRASS | Y | Y | 1000 | SQ-u/mL | RESPIRATORY (INHALATION) | SCREENING | 2010-11-07T11:43:00 |", "score": 0.4306, "match_basis": "verbatim_token+domain_route:AG"}], "candidate_count": 5, "zero_candidate": false}
{"pdf_atom_id": "ig34_p0093_a001", "pdf_atom_type": "TABLE_ROW", "pdf_source": "SDTMIG_v3.4", "pdf_page": 93, "pdf_parent_section": "§6.1.1 [Procedure Agents (AG)]", "pdf_verbatim": "| AGOCCUR | AG Occurrence | Char | (NY) | Record Qualifier | When the use of specific agent is solicited, AGOCCUR is used to indicate whether (\"Y\"/\"N\") use of the agent occurred. Values are null for agents not specifically solicited. | Perm |", "figure_ref": null, "candidates": [{"md_atom_id": "md_dmAG_assn_a016", "md_file": "knowledge_base/domains/AG/assumptions.md", "md_atom_type": "LIST_ITEM", "md_parent_section": "§AG [AG — Assumptions]", "md_verbatim": "   b. AGOCCUR is used to indicate whether a prespecified agent was used. A value of \"Y\" indicates that the agent was used and \"N\" indicates that it was not.", "score": 0.4616, "match_basis": "verbatim_token+domain_route:AG"}, {"md_atom_id": "md_dmAG_ex_a044", "md_file": "knowledge_base/domains/AG/examples.md", "md_atom_type": "TABLE_ROW", "md_parent_section": "§AG.2 [Example 2]", "md_verbatim": "| 3 | XYZ | RE | XYZ-001-001 | ABC001 | 3 | RV1 | PTCREV | Percentage Reversibility | 13.99 | % | 13.99 | 13.99 | % | VISIT 2 | 2013-06-18T10:00 | | | | BRONCHODILATOR ADMINISTRATION | 2013-06-18T10:05 |", "score": 0.4144, "match_basis": "verbatim_token+domain_route:AG"}, {"md_atom_id": "md_dmAG_ex_a032", "md_file": "knowledge_base/domains/AG/examples.md", "md_atom_type": "TABLE_ROW", "md_parent_section": "§AG.2 [Example 2]", "md_verbatim": "| 1 | XYZ | AG | XYZ-001-001 | 1 | RV1 | ALBUTEROL | Y | Y | 2 | PUFF | AEROSOL | ONCE | RESPIRATORY (INHALATION) | VISIT 2 | 2013-06-18T10:05 |", "score": 0.411, "match_basis": "verbatim_token+domain_route:AG"}, {"md_atom_id": "md_dmAG_ex_a042", "md_file": "knowledge_base/domains/AG/examples.md", "md_atom_type": "TABLE_ROW", "md_parent_section": "§AG.2 [Example 2]", "md_verbatim": "| 1 | XYZ | RE | XYZ-001-001 | ABC001 | 1 | RV1 | FEV1 | Forced Expiratory Volume in 1 Second | 2.43 | L | 2.43 | 2.43 | L | VISIT 2 | 2013-06-18T10:00 | PRE-BRONCHODILATOR ADMINISTRATION | 1 | -PT5M | BRONCHODILATOR ADMINISTRATION | 2013-06-18T10:05 |", "score": 0.4095, "match_basis": "verbatim_token+domain_route:AG"}, {"md_atom_id": "md_dmAG_ex_a043", "md_file": "knowledge_base/domains/AG/examples.md", "md_atom_type": "TABLE_ROW", "md_parent_section": "§AG.2 [Example 2]", "md_verbatim": "| 2 | XYZ | RE | XYZ-001-001 | ABC001 | 2 | RV1 | FEV1 | Forced Expiratory Volume in 1 Second | 2.77 | L | 2.77 | 2.77 | L | VISIT 2 | 2013-06-18T10:00 | POST-BRONCHODILATOR ADMINISTRATION | 2 | PT20M | BRONCHODILATOR ADMINISTRATION | 2013-06-18T10:05 |", "score": 0.4094, "match_basis": "verbatim_token+domain_route:AG"}], "candidate_count": 5, "zero_candidate": false}
{"pdf_atom_id": "ig34_p0093_a002", "pdf_atom_type": "TABLE_ROW", "pdf_source": "SDTMIG_v3.4", "pdf_page": 93, "pdf_parent_section": "§6.1.1 [Procedure Agents (AG)]", "pdf_verbatim": "| AGSTAT | Completion Status | Char | (ND) | Record Qualifier | Used to indicate that a question about a prespecified agent was not answered. Should be null or have a value of \"NOT DONE\". | Perm |", "figure_ref": null, "candidates": [{"md_atom_id": "md_dmAG_ex_a013", "md_file": "knowledge_base/domains/AG/examples.md", "md_atom_type": "TABLE_ROW", "md_parent_section": "§AG.1 [Example 1]", "md_verbatim": "| 1 | XYZ | AG | XYZ-001-001 | 1 | SALINE | Y | Y | 0 | SQ-u/mL | RESPIRATORY (INHALATION) | SCREENING | 2010-11-07T10:56:00 |", "score": 0.4278, "match_basis": "verbatim_token+domain_route:AG"}, {"md_atom_id": "md_dmAG_ex_a044", "md_file": "knowledge_base/domains/AG/examples.md", "md_atom_type": "TABLE_ROW", "md_parent_section": "§AG.2 [Example 2]", "md_verbatim": "| 3 | XYZ | RE | XYZ-001-001 | ABC001 | 3 | RV1 | PTCREV | Percentage Reversibility | 13.99 | % | 13.99 | 13.99 | % | VISIT 2 | 2013-06-18T10:00 | | | | BRONCHODILATOR ADMINISTRATION | 2013-06-18T10:05 |", "score": 0.4226, "match_basis": "verbatim_token+domain_route:AG"}, {"md_atom_id": "md_dmAG_ex_a014", "md_file": "knowledge_base/domains/AG/examples.md", "md_atom_type": "TABLE_ROW", "md_parent_section": "§AG.1 [Example 1]", "md_verbatim": "| 2 | XYZ | AG | XYZ-001-001 | 2 | GRASS | Y | Y | 250 | SQ-u/mL | RESPIRATORY (INHALATION) | SCREENING | 2010-11-07T11:19:00 |", "score": 0.422, "match_basis": "verbatim_token+domain_route:AG"}, {"md_atom_id": "md_dmAG_ex_a015", "md_file": "knowledge_base/domains/AG/examples.md", "md_atom_type": "TABLE_ROW", "md_parent_section": "§AG.1 [Example 1]", "md_verbatim": "| 3 | XYZ | AG | XYZ-001-001 | 3 | GRASS | Y | Y | 1000 | SQ-u/mL | RESPIRATORY (INHALATION) | SCREENING | 2010-11-07T11:43:00 |", "score": 0.4218, "match_basis": "verbatim_token+domain_route:AG"}, {"md_atom_id": "md_dmAG_ex_a016", "md_file": "knowledge_base/domains/AG/examples.md", "md_atom_type": "TABLE_ROW", "md_parent_section": "§AG.1 [Example 1]", "md_verbatim": "| 4 | XYZ | AG | XYZ-001-001 | 4 | GRASS | Y | Y | 2000 | SQ-u/mL | RESPIRATORY (INHALATION) | SCREENING | 2010-11-07T12:06:00 |", "score": 0.4218, "match_basis": "verbatim_token+domain_route:AG"}], "candidate_count": 5, "zero_candidate": false}
{"pdf_atom_id": "ig34_p0093_a003", "pdf_atom_type": "TABLE_ROW", "pdf_source": "SDTMIG_v3.4", "pdf_page": 93, "pdf_parent_section": "§6.1.1 [Procedure Agents (AG)]", "pdf_verbatim": "| AGREASND | Reason Procedure Agent Not Collected | Char | | Record Qualifier | Describes the reason a response to a question about the occurrence of a procedure agent was not collected. Used in conjunction with AGSTAT when value is \"NOT DONE\". | Perm |", "figure_ref": null, "candidates": [{"md_atom_id": "md_dmAG_ex_a013", "md_file": "knowledge_base/domains/AG/examples.md", "md_atom_type": "TABLE_ROW", "md_parent_section": "§AG.1 [Example 1]", "md_verbatim": "| 1 | XYZ | AG | XYZ-001-001 | 1 | SALINE | Y | Y | 0 | SQ-u/mL | RESPIRATORY (INHALATION) | SCREENING | 2010-11-07T10:56:00 |", "score": 0.429, "match_basis": "verbatim_token+domain_route:AG"}, {"md_atom_id": "md_dmAG_ex_a014", "md_file": "knowledge_base/domains/AG/examples.md", "md_atom_type": "TABLE_ROW", "md_parent_section": "§AG.1 [Example 1]", "md_verbatim": "| 2 | XYZ | AG | XYZ-001-001 | 2 | GRASS | Y | Y | 250 | SQ-u/mL | RESPIRATORY (INHALATION) | SCREENING | 2010-11-07T11:19:00 |", "score": 0.424, "match_basis": "verbatim_token+domain_route:AG"}, {"md_atom_id": "md_dmAG_ex_a015", "md_file": "knowledge_base/domains/AG/examples.md", "md_atom_type": "TABLE_ROW", "md_parent_section": "§AG.1 [Example 1]", "md_verbatim": "| 3 | XYZ | AG | XYZ-001-001 | 3 | GRASS | Y | Y | 1000 | SQ-u/mL | RESPIRATORY (INHALATION) | SCREENING | 2010-11-07T11:43:00 |", "score": 0.4238, "match_basis": "verbatim_token+domain_route:AG"}, {"md_atom_id": "md_dmAG_ex_a016", "md_file": "knowledge_base/domains/AG/examples.md", "md_atom_type": "TABLE_ROW", "md_parent_section": "§AG.1 [Example 1]", "md_verbatim": "| 4 | XYZ | AG | XYZ-001-001 | 4 | GRASS | Y | Y | 2000 | SQ-u/mL | RESPIRATORY (INHALATION) | SCREENING | 2010-11-07T12:06:00 |", "score": 0.4238, "match_basis": "verbatim_token+domain_route:AG"}, {"md_atom_id": "md_dmAG_ex_a032", "md_file": "knowledge_base/domains/AG/examples.md", "md_atom_type": "TABLE_ROW", "md_parent_section": "§AG.2 [Example 2]", "md_verbatim": "| 1 | XYZ | AG | XYZ-001-001 | 1 | RV1 | ALBUTEROL | Y | Y | 2 | PUFF | AEROSOL | ONCE | RESPIRATORY (INHALATION) | VISIT 2 | 2013-06-18T10:05 |", "score": 0.4226, "match_basis": "verbatim_token+domain_route:AG"}], "candidate_count": 5, "zero_candidate": false}
{"pdf_atom_id": "ig34_p0093_a004", "pdf_atom_type": "TABLE_ROW", "pdf_source": "SDTMIG_v3.4", "pdf_page": 93, "pdf_parent_section": "§6.1.1 [Procedure Agents (AG)]", "pdf_verbatim": "| AGCLAS | Agent Class | Char | * | Variable Qualifier | Drug class. May be obtained from coding. When coding to a single class, populate with class value. If using a dictionary and coding to multiple classes, follow guidance in Section 4.2.8.3, Multiple Values for a Non-result Qualifier Variable, or omit AGCLAS. | Perm |", "figure_ref": null, "candidates": [{"md_atom_id": "md_dmAG_ex_a013", "md_file": "knowledge_base/domains/AG/examples.md", "md_atom_type": "TABLE_ROW", "md_parent_section": "§AG.1 [Example 1]", "md_verbatim": "| 1 | XYZ | AG | XYZ-001-001 | 1 | SALINE | Y | Y | 0 | SQ-u/mL | RESPIRATORY (INHALATION) | SCREENING | 2010-11-07T10:56:00 |", "score": 0.4344, "match_basis": "verbatim_token+domain_route:AG"}, {"md_atom_id": "md_dmAG_ex_a014", "md_file": "knowledge_base/domains/AG/examples.md", "md_atom_type": "TABLE_ROW", "md_parent_section": "§AG.1 [Example 1]", "md_verbatim": "| 2 | XYZ | AG | XYZ-001-001 | 2 | GRASS | Y | Y | 250 | SQ-u/mL | RESPIRATORY (INHALATION) | SCREENING | 2010-11-07T11:19:00 |", "score": 0.4293, "match_basis": "verbatim_token+domain_route:AG"}, {"md_atom_id": "md_dmAG_ex_a015", "md_file": "knowledge_base/domains/AG/examples.md", "md_atom_type": "TABLE_ROW", "md_parent_section": "§AG.1 [Example 1]", "md_verbatim": "| 3 | XYZ | AG | XYZ-001-001 | 3 | GRASS | Y | Y | 1000 | SQ-u/mL | RESPIRATORY (INHALATION) | SCREENING | 2010-11-07T11:43:00 |", "score": 0.429, "match_basis": "verbatim_token+domain_route:AG"}, {"md_atom_id": "md_dmAG_ex_a016", "md_file": "knowledge_base/domains/AG/examples.md", "md_atom_type": "TABLE_ROW", "md_parent_section": "§AG.1 [Example 1]", "md_verbatim": "| 4 | XYZ | AG | XYZ-001-001 | 4 | GRASS | Y | Y | 2000 | SQ-u/mL | RESPIRATORY (INHALATION) | SCREENING | 2010-11-07T12:06:00 |", "score": 0.429, "match_basis": "verbatim_token+domain_route:AG"}, {"md_atom_id": "md_dmAG_ex_a044", "md_file": "knowledge_base/domains/AG/examples.md", "md_atom_type": "TABLE_ROW", "md_parent_section": "§AG.2 [Example 2]", "md_verbatim": "| 3 | XYZ | RE | XYZ-001-001 | ABC001 | 3 | RV1 | PTCREV | Percentage Reversibility | 13.99 | % | 13.99 | 13.99 | % | VISIT 2 | 2013-06-18T10:00 | | | | BRONCHODILATOR ADMINISTRATION | 2013-06-18T10:05 |", "score": 0.4286, "match_basis": "verbatim_token+domain_route:AG"}], "candidate_count": 5, "zero_candidate": false}
{"pdf_atom_id": "ig34_p0093_a005", "pdf_atom_type": "TABLE_ROW", "pdf_source": "SDTMIG_v3.4", "pdf_page": 93, "pdf_parent_section": "§6.1.1 [Procedure Agents (AG)]", "pdf_verbatim": "| AGCLASCD | Agent Class Code | Char | * | Variable Qualifier | Class code corresponding to AGCLAS. Drug class. May be obtained from coding. When coding to a single class, populate with class code. If using a dictionary and coding to multiple classes, follow guidance in Section 4.2.8.3, Multiple Values for a Non-result Qualifier Variable, or omit AGCLASCD. | Perm |", "figure_ref": null, "candidates": [{"md_atom_id": "md_dmAG_ex_a013", "md_file": "knowledge_base/domains/AG/examples.md", "md_atom_type": "TABLE_ROW", "md_parent_section": "§AG.1 [Example 1]", "md_verbatim": "| 1 | XYZ | AG | XYZ-001-001 | 1 | SALINE | Y | Y | 0 | SQ-u/mL | RESPIRATORY (INHALATION) | SCREENING | 2010-11-07T10:56:00 |", "score": 0.4364, "match_basis": "verbatim_token+domain_route:AG"}, {"md_atom_id": "md_dmAG_ex_a014", "md_file": "knowledge_base/domains/AG/examples.md", "md_atom_type": "TABLE_ROW", "md_parent_section": "§AG.1 [Example 1]", "md_verbatim": "| 2 | XYZ | AG | XYZ-001-001 | 2 | GRASS | Y | Y | 250 | SQ-u/mL | RESPIRATORY (INHALATION) | SCREENING | 2010-11-07T11:19:00 |", "score": 0.4316, "match_basis": "verbatim_token+domain_route:AG"}, {"md_atom_id": "md_dmAG_ex_a015", "md_file": "knowledge_base/domains/AG/examples.md", "md_atom_type": "TABLE_ROW", "md_parent_section": "§AG.1 [Example 1]", "md_verbatim": "| 3 | XYZ | AG | XYZ-001-001 | 3 | GRASS | Y | Y | 1000 | SQ-u/mL | RESPIRATORY (INHALATION) | SCREENING | 2010-11-07T11:43:00 |", "score": 0.4313, "match_basis": "verbatim_token+domain_route:AG"}, {"md_atom_id": "md_dmAG_ex_a016", "md_file": "knowledge_base/domains/AG/examples.md", "md_atom_type": "TABLE_ROW", "md_parent_section": "§AG.1 [Example 1]", "md_verbatim": "| 4 | XYZ | AG | XYZ-001-001 | 4 | GRASS | Y | Y | 2000 | SQ-u/mL | RESPIRATORY (INHALATION) | SCREENING | 2010-11-07T12:06:00 |", "score": 0.4313, "match_basis": "verbatim_token+domain_route:AG"}, {"md_atom_id": "md_dmAG_ex_a042", "md_file": "knowledge_base/domains/AG/examples.md", "md_atom_type": "TABLE_ROW", "md_parent_section": "§AG.2 [Example 2]", "md_verbatim": "| 1 | XYZ | RE | XYZ-001-001 | ABC001 | 1 | RV1 | FEV1 | Forced Expiratory Volume in 1 Second | 2.43 | L | 2.43 | 2.43 | L | VISIT 2 | 2013-06-18T10:00 | PRE-BRONCHODILATOR ADMINISTRATION | 1 | -PT5M | BRONCHODILATOR ADMINISTRATION | 2013-06-18T10:05 |", "score": 0.4266, "match_basis": "verbatim_token+domain_route:AG"}], "candidate_count": 5, "zero_candidate": false}
{"pdf_atom_id": "ig34_p0093_a006", "pdf_atom_type": "TABLE_ROW", "pdf_source": "SDTMIG_v3.4", "pdf_page": 93, "pdf_parent_section": "§6.1.1 [Procedure Agents (AG)]", "pdf_verbatim": "| AGDOSE | Dose per Administration | Num | | Record Qualifier | Amount of AGTRT taken. | Perm |", "figure_ref": null, "candidates": [{"md_atom_id": "md_dmAG_ex_a042", "md_file": "knowledge_base/domains/AG/examples.md", "md_atom_type": "TABLE_ROW", "md_parent_section": "§AG.2 [Example 2]", "md_verbatim": "| 1 | XYZ | RE | XYZ-001-001 | ABC001 | 1 | RV1 | FEV1 | Forced Expiratory Volume in 1 Second | 2.43 | L | 2.43 | 2.43 | L | VISIT 2 | 2013-06-18T10:00 | PRE-BRONCHODILATOR ADMINISTRATION | 1 | -PT5M | BRONCHODILATOR ADMINISTRATION | 2013-06-18T10:05 |", "score": 0.4897, "match_basis": "verbatim_token+domain_route:AG"}, {"md_atom_id": "md_dmAG_ex_a044", "md_file": "knowledge_base/domains/AG/examples.md", "md_atom_type": "TABLE_ROW", "md_parent_section": "§AG.2 [Example 2]", "md_verbatim": "| 3 | XYZ | RE | XYZ-001-001 | ABC001 | 3 | RV1 | PTCREV | Percentage Reversibility | 13.99 | % | 13.99 | 13.99 | % | VISIT 2 | 2013-06-18T10:00 | | | | BRONCHODILATOR ADMINISTRATION | 2013-06-18T10:05 |", "score": 0.4897, "match_basis": "verbatim_token+domain_route:AG"}, {"md_atom_id": "md_dmAG_ex_a043", "md_file": "knowledge_base/domains/AG/examples.md", "md_atom_type": "TABLE_ROW", "md_parent_section": "§AG.2 [Example 2]", "md_verbatim": "| 2 | XYZ | RE | XYZ-001-001 | ABC001 | 2 | RV1 | FEV1 | Forced Expiratory Volume in 1 Second | 2.77 | L | 2.77 | 2.77 | L | VISIT 2 | 2013-06-18T10:00 | POST-BRONCHODILATOR ADMINISTRATION | 2 | PT20M | BRONCHODILATOR ADMINISTRATION | 2013-06-18T10:05 |", "score": 0.4876, "match_basis": "verbatim_token+domain_route:AG"}, {"md_atom_id": "md_dmAG_ex_a013", "md_file": "knowledge_base/domains/AG/examples.md", "md_atom_type": "TABLE_ROW", "md_parent_section": "§AG.1 [Example 1]", "md_verbatim": "| 1 | XYZ | AG | XYZ-001-001 | 1 | SALINE | Y | Y | 0 | SQ-u/mL | RESPIRATORY (INHALATION) | SCREENING | 2010-11-07T10:56:00 |", "score": 0.4429, "match_basis": "verbatim_token+domain_route:AG"}, {"md_atom_id": "md_dmAG_ex_a014", "md_file": "knowledge_base/domains/AG/examples.md", "md_atom_type": "TABLE_ROW", "md_parent_section": "§AG.1 [Example 1]", "md_verbatim": "| 2 | XYZ | AG | XYZ-001-001 | 2 | GRASS | Y | Y | 250 | SQ-u/mL | RESPIRATORY (INHALATION) | SCREENING | 2010-11-07T11:19:00 |", "score": 0.4338, "match_basis": "verbatim_token+domain_route:AG"}], "candidate_count": 5, "zero_candidate": false}
{"pdf_atom_id": "ig34_p0093_a007", "pdf_atom_type": "TABLE_ROW", "pdf_source": "SDTMIG_v3.4", "pdf_page": 93, "pdf_parent_section": "§6.1.1 [Procedure Agents (AG)]", "pdf_verbatim": "| AGDOSTXT | Dose Description | Char | | Record Qualifier | Dosing amounts or a range of dosing information collected in text form. Units may be stored in AGDOSU. Examples: \"200-400\", \"15-20\". | Perm |", "figure_ref": null, "candidates": [{"md_atom_id": "md_dmAG_ex_a013", "md_file": "knowledge_base/domains/AG/examples.md", "md_atom_type": "TABLE_ROW", "md_parent_section": "§AG.1 [Example 1]", "md_verbatim": "| 1 | XYZ | AG | XYZ-001-001 | 1 | SALINE | Y | Y | 0 | SQ-u/mL | RESPIRATORY (INHALATION) | SCREENING | 2010-11-07T10:56:00 |", "score": 0.4408, "match_basis": "verbatim_token+domain_route:AG"}, {"md_atom_id": "md_dmAG_ex_a016", "md_file": "knowledge_base/domains/AG/examples.md", "md_atom_type": "TABLE_ROW", "md_parent_section": "§AG.1 [Example 1]", "md_verbatim": "| 4 | XYZ | AG | XYZ-001-001 | 4 | GRASS | Y | Y | 2000 | SQ-u/mL | RESPIRATORY (INHALATION) | SCREENING | 2010-11-07T12:06:00 |", "score": 0.4404, "match_basis": "verbatim_token+domain_route:AG"}, {"md_atom_id": "md_dmAG_ex_a014", "md_file": "knowledge_base/domains/AG/examples.md", "md_atom_type": "TABLE_ROW", "md_parent_section": "§AG.1 [Example 1]", "md_verbatim": "| 2 | XYZ | AG | XYZ-001-001 | 2 | GRASS | Y | Y | 250 | SQ-u/mL | RESPIRATORY (INHALATION) | SCREENING | 2010-11-07T11:19:00 |", "score": 0.4346, "match_basis": "verbatim_token+domain_route:AG"}, {"md_atom_id": "md_dmAG_ex_a015", "md_file": "knowledge_base/domains/AG/examples.md", "md_atom_type": "TABLE_ROW", "md_parent_section": "§AG.1 [Example 1]", "md_verbatim": "| 3 | XYZ | AG | XYZ-001-001 | 3 | GRASS | Y | Y | 1000 | SQ-u/mL | RESPIRATORY (INHALATION) | SCREENING | 2010-11-07T11:43:00 |", "score": 0.4343, "match_basis": "verbatim_token+domain_route:AG"}, {"md_atom_id": "md_dmAG_ex_a043", "md_file": "knowledge_base/domains/AG/examples.md", "md_atom_type": "TABLE_ROW", "md_parent_section": "§AG.2 [Example 2]", "md_verbatim": "| 2 | XYZ | RE | XYZ-001-001 | ABC001 | 2 | RV1 | FEV1 | Forced Expiratory Volume in 1 Second | 2.77 | L | 2.77 | 2.77 | L | VISIT 2 | 2013-06-18T10:00 | POST-BRONCHODILATOR ADMINISTRATION | 2 | PT20M | BRONCHODILATOR ADMINISTRATION | 2013-06-18T10:05 |", "score": 0.4323, "match_basis": "verbatim_token+domain_route:AG"}], "candidate_count": 5, "zero_candidate": false}
{"pdf_atom_id": "ig34_p0093_a008", "pdf_atom_type": "TABLE_ROW", "pdf_source": "SDTMIG_v3.4", "pdf_page": 93, "pdf_parent_section": "§6.1.1 [Procedure Agents (AG)]", "pdf_verbatim": "| AGDOSU | Dose Units | Char | (UNIT) | Variable Qualifier | Units for AGDOSE and AGDOSTXT. Examples: \"ng\", \"mg\", \"mg/kg\". | Perm |", "figure_ref": null, "candidates": [{"md_atom_id": "md_dmAG_ex_a043", "md_file": "knowledge_base/domains/AG/examples.md", "md_atom_type": "TABLE_ROW", "md_parent_section": "§AG.2 [Example 2]", "md_verbatim": "| 2 | XYZ | RE | XYZ-001-001 | ABC001 | 2 | RV1 | FEV1 | Forced Expiratory Volume in 1 Second | 2.77 | L | 2.77 | 2.77 | L | VISIT 2 | 2013-06-18T10:00 | POST-BRONCHODILATOR ADMINISTRATION | 2 | PT20M | BRONCHODILATOR ADMINISTRATION | 2013-06-18T10:05 |", "score": 0.4125, "match_basis": "verbatim_token+domain_route:AG"}, {"md_atom_id": "md_dmAG_ex_a013", "md_file": "knowledge_base/domains/AG/examples.md", "md_atom_type": "TABLE_ROW", "md_parent_section": "§AG.1 [Example 1]", "md_verbatim": "| 1 | XYZ | AG | XYZ-001-001 | 1 | SALINE | Y | Y | 0 | SQ-u/mL | RESPIRATORY (INHALATION) | SCREENING | 2010-11-07T10:56:00 |", "score": 0.4086, "match_basis": "verbatim_token+domain_route:AG"}, {"md_atom_id": "md_dmAG_ex_a042", "md_file": "knowledge_base/domains/AG/examples.md", "md_atom_type": "TABLE_ROW", "md_parent_section": "§AG.2 [Example 2]", "md_verbatim": "| 1 | XYZ | RE | XYZ-001-001 | ABC001 | 1 | RV1 | FEV1 | Forced Expiratory Volume in 1 Second | 2.43 | L | 2.43 | 2.43 | L | VISIT 2 | 2013-06-18T10:00 | PRE-BRONCHODILATOR ADMINISTRATION | 1 | -PT5M | BRONCHODILATOR ADMINISTRATION | 2013-06-18T10:05 |", "score": 0.4063, "match_basis": "verbatim_token+domain_route:AG"}, {"md_atom_id": "md_dmAG_ex_a044", "md_file": "knowledge_base/domains/AG/examples.md", "md_atom_type": "TABLE_ROW", "md_parent_section": "§AG.2 [Example 2]", "md_verbatim": "| 3 | XYZ | RE | XYZ-001-001 | ABC001 | 3 | RV1 | PTCREV | Percentage Reversibility | 13.99 | % | 13.99 | 13.99 | % | VISIT 2 | 2013-06-18T10:00 | | | | BRONCHODILATOR ADMINISTRATION | 2013-06-18T10:05 |", "score": 0.4063, "match_basis": "verbatim_token+domain_route:AG"}, {"md_atom_id": "md_dmAG_ex_a014", "md_file": "knowledge_base/domains/AG/examples.md", "md_atom_type": "TABLE_ROW", "md_parent_section": "§AG.1 [Example 1]", "md_verbatim": "| 2 | XYZ | AG | XYZ-001-001 | 2 | GRASS | Y | Y | 250 | SQ-u/mL | RESPIRATORY (INHALATION) | SCREENING | 2010-11-07T11:19:00 |", "score": 0.4, "match_basis": "verbatim_token+domain_route:AG"}], "candidate_count": 5, "zero_candidate": false}
{"pdf_atom_id": "ig34_p0093_a009", "pdf_atom_type": "TABLE_ROW", "pdf_source": "SDTMIG_v3.4", "pdf_page": 93, "pdf_parent_section": "§6.1.1 [Procedure Agents (AG)]", "pdf_verbatim": "| AGDOSFRM | Dose Form | Char | (FRM) | Variable Qualifier | Dose form for AGTRT. Examples: \"TABLET\", \"AEROSOL\". | Perm |", "figure_ref": null, "candidates": [{"md_atom_id": "md_dmAG_ex_a032", "md_file": "knowledge_base/domains/AG/examples.md", "md_atom_type": "TABLE_ROW", "md_parent_section": "§AG.2 [Example 2]", "md_verbatim": "| 1 | XYZ | AG | XYZ-001-001 | 1 | RV1 | ALBUTEROL | Y | Y | 2 | PUFF | AEROSOL | ONCE | RESPIRATORY (INHALATION) | VISIT 2 | 2013-06-18T10:05 |", "score": 0.4375, "match_basis": "verbatim_token+domain_route:AG"}, {"md_atom_id": "md_dmAG_ex_a031", "md_file": "knowledge_base/domains/AG/examples.md", "md_atom_type": "TABLE_HEADER", "md_parent_section": "§AG.2 [Example 2]", "md_verbatim": "| Row | STUDYID | DOMAIN | USUBJID | AGSEQ | AGSPID | AGTRT | AGPRESP | AGOCCUR | AGDOSE | AGDOSU | AGDOSFRM | AGDOSFRQ | AGROUTE | VISIT | AGSTDTC |\n|-----|---------|--------|---------|-------|--------|-------|---------|---------|--------|--------|----------|----------|---------|-------|---------|", "score": 0.409, "match_basis": "verbatim_token+domain_route:AG"}, {"md_atom_id": "md_dmAG_ex_a013", "md_file": "knowledge_base/domains/AG/examples.md", "md_atom_type": "TABLE_ROW", "md_parent_section": "§AG.1 [Example 1]", "md_verbatim": "| 1 | XYZ | AG | XYZ-001-001 | 1 | SALINE | Y | Y | 0 | SQ-u/mL | RESPIRATORY (INHALATION) | SCREENING | 2010-11-07T10:56:00 |", "score": 0.4079, "match_basis": "verbatim_token+domain_route:AG"}, {"md_atom_id": "md_dmAG_ex_a042", "md_file": "knowledge_base/domains/AG/examples.md", "md_atom_type": "TABLE_ROW", "md_parent_section": "§AG.2 [Example 2]", "md_verbatim": "| 1 | XYZ | RE | XYZ-001-001 | ABC001 | 1 | RV1 | FEV1 | Forced Expiratory Volume in 1 Second | 2.43 | L | 2.43 | 2.43 | L | VISIT 2 | 2013-06-18T10:00 | PRE-BRONCHODILATOR ADMINISTRATION | 1 | -PT5M | BRONCHODILATOR ADMINISTRATION | 2013-06-18T10:05 |", "score": 0.4059, "match_basis": "verbatim_token+domain_route:AG"}, {"md_atom_id": "md_dmAG_ex_a044", "md_file": "knowledge_base/domains/AG/examples.md", "md_atom_type": "TABLE_ROW", "md_parent_section": "§AG.2 [Example 2]", "md_verbatim": "| 3 | XYZ | RE | XYZ-001-001 | ABC001 | 3 | RV1 | PTCREV | Percentage Reversibility | 13.99 | % | 13.99 | 13.99 | % | VISIT 2 | 2013-06-18T10:00 | | | | BRONCHODILATOR ADMINISTRATION | 2013-06-18T10:05 |", "score": 0.4059, "match_basis": "verbatim_token+domain_route:AG"}], "candidate_count": 5, "zero_candidate": false}
{"pdf_atom_id": "ig34_p0093_a010", "pdf_atom_type": "TABLE_ROW", "pdf_source": "SDTMIG_v3.4", "pdf_page": 93, "pdf_parent_section": "§6.1.1 [Procedure Agents (AG)]", "pdf_verbatim": "| AGDOSFRQ | Dosing Frequency per Interval | Char | (FREQ) | Record Qualifier | Usually expressed as the number of repeated administrations of AGDOSE within a specific time period. Example: \"ONCE\". | Perm |", "figure_ref": null, "candidates": [{"md_atom_id": "md_dmAG_ex_a042", "md_file": "knowledge_base/domains/AG/examples.md", "md_atom_type": "TABLE_ROW", "md_parent_section": "§AG.2 [Example 2]", "md_verbatim": "| 1 | XYZ | RE | XYZ-001-001 | ABC001 | 1 | RV1 | FEV1 | Forced Expiratory Volume in 1 Second | 2.43 | L | 2.43 | 2.43 | L | VISIT 2 | 2013-06-18T10:00 | PRE-BRONCHODILATOR ADMINISTRATION | 1 | -PT5M | BRONCHODILATOR ADMINISTRATION | 2013-06-18T10:05 |", "score": 0.4696, "match_basis": "verbatim_token+domain_route:AG"}, {"md_atom_id": "md_dmAG_ex_a043", "md_file": "knowledge_base/domains/AG/examples.md", "md_atom_type": "TABLE_ROW", "md_parent_section": "§AG.2 [Example 2]", "md_verbatim": "| 2 | XYZ | RE | XYZ-001-001 | ABC001 | 2 | RV1 | FEV1 | Forced Expiratory Volume in 1 Second | 2.77 | L | 2.77 | 2.77 | L | VISIT 2 | 2013-06-18T10:00 | POST-BRONCHODILATOR ADMINISTRATION | 2 | PT20M | BRONCHODILATOR ADMINISTRATION | 2013-06-18T10:05 |", "score": 0.4638, "match_basis": "verbatim_token+domain_route:AG"}, {"md_atom_id": "md_dmAG_ex_a044", "md_file": "knowledge_base/domains/AG/examples.md", "md_atom_type": "TABLE_ROW", "md_parent_section": "§AG.2 [Example 2]", "md_verbatim": "| 3 | XYZ | RE | XYZ-001-001 | ABC001 | 3 | RV1 | PTCREV | Percentage Reversibility | 13.99 | % | 13.99 | 13.99 | % | VISIT 2 | 2013-06-18T10:00 | | | | BRONCHODILATOR ADMINISTRATION | 2013-06-18T10:05 |", "score": 0.46, "match_basis": "verbatim_token+domain_route:AG"}, {"md_atom_id": "md_dmAG_ex_a032", "md_file": "knowledge_base/domains/AG/examples.md", "md_atom_type": "TABLE_ROW", "md_parent_section": "§AG.2 [Example 2]", "md_verbatim": "| 1 | XYZ | AG | XYZ-001-001 | 1 | RV1 | ALBUTEROL | Y | Y | 2 | PUFF | AEROSOL | ONCE | RESPIRATORY (INHALATION) | VISIT 2 | 2013-06-18T10:05 |", "score": 0.4372, "match_basis": "verbatim_token+domain_route:AG"}, {"md_atom_id": "md_dmAG_ex_a013", "md_file": "knowledge_base/domains/AG/examples.md", "md_atom_type": "TABLE_ROW", "md_parent_section": "§AG.1 [Example 1]", "md_verbatim": "| 1 | XYZ | AG | XYZ-001-001 | 1 | SALINE | Y | Y | 0 | SQ-u/mL | RESPIRATORY (INHALATION) | SCREENING | 2010-11-07T10:56:00 |", "score": 0.4344, "match_basis": "verbatim_token+domain_route:AG"}], "candidate_count": 5, "zero_candidate": false}
{"pdf_atom_id": "ig34_p0093_a011", "pdf_atom_type": "TABLE_ROW", "pdf_source": "SDTMIG_v3.4", "pdf_page": 93, "pdf_parent_section": "§6.1.1 [Procedure Agents (AG)]", "pdf_verbatim": "| AGROUTE | Route of Administration | Char | (ROUTE) | Variable Qualifier | Route of administration for AGTRT. Example: \"ORAL\". | Perm |", "figure_ref": null, "candidates": [{"md_atom_id": "md_dmAG_ex_a042", "md_file": "knowledge_base/domains/AG/examples.md", "md_atom_type": "TABLE_ROW", "md_parent_section": "§AG.2 [Example 2]", "md_verbatim": "| 1 | XYZ | RE | XYZ-001-001 | ABC001 | 1 | RV1 | FEV1 | Forced Expiratory Volume in 1 Second | 2.43 | L | 2.43 | 2.43 | L | VISIT 2 | 2013-06-18T10:00 | PRE-BRONCHODILATOR ADMINISTRATION | 1 | -PT5M | BRONCHODILATOR ADMINISTRATION | 2013-06-18T10:05 |", "score": 0.4848, "match_basis": "verbatim_token+domain_route:AG"}, {"md_atom_id": "md_dmAG_ex_a044", "md_file": "knowledge_base/domains/AG/examples.md", "md_atom_type": "TABLE_ROW", "md_parent_section": "§AG.2 [Example 2]", "md_verbatim": "| 3 | XYZ | RE | XYZ-001-001 | ABC001 | 3 | RV1 | PTCREV | Percentage Reversibility | 13.99 | % | 13.99 | 13.99 | % | VISIT 2 | 2013-06-18T10:00 | | | | BRONCHODILATOR ADMINISTRATION | 2013-06-18T10:05 |", "score": 0.4848, "match_basis": "verbatim_token+domain_route:AG"}, {"md_atom_id": "md_dmAG_ex_a043", "md_file": "knowledge_base/domains/AG/examples.md", "md_atom_type": "TABLE_ROW", "md_parent_section": "§AG.2 [Example 2]", "md_verbatim": "| 2 | XYZ | RE | XYZ-001-001 | ABC001 | 2 | RV1 | FEV1 | Forced Expiratory Volume in 1 Second | 2.77 | L | 2.77 | 2.77 | L | VISIT 2 | 2013-06-18T10:00 | POST-BRONCHODILATOR ADMINISTRATION | 2 | PT20M | BRONCHODILATOR ADMINISTRATION | 2013-06-18T10:05 |", "score": 0.483, "match_basis": "verbatim_token+domain_route:AG"}, {"md_atom_id": "md_dmAG_ex_a013", "md_file": "knowledge_base/domains/AG/examples.md", "md_atom_type": "TABLE_ROW", "md_parent_section": "§AG.1 [Example 1]", "md_verbatim": "| 1 | XYZ | AG | XYZ-001-001 | 1 | SALINE | Y | Y | 0 | SQ-u/mL | RESPIRATORY (INHALATION) | SCREENING | 2010-11-07T10:56:00 |", "score": 0.44, "match_basis": "verbatim_token+domain_route:AG"}, {"md_atom_id": "md_dmAG_ex_a032", "md_file": "knowledge_base/domains/AG/examples.md", "md_atom_type": "TABLE_ROW", "md_parent_section": "§AG.2 [Example 2]", "md_verbatim": "| 1 | XYZ | AG | XYZ-001-001 | 1 | RV1 | ALBUTEROL | Y | Y | 2 | PUFF | AEROSOL | ONCE | RESPIRATORY (INHALATION) | VISIT 2 | 2013-06-18T10:05 |", "score": 0.4361, "match_basis": "verbatim_token+domain_route:AG"}], "candidate_count": 5, "zero_candidate": false}
{"pdf_atom_id": "ig34_p0093_a012", "pdf_atom_type": "TABLE_ROW", "pdf_source": "SDTMIG_v3.4", "pdf_page": 93, "pdf_parent_section": "§6.1.1 [Procedure Agents (AG)]", "pdf_verbatim": "| VISITNUM | Visit Number | Num | | Timing | 1. Clinical encounter number. 2. Numeric version of VISIT, used for sorting. | Exp |", "figure_ref": null, "candidates": [{"md_atom_id": "md_dmAG_ex_a042", "md_file": "knowledge_base/domains/AG/examples.md", "md_atom_type": "TABLE_ROW", "md_parent_section": "§AG.2 [Example 2]", "md_verbatim": "| 1 | XYZ | RE | XYZ-001-001 | ABC001 | 1 | RV1 | FEV1 | Forced Expiratory Volume in 1 Second | 2.43 | L | 2.43 | 2.43 | L | VISIT 2 | 2013-06-18T10:00 | PRE-BRONCHODILATOR ADMINISTRATION | 1 | -PT5M | BRONCHODILATOR ADMINISTRATION | 2013-06-18T10:05 |", "score": 0.4574, "match_basis": "verbatim_token+domain_route:AG"}, {"md_atom_id": "md_dmAG_ex_a044", "md_file": "knowledge_base/domains/AG/examples.md", "md_atom_type": "TABLE_ROW", "md_parent_section": "§AG.2 [Example 2]", "md_verbatim": "| 3 | XYZ | RE | XYZ-001-001 | ABC001 | 3 | RV1 | PTCREV | Percentage Reversibility | 13.99 | % | 13.99 | 13.99 | % | VISIT 2 | 2013-06-18T10:00 | | | | BRONCHODILATOR ADMINISTRATION | 2013-06-18T10:05 |", "score": 0.4574, "match_basis": "verbatim_token+domain_route:AG"}, {"md_atom_id": "md_dmAG_ex_a043", "md_file": "knowledge_base/domains/AG/examples.md", "md_atom_type": "TABLE_ROW", "md_parent_section": "§AG.2 [Example 2]", "md_verbatim": "| 2 | XYZ | RE | XYZ-001-001 | ABC001 | 2 | RV1 | FEV1 | Forced Expiratory Volume in 1 Second | 2.77 | L | 2.77 | 2.77 | L | VISIT 2 | 2013-06-18T10:00 | POST-BRONCHODILATOR ADMINISTRATION | 2 | PT20M | BRONCHODILATOR ADMINISTRATION | 2013-06-18T10:05 |", "score": 0.4562, "match_basis": "verbatim_token+domain_route:AG"}, {"md_atom_id": "md_dmAG_ex_a032", "md_file": "knowledge_base/domains/AG/examples.md", "md_atom_type": "TABLE_ROW", "md_parent_section": "§AG.2 [Example 2]", "md_verbatim": "| 1 | XYZ | AG | XYZ-001-001 | 1 | RV1 | ALBUTEROL | Y | Y | 2 | PUFF | AEROSOL | ONCE | RESPIRATORY (INHALATION) | VISIT 2 | 2013-06-18T10:05 |", "score": 0.437, "match_basis": "verbatim_token+domain_route:AG"}, {"md_atom_id": "md_dmAG_ex_a027", "md_file": "knowledge_base/domains/AG/examples.md", "md_atom_type": "TABLE_ROW", "md_parent_section": "§AG.2 [Example 2]", "md_verbatim": "| 1 | XYZ | CM | XYZ-001-001 | 1 | RV1 | SHORT-ACTING BRONCHODILATOR | SHORT-ACTING BRONCHODILATOR | Y | N | -PT4H |", "score": 0.4281, "match_basis": "verbatim_token+domain_route:AG"}], "candidate_count": 5, "zero_candidate": false}
{"pdf_atom_id": "ig34_p0093_a013", "pdf_atom_type": "TABLE_ROW", "pdf_source": "SDTMIG_v3.4", "pdf_page": 93, "pdf_parent_section": "§6.1.1 [Procedure Agents (AG)]", "pdf_verbatim": "| VISIT | Visit Name | Char | | Timing | 1. Protocol-defined description of clinical encounter. 2. May be used in addition to VISITNUM and/or VISITDY. | Perm |", "figure_ref": null, "candidates": [{"md_atom_id": "md_dmAG_ex_a044", "md_file": "knowledge_base/domains/AG/examples.md", "md_atom_type": "TABLE_ROW", "md_parent_section": "§AG.2 [Example 2]", "md_verbatim": "| 3 | XYZ | RE | XYZ-001-001 | ABC001 | 3 | RV1 | PTCREV | Percentage Reversibility | 13.99 | % | 13.99 | 13.99 | % | VISIT 2 | 2013-06-18T10:00 | | | | BRONCHODILATOR ADMINISTRATION | 2013-06-18T10:05 |", "score": 0.4432, "match_basis": "verbatim_token+domain_route:AG"}, {"md_atom_id": "md_dmAG_ex_a013", "md_file": "knowledge_base/domains/AG/examples.md", "md_atom_type": "TABLE_ROW", "md_parent_section": "§AG.1 [Example 1]", "md_verbatim": "| 1 | XYZ | AG | XYZ-001-001 | 1 | SALINE | Y | Y | 0 | SQ-u/mL | RESPIRATORY (INHALATION) | SCREENING | 2010-11-07T10:56:00 |", "score": 0.4409, "match_basis": "verbatim_token+domain_route:AG"}, {"md_atom_id": "md_dmAG_ex_a032", "md_file": "knowledge_base/domains/AG/examples.md", "md_atom_type": "TABLE_ROW", "md_parent_section": "§AG.2 [Example 2]", "md_verbatim": "| 1 | XYZ | AG | XYZ-001-001 | 1 | RV1 | ALBUTEROL | Y | Y | 2 | PUFF | AEROSOL | ONCE | RESPIRATORY (INHALATION) | VISIT 2 | 2013-06-18T10:05 |", "score": 0.4375, "match_basis": "verbatim_token+domain_route:AG"}, {"md_atom_id": "md_dmAG_ex_a042", "md_file": "knowledge_base/domains/AG/examples.md", "md_atom_type": "TABLE_ROW", "md_parent_section": "§AG.2 [Example 2]", "md_verbatim": "| 1 | XYZ | RE | XYZ-001-001 | ABC001 | 1 | RV1 | FEV1 | Forced Expiratory Volume in 1 Second | 2.43 | L | 2.43 | 2.43 | L | VISIT 2 | 2013-06-18T10:00 | PRE-BRONCHODILATOR ADMINISTRATION | 1 | -PT5M | BRONCHODILATOR ADMINISTRATION | 2013-06-18T10:05 |", "score": 0.4375, "match_basis": "verbatim_token+domain_route:AG"}, {"md_atom_id": "md_dmAG_ex_a043", "md_file": "knowledge_base/domains/AG/examples.md", "md_atom_type": "TABLE_ROW", "md_parent_section": "§AG.2 [Example 2]", "md_verbatim": "| 2 | XYZ | RE | XYZ-001-001 | ABC001 | 2 | RV1 | FEV1 | Forced Expiratory Volume in 1 Second | 2.77 | L | 2.77 | 2.77 | L | VISIT 2 | 2013-06-18T10:00 | POST-BRONCHODILATOR ADMINISTRATION | 2 | PT20M | BRONCHODILATOR ADMINISTRATION | 2013-06-18T10:05 |", "score": 0.4368, "match_basis": "verbatim_token+domain_route:AG"}], "candidate_count": 5, "zero_candidate": false}
{"pdf_atom_id": "ig34_p0093_a014", "pdf_atom_type": "TABLE_ROW", "pdf_source": "SDTMIG_v3.4", "pdf_page": 93, "pdf_parent_section": "§6.1.1 [Procedure Agents (AG)]", "pdf_verbatim": "| VISITDY | Planned Study Day of Visit | Num | | Timing | Planned study day of the visit based upon RFSTDTC in Demographics. | Perm |", "figure_ref": null, "candidates": [{"md_atom_id": "md_dmAG_ex_a044", "md_file": "knowledge_base/domains/AG/examples.md", "md_atom_type": "TABLE_ROW", "md_parent_section": "§AG.2 [Example 2]", "md_verbatim": "| 3 | XYZ | RE | XYZ-001-001 | ABC001 | 3 | RV1 | PTCREV | Percentage Reversibility | 13.99 | % | 13.99 | 13.99 | % | VISIT 2 | 2013-06-18T10:00 | | | | BRONCHODILATOR ADMINISTRATION | 2013-06-18T10:05 |", "score": 0.4309, "match_basis": "verbatim_token+domain_route:AG"}, {"md_atom_id": "md_dmAG_ex_a042", "md_file": "knowledge_base/domains/AG/examples.md", "md_atom_type": "TABLE_ROW", "md_parent_section": "§AG.2 [Example 2]", "md_verbatim": "| 1 | XYZ | RE | XYZ-001-001 | ABC001 | 1 | RV1 | FEV1 | Forced Expiratory Volume in 1 Second | 2.43 | L | 2.43 | 2.43 | L | VISIT 2 | 2013-06-18T10:00 | PRE-BRONCHODILATOR ADMINISTRATION | 1 | -PT5M | BRONCHODILATOR ADMINISTRATION | 2013-06-18T10:05 |", "score": 0.4245, "match_basis": "verbatim_token+domain_route:AG"}, {"md_atom_id": "md_dmAG_ex_a043", "md_file": "knowledge_base/domains/AG/examples.md", "md_atom_type": "TABLE_ROW", "md_parent_section": "§AG.2 [Example 2]", "md_verbatim": "| 2 | XYZ | RE | XYZ-001-001 | ABC001 | 2 | RV1 | FEV1 | Forced Expiratory Volume in 1 Second | 2.77 | L | 2.77 | 2.77 | L | VISIT 2 | 2013-06-18T10:00 | POST-BRONCHODILATOR ADMINISTRATION | 2 | PT20M | BRONCHODILATOR ADMINISTRATION | 2013-06-18T10:05 |", "score": 0.424, "match_basis": "verbatim_token+domain_route:AG"}, {"md_atom_id": "md_dmAG_ex_a032", "md_file": "knowledge_base/domains/AG/examples.md", "md_atom_type": "TABLE_ROW", "md_parent_section": "§AG.2 [Example 2]", "md_verbatim": "| 1 | XYZ | AG | XYZ-001-001 | 1 | RV1 | ALBUTEROL | Y | Y | 2 | PUFF | AEROSOL | ONCE | RESPIRATORY (INHALATION) | VISIT 2 | 2013-06-18T10:05 |", "score": 0.422, "match_basis": "verbatim_token+domain_route:AG"}, {"md_atom_id": "md_dmAG_ex_a014", "md_file": "knowledge_base/domains/AG/examples.md", "md_atom_type": "TABLE_ROW", "md_parent_section": "§AG.1 [Example 1]", "md_verbatim": "| 2 | XYZ | AG | XYZ-001-001 | 2 | GRASS | Y | Y | 250 | SQ-u/mL | RESPIRATORY (INHALATION) | SCREENING | 2010-11-07T11:19:00 |", "score": 0.416, "match_basis": "verbatim_token+domain_route:AG"}], "candidate_count": 5, "zero_candidate": false}
{"pdf_atom_id": "ig34_p0093_a015", "pdf_atom_type": "TABLE_ROW", "pdf_source": "SDTMIG_v3.4", "pdf_page": 93, "pdf_parent_section": "§6.1.1 [Procedure Agents (AG)]", "pdf_verbatim": "| TAETORD | Planned Order of Element within Arm | Num | | Timing | Number that gives the planned order of the element within the arm for the element in which the agent administration started. | Perm |", "figure_ref": null, "candidates": [{"md_atom_id": "md_dmAG_ex_a044", "md_file": "knowledge_base/domains/AG/examples.md", "md_atom_type": "TABLE_ROW", "md_parent_section": "§AG.2 [Example 2]", "md_verbatim": "| 3 | XYZ | RE | XYZ-001-001 | ABC001 | 3 | RV1 | PTCREV | Percentage Reversibility | 13.99 | % | 13.99 | 13.99 | % | VISIT 2 | 2013-06-18T10:00 | | | | BRONCHODILATOR ADMINISTRATION | 2013-06-18T10:05 |", "score": 0.4923, "match_basis": "verbatim_token+domain_route:AG"}, {"md_atom_id": "md_dmAG_ex_a042", "md_file": "knowledge_base/domains/AG/examples.md", "md_atom_type": "TABLE_ROW", "md_parent_section": "§AG.2 [Example 2]", "md_verbatim": "| 1 | XYZ | RE | XYZ-001-001 | ABC001 | 1 | RV1 | FEV1 | Forced Expiratory Volume in 1 Second | 2.43 | L | 2.43 | 2.43 | L | VISIT 2 | 2013-06-18T10:00 | PRE-BRONCHODILATOR ADMINISTRATION | 1 | -PT5M | BRONCHODILATOR ADMINISTRATION | 2013-06-18T10:05 |", "score": 0.4792, "match_basis": "verbatim_token+domain_route:AG"}, {"md_atom_id": "md_dmAG_ex_a043", "md_file": "knowledge_base/domains/AG/examples.md", "md_atom_type": "TABLE_ROW", "md_parent_section": "§AG.2 [Example 2]", "md_verbatim": "| 2 | XYZ | RE | XYZ-001-001 | ABC001 | 2 | RV1 | FEV1 | Forced Expiratory Volume in 1 Second | 2.77 | L | 2.77 | 2.77 | L | VISIT 2 | 2013-06-18T10:00 | POST-BRONCHODILATOR ADMINISTRATION | 2 | PT20M | BRONCHODILATOR ADMINISTRATION | 2013-06-18T10:05 |", "score": 0.4778, "match_basis": "verbatim_token+domain_route:AG"}, {"md_atom_id": "md_dmAG_ex_a013", "md_file": "knowledge_base/domains/AG/examples.md", "md_atom_type": "TABLE_ROW", "md_parent_section": "§AG.1 [Example 1]", "md_verbatim": "| 1 | XYZ | AG | XYZ-001-001 | 1 | SALINE | Y | Y | 0 | SQ-u/mL | RESPIRATORY (INHALATION) | SCREENING | 2010-11-07T10:56:00 |", "score": 0.4404, "match_basis": "verbatim_token+domain_route:AG"}, {"md_atom_id": "md_dmAG_ex_a014", "md_file": "knowledge_base/domains/AG/examples.md", "md_atom_type": "TABLE_ROW", "md_parent_section": "§AG.1 [Example 1]", "md_verbatim": "| 2 | XYZ | AG | XYZ-001-001 | 2 | GRASS | Y | Y | 250 | SQ-u/mL | RESPIRATORY (INHALATION) | SCREENING | 2010-11-07T11:19:00 |", "score": 0.4404, "match_basis": "verbatim_token+domain_route:AG"}], "candidate_count": 5, "zero_candidate": false}
{"pdf_atom_id": "ig34_p0093_a016", "pdf_atom_type": "TABLE_ROW", "pdf_source": "SDTMIG_v3.4", "pdf_page": 93, "pdf_parent_section": "§6.1.1 [Procedure Agents (AG)]", "pdf_verbatim": "| EPOCH | Epoch | Char | (EPOCH) | Timing | Epoch associated with the start date/time of the agent administration started. | Perm |", "figure_ref": null, "candidates": [{"md_atom_id": "md_dmAG_ex_a044", "md_file": "knowledge_base/domains/AG/examples.md", "md_atom_type": "TABLE_ROW", "md_parent_section": "§AG.2 [Example 2]", "md_verbatim": "| 3 | XYZ | RE | XYZ-001-001 | ABC001 | 3 | RV1 | PTCREV | Percentage Reversibility | 13.99 | % | 13.99 | 13.99 | % | VISIT 2 | 2013-06-18T10:00 | | | | BRONCHODILATOR ADMINISTRATION | 2013-06-18T10:05 |", "score": 0.5034, "match_basis": "verbatim_token+domain_route:AG"}, {"md_atom_id": "md_dmAG_ex_a042", "md_file": "knowledge_base/domains/AG/examples.md", "md_atom_type": "TABLE_ROW", "md_parent_section": "§AG.2 [Example 2]", "md_verbatim": "| 1 | XYZ | RE | XYZ-001-001 | ABC001 | 1 | RV1 | FEV1 | Forced Expiratory Volume in 1 Second | 2.43 | L | 2.43 | 2.43 | L | VISIT 2 | 2013-06-18T10:00 | PRE-BRONCHODILATOR ADMINISTRATION | 1 | -PT5M | BRONCHODILATOR ADMINISTRATION | 2013-06-18T10:05 |", "score": 0.48, "match_basis": "verbatim_token+domain_route:AG"}, {"md_atom_id": "md_dmAG_ex_a043", "md_file": "knowledge_base/domains/AG/examples.md", "md_atom_type": "TABLE_ROW", "md_parent_section": "§AG.2 [Example 2]", "md_verbatim": "| 2 | XYZ | RE | XYZ-001-001 | ABC001 | 2 | RV1 | FEV1 | Forced Expiratory Volume in 1 Second | 2.77 | L | 2.77 | 2.77 | L | VISIT 2 | 2013-06-18T10:00 | POST-BRONCHODILATOR ADMINISTRATION | 2 | PT20M | BRONCHODILATOR ADMINISTRATION | 2013-06-18T10:05 |", "score": 0.4783, "match_basis": "verbatim_token+domain_route:AG"}, {"md_atom_id": "md_dmAG_ex_a014", "md_file": "knowledge_base/domains/AG/examples.md", "md_atom_type": "TABLE_ROW", "md_parent_section": "§AG.1 [Example 1]", "md_verbatim": "| 2 | XYZ | AG | XYZ-001-001 | 2 | GRASS | Y | Y | 250 | SQ-u/mL | RESPIRATORY (INHALATION) | SCREENING | 2010-11-07T11:19:00 |", "score": 0.4507, "match_basis": "verbatim_token+domain_route:AG"}, {"md_atom_id": "md_dmAG_ex_a015", "md_file": "knowledge_base/domains/AG/examples.md", "md_atom_type": "TABLE_ROW", "md_parent_section": "§AG.1 [Example 1]", "md_verbatim": "| 3 | XYZ | AG | XYZ-001-001 | 3 | GRASS | Y | Y | 1000 | SQ-u/mL | RESPIRATORY (INHALATION) | SCREENING | 2010-11-07T11:43:00 |", "score": 0.45, "match_basis": "verbatim_token+domain_route:AG"}], "candidate_count": 5, "zero_candidate": false}
{"pdf_atom_id": "ig34_p0093_a017", "pdf_atom_type": "TABLE_ROW", "pdf_source": "SDTMIG_v3.4", "pdf_page": 93, "pdf_parent_section": "§6.1.1 [Procedure Agents (AG)]", "pdf_verbatim": "| AGSTDTC | Start Date/Time of Agent | Char | ISO 8601 datetime or interval | Timing | The date/time when administration of the treatment indicated by AGTRT and the dosing variables began. | Perm |", "figure_ref": null, "candidates": [{"md_atom_id": "md_dmAG_ex_a044", "md_file": "knowledge_base/domains/AG/examples.md", "md_atom_type": "TABLE_ROW", "md_parent_section": "§AG.2 [Example 2]", "md_verbatim": "| 3 | XYZ | RE | XYZ-001-001 | ABC001 | 3 | RV1 | PTCREV | Percentage Reversibility | 13.99 | % | 13.99 | 13.99 | % | VISIT 2 | 2013-06-18T10:00 | | | | BRONCHODILATOR ADMINISTRATION | 2013-06-18T10:05 |", "score": 0.4744, "match_basis": "verbatim_token+domain_route:AG"}, {"md_atom_id": "md_dmAG_ex_a042", "md_file": "knowledge_base/domains/AG/examples.md", "md_atom_type": "TABLE_ROW", "md_parent_section": "§AG.2 [Example 2]", "md_verbatim": "| 1 | XYZ | RE | XYZ-001-001 | ABC001 | 1 | RV1 | FEV1 | Forced Expiratory Volume in 1 Second | 2.43 | L | 2.43 | 2.43 | L | VISIT 2 | 2013-06-18T10:00 | PRE-BRONCHODILATOR ADMINISTRATION | 1 | -PT5M | BRONCHODILATOR ADMINISTRATION | 2013-06-18T10:05 |", "score": 0.4581, "match_basis": "verbatim_token+domain_route:AG"}, {"md_atom_id": "md_dmAG_ex_a043", "md_file": "knowledge_base/domains/AG/examples.md", "md_atom_type": "TABLE_ROW", "md_parent_section": "§AG.2 [Example 2]", "md_verbatim": "| 2 | XYZ | RE | XYZ-001-001 | ABC001 | 2 | RV1 | FEV1 | Forced Expiratory Volume in 1 Second | 2.77 | L | 2.77 | 2.77 | L | VISIT 2 | 2013-06-18T10:00 | POST-BRONCHODILATOR ADMINISTRATION | 2 | PT20M | BRONCHODILATOR ADMINISTRATION | 2013-06-18T10:05 |", "score": 0.4571, "match_basis": "verbatim_token+domain_route:AG"}, {"md_atom_id": "md_dmAG_ex_a013", "md_file": "knowledge_base/domains/AG/examples.md", "md_atom_type": "TABLE_ROW", "md_parent_section": "§AG.1 [Example 1]", "md_verbatim": "| 1 | XYZ | AG | XYZ-001-001 | 1 | SALINE | Y | Y | 0 | SQ-u/mL | RESPIRATORY (INHALATION) | SCREENING | 2010-11-07T10:56:00 |", "score": 0.4283, "match_basis": "verbatim_token+domain_route:AG"}, {"md_atom_id": "md_dmAG_ex_a014", "md_file": "knowledge_base/domains/AG/examples.md", "md_atom_type": "TABLE_ROW", "md_parent_section": "§AG.1 [Example 1]", "md_verbatim": "| 2 | XYZ | AG | XYZ-001-001 | 2 | GRASS | Y | Y | 250 | SQ-u/mL | RESPIRATORY (INHALATION) | SCREENING | 2010-11-07T11:19:00 |", "score": 0.4283, "match_basis": "verbatim_token+domain_route:AG"}], "candidate_count": 5, "zero_candidate": false}
{"pdf_atom_id": "ig34_p0093_a018", "pdf_atom_type": "TABLE_ROW", "pdf_source": "SDTMIG_v3.4", "pdf_page": 93, "pdf_parent_section": "§6.1.1 [Procedure Agents (AG)]", "pdf_verbatim": "| AGENDTC | End Date/Time of Agent | Char | ISO 8601 datetime or interval | Timing | The date/time when administration of the treatment indicated by AGTRT and the dosing variables ended. | Perm |", "figure_ref": null, "candidates": [{"md_atom_id": "md_dmAG_ex_a044", "md_file": "knowledge_base/domains/AG/examples.md", "md_atom_type": "TABLE_ROW", "md_parent_section": "§AG.2 [Example 2]", "md_verbatim": "| 3 | XYZ | RE | XYZ-001-001 | ABC001 | 3 | RV1 | PTCREV | Percentage Reversibility | 13.99 | % | 13.99 | 13.99 | % | VISIT 2 | 2013-06-18T10:00 | | | | BRONCHODILATOR ADMINISTRATION | 2013-06-18T10:05 |", "score": 0.4783, "match_basis": "verbatim_token+domain_route:AG"}, {"md_atom_id": "md_dmAG_ex_a042", "md_file": "knowledge_base/domains/AG/examples.md", "md_atom_type": "TABLE_ROW", "md_parent_section": "§AG.2 [Example 2]", "md_verbatim": "| 1 | XYZ | RE | XYZ-001-001 | ABC001 | 1 | RV1 | FEV1 | Forced Expiratory Volume in 1 Second | 2.43 | L | 2.43 | 2.43 | L | VISIT 2 | 2013-06-18T10:00 | PRE-BRONCHODILATOR ADMINISTRATION | 1 | -PT5M | BRONCHODILATOR ADMINISTRATION | 2013-06-18T10:05 |", "score": 0.461, "match_basis": "verbatim_token+domain_route:AG"}, {"md_atom_id": "md_dmAG_ex_a043", "md_file": "knowledge_base/domains/AG/examples.md", "md_atom_type": "TABLE_ROW", "md_parent_section": "§AG.2 [Example 2]", "md_verbatim": "| 2 | XYZ | RE | XYZ-001-001 | ABC001 | 2 | RV1 | FEV1 | Forced Expiratory Volume in 1 Second | 2.77 | L | 2.77 | 2.77 | L | VISIT 2 | 2013-06-18T10:00 | POST-BRONCHODILATOR ADMINISTRATION | 2 | PT20M | BRONCHODILATOR ADMINISTRATION | 2013-06-18T10:05 |", "score": 0.46, "match_basis": "verbatim_token+domain_route:AG"}, {"md_atom_id": "md_dmAG_ex_a013", "md_file": "knowledge_base/domains/AG/examples.md", "md_atom_type": "TABLE_ROW", "md_parent_section": "§AG.1 [Example 1]", "md_verbatim": "| 1 | XYZ | AG | XYZ-001-001 | 1 | SALINE | Y | Y | 0 | SQ-u/mL | RESPIRATORY (INHALATION) | SCREENING | 2010-11-07T10:56:00 |", "score": 0.43, "match_basis": "verbatim_token+domain_route:AG"}, {"md_atom_id": "md_dmAG_ex_a014", "md_file": "knowledge_base/domains/AG/examples.md", "md_atom_type": "TABLE_ROW", "md_parent_section": "§AG.1 [Example 1]", "md_verbatim": "| 2 | XYZ | AG | XYZ-001-001 | 2 | GRASS | Y | Y | 250 | SQ-u/mL | RESPIRATORY (INHALATION) | SCREENING | 2010-11-07T11:19:00 |", "score": 0.43, "match_basis": "verbatim_token+domain_route:AG"}], "candidate_count": 5, "zero_candidate": false}
{"pdf_atom_id": "ig34_p0093_a019", "pdf_atom_type": "TABLE_ROW", "pdf_source": "SDTMIG_v3.4", "pdf_page": 93, "pdf_parent_section": "§6.1.1 [Procedure Agents (AG)]", "pdf_verbatim": "| AGSTDY | Study Day of Start of Agent | Num | | Timing | Study day of start of agent relative to the sponsor-defined RFSTDTC. | Perm |", "figure_ref": null, "candidates": [{"md_atom_id": "md_dmAG_ex_a044", "md_file": "knowledge_base/domains/AG/examples.md", "md_atom_type": "TABLE_ROW", "md_parent_section": "§AG.2 [Example 2]", "md_verbatim": "| 3 | XYZ | RE | XYZ-001-001 | ABC001 | 3 | RV1 | PTCREV | Percentage Reversibility | 13.99 | % | 13.99 | 13.99 | % | VISIT 2 | 2013-06-18T10:00 | | | | BRONCHODILATOR ADMINISTRATION | 2013-06-18T10:05 |", "score": 0.4375, "match_basis": "verbatim_token+domain_route:AG"}, {"md_atom_id": "md_dmAG_ex_a013", "md_file": "knowledge_base/domains/AG/examples.md", "md_atom_type": "TABLE_ROW", "md_parent_section": "§AG.1 [Example 1]", "md_verbatim": "| 1 | XYZ | AG | XYZ-001-001 | 1 | SALINE | Y | Y | 0 | SQ-u/mL | RESPIRATORY (INHALATION) | SCREENING | 2010-11-07T10:56:00 |", "score": 0.4329, "match_basis": "verbatim_token+domain_route:AG"}, {"md_atom_id": "md_dmAG_ex_a014", "md_file": "knowledge_base/domains/AG/examples.md", "md_atom_type": "TABLE_ROW", "md_parent_section": "§AG.1 [Example 1]", "md_verbatim": "| 2 | XYZ | AG | XYZ-001-001 | 2 | GRASS | Y | Y | 250 | SQ-u/mL | RESPIRATORY (INHALATION) | SCREENING | 2010-11-07T11:19:00 |", "score": 0.4243, "match_basis": "verbatim_token+domain_route:AG"}, {"md_atom_id": "md_dmAG_ex_a015", "md_file": "knowledge_base/domains/AG/examples.md", "md_atom_type": "TABLE_ROW", "md_parent_section": "§AG.1 [Example 1]", "md_verbatim": "| 3 | XYZ | AG | XYZ-001-001 | 3 | GRASS | Y | Y | 1000 | SQ-u/mL | RESPIRATORY (INHALATION) | SCREENING | 2010-11-07T11:43:00 |", "score": 0.424, "match_basis": "verbatim_token+domain_route:AG"}, {"md_atom_id": "md_dmAG_ex_a016", "md_file": "knowledge_base/domains/AG/examples.md", "md_atom_type": "TABLE_ROW", "md_parent_section": "§AG.1 [Example 1]", "md_verbatim": "| 4 | XYZ | AG | XYZ-001-001 | 4 | GRASS | Y | Y | 2000 | SQ-u/mL | RESPIRATORY (INHALATION) | SCREENING | 2010-11-07T12:06:00 |", "score": 0.424, "match_basis": "verbatim_token+domain_route:AG"}], "candidate_count": 5, "zero_candidate": false}
{"pdf_atom_id": "ig34_p0093_a020", "pdf_atom_type": "TABLE_ROW", "pdf_source": "SDTMIG_v3.4", "pdf_page": 93, "pdf_parent_section": "§6.1.1 [Procedure Agents (AG)]", "pdf_verbatim": "| AGENDY | Study Day of End of Agent | Num | | Timing | Study day of end of agent relative to the sponsor-defined RFSTDTC. | Perm |", "figure_ref": null, "candidates": [{"md_atom_id": "md_dmAG_ex_a044", "md_file": "knowledge_base/domains/AG/examples.md", "md_atom_type": "TABLE_ROW", "md_parent_section": "§AG.2 [Example 2]", "md_verbatim": "| 3 | XYZ | RE | XYZ-001-001 | ABC001 | 3 | RV1 | PTCREV | Percentage Reversibility | 13.99 | % | 13.99 | 13.99 | % | VISIT 2 | 2013-06-18T10:00 | | | | BRONCHODILATOR ADMINISTRATION | 2013-06-18T10:05 |", "score": 0.4391, "match_basis": "verbatim_token+domain_route:AG"}, {"md_atom_id": "md_dmAG_ex_a013", "md_file": "knowledge_base/domains/AG/examples.md", "md_atom_type": "TABLE_ROW", "md_parent_section": "§AG.1 [Example 1]", "md_verbatim": "| 1 | XYZ | AG | XYZ-001-001 | 1 | SALINE | Y | Y | 0 | SQ-u/mL | RESPIRATORY (INHALATION) | SCREENING | 2010-11-07T10:56:00 |", "score": 0.4348, "match_basis": "verbatim_token+domain_route:AG"}, {"md_atom_id": "md_dmAG_ex_a014", "md_file": "knowledge_base/domains/AG/examples.md", "md_atom_type": "TABLE_ROW", "md_parent_section": "§AG.1 [Example 1]", "md_verbatim": "| 2 | XYZ | AG | XYZ-001-001 | 2 | GRASS | Y | Y | 250 | SQ-u/mL | RESPIRATORY (INHALATION) | SCREENING | 2010-11-07T11:19:00 |", "score": 0.4257, "match_basis": "verbatim_token+domain_route:AG"}, {"md_atom_id": "md_dmAG_ex_a015", "md_file": "knowledge_base/domains/AG/examples.md", "md_atom_type": "TABLE_ROW", "md_parent_section": "§AG.1 [Example 1]", "md_verbatim": "| 3 | XYZ | AG | XYZ-001-001 | 3 | GRASS | Y | Y | 1000 | SQ-u/mL | RESPIRATORY (INHALATION) | SCREENING | 2010-11-07T11:43:00 |", "score": 0.4254, "match_basis": "verbatim_token+domain_route:AG"}, {"md_atom_id": "md_dmAG_ex_a016", "md_file": "knowledge_base/domains/AG/examples.md", "md_atom_type": "TABLE_ROW", "md_parent_section": "§AG.1 [Example 1]", "md_verbatim": "| 4 | XYZ | AG | XYZ-001-001 | 4 | GRASS | Y | Y | 2000 | SQ-u/mL | RESPIRATORY (INHALATION) | SCREENING | 2010-11-07T12:06:00 |", "score": 0.4254, "match_basis": "verbatim_token+domain_route:AG"}], "candidate_count": 5, "zero_candidate": false}
{"pdf_atom_id": "ig34_p0093_a021", "pdf_atom_type": "TABLE_ROW", "pdf_source": "SDTMIG_v3.4", "pdf_page": 93, "pdf_parent_section": "§6.1.1 [Procedure Agents (AG)]", "pdf_verbatim": "| AGDUR | Duration of Agent | Char | ISO 8601 duration | Timing | Collected duration for an agent episode. Used only if collected on the CRF and not derived from start and end date/times. | Perm |", "figure_ref": null, "candidates": [{"md_atom_id": "md_dmAG_ex_a044", "md_file": "knowledge_base/domains/AG/examples.md", "md_atom_type": "TABLE_ROW", "md_parent_section": "§AG.2 [Example 2]", "md_verbatim": "| 3 | XYZ | RE | XYZ-001-001 | ABC001 | 3 | RV1 | PTCREV | Percentage Reversibility | 13.99 | % | 13.99 | 13.99 | % | VISIT 2 | 2013-06-18T10:00 | | | | BRONCHODILATOR ADMINISTRATION | 2013-06-18T10:05 |", "score": 0.444, "match_basis": "verbatim_token+domain_route:AG"}, {"md_atom_id": "md_dmAG_ex_a013", "md_file": "knowledge_base/domains/AG/examples.md", "md_atom_type": "TABLE_ROW", "md_parent_section": "§AG.1 [Example 1]", "md_verbatim": "| 1 | XYZ | AG | XYZ-001-001 | 1 | SALINE | Y | Y | 0 | SQ-u/mL | RESPIRATORY (INHALATION) | SCREENING | 2010-11-07T10:56:00 |", "score": 0.4345, "match_basis": "verbatim_token+domain_route:AG"}, {"md_atom_id": "md_dmAG_ex_a014", "md_file": "knowledge_base/domains/AG/examples.md", "md_atom_type": "TABLE_ROW", "md_parent_section": "§AG.1 [Example 1]", "md_verbatim": "| 2 | XYZ | AG | XYZ-001-001 | 2 | GRASS | Y | Y | 250 | SQ-u/mL | RESPIRATORY (INHALATION) | SCREENING | 2010-11-07T11:19:00 |", "score": 0.4345, "match_basis": "verbatim_token+domain_route:AG"}, {"md_atom_id": "md_dmAG_ex_a015", "md_file": "knowledge_base/domains/AG/examples.md", "md_atom_type": "TABLE_ROW", "md_parent_section": "§AG.1 [Example 1]", "md_verbatim": "| 3 | XYZ | AG | XYZ-001-001 | 3 | GRASS | Y | Y | 1000 | SQ-u/mL | RESPIRATORY (INHALATION) | SCREENING | 2010-11-07T11:43:00 |", "score": 0.4341, "match_basis": "verbatim_token+domain_route:AG"}, {"md_atom_id": "md_dmAG_ex_a016", "md_file": "knowledge_base/domains/AG/examples.md", "md_atom_type": "TABLE_ROW", "md_parent_section": "§AG.1 [Example 1]", "md_verbatim": "| 4 | XYZ | AG | XYZ-001-001 | 4 | GRASS | Y | Y | 2000 | SQ-u/mL | RESPIRATORY (INHALATION) | SCREENING | 2010-11-07T12:06:00 |", "score": 0.4341, "match_basis": "verbatim_token+domain_route:AG"}], "candidate_count": 5, "zero_candidate": false}
{"pdf_atom_id": "ig34_p0093_a022", "pdf_atom_type": "TABLE_ROW", "pdf_source": "SDTMIG_v3.4", "pdf_page": 93, "pdf_parent_section": "§6.1.1 [Procedure Agents (AG)]", "pdf_verbatim": "| AGSTRF | Start Relative to Reference Period | Char | (STENRF) | Timing | Describes the start of the agent relative to sponsor-defined reference period. The sponsor-defined reference period is a continuous period of time defined by a discrete starting point and a discrete ending point | Perm |", "figure_ref": null, "candidates": [{"md_atom_id": "md_dmAG_ex_a044", "md_file": "knowledge_base/domains/AG/examples.md", "md_atom_type": "TABLE_ROW", "md_parent_section": "§AG.2 [Example 2]", "md_verbatim": "| 3 | XYZ | RE | XYZ-001-001 | ABC001 | 3 | RV1 | PTCREV | Percentage Reversibility | 13.99 | % | 13.99 | 13.99 | % | VISIT 2 | 2013-06-18T10:00 | | | | BRONCHODILATOR ADMINISTRATION | 2013-06-18T10:05 |", "score": 0.4369, "match_basis": "verbatim_token+domain_route:AG"}, {"md_atom_id": "md_dmAG_ex_a013", "md_file": "knowledge_base/domains/AG/examples.md", "md_atom_type": "TABLE_ROW", "md_parent_section": "§AG.1 [Example 1]", "md_verbatim": "| 1 | XYZ | AG | XYZ-001-001 | 1 | SALINE | Y | Y | 0 | SQ-u/mL | RESPIRATORY (INHALATION) | SCREENING | 2010-11-07T10:56:00 |", "score": 0.4336, "match_basis": "verbatim_token+domain_route:AG"}, {"md_atom_id": "md_dmAG_ex_a014", "md_file": "knowledge_base/domains/AG/examples.md", "md_atom_type": "TABLE_ROW", "md_parent_section": "§AG.1 [Example 1]", "md_verbatim": "| 2 | XYZ | AG | XYZ-001-001 | 2 | GRASS | Y | Y | 250 | SQ-u/mL | RESPIRATORY (INHALATION) | SCREENING | 2010-11-07T11:19:00 |", "score": 0.4278, "match_basis": "verbatim_token+domain_route:AG"}, {"md_atom_id": "md_dmAG_ex_a015", "md_file": "knowledge_base/domains/AG/examples.md", "md_atom_type": "TABLE_ROW", "md_parent_section": "§AG.1 [Example 1]", "md_verbatim": "| 3 | XYZ | AG | XYZ-001-001 | 3 | GRASS | Y | Y | 1000 | SQ-u/mL | RESPIRATORY (INHALATION) | SCREENING | 2010-11-07T11:43:00 |", "score": 0.4275, "match_basis": "verbatim_token+domain_route:AG"}, {"md_atom_id": "md_dmAG_ex_a016", "md_file": "knowledge_base/domains/AG/examples.md", "md_atom_type": "TABLE_ROW", "md_parent_section": "§AG.1 [Example 1]", "md_verbatim": "| 4 | XYZ | AG | XYZ-001-001 | 4 | GRASS | Y | Y | 2000 | SQ-u/mL | RESPIRATORY (INHALATION) | SCREENING | 2010-11-07T12:06:00 |", "score": 0.4275, "match_basis": "verbatim_token+domain_route:AG"}], "candidate_count": 5, "zero_candidate": false}
{"pdf_atom_id": "ig34_p0094_a001", "pdf_atom_type": "TABLE_ROW", "pdf_source": "SDTMIG_v3.4", "pdf_page": 94, "pdf_parent_section": "§6.1.1 [Procedure Agents (AG)]", "pdf_verbatim": "| | | | | | (represented by RFSTDTC and RFENDTC in Demographics). If information such as \"PRIOR\", \"ONGOING\", or \"CONTINUING\" was collected, this information may be translated into AGSTRF. Not all values of the codelist are allowable for this variable. See Section 4.4.7, Use of Relative Timing Variables. | |", "figure_ref": null, "candidates": [{"md_atom_id": "md_dmAG_ex_a042", "md_file": "knowledge_base/domains/AG/examples.md", "md_atom_type": "TABLE_ROW", "md_parent_section": "§AG.2 [Example 2]", "md_verbatim": "| 1 | XYZ | RE | XYZ-001-001 | ABC001 | 1 | RV1 | FEV1 | Forced Expiratory Volume in 1 Second | 2.43 | L | 2.43 | 2.43 | L | VISIT 2 | 2013-06-18T10:00 | PRE-BRONCHODILATOR ADMINISTRATION | 1 | -PT5M | BRONCHODILATOR ADMINISTRATION | 2013-06-18T10:05 |", "score": 0.4444, "match_basis": "verbatim_token+domain_route:AG"}, {"md_atom_id": "md_dmAG_ex_a043", "md_file": "knowledge_base/domains/AG/examples.md", "md_atom_type": "TABLE_ROW", "md_parent_section": "§AG.2 [Example 2]", "md_verbatim": "| 2 | XYZ | RE | XYZ-001-001 | ABC001 | 2 | RV1 | FEV1 | Forced Expiratory Volume in 1 Second | 2.77 | L | 2.77 | 2.77 | L | VISIT 2 | 2013-06-18T10:00 | POST-BRONCHODILATOR ADMINISTRATION | 2 | PT20M | BRONCHODILATOR ADMINISTRATION | 2013-06-18T10:05 |", "score": 0.44, "match_basis": "verbatim_token+domain_route:AG"}, {"md_atom_id": "md_dmAG_ex_a044", "md_file": "knowledge_base/domains/AG/examples.md", "md_atom_type": "TABLE_ROW", "md_parent_section": "§AG.2 [Example 2]", "md_verbatim": "| 3 | XYZ | RE | XYZ-001-001 | ABC001 | 3 | RV1 | PTCREV | Percentage Reversibility | 13.99 | % | 13.99 | 13.99 | % | VISIT 2 | 2013-06-18T10:00 | | | | BRONCHODILATOR ADMINISTRATION | 2013-06-18T10:05 |", "score": 0.4327, "match_basis": "verbatim_token+domain_route:AG"}, {"md_atom_id": "md_dmAG_ex_a014", "md_file": "knowledge_base/domains/AG/examples.md", "md_atom_type": "TABLE_ROW", "md_parent_section": "§AG.1 [Example 1]", "md_verbatim": "| 2 | XYZ | AG | XYZ-001-001 | 2 | GRASS | Y | Y | 250 | SQ-u/mL | RESPIRATORY (INHALATION) | SCREENING | 2010-11-07T11:19:00 |", "score": 0.4296, "match_basis": "verbatim_token+domain_route:AG"}, {"md_atom_id": "md_dmAG_ex_a015", "md_file": "knowledge_base/domains/AG/examples.md", "md_atom_type": "TABLE_ROW", "md_parent_section": "§AG.1 [Example 1]", "md_verbatim": "| 3 | XYZ | AG | XYZ-001-001 | 3 | GRASS | Y | Y | 1000 | SQ-u/mL | RESPIRATORY (INHALATION) | SCREENING | 2010-11-07T11:43:00 |", "score": 0.4294, "match_basis": "verbatim_token+domain_route:AG"}], "candidate_count": 5, "zero_candidate": false}
{"pdf_atom_id": "ig34_p0094_a002", "pdf_atom_type": "TABLE_ROW", "pdf_source": "SDTMIG_v3.4", "pdf_page": 94, "pdf_parent_section": "§6.1.1 [Procedure Agents (AG)]", "pdf_verbatim": "| AGENRF | End Relative to Reference Period | Char | (STENRF) | Timing | Describes the end of the agent relative to the sponsor-defined reference period. The sponsor-defined reference period is a continuous period of time defined by a discrete starting point and a discrete ending point (represented by RFSTDTC and RFENDTC in Demographics). If information such as \"PRIOR\", \"ONGOING\", or \"CONTINUING\" was collected, this information may be translated into AGENRF. Not all values of the codelist are allowable for this variable. See Section 4.4.7, Use of Relative Timing Variables. | Perm |", "figure_ref": null, "candidates": [{"md_atom_id": "md_dmAG_ex_a042", "md_file": "knowledge_base/domains/AG/examples.md", "md_atom_type": "TABLE_ROW", "md_parent_section": "§AG.2 [Example 2]", "md_verbatim": "| 1 | XYZ | RE | XYZ-001-001 | ABC001 | 1 | RV1 | FEV1 | Forced Expiratory Volume in 1 Second | 2.43 | L | 2.43 | 2.43 | L | VISIT 2 | 2013-06-18T10:00 | PRE-BRONCHODILATOR ADMINISTRATION | 1 | -PT5M | BRONCHODILATOR ADMINISTRATION | 2013-06-18T10:05 |", "score": 0.4313, "match_basis": "verbatim_token+domain_route:AG"}, {"md_atom_id": "md_dmAG_ex_a044", "md_file": "knowledge_base/domains/AG/examples.md", "md_atom_type": "TABLE_ROW", "md_parent_section": "§AG.2 [Example 2]", "md_verbatim": "| 3 | XYZ | RE | XYZ-001-001 | ABC001 | 3 | RV1 | PTCREV | Percentage Reversibility | 13.99 | % | 13.99 | 13.99 | % | VISIT 2 | 2013-06-18T10:00 | | | | BRONCHODILATOR ADMINISTRATION | 2013-06-18T10:05 |", "score": 0.4313, "match_basis": "verbatim_token+domain_route:AG"}, {"md_atom_id": "md_dmAG_ex_a013", "md_file": "knowledge_base/domains/AG/examples.md", "md_atom_type": "TABLE_ROW", "md_parent_section": "§AG.1 [Example 1]", "md_verbatim": "| 1 | XYZ | AG | XYZ-001-001 | 1 | SALINE | Y | Y | 0 | SQ-u/mL | RESPIRATORY (INHALATION) | SCREENING | 2010-11-07T10:56:00 |", "score": 0.4287, "match_basis": "verbatim_token+domain_route:AG"}, {"md_atom_id": "md_dmAG_ex_a014", "md_file": "knowledge_base/domains/AG/examples.md", "md_atom_type": "TABLE_ROW", "md_parent_section": "§AG.1 [Example 1]", "md_verbatim": "| 2 | XYZ | AG | XYZ-001-001 | 2 | GRASS | Y | Y | 250 | SQ-u/mL | RESPIRATORY (INHALATION) | SCREENING | 2010-11-07T11:19:00 |", "score": 0.4287, "match_basis": "verbatim_token+domain_route:AG"}, {"md_atom_id": "md_dmAG_ex_a015", "md_file": "knowledge_base/domains/AG/examples.md", "md_atom_type": "TABLE_ROW", "md_parent_section": "§AG.1 [Example 1]", "md_verbatim": "| 3 | XYZ | AG | XYZ-001-001 | 3 | GRASS | Y | Y | 1000 | SQ-u/mL | RESPIRATORY (INHALATION) | SCREENING | 2010-11-07T11:43:00 |", "score": 0.4286, "match_basis": "verbatim_token+domain_route:AG"}], "candidate_count": 5, "zero_candidate": false}
{"pdf_atom_id": "ig34_p0094_a003", "pdf_atom_type": "TABLE_ROW", "pdf_source": "SDTMIG_v3.4", "pdf_page": 94, "pdf_parent_section": "§6.1.1 [Procedure Agents (AG)]", "pdf_verbatim": "| AGSTRTPT | Start Relative to Reference Time Point | Char | (STENRF) | Timing | Identifies the start of the agent as being before or after the sponsor-defined reference time point defined by variable AGSTTPT. Not all values of the codelist are allowable for this variable. See Section 4.4.7, Use of Relative Timing Variables. | Perm |", "figure_ref": null, "candidates": [{"md_atom_id": "md_dmAG_ex_a044", "md_file": "knowledge_base/domains/AG/examples.md", "md_atom_type": "TABLE_ROW", "md_parent_section": "§AG.2 [Example 2]", "md_verbatim": "| 3 | XYZ | RE | XYZ-001-001 | ABC001 | 3 | RV1 | PTCREV | Percentage Reversibility | 13.99 | % | 13.99 | 13.99 | % | VISIT 2 | 2013-06-18T10:00 | | | | BRONCHODILATOR ADMINISTRATION | 2013-06-18T10:05 |", "score": 0.4392, "match_basis": "verbatim_token+domain_route:AG"}, {"md_atom_id": "md_dmAG_ex_a042", "md_file": "knowledge_base/domains/AG/examples.md", "md_atom_type": "TABLE_ROW", "md_parent_section": "§AG.2 [Example 2]", "md_verbatim": "| 1 | XYZ | RE | XYZ-001-001 | ABC001 | 1 | RV1 | FEV1 | Forced Expiratory Volume in 1 Second | 2.43 | L | 2.43 | 2.43 | L | VISIT 2 | 2013-06-18T10:00 | PRE-BRONCHODILATOR ADMINISTRATION | 1 | -PT5M | BRONCHODILATOR ADMINISTRATION | 2013-06-18T10:05 |", "score": 0.4351, "match_basis": "verbatim_token+domain_route:AG"}, {"md_atom_id": "md_dmAG_ex_a043", "md_file": "knowledge_base/domains/AG/examples.md", "md_atom_type": "TABLE_ROW", "md_parent_section": "§AG.2 [Example 2]", "md_verbatim": "| 2 | XYZ | RE | XYZ-001-001 | ABC001 | 2 | RV1 | FEV1 | Forced Expiratory Volume in 1 Second | 2.77 | L | 2.77 | 2.77 | L | VISIT 2 | 2013-06-18T10:00 | POST-BRONCHODILATOR ADMINISTRATION | 2 | PT20M | BRONCHODILATOR ADMINISTRATION | 2013-06-18T10:05 |", "score": 0.4346, "match_basis": "verbatim_token+domain_route:AG"}, {"md_atom_id": "md_dmAG_ex_a013", "md_file": "knowledge_base/domains/AG/examples.md", "md_atom_type": "TABLE_ROW", "md_parent_section": "§AG.1 [Example 1]", "md_verbatim": "| 1 | XYZ | AG | XYZ-001-001 | 1 | SALINE | Y | Y | 0 | SQ-u/mL | RESPIRATORY (INHALATION) | SCREENING | 2010-11-07T10:56:00 |", "score": 0.4273, "match_basis": "verbatim_token+domain_route:AG"}, {"md_atom_id": "md_dmAG_ex_a032", "md_file": "knowledge_base/domains/AG/examples.md", "md_atom_type": "TABLE_ROW", "md_parent_section": "§AG.2 [Example 2]", "md_verbatim": "| 1 | XYZ | AG | XYZ-001-001 | 1 | RV1 | ALBUTEROL | Y | Y | 2 | PUFF | AEROSOL | ONCE | RESPIRATORY (INHALATION) | VISIT 2 | 2013-06-18T10:05 |", "score": 0.4257, "match_basis": "verbatim_token+domain_route:AG"}], "candidate_count": 5, "zero_candidate": false}
{"pdf_atom_id": "ig34_p0094_a004", "pdf_atom_type": "TABLE_ROW", "pdf_source": "SDTMIG_v3.4", "pdf_page": 94, "pdf_parent_section": "§6.1.1 [Procedure Agents (AG)]", "pdf_verbatim": "| AGSTTPT | Start Reference Time Point | Char | | Timing | Description or date/time in ISO 8601 character format of the reference point referred to by AGSTRTPT. Examples: \"2003-12-15\", \"VISIT 1\". | Perm |", "figure_ref": null, "candidates": [{"md_atom_id": "md_dmAG_ex_a032", "md_file": "knowledge_base/domains/AG/examples.md", "md_atom_type": "TABLE_ROW", "md_parent_section": "§AG.2 [Example 2]", "md_verbatim": "| 1 | XYZ | AG | XYZ-001-001 | 1 | RV1 | ALBUTEROL | Y | Y | 2 | PUFF | AEROSOL | ONCE | RESPIRATORY (INHALATION) | VISIT 2 | 2013-06-18T10:05 |", "score": 0.4404, "match_basis": "verbatim_token+domain_route:AG"}, {"md_atom_id": "md_dmAG_ex_a042", "md_file": "knowledge_base/domains/AG/examples.md", "md_atom_type": "TABLE_ROW", "md_parent_section": "§AG.2 [Example 2]", "md_verbatim": "| 1 | XYZ | RE | XYZ-001-001 | ABC001 | 1 | RV1 | FEV1 | Forced Expiratory Volume in 1 Second | 2.43 | L | 2.43 | 2.43 | L | VISIT 2 | 2013-06-18T10:00 | PRE-BRONCHODILATOR ADMINISTRATION | 1 | -PT5M | BRONCHODILATOR ADMINISTRATION | 2013-06-18T10:05 |", "score": 0.44, "match_basis": "verbatim_token+domain_route:AG"}, {"md_atom_id": "md_dmAG_ex_a044", "md_file": "knowledge_base/domains/AG/examples.md", "md_atom_type": "TABLE_ROW", "md_parent_section": "§AG.2 [Example 2]", "md_verbatim": "| 3 | XYZ | RE | XYZ-001-001 | ABC001 | 3 | RV1 | PTCREV | Percentage Reversibility | 13.99 | % | 13.99 | 13.99 | % | VISIT 2 | 2013-06-18T10:00 | | | | BRONCHODILATOR ADMINISTRATION | 2013-06-18T10:05 |", "score": 0.44, "match_basis": "verbatim_token+domain_route:AG"}, {"md_atom_id": "md_dmAG_ex_a043", "md_file": "knowledge_base/domains/AG/examples.md", "md_atom_type": "TABLE_ROW", "md_parent_section": "§AG.2 [Example 2]", "md_verbatim": "| 2 | XYZ | RE | XYZ-001-001 | ABC001 | 2 | RV1 | FEV1 | Forced Expiratory Volume in 1 Second | 2.77 | L | 2.77 | 2.77 | L | VISIT 2 | 2013-06-18T10:00 | POST-BRONCHODILATOR ADMINISTRATION | 2 | PT20M | BRONCHODILATOR ADMINISTRATION | 2013-06-18T10:05 |", "score": 0.4393, "match_basis": "verbatim_token+domain_route:AG"}, {"md_atom_id": "md_dmAG_ex_a016", "md_file": "knowledge_base/domains/AG/examples.md", "md_atom_type": "TABLE_ROW", "md_parent_section": "§AG.1 [Example 1]", "md_verbatim": "| 4 | XYZ | AG | XYZ-001-001 | 4 | GRASS | Y | Y | 2000 | SQ-u/mL | RESPIRATORY (INHALATION) | SCREENING | 2010-11-07T12:06:00 |", "score": 0.4303, "match_basis": "verbatim_token+domain_route:AG"}], "candidate_count": 5, "zero_candidate": false}
{"pdf_atom_id": "ig34_p0094_a005", "pdf_atom_type": "TABLE_ROW", "pdf_source": "SDTMIG_v3.4", "pdf_page": 94, "pdf_parent_section": "§6.1.1 [Procedure Agents (AG)]", "pdf_verbatim": "| AGENRTPT | End Relative to Reference Time Point | Char | (STENRF) | Timing | Identifies the end of the agent as being before or after the reference time point defined by variable AGENTPT. Identifies the end of the agent as being before or after the sponsor-defined reference time point defined by variable AGENTPT. Not all values of the codelist are allowable for this variable. See Section 4.4.7, Use of Relative Timing Variables. | Perm |", "figure_ref": null, "candidates": [{"md_atom_id": "md_dmAG_ex_a044", "md_file": "knowledge_base/domains/AG/examples.md", "md_atom_type": "TABLE_ROW", "md_parent_section": "§AG.2 [Example 2]", "md_verbatim": "| 3 | XYZ | RE | XYZ-001-001 | ABC001 | 3 | RV1 | PTCREV | Percentage Reversibility | 13.99 | % | 13.99 | 13.99 | % | VISIT 2 | 2013-06-18T10:00 | | | | BRONCHODILATOR ADMINISTRATION | 2013-06-18T10:05 |", "score": 0.4365, "match_basis": "verbatim_token+domain_route:AG"}, {"md_atom_id": "md_dmAG_ex_a042", "md_file": "knowledge_base/domains/AG/examples.md", "md_atom_type": "TABLE_ROW", "md_parent_section": "§AG.2 [Example 2]", "md_verbatim": "| 1 | XYZ | RE | XYZ-001-001 | ABC001 | 1 | RV1 | FEV1 | Forced Expiratory Volume in 1 Second | 2.43 | L | 2.43 | 2.43 | L | VISIT 2 | 2013-06-18T10:00 | PRE-BRONCHODILATOR ADMINISTRATION | 1 | -PT5M | BRONCHODILATOR ADMINISTRATION | 2013-06-18T10:05 |", "score": 0.4322, "match_basis": "verbatim_token+domain_route:AG"}, {"md_atom_id": "md_dmAG_ex_a043", "md_file": "knowledge_base/domains/AG/examples.md", "md_atom_type": "TABLE_ROW", "md_parent_section": "§AG.2 [Example 2]", "md_verbatim": "| 2 | XYZ | RE | XYZ-001-001 | ABC001 | 2 | RV1 | FEV1 | Forced Expiratory Volume in 1 Second | 2.77 | L | 2.77 | 2.77 | L | VISIT 2 | 2013-06-18T10:00 | POST-BRONCHODILATOR ADMINISTRATION | 2 | PT20M | BRONCHODILATOR ADMINISTRATION | 2013-06-18T10:05 |", "score": 0.4318, "match_basis": "verbatim_token+domain_route:AG"}, {"md_atom_id": "md_dmAG_ex_a013", "md_file": "knowledge_base/domains/AG/examples.md", "md_atom_type": "TABLE_ROW", "md_parent_section": "§AG.1 [Example 1]", "md_verbatim": "| 1 | XYZ | AG | XYZ-001-001 | 1 | SALINE | Y | Y | 0 | SQ-u/mL | RESPIRATORY (INHALATION) | SCREENING | 2010-11-07T10:56:00 |", "score": 0.4286, "match_basis": "verbatim_token+domain_route:AG"}, {"md_atom_id": "md_dmAG_ex_a032", "md_file": "knowledge_base/domains/AG/examples.md", "md_atom_type": "TABLE_ROW", "md_parent_section": "§AG.2 [Example 2]", "md_verbatim": "| 1 | XYZ | AG | XYZ-001-001 | 1 | RV1 | ALBUTEROL | Y | Y | 2 | PUFF | AEROSOL | ONCE | RESPIRATORY (INHALATION) | VISIT 2 | 2013-06-18T10:05 |", "score": 0.4269, "match_basis": "verbatim_token+domain_route:AG"}], "candidate_count": 5, "zero_candidate": false}
{"pdf_atom_id": "ig34_p0094_a006", "pdf_atom_type": "TABLE_ROW", "pdf_source": "SDTMIG_v3.4", "pdf_page": 94, "pdf_parent_section": "§6.1.1 [Procedure Agents (AG)]", "pdf_verbatim": "| AGENTPT | End Reference Time Point | Char | | Timing | Description or date/time in ISO 8601 character format of the reference point referred to by AGENRTPT. Examples: \"2003-12-25\", \"VISIT 2\". | Perm |", "figure_ref": null, "candidates": [{"md_atom_id": "md_dmAG_ex_a044", "md_file": "knowledge_base/domains/AG/examples.md", "md_atom_type": "TABLE_ROW", "md_parent_section": "§AG.2 [Example 2]", "md_verbatim": "| 3 | XYZ | RE | XYZ-001-001 | ABC001 | 3 | RV1 | PTCREV | Percentage Reversibility | 13.99 | % | 13.99 | 13.99 | % | VISIT 2 | 2013-06-18T10:00 | | | | BRONCHODILATOR ADMINISTRATION | 2013-06-18T10:05 |", "score": 0.4462, "match_basis": "verbatim_token+domain_route:AG"}, {"md_atom_id": "md_dmAG_ex_a032", "md_file": "knowledge_base/domains/AG/examples.md", "md_atom_type": "TABLE_ROW", "md_parent_section": "§AG.2 [Example 2]", "md_verbatim": "| 1 | XYZ | AG | XYZ-001-001 | 1 | RV1 | ALBUTEROL | Y | Y | 2 | PUFF | AEROSOL | ONCE | RESPIRATORY (INHALATION) | VISIT 2 | 2013-06-18T10:05 |", "score": 0.4412, "match_basis": "verbatim_token+domain_route:AG"}, {"md_atom_id": "md_dmAG_ex_a042", "md_file": "knowledge_base/domains/AG/examples.md", "md_atom_type": "TABLE_ROW", "md_parent_section": "§AG.2 [Example 2]", "md_verbatim": "| 1 | XYZ | RE | XYZ-001-001 | ABC001 | 1 | RV1 | FEV1 | Forced Expiratory Volume in 1 Second | 2.43 | L | 2.43 | 2.43 | L | VISIT 2 | 2013-06-18T10:00 | PRE-BRONCHODILATOR ADMINISTRATION | 1 | -PT5M | BRONCHODILATOR ADMINISTRATION | 2013-06-18T10:05 |", "score": 0.4353, "match_basis": "verbatim_token+domain_route:AG"}, {"md_atom_id": "md_dmAG_ex_a043", "md_file": "knowledge_base/domains/AG/examples.md", "md_atom_type": "TABLE_ROW", "md_parent_section": "§AG.2 [Example 2]", "md_verbatim": "| 2 | XYZ | RE | XYZ-001-001 | ABC001 | 2 | RV1 | FEV1 | Forced Expiratory Volume in 1 Second | 2.77 | L | 2.77 | 2.77 | L | VISIT 2 | 2013-06-18T10:00 | POST-BRONCHODILATOR ADMINISTRATION | 2 | PT20M | BRONCHODILATOR ADMINISTRATION | 2013-06-18T10:05 |", "score": 0.4347, "match_basis": "verbatim_token+domain_route:AG"}, {"md_atom_id": "md_dmAG_ex_a016", "md_file": "knowledge_base/domains/AG/examples.md", "md_atom_type": "TABLE_ROW", "md_parent_section": "§AG.1 [Example 1]", "md_verbatim": "| 4 | XYZ | AG | XYZ-001-001 | 4 | GRASS | Y | Y | 2000 | SQ-u/mL | RESPIRATORY (INHALATION) | SCREENING | 2010-11-07T12:06:00 |", "score": 0.4309, "match_basis": "verbatim_token+domain_route:AG"}], "candidate_count": 5, "zero_candidate": false}
{"pdf_atom_id": "ig34_p0094_a007", "pdf_atom_type": "NOTE", "pdf_source": "SDTMIG_v3.4", "pdf_page": 94, "pdf_parent_section": "§6.1.1 [Procedure Agents (AG)]", "pdf_verbatim": "1In this column, an asterisk (*) indicates that the variable may be subject to controlled terminology. CDISC/NCI codelist values are enclosed in parentheses.", "figure_ref": null, "candidates": [{"md_atom_id": "md_dmAG_ex_a029", "md_file": "knowledge_base/domains/AG/examples.md", "md_atom_type": "SENTENCE", "md_parent_section": "§AG.2 [Example 2]", "md_verbatim": "The AGSPID value RV1 was used to indicate that this administration was associated with the reversibility test.", "score": 0.4023, "match_basis": "verbatim_token+domain_route:AG"}, {"md_atom_id": "md_dmAG_ex_a024", "md_file": "knowledge_base/domains/AG/examples.md", "md_atom_type": "SENTENCE", "md_parent_section": "§AG.2 [Example 2]", "md_verbatim": "The CMSPID value RV1 was used to indicate that this question was associated with the reversibility test.", "score": 0.4019, "match_basis": "verbatim_token+domain_route:AG"}, {"md_atom_id": "md_dmAG_ex_a003", "md_file": "knowledge_base/domains/AG/examples.md", "md_atom_type": "SENTENCE", "md_parent_section": "§AG.1 [Example 1]", "md_verbatim": "This example captures data about the allergen administered to the subject as part of a bronchial allergen challenge (BAC) test.", "score": 0.3844, "match_basis": "verbatim_token+domain_route:AG"}, {"md_atom_id": "md_dmAG_ex_a037", "md_file": "knowledge_base/domains/AG/examples.md", "md_atom_type": "SENTENCE", "md_parent_section": "§AG.2 [Example 2]", "md_verbatim": "The timing reference variables RETPT, RETPTNUM, REELTM, RETPTREF, and RERFTDTC show that this test was performed 5 minutes before the bronchodilator challenge.", "score": 0.3781, "match_basis": "verbatim_token+domain_route:AG"}, {"md_atom_id": "md_dmAG_ex_a007", "md_file": "knowledge_base/domains/AG/examples.md", "md_atom_type": "SENTENCE", "md_parent_section": "§AG.1 [Example 1]", "md_verbatim": "A predetermined set of ascending doses of the chosen allergen was used in the screening BAC test.", "score": 0.3689, "match_basis": "verbatim_token+domain_route:AG"}], "candidate_count": 5, "zero_candidate": false}
{"pdf_atom_id": "ig34_p0094_a008", "pdf_atom_type": "HEADING", "pdf_source": "SDTMIG_v3.4", "pdf_page": 94, "pdf_parent_section": "§6.1.1 [Procedure Agents (AG)]", "pdf_verbatim": "AG – Assumptions", "figure_ref": null, "candidates": [{"md_atom_id": "md_dmAG_assn_a001", "md_file": "knowledge_base/domains/AG/assumptions.md", "md_atom_type": "HEADING", "md_parent_section": "§AG [AG — Assumptions]", "md_verbatim": "# AG — Assumptions", "score": 1.0, "match_basis": "verbatim_token+domain_route:AG"}, {"md_atom_id": "md_dmAG_ex_a001", "md_file": "knowledge_base/domains/AG/examples.md", "md_atom_type": "HEADING", "md_parent_section": "§AG [AG — Examples]", "md_verbatim": "# AG — Examples", "score": 0.4, "match_basis": "verbatim_token+domain_route:AG"}, {"md_atom_id": "md_dmAG_ex_a002", "md_file": "knowledge_base/domains/AG/examples.md", "md_atom_type": "HEADING", "md_parent_section": "§AG.1 [Example 1]", "md_verbatim": "## Example 1", "score": 0.4, "match_basis": "verbatim_token+domain_route:AG"}, {"md_atom_id": "md_dmAG_ex_a017", "md_file": "knowledge_base/domains/AG/examples.md", "md_atom_type": "HEADING", "md_parent_section": "§AG.2 [Example 2]", "md_verbatim": "## Example 2", "score": 0.4, "match_basis": "verbatim_token+domain_route:AG"}], "candidate_count": 4, "zero_candidate": false}
{"pdf_atom_id": "ig34_p0094_a009", "pdf_atom_type": "LIST_ITEM", "pdf_source": "SDTMIG_v3.4", "pdf_page": 94, "pdf_parent_section": "§6.1.1 [Procedure Agents (AG)]", "pdf_verbatim": "1. Purpose of the domain: Some tests involve administration of substances, and it has been unclear in which domain these should be represented.", "figure_ref": null, "candidates": [{"md_atom_id": "md_dmAG_assn_a002", "md_file": "knowledge_base/domains/AG/assumptions.md", "md_atom_type": "LIST_ITEM", "md_parent_section": "§AG [AG — Assumptions]", "md_verbatim": "1. Purpose of the domain: Some tests involve administration of substances, and it has been unclear in which domain these should be represented.", "score": 1.0, "match_basis": "verbatim_token+domain_route:AG"}, {"md_atom_id": "md_dmAG_assn_a006", "md_file": "knowledge_base/domains/AG/assumptions.md", "md_atom_type": "LIST_ITEM", "md_parent_section": "§AG [AG — Assumptions]", "md_verbatim": "   d. Information about the conduct of the procedure with which the procedure agent administration was associated, if collected, should be represented in the PR domain.", "score": 0.5886, "match_basis": "verbatim_token+domain_route:AG"}, {"md_atom_id": "md_dmAG_assn_a005", "md_file": "knowledge_base/domains/AG/assumptions.md", "md_atom_type": "LIST_ITEM", "md_parent_section": "§AG [AG — Assumptions]", "md_verbatim": "   c. The AG domain has advantages over the Procedures (PR) domain for this purpose. It allows recording of multiple substance administrations for a single testing procedure. It also separates data about substance administrations from data about procedures that do not involve substance administration.", "score": 0.581, "match_basis": "verbatim_token+domain_route:AG"}, {"md_atom_id": "md_dmAG_assn_a019", "md_file": "knowledge_base/domains/AG/assumptions.md", "md_atom_type": "LIST_ITEM", "md_parent_section": "§AG [AG — Assumptions]", "md_verbatim": "   a. However, --INDC, although allowed, would not generally be used because substance administrations represented in AG are given as part of a testing procedure rather than with therapeutic intent.", "score": 0.5606, "match_basis": "verbatim_token+domain_route:AG"}, {"md_atom_id": "md_dmAG_assn_a003", "md_file": "knowledge_base/domains/AG/assumptions.md", "md_atom_type": "LIST_ITEM", "md_parent_section": "§AG [AG — Assumptions]", "md_verbatim": "   a. The Concomitant/Prior Medications (CM) domain seemed particularly inappropriate when the substance was one that would never be given as a medication. Even substances that are medications are not being used as such when they are given as part of a testing procedure.", "score": 0.4876, "match_basis": "verbatim_token+domain_route:AG"}], "candidate_count": 5, "zero_candidate": false}
{"pdf_atom_id": "ig34_p0094_a010", "pdf_atom_type": "LIST_ITEM", "pdf_source": "SDTMIG_v3.4", "pdf_page": 94, "pdf_parent_section": "§6.1.1 [Procedure Agents (AG)]", "pdf_verbatim": "a. The Concomitant/Prior Medications (CM) domain seemed particularly inappropriate when the substance was one that would never be given as a medication. Even substances that are medications are not being used as such when they are given as part of a testing procedure.", "figure_ref": null, "candidates": [{"md_atom_id": "md_dmAG_assn_a003", "md_file": "knowledge_base/domains/AG/assumptions.md", "md_atom_type": "LIST_ITEM", "md_parent_section": "§AG [AG — Assumptions]", "md_verbatim": "   a. The Concomitant/Prior Medications (CM) domain seemed particularly inappropriate when the substance was one that would never be given as a medication. Even substances that are medications are not being used as such when they are given as part of a testing procedure.", "score": 1.0, "match_basis": "verbatim_token+domain_route:AG"}, {"md_atom_id": "md_dmAG_assn_a004", "md_file": "knowledge_base/domains/AG/assumptions.md", "md_atom_type": "LIST_ITEM", "md_parent_section": "§AG [AG — Assumptions]", "md_verbatim": "   b. The Exposure (EX) domain also seemed inappropriate; although the testing procedure might be part of the study plan, these data would not be used or analyzed in the same way as data about study treatments. The AG domain was created to fill this gap.", "score": 0.5678, "match_basis": "verbatim_token+domain_route:AG"}, {"md_atom_id": "md_dmAG_assn_a019", "md_file": "knowledge_base/domains/AG/assumptions.md", "md_atom_type": "LIST_ITEM", "md_parent_section": "§AG [AG — Assumptions]", "md_verbatim": "   a. However, --INDC, although allowed, would not generally be used because substance administrations represented in AG are given as part of a testing procedure rather than with therapeutic intent.", "score": 0.5644, "match_basis": "verbatim_token+domain_route:AG"}, {"md_atom_id": "md_dmAG_assn_a005", "md_file": "knowledge_base/domains/AG/assumptions.md", "md_atom_type": "LIST_ITEM", "md_parent_section": "§AG [AG — Assumptions]", "md_verbatim": "   c. The AG domain has advantages over the Procedures (PR) domain for this purpose. It allows recording of multiple substance administrations for a single testing procedure. It also separates data about substance administrations from data about procedures that do not involve substance administration.", "score": 0.5364, "match_basis": "verbatim_token+domain_route:AG"}, {"md_atom_id": "md_dmAG_assn_a012", "md_file": "knowledge_base/domains/AG/assumptions.md", "md_atom_type": "LIST_ITEM", "md_parent_section": "§AG [AG — Assumptions]", "md_verbatim": "   b. AGMODIFY should be included if the sponsor's procedure permits modification of a verbatim term for coding.", "score": 0.4927, "match_basis": "verbatim_token+domain_route:AG"}], "candidate_count": 5, "zero_candidate": false}
{"pdf_atom_id": "ig34_p0094_a011", "pdf_atom_type": "LIST_ITEM", "pdf_source": "SDTMIG_v3.4", "pdf_page": 94, "pdf_parent_section": "§6.1.1 [Procedure Agents (AG)]", "pdf_verbatim": "b. The Exposure (EX) domain also seemed inappropriate; although the testing procedure might be part of the study plan, these data would not be used or analyzed in the same way as data about study treatments. The AG domain was created to fill this gap.", "figure_ref": null, "candidates": [{"md_atom_id": "md_dmAG_assn_a004", "md_file": "knowledge_base/domains/AG/assumptions.md", "md_atom_type": "LIST_ITEM", "md_parent_section": "§AG [AG — Assumptions]", "md_verbatim": "   b. The Exposure (EX) domain also seemed inappropriate; although the testing procedure might be part of the study plan, these data would not be used or analyzed in the same way as data about study treatments. The AG domain was created to fill this gap.", "score": 1.0, "match_basis": "verbatim_token+domain_route:AG"}, {"md_atom_id": "md_dmAG_assn_a003", "md_file": "knowledge_base/domains/AG/assumptions.md", "md_atom_type": "LIST_ITEM", "md_parent_section": "§AG [AG — Assumptions]", "md_verbatim": "   a. The Concomitant/Prior Medications (CM) domain seemed particularly inappropriate when the substance was one that would never be given as a medication. Even substances that are medications are not being used as such when they are given as part of a testing procedure.", "score": 0.5678, "match_basis": "verbatim_token+domain_route:AG"}, {"md_atom_id": "md_dmAG_assn_a019", "md_file": "knowledge_base/domains/AG/assumptions.md", "md_atom_type": "LIST_ITEM", "md_parent_section": "§AG [AG — Assumptions]", "md_verbatim": "   a. However, --INDC, although allowed, would not generally be used because substance administrations represented in AG are given as part of a testing procedure rather than with therapeutic intent.", "score": 0.5146, "match_basis": "verbatim_token+domain_route:AG"}, {"md_atom_id": "md_dmAG_assn_a005", "md_file": "knowledge_base/domains/AG/assumptions.md", "md_atom_type": "LIST_ITEM", "md_parent_section": "§AG [AG — Assumptions]", "md_verbatim": "   c. The AG domain has advantages over the Procedures (PR) domain for this purpose. It allows recording of multiple substance administrations for a single testing procedure. It also separates data about substance administrations from data about procedures that do not involve substance administration.", "score": 0.5125, "match_basis": "verbatim_token+domain_route:AG"}, {"md_atom_id": "md_dmAG_assn_a006", "md_file": "knowledge_base/domains/AG/assumptions.md", "md_atom_type": "LIST_ITEM", "md_parent_section": "§AG [AG — Assumptions]", "md_verbatim": "   d. Information about the conduct of the procedure with which the procedure agent administration was associated, if collected, should be represented in the PR domain.", "score": 0.5029, "match_basis": "verbatim_token+domain_route:AG"}], "candidate_count": 5, "zero_candidate": false}
{"pdf_atom_id": "ig34_p0094_a012", "pdf_atom_type": "LIST_ITEM", "pdf_source": "SDTMIG_v3.4", "pdf_page": 94, "pdf_parent_section": "§6.1.1 [Procedure Agents (AG)]", "pdf_verbatim": "c. The AG domain has advantages over the Procedures (PR) domain for this purpose. It allows recording of multiple substance administrations for a single testing procedure. It also separates data about substance administrations from data about procedures that do not involve substance administration.", "figure_ref": null, "candidates": [{"md_atom_id": "md_dmAG_assn_a005", "md_file": "knowledge_base/domains/AG/assumptions.md", "md_atom_type": "LIST_ITEM", "md_parent_section": "§AG [AG — Assumptions]", "md_verbatim": "   c. The AG domain has advantages over the Procedures (PR) domain for this purpose. It allows recording of multiple substance administrations for a single testing procedure. It also separates data about substance administrations from data about procedures that do not involve substance administration.", "score": 1.0, "match_basis": "verbatim_token+domain_route:AG"}, {"md_atom_id": "md_dmAG_assn_a002", "md_file": "knowledge_base/domains/AG/assumptions.md", "md_atom_type": "LIST_ITEM", "md_parent_section": "§AG [AG — Assumptions]", "md_verbatim": "1. Purpose of the domain: Some tests involve administration of substances, and it has been unclear in which domain these should be represented.", "score": 0.581, "match_basis": "verbatim_token+domain_route:AG"}, {"md_atom_id": "md_dmAG_assn_a019", "md_file": "knowledge_base/domains/AG/assumptions.md", "md_atom_type": "LIST_ITEM", "md_parent_section": "§AG [AG — Assumptions]", "md_verbatim": "   a. However, --INDC, although allowed, would not generally be used because substance administrations represented in AG are given as part of a testing procedure rather than with therapeutic intent.", "score": 0.5618, "match_basis": "verbatim_token+domain_route:AG"}, {"md_atom_id": "md_dmAG_assn_a020", "md_file": "knowledge_base/domains/AG/assumptions.md", "md_atom_type": "LIST_ITEM", "md_parent_section": "§AG [AG — Assumptions]", "md_verbatim": "   b. The variables --DOSTOT and --DOSRGM, although allowed, would generally not be used because procedure agents are likely to be recorded at the level of single administrations.", "score": 0.5378, "match_basis": "verbatim_token+domain_route:AG"}, {"md_atom_id": "md_dmAG_assn_a003", "md_file": "knowledge_base/domains/AG/assumptions.md", "md_atom_type": "LIST_ITEM", "md_parent_section": "§AG [AG — Assumptions]", "md_verbatim": "   a. The Concomitant/Prior Medications (CM) domain seemed particularly inappropriate when the substance was one that would never be given as a medication. Even substances that are medications are not being used as such when they are given as part of a testing procedure.", "score": 0.5364, "match_basis": "verbatim_token+domain_route:AG"}], "candidate_count": 5, "zero_candidate": false}
{"pdf_atom_id": "ig34_p0094_a013", "pdf_atom_type": "LIST_ITEM", "pdf_source": "SDTMIG_v3.4", "pdf_page": 94, "pdf_parent_section": "§6.1.1 [Procedure Agents (AG)]", "pdf_verbatim": "d. Information about the conduct of the procedure with which the procedure agent administration was associated, if collected, should be represented in the PR domain.", "figure_ref": null, "candidates": [{"md_atom_id": "md_dmAG_assn_a006", "md_file": "knowledge_base/domains/AG/assumptions.md", "md_atom_type": "LIST_ITEM", "md_parent_section": "§AG [AG — Assumptions]", "md_verbatim": "   d. Information about the conduct of the procedure with which the procedure agent administration was associated, if collected, should be represented in the PR domain.", "score": 1.0, "match_basis": "verbatim_token+domain_route:AG"}, {"md_atom_id": "md_dmAG_assn_a002", "md_file": "knowledge_base/domains/AG/assumptions.md", "md_atom_type": "LIST_ITEM", "md_parent_section": "§AG [AG — Assumptions]", "md_verbatim": "1. Purpose of the domain: Some tests involve administration of substances, and it has been unclear in which domain these should be represented.", "score": 0.5886, "match_basis": "verbatim_token+domain_route:AG"}, {"md_atom_id": "md_dmAG_assn_a019", "md_file": "knowledge_base/domains/AG/assumptions.md", "md_atom_type": "LIST_ITEM", "md_parent_section": "§AG [AG — Assumptions]", "md_verbatim": "   a. However, --INDC, although allowed, would not generally be used because substance administrations represented in AG are given as part of a testing procedure rather than with therapeutic intent.", "score": 0.5591, "match_basis": "verbatim_token+domain_route:AG"}, {"md_atom_id": "md_dmAG_assn_a005", "md_file": "knowledge_base/domains/AG/assumptions.md", "md_atom_type": "LIST_ITEM", "md_parent_section": "§AG [AG — Assumptions]", "md_verbatim": "   c. The AG domain has advantages over the Procedures (PR) domain for this purpose. It allows recording of multiple substance administrations for a single testing procedure. It also separates data about substance administrations from data about procedures that do not involve substance administration.", "score": 0.5338, "match_basis": "verbatim_token+domain_route:AG"}, {"md_atom_id": "md_dmAG_ex_a028", "md_file": "knowledge_base/domains/AG/examples.md", "md_atom_type": "SENTENCE", "md_parent_section": "§AG.2 [Example 2]", "md_verbatim": "The administration of albuterol as part of the reversibility procedure is represented in the AG domain.", "score": 0.5252, "match_basis": "verbatim_token+domain_route:AG"}], "candidate_count": 5, "zero_candidate": false}
{"pdf_atom_id": "ig34_p0094_a014", "pdf_atom_type": "LIST_ITEM", "pdf_source": "SDTMIG_v3.4", "pdf_page": 94, "pdf_parent_section": "§6.1.1 [Procedure Agents (AG)]", "pdf_verbatim": "2. Examples and structure", "figure_ref": null, "candidates": [{"md_atom_id": "md_dmAG_assn_a007", "md_file": "knowledge_base/domains/AG/assumptions.md", "md_atom_type": "LIST_ITEM", "md_parent_section": "§AG [AG — Assumptions]", "md_verbatim": "2. Examples and structure", "score": 1.0, "match_basis": "verbatim_token+domain_route:AG"}, {"md_atom_id": "md_dmAG_assn_a009", "md_file": "knowledge_base/domains/AG/assumptions.md", "md_atom_type": "LIST_ITEM", "md_parent_section": "§AG [AG — Assumptions]", "md_verbatim": "   b. The structure of the AG domain is 1 record per agent intervention episode, or prespecified agent assessment per subject. It is the sponsor's responsibility to define an intervention episode. This definition may vary based on the sponsor's requirements for review and analysis.", "score": 0.444, "match_basis": "verbatim_token+domain_route:AG"}, {"md_atom_id": "md_dmAG_assn_a008", "md_file": "knowledge_base/domains/AG/assumptions.md", "md_atom_type": "LIST_ITEM", "md_parent_section": "§AG [AG — Assumptions]", "md_verbatim": "   a. Examples of agents administered as part of a procedure include a short-acting bronchodilator administered as part of a reversibility assessment and contrast agents or radio-labeled substances used in imaging studies.", "score": 0.4432, "match_basis": "verbatim_token+domain_route:AG"}, {"md_atom_id": "md_dmAG_assn_a011", "md_file": "knowledge_base/domains/AG/assumptions.md", "md_atom_type": "LIST_ITEM", "md_parent_section": "§AG [AG — Assumptions]", "md_verbatim": "   a. AGTRT captures the name of the agent and it is the topic variable. It is a required variable and must have a value. AGTRT should include only the agent name, and should not include dosage, formulation, or other qualifying information. For example, \"ALBUTEROL 2 PUFF\" is not a valid value for AGTRT. This example should be expressed as AGTRT = \"ALBUTEROL\", AGDOSE = \"2\", AGDOSU = \"PUFF\", and AGDOSFRM = \"AEROSOL\".", "score": 0.4414, "match_basis": "verbatim_token+domain_route:AG"}, {"md_atom_id": "md_dmAG_assn_a020", "md_file": "knowledge_base/domains/AG/assumptions.md", "md_atom_type": "LIST_ITEM", "md_parent_section": "§AG [AG — Assumptions]", "md_verbatim": "   b. The variables --DOSTOT and --DOSRGM, although allowed, would generally not be used because procedure agents are likely to be recorded at the level of single administrations.", "score": 0.4255, "match_basis": "verbatim_token+domain_route:AG"}], "candidate_count": 5, "zero_candidate": false}
{"pdf_atom_id": "ig34_p0094_a015", "pdf_atom_type": "LIST_ITEM", "pdf_source": "SDTMIG_v3.4", "pdf_page": 94, "pdf_parent_section": "§6.1.1 [Procedure Agents (AG)]", "pdf_verbatim": "a. Examples of agents administered as part of a procedure include a short-acting bronchodilator administered as part of a reversibility assessment and contrast agents or radio-labeled substances used in imaging studies.", "figure_ref": null, "candidates": [{"md_atom_id": "md_dmAG_assn_a008", "md_file": "knowledge_base/domains/AG/assumptions.md", "md_atom_type": "LIST_ITEM", "md_parent_section": "§AG [AG — Assumptions]", "md_verbatim": "   a. Examples of agents administered as part of a procedure include a short-acting bronchodilator administered as part of a reversibility assessment and contrast agents or radio-labeled substances used in imaging studies.", "score": 1.0, "match_basis": "verbatim_token+domain_route:AG"}, {"md_atom_id": "md_dmAG_ex_a022", "md_file": "knowledge_base/domains/AG/examples.md", "md_atom_type": "SENTENCE", "md_parent_section": "§AG.2 [Example 2]", "md_verbatim": "The question as to whether a short-acting bronchodilator was administered in the 4 hours prior to the reversibility assessment is represented in the CM domain because this prior administration would have been for therapeutic effect, not as part of the procedure.", "score": 0.5259, "match_basis": "verbatim_token+domain_route:AG"}, {"md_atom_id": "md_dmAG_assn_a019", "md_file": "knowledge_base/domains/AG/assumptions.md", "md_atom_type": "LIST_ITEM", "md_parent_section": "§AG [AG — Assumptions]", "md_verbatim": "   a. However, --INDC, although allowed, would not generally be used because substance administrations represented in AG are given as part of a testing procedure rather than with therapeutic intent.", "score": 0.5101, "match_basis": "verbatim_token+domain_route:AG"}, {"md_atom_id": "md_dmAG_assn_a005", "md_file": "knowledge_base/domains/AG/assumptions.md", "md_atom_type": "LIST_ITEM", "md_parent_section": "§AG [AG — Assumptions]", "md_verbatim": "   c. The AG domain has advantages over the Procedures (PR) domain for this purpose. It allows recording of multiple substance administrations for a single testing procedure. It also separates data about substance administrations from data about procedures that do not involve substance administration.", "score": 0.492, "match_basis": "verbatim_token+domain_route:AG"}, {"md_atom_id": "md_dmAG_assn_a003", "md_file": "knowledge_base/domains/AG/assumptions.md", "md_atom_type": "LIST_ITEM", "md_parent_section": "§AG [AG — Assumptions]", "md_verbatim": "   a. The Concomitant/Prior Medications (CM) domain seemed particularly inappropriate when the substance was one that would never be given as a medication. Even substances that are medications are not being used as such when they are given as part of a testing procedure.", "score": 0.4877, "match_basis": "verbatim_token+domain_route:AG"}], "candidate_count": 5, "zero_candidate": false}
