{"pdf_atom_id": "ig34_p0104_a022", "pdf_atom_type": "TABLE_ROW", "pdf_source": "SDTMIG_v3.4", "pdf_page": 104, "pdf_parent_section": "§6.1.3.1 [Exposure (EX)]", "pdf_verbatim": "EXDOSU | Dose Units | Char | (UNIT) | Variable Qualifier | Units for EXDOSE, EXDOSTXT, or EXDOSTXT representing product-specified values. Examples: \"mg\", \"mg/kg\", \"mg/m2\".", "figure_ref": null, "candidates": [{"md_atom_id": "md_dmEX_ex_a209", "md_file": "knowledge_base/domains/EX/examples.md", "md_atom_type": "TABLE_ROW", "md_parent_section": "§EX.7 [Example 7]", "md_verbatim": "| Reason for Dose Adjustment | | Dose-limiting toxicity | Dose-limiting toxicity |", "score": 0.4462, "match_basis": "verbatim_token+domain_route:EX"}, {"md_atom_id": "md_dmEX_ex_a266", "md_file": "knowledge_base/domains/EX/examples.md", "md_atom_type": "TABLE_ROW", "md_parent_section": "§EX.8 [Example 8]", "md_verbatim": "| 1 | ABC | EC | ABC7001 | 1 | BOTTLE A | FIRST TO LAST DOSE INTERVAL | Y | Y | 1 | TABLET | QD | TREATMENT | 2012-01-13 | 2012-01-20 | 1 | 8 |", "score": 0.4419, "match_basis": "verbatim_token+domain_route:EX"}, {"md_atom_id": "md_dmEX_ex_a267", "md_file": "knowledge_base/domains/EX/examples.md", "md_atom_type": "TABLE_ROW", "md_parent_section": "§EX.8 [Example 8]", "md_verbatim": "| 2 | ABC | EC | ABC7001 | 2 | BOTTLE A | EXCEPTION DOSE | Y | N | | TABLET | QD | TREATMENT | 2012-01-15 | 2012-01-15 | 3 | 3 |", "score": 0.4361, "match_basis": "verbatim_token+domain_route:EX"}, {"md_atom_id": "md_dmEX_ex_a268", "md_file": "knowledge_base/domains/EX/examples.md", "md_atom_type": "TABLE_ROW", "md_parent_section": "§EX.8 [Example 8]", "md_verbatim": "| 3 | ABC | EC | ABC7001 | 3 | BOTTLE A | EXCEPTION DOSE | Y | Y | 2 | TABLET | QD | TREATMENT | 2012-01-16 | 2012-01-16 | 4 | 4 |", "score": 0.4361, "match_basis": "verbatim_token+domain_route:EX"}, {"md_atom_id": "md_dmEX_ex_a225", "md_file": "knowledge_base/domains/EX/examples.md", "md_atom_type": "TABLE_ROW", "md_parent_section": "§EX.7 [Example 7]", "md_verbatim": "| 3 | ABC123 | EC | ABC123-0201 | 3 | | V2 | DRUG Z | SCHEDULED | | | | 7.5 | mg/kg | | | Dose limiting toxicity | VISIT TREATMENT | 2 | VISIT 2 | 2009-02-20 | 2009-02-20 | 8 | 8 |", "score": 0.4323, "match_basis": "verbatim_token+domain_route:EX"}], "candidate_count": 5, "zero_candidate": false}
{"pdf_atom_id": "ig34_p0104_a023", "pdf_atom_type": "TABLE_ROW", "pdf_source": "SDTMIG_v3.4", "pdf_page": 104, "pdf_parent_section": "§6.1.3.1 [Exposure (EX)]", "pdf_verbatim": "EXDOSFRM | Dose Form | Char | (FRM) | Variable Qualifier | Dose form for EXTRT. Example: \"TABLET\", \"LOTION\".", "figure_ref": null, "candidates": [{"md_atom_id": "md_dmEX_ex_a267", "md_file": "knowledge_base/domains/EX/examples.md", "md_atom_type": "TABLE_ROW", "md_parent_section": "§EX.8 [Example 8]", "md_verbatim": "| 2 | ABC | EC | ABC7001 | 2 | BOTTLE A | EXCEPTION DOSE | Y | N | | TABLET | QD | TREATMENT | 2012-01-15 | 2012-01-15 | 3 | 3 |", "score": 0.4787, "match_basis": "verbatim_token+domain_route:EX"}, {"md_atom_id": "md_dmEX_ex_a268", "md_file": "knowledge_base/domains/EX/examples.md", "md_atom_type": "TABLE_ROW", "md_parent_section": "§EX.8 [Example 8]", "md_verbatim": "| 3 | ABC | EC | ABC7001 | 3 | BOTTLE A | EXCEPTION DOSE | Y | Y | 2 | TABLET | QD | TREATMENT | 2012-01-16 | 2012-01-16 | 4 | 4 |", "score": 0.4787, "match_basis": "verbatim_token+domain_route:EX"}, {"md_atom_id": "md_dmEX_ex_a266", "md_file": "knowledge_base/domains/EX/examples.md", "md_atom_type": "TABLE_ROW", "md_parent_section": "§EX.8 [Example 8]", "md_verbatim": "| 1 | ABC | EC | ABC7001 | 1 | BOTTLE A | FIRST TO LAST DOSE INTERVAL | Y | Y | 1 | TABLET | QD | TREATMENT | 2012-01-13 | 2012-01-20 | 1 | 8 |", "score": 0.4537, "match_basis": "verbatim_token+domain_route:EX"}, {"md_atom_id": "md_dmEX_ex_a026", "md_file": "knowledge_base/domains/EX/examples.md", "md_atom_type": "TABLE_ROW", "md_parent_section": "§EX.1 [Example 1]", "md_verbatim": "| 1 | ABC | EX | ABC1001 | 1 | A2-20110114 | DRUG X | 1000 | mg | TABLET, EXTENDED RELEASE | QD | ORAL | TREATMENT | 2011-01-14 | 2011-01-28 | 1 | 15 |", "score": 0.4429, "match_basis": "verbatim_token+domain_route:EX"}, {"md_atom_id": "md_dmEX_ex_a076", "md_file": "knowledge_base/domains/EX/examples.md", "md_atom_type": "TABLE_ROW", "md_parent_section": "§EX.3 [Example 3]", "md_verbatim": "| 1 | ABC | EC | ABC4001 | 1 | BOTTLE A | Y | Y | 1 | TABLET | QD | TREATMENT | 2011-01-14 | 2011-01-28 | 1 | 15 |", "score": 0.4429, "match_basis": "verbatim_token+domain_route:EX"}], "candidate_count": 5, "zero_candidate": false}
{"pdf_atom_id": "ig34_p0104_a024", "pdf_atom_type": "TABLE_ROW", "pdf_source": "SDTMIG_v3.4", "pdf_page": 104, "pdf_parent_section": "§6.1.3.1 [Exposure (EX)]", "pdf_verbatim": "EXDOSFRQ | Dosing Frequency per Interval | Char | (FREQ) | Record Qualifier | Usually expressed as the number of repeated administrations of EXDOSE within a specific time period. Examples: \"QDH\", \"QD\", \"BID\".", "figure_ref": null, "candidates": [{"md_atom_id": "md_dmEX_ex_a210", "md_file": "knowledge_base/domains/EX/examples.md", "md_atom_type": "TABLE_ROW", "md_parent_section": "§EX.7 [Example 7]", "md_verbatim": "| Dose Administered | Yes | Yes | Yes |", "score": 0.4551, "match_basis": "verbatim_token+domain_route:EX"}, {"md_atom_id": "md_dmEX_ex_a266", "md_file": "knowledge_base/domains/EX/examples.md", "md_atom_type": "TABLE_ROW", "md_parent_section": "§EX.8 [Example 8]", "md_verbatim": "| 1 | ABC | EC | ABC7001 | 1 | BOTTLE A | FIRST TO LAST DOSE INTERVAL | Y | Y | 1 | TABLET | QD | TREATMENT | 2012-01-13 | 2012-01-20 | 1 | 8 |", "score": 0.445, "match_basis": "verbatim_token+domain_route:EX"}, {"md_atom_id": "md_dmEX_ex_a216", "md_file": "knowledge_base/domains/EX/examples.md", "md_atom_type": "TABLE_ROW", "md_parent_section": "§EX.7 [Example 7]", "md_verbatim": "| If dose was adjusted, what was the reason | | Injection site reaction | Injection site reaction / Personal reason |", "score": 0.4353, "match_basis": "verbatim_token+domain_route:EX"}, {"md_atom_id": "md_dmEX_ex_a215", "md_file": "knowledge_base/domains/EX/examples.md", "md_atom_type": "TABLE_ROW", "md_parent_section": "§EX.7 [Example 7]", "md_verbatim": "| Concentration | 5.5 mg/mL | 4.12 mg/mL | 4.12 mg/mL |", "score": 0.43, "match_basis": "verbatim_token+domain_route:EX"}, {"md_atom_id": "md_dmEX_ex_a056", "md_file": "knowledge_base/domains/EX/examples.md", "md_atom_type": "TABLE_ROW", "md_parent_section": "§EX.2 [Example 2]", "md_verbatim": "| 2 | ABC | EC | ABC3001 | 2 | INJ2 | V3 | DRUG X | Y | Y | 5 | mL | INJECTION | ONCE | SUBCUTANEOUS | ABDOMINAL CAVITY | CENTER | VISIT 3 | TREATMENT | 2009-05-10 | 2009-05-10 | 21 | 21 |", "score": 0.4255, "match_basis": "verbatim_token+domain_route:EX"}], "candidate_count": 5, "zero_candidate": false}
{"pdf_atom_id": "ig34_p0104_a025", "pdf_atom_type": "TABLE_ROW", "pdf_source": "SDTMIG_v3.4", "pdf_page": 104, "pdf_parent_section": "§6.1.3.1 [Exposure (EX)]", "pdf_verbatim": "EXDOSRGM | Intended Dose Regimen | Char | | Record Qualifier | Text description of the intended schedule or regimen for the intervention. Example: \"TWO WEEKS ON, TWO WEEKS OFF\".", "figure_ref": null, "candidates": [{"md_atom_id": "md_dmEX_ex_a208", "md_file": "knowledge_base/domains/EX/examples.md", "md_atom_type": "TABLE_ROW", "md_parent_section": "§EX.7 [Example 7]", "md_verbatim": "| Intended Dose | 10 mg/kg | 10 mg/kg / 7.5 mg/kg | 10 mg/kg / 7.5 mg/kg |", "score": 0.4727, "match_basis": "verbatim_token+domain_route:EX"}, {"md_atom_id": "md_dmEX_ex_a225", "md_file": "knowledge_base/domains/EX/examples.md", "md_atom_type": "TABLE_ROW", "md_parent_section": "§EX.7 [Example 7]", "md_verbatim": "| 3 | ABC123 | EC | ABC123-0201 | 3 | | V2 | DRUG Z | SCHEDULED | | | | 7.5 | mg/kg | | | Dose limiting toxicity | VISIT TREATMENT | 2 | VISIT 2 | 2009-02-20 | 2009-02-20 | 8 | 8 |", "score": 0.4619, "match_basis": "verbatim_token+domain_route:EX"}, {"md_atom_id": "md_dmEX_ex_a223", "md_file": "knowledge_base/domains/EX/examples.md", "md_atom_type": "TABLE_ROW", "md_parent_section": "§EX.7 [Example 7]", "md_verbatim": "| 1 | ABC123 | EC | ABC123-0201 | 1 | | V1 | DRUG Z | SCHEDULED | | | | 10 | mg/kg | | | | VISIT TREATMENT | 1 | VISIT 1 | 2009-02-13 | 2009-02-13 | 1 | 1 |", "score": 0.4565, "match_basis": "verbatim_token+domain_route:EX"}, {"md_atom_id": "md_dmEX_ex_a227", "md_file": "knowledge_base/domains/EX/examples.md", "md_atom_type": "TABLE_ROW", "md_parent_section": "§EX.7 [Example 7]", "md_verbatim": "| 5 | ABC123 | EC | ABC123-0201 | 5 | | V3 | DRUG Z | SCHEDULED | | | | 7.5 | mg/kg | | | | VISIT TREATMENT | 3 | VISIT 3 | 2009-02-27 | 2009-02-27 | 15 | 15 |", "score": 0.4565, "match_basis": "verbatim_token+domain_route:EX"}, {"md_atom_id": "md_dmEX_ex_a266", "md_file": "knowledge_base/domains/EX/examples.md", "md_atom_type": "TABLE_ROW", "md_parent_section": "§EX.8 [Example 8]", "md_verbatim": "| 1 | ABC | EC | ABC7001 | 1 | BOTTLE A | FIRST TO LAST DOSE INTERVAL | Y | Y | 1 | TABLET | QD | TREATMENT | 2012-01-13 | 2012-01-20 | 1 | 8 |", "score": 0.4516, "match_basis": "verbatim_token+domain_route:EX"}], "candidate_count": 5, "zero_candidate": false}
{"pdf_atom_id": "ig34_p0104_a026", "pdf_atom_type": "TABLE_ROW", "pdf_source": "SDTMIG_v3.4", "pdf_page": 104, "pdf_parent_section": "§6.1.3.1 [Exposure (EX)]", "pdf_verbatim": "EXROUTE | Route of Administration | Char | (ROUTE) | Variable Qualifier | Route of administration for the intervention. Examples: \"ORAL\", \"INTRAVENOUS\".", "figure_ref": null, "candidates": [{"md_atom_id": "md_dmEX_ex_a234", "md_file": "knowledge_base/domains/EX/examples.md", "md_atom_type": "TABLE_ROW", "md_parent_section": "§EX.7 [Example 7]", "md_verbatim": "| 1 | ABC123 | EX | ABC123-0201 | 1 | 20090213T1000 | V1 | DRUG Z | 9.9 | mg/kg | SOLUTION | CONTINUOUS | INTRAVENOUS | | 1 | VISIT 1 | TREATMENT | 2009-02-13T10:00 | 2009-02-13T10:00 | 1 | 1 |", "score": 0.483, "match_basis": "verbatim_token+domain_route:EX"}, {"md_atom_id": "md_dmEX_ex_a235", "md_file": "knowledge_base/domains/EX/examples.md", "md_atom_type": "TABLE_ROW", "md_parent_section": "§EX.7 [Example 7]", "md_verbatim": "| 2 | ABC123 | EX | ABC123-0201 | 2 | 20090220T1100 | V2 | DRUG Z | 2.6 | mg/kg | SOLUTION | CONTINUOUS | INTRAVENOUS | Injection site reaction | 2 | VISIT 2 | TREATMENT | 2009-02-20T11:00 | 2009-02-20T11:00 | 8 | 8 |", "score": 0.4765, "match_basis": "verbatim_token+domain_route:EX"}, {"md_atom_id": "md_dmEX_ex_a215", "md_file": "knowledge_base/domains/EX/examples.md", "md_atom_type": "TABLE_ROW", "md_parent_section": "§EX.7 [Example 7]", "md_verbatim": "| Concentration | 5.5 mg/mL | 4.12 mg/mL | 4.12 mg/mL |", "score": 0.47, "match_basis": "verbatim_token+domain_route:EX"}, {"md_atom_id": "md_dmEX_ex_a210", "md_file": "knowledge_base/domains/EX/examples.md", "md_atom_type": "TABLE_ROW", "md_parent_section": "§EX.7 [Example 7]", "md_verbatim": "| Dose Administered | Yes | Yes | Yes |", "score": 0.4677, "match_basis": "verbatim_token+domain_route:EX"}, {"md_atom_id": "md_dmEX_ex_a266", "md_file": "knowledge_base/domains/EX/examples.md", "md_atom_type": "TABLE_ROW", "md_parent_section": "§EX.8 [Example 8]", "md_verbatim": "| 1 | ABC | EC | ABC7001 | 1 | BOTTLE A | FIRST TO LAST DOSE INTERVAL | Y | Y | 1 | TABLET | QD | TREATMENT | 2012-01-13 | 2012-01-20 | 1 | 8 |", "score": 0.45, "match_basis": "verbatim_token+domain_route:EX"}], "candidate_count": 5, "zero_candidate": false}
{"pdf_atom_id": "ig34_p0104_a027", "pdf_atom_type": "TABLE_ROW", "pdf_source": "SDTMIG_v3.4", "pdf_page": 104, "pdf_parent_section": "§6.1.3.1 [Exposure (EX)]", "pdf_verbatim": "EXLOT | Lot Number | Char | | Record Qualifier | Lot number of the intervention product.", "figure_ref": null, "candidates": [{"md_atom_id": "md_dmEX_assn_a023", "md_file": "knowledge_base/domains/EX/assumptions.md", "md_atom_type": "LIST_ITEM", "md_parent_section": "§EX [EX — Assumptions]", "md_verbatim": "6. Additional interventions qualifiers", "score": 0.4518, "match_basis": "verbatim_token+domain_route:EX"}, {"md_atom_id": "md_dmEX_ex_a047", "md_file": "knowledge_base/domains/EX/examples.md", "md_atom_type": "TABLE_ROW", "md_parent_section": "§EX.2 [Example 2]", "md_verbatim": "| Side | CENTER |", "score": 0.4462, "match_basis": "verbatim_token+domain_route:EX"}, {"md_atom_id": "md_dmEX_ex_a266", "md_file": "knowledge_base/domains/EX/examples.md", "md_atom_type": "TABLE_ROW", "md_parent_section": "§EX.8 [Example 8]", "md_verbatim": "| 1 | ABC | EC | ABC7001 | 1 | BOTTLE A | FIRST TO LAST DOSE INTERVAL | Y | Y | 1 | TABLET | QD | TREATMENT | 2012-01-13 | 2012-01-20 | 1 | 8 |", "score": 0.4455, "match_basis": "verbatim_token+domain_route:EX"}, {"md_atom_id": "md_dmEX_ex_a234", "md_file": "knowledge_base/domains/EX/examples.md", "md_atom_type": "TABLE_ROW", "md_parent_section": "§EX.7 [Example 7]", "md_verbatim": "| 1 | ABC123 | EX | ABC123-0201 | 1 | 20090213T1000 | V1 | DRUG Z | 9.9 | mg/kg | SOLUTION | CONTINUOUS | INTRAVENOUS | | 1 | VISIT 1 | TREATMENT | 2009-02-13T10:00 | 2009-02-13T10:00 | 1 | 1 |", "score": 0.4444, "match_basis": "verbatim_token+domain_route:EX"}, {"md_atom_id": "md_dmEX_ex_a215", "md_file": "knowledge_base/domains/EX/examples.md", "md_atom_type": "TABLE_ROW", "md_parent_section": "§EX.7 [Example 7]", "md_verbatim": "| Concentration | 5.5 mg/mL | 4.12 mg/mL | 4.12 mg/mL |", "score": 0.4409, "match_basis": "verbatim_token+domain_route:EX"}], "candidate_count": 5, "zero_candidate": false}
{"pdf_atom_id": "ig34_p0104_a028", "pdf_atom_type": "TABLE_ROW", "pdf_source": "SDTMIG_v3.4", "pdf_page": 104, "pdf_parent_section": "§6.1.3.1 [Exposure (EX)]", "pdf_verbatim": "EXLOC | Location of Dose Administration | Char | (LOC) | Record Qualifier | Specifies location of administration. Examples: \"ARM\", \"LIP\".", "figure_ref": null, "candidates": [{"md_atom_id": "md_dmEX_ex_a210", "md_file": "knowledge_base/domains/EX/examples.md", "md_atom_type": "TABLE_ROW", "md_parent_section": "§EX.7 [Example 7]", "md_verbatim": "| Dose Administered | Yes | Yes | Yes |", "score": 0.496, "match_basis": "verbatim_token+domain_route:EX"}, {"md_atom_id": "md_dmEX_ex_a042", "md_file": "knowledge_base/domains/EX/examples.md", "md_atom_type": "TABLE_ROW", "md_parent_section": "§EX.2 [Example 2]", "md_verbatim": "| Location | ABDOMEN |", "score": 0.472, "match_basis": "verbatim_token+domain_route:EX"}, {"md_atom_id": "md_dmEX_ex_a046", "md_file": "knowledge_base/domains/EX/examples.md", "md_atom_type": "TABLE_ROW", "md_parent_section": "§EX.2 [Example 2]", "md_verbatim": "| Location | ABDOMEN |", "score": 0.472, "match_basis": "verbatim_token+domain_route:EX"}, {"md_atom_id": "md_dmEX_ex_a050", "md_file": "knowledge_base/domains/EX/examples.md", "md_atom_type": "TABLE_ROW", "md_parent_section": "§EX.2 [Example 2]", "md_verbatim": "| Location | ABDOMEN |", "score": 0.472, "match_basis": "verbatim_token+domain_route:EX"}, {"md_atom_id": "md_dmEX_ex_a215", "md_file": "knowledge_base/domains/EX/examples.md", "md_atom_type": "TABLE_ROW", "md_parent_section": "§EX.7 [Example 7]", "md_verbatim": "| Concentration | 5.5 mg/mL | 4.12 mg/mL | 4.12 mg/mL |", "score": 0.4588, "match_basis": "verbatim_token+domain_route:EX"}], "candidate_count": 5, "zero_candidate": false}
{"pdf_atom_id": "ig34_p0104_a029", "pdf_atom_type": "TABLE_ROW", "pdf_source": "SDTMIG_v3.4", "pdf_page": 104, "pdf_parent_section": "§6.1.3.1 [Exposure (EX)]", "pdf_verbatim": "EXLAT | Laterality | Char | (LAT) | Variable Qualifier | Qualifier for anatomical location further detailing laterality of the intervention administration. Examples: \"LEFT\", \"RIGHT\".", "figure_ref": null, "candidates": [{"md_atom_id": "md_dmEX_ex_a210", "md_file": "knowledge_base/domains/EX/examples.md", "md_atom_type": "TABLE_ROW", "md_parent_section": "§EX.7 [Example 7]", "md_verbatim": "| Dose Administered | Yes | Yes | Yes |", "score": 0.45, "match_basis": "verbatim_token+domain_route:EX"}, {"md_atom_id": "md_dmEX_ex_a057", "md_file": "knowledge_base/domains/EX/examples.md", "md_atom_type": "TABLE_ROW", "md_parent_section": "§EX.2 [Example 2]", "md_verbatim": "| 3 | ABC | EC | ABC3001 | 3 | INJ3 | V3 | DRUG X | Y | Y | 5 | mL | INJECTION | ONCE | SUBCUTANEOUS | ABDOMINAL CAVITY | RIGHT | VISIT 3 | TREATMENT | 2009-05-10 | 2009-05-10 | 21 | 21 |", "score": 0.4443, "match_basis": "verbatim_token+domain_route:EX"}, {"md_atom_id": "md_dmEX_ex_a042", "md_file": "knowledge_base/domains/EX/examples.md", "md_atom_type": "TABLE_ROW", "md_parent_section": "§EX.2 [Example 2]", "md_verbatim": "| Location | ABDOMEN |", "score": 0.4434, "match_basis": "verbatim_token+domain_route:EX"}, {"md_atom_id": "md_dmEX_ex_a046", "md_file": "knowledge_base/domains/EX/examples.md", "md_atom_type": "TABLE_ROW", "md_parent_section": "§EX.2 [Example 2]", "md_verbatim": "| Location | ABDOMEN |", "score": 0.4434, "match_basis": "verbatim_token+domain_route:EX"}, {"md_atom_id": "md_dmEX_ex_a050", "md_file": "knowledge_base/domains/EX/examples.md", "md_atom_type": "TABLE_ROW", "md_parent_section": "§EX.2 [Example 2]", "md_verbatim": "| Location | ABDOMEN |", "score": 0.4434, "match_basis": "verbatim_token+domain_route:EX"}], "candidate_count": 5, "zero_candidate": false}
{"pdf_atom_id": "ig34_p0105_a001", "pdf_atom_type": "TABLE_ROW", "pdf_source": "SDTMIG_v3.4", "pdf_page": 105, "pdf_parent_section": "§6.1.3.1 [Exposure (EX)]", "pdf_verbatim": "EXDIR | Directionality | Char | (DIR) | Variable Qualifier | Qualifier for anatomical location further detailing directionality. Examples: \"ANTERIOR\", \"LOWER\", \"PROXIMAL\", \"UPPER\".", "figure_ref": null, "candidates": [{"md_atom_id": "md_dmEX_ex_a216", "md_file": "knowledge_base/domains/EX/examples.md", "md_atom_type": "TABLE_ROW", "md_parent_section": "§EX.7 [Example 7]", "md_verbatim": "| If dose was adjusted, what was the reason | | Injection site reaction | Injection site reaction / Personal reason |", "score": 0.4475, "match_basis": "verbatim_token+domain_route:EX"}, {"md_atom_id": "md_dmEX_ex_a056", "md_file": "knowledge_base/domains/EX/examples.md", "md_atom_type": "TABLE_ROW", "md_parent_section": "§EX.2 [Example 2]", "md_verbatim": "| 2 | ABC | EC | ABC3001 | 2 | INJ2 | V3 | DRUG X | Y | Y | 5 | mL | INJECTION | ONCE | SUBCUTANEOUS | ABDOMINAL CAVITY | CENTER | VISIT 3 | TREATMENT | 2009-05-10 | 2009-05-10 | 21 | 21 |", "score": 0.4446, "match_basis": "verbatim_token+domain_route:EX"}, {"md_atom_id": "md_dmEX_ex_a042", "md_file": "knowledge_base/domains/EX/examples.md", "md_atom_type": "TABLE_ROW", "md_parent_section": "§EX.2 [Example 2]", "md_verbatim": "| Location | ABDOMEN |", "score": 0.4439, "match_basis": "verbatim_token+domain_route:EX"}, {"md_atom_id": "md_dmEX_ex_a046", "md_file": "knowledge_base/domains/EX/examples.md", "md_atom_type": "TABLE_ROW", "md_parent_section": "§EX.2 [Example 2]", "md_verbatim": "| Location | ABDOMEN |", "score": 0.4439, "match_basis": "verbatim_token+domain_route:EX"}, {"md_atom_id": "md_dmEX_ex_a050", "md_file": "knowledge_base/domains/EX/examples.md", "md_atom_type": "TABLE_ROW", "md_parent_section": "§EX.2 [Example 2]", "md_verbatim": "| Location | ABDOMEN |", "score": 0.4439, "match_basis": "verbatim_token+domain_route:EX"}], "candidate_count": 5, "zero_candidate": false}
{"pdf_atom_id": "ig34_p0105_a002", "pdf_atom_type": "TABLE_ROW", "pdf_source": "SDTMIG_v3.4", "pdf_page": 105, "pdf_parent_section": "§6.1.3.1 [Exposure (EX)]", "pdf_verbatim": "EXFAST | Fasting Status | Char | (NY) | Record Qualifier | Indicator used to identify fasting status. Examples: \"Y\", \"N\".", "figure_ref": null, "candidates": [{"md_atom_id": "md_dmEX_ex_a209", "md_file": "knowledge_base/domains/EX/examples.md", "md_atom_type": "TABLE_ROW", "md_parent_section": "§EX.7 [Example 7]", "md_verbatim": "| Reason for Dose Adjustment | | Dose-limiting toxicity | Dose-limiting toxicity |", "score": 0.4261, "match_basis": "verbatim_token+domain_route:EX"}, {"md_atom_id": "md_dmEX_ex_a047", "md_file": "knowledge_base/domains/EX/examples.md", "md_atom_type": "TABLE_ROW", "md_parent_section": "§EX.2 [Example 2]", "md_verbatim": "| Side | CENTER |", "score": 0.4245, "match_basis": "verbatim_token+domain_route:EX"}, {"md_atom_id": "md_dmEX_ex_a192", "md_file": "knowledge_base/domains/EX/examples.md", "md_atom_type": "TABLE_ROW", "md_parent_section": "§EX.6 [Example 6]", "md_verbatim": "| 1 | 56789 | EX | 56789001 | 1 | DRUG A | 20 | mg | CAPSULE | QD | ORAL | TREATMENT 1 | 2002-07-01 | 2002-07-03 | 1 | 3 | 30 MINUTES PRIOR | STD BREAKFAST |", "score": 0.4222, "match_basis": "verbatim_token+domain_route:EX"}, {"md_atom_id": "md_dmEX_ex_a198", "md_file": "knowledge_base/domains/EX/examples.md", "md_atom_type": "TABLE_ROW", "md_parent_section": "§EX.6 [Example 6]", "md_verbatim": "| 7 | 56789 | EX | 56789003 | 3 | DRUG A | 20 | mg | CAPSULE | QD | ORAL | TREATMENT 2 | 2002-07-11 | 2002-07-13 | 9 | 11 | 30 MINUTES PRIOR | STD BREAKFAST |", "score": 0.4222, "match_basis": "verbatim_token+domain_route:EX"}, {"md_atom_id": "md_dmEX_ex_a012", "md_file": "knowledge_base/domains/EX/examples.md", "md_atom_type": "TABLE_ROW", "md_parent_section": "§EX.1 [Example 1]", "md_verbatim": "| A | 0 | Patient mistake | 2011-01-24 | 2011-01-24 |", "score": 0.4218, "match_basis": "verbatim_token+domain_route:EX"}], "candidate_count": 5, "zero_candidate": false}
{"pdf_atom_id": "ig34_p0105_a003", "pdf_atom_type": "TABLE_ROW", "pdf_source": "SDTMIG_v3.4", "pdf_page": 105, "pdf_parent_section": "§6.1.3.1 [Exposure (EX)]", "pdf_verbatim": "EXADJ | Reason for Dose Adjustment | Char | | Record Qualifier | Describes reason for dose is adjusted.", "figure_ref": null, "candidates": [{"md_atom_id": "md_dmEX_ex_a209", "md_file": "knowledge_base/domains/EX/examples.md", "md_atom_type": "TABLE_ROW", "md_parent_section": "§EX.7 [Example 7]", "md_verbatim": "| Reason for Dose Adjustment | | Dose-limiting toxicity | Dose-limiting toxicity |", "score": 0.5765, "match_basis": "verbatim_token+domain_route:EX"}, {"md_atom_id": "md_dmEX_ex_a216", "md_file": "knowledge_base/domains/EX/examples.md", "md_atom_type": "TABLE_ROW", "md_parent_section": "§EX.7 [Example 7]", "md_verbatim": "| If dose was adjusted, what was the reason | | Injection site reaction | Injection site reaction / Personal reason |", "score": 0.522, "match_basis": "verbatim_token+domain_route:EX"}, {"md_atom_id": "md_dmEX_ex_a228", "md_file": "knowledge_base/domains/EX/examples.md", "md_atom_type": "TABLE_ROW", "md_parent_section": "§EX.7 [Example 7]", "md_verbatim": "| 6 | ABC123 | EC | ABC123-0201 | 6 | 20090227 | V3 | DRUG Z | PERFORMED | Y | N | PERSONAL REASON | | mL | 4.12 | mg/mL | | VISIT TREATMENT | 3 | VISIT 3 | 2009-02-27 | 2009-02-27 | 15 | 15 |", "score": 0.4696, "match_basis": "verbatim_token+domain_route:EX"}, {"md_atom_id": "md_dmEX_ex_a267", "md_file": "knowledge_base/domains/EX/examples.md", "md_atom_type": "TABLE_ROW", "md_parent_section": "§EX.8 [Example 8]", "md_verbatim": "| 2 | ABC | EC | ABC7001 | 2 | BOTTLE A | EXCEPTION DOSE | Y | N | | TABLET | QD | TREATMENT | 2012-01-15 | 2012-01-15 | 3 | 3 |", "score": 0.4562, "match_basis": "verbatim_token+domain_route:EX"}, {"md_atom_id": "md_dmEX_ex_a268", "md_file": "knowledge_base/domains/EX/examples.md", "md_atom_type": "TABLE_ROW", "md_parent_section": "§EX.8 [Example 8]", "md_verbatim": "| 3 | ABC | EC | ABC7001 | 3 | BOTTLE A | EXCEPTION DOSE | Y | Y | 2 | TABLET | QD | TREATMENT | 2012-01-16 | 2012-01-16 | 4 | 4 |", "score": 0.4562, "match_basis": "verbatim_token+domain_route:EX"}], "candidate_count": 5, "zero_candidate": false}
{"pdf_atom_id": "ig34_p0105_a004", "pdf_atom_type": "TABLE_ROW", "pdf_source": "SDTMIG_v3.4", "pdf_page": 105, "pdf_parent_section": "§6.1.3.1 [Exposure (EX)]", "pdf_verbatim": "TAETORD | Planned Order of Element within Arm | Num | | Timing | Number that gives the planned order of the element within the arm.", "figure_ref": null, "candidates": [{"md_atom_id": "md_dmEX_ex_a209", "md_file": "knowledge_base/domains/EX/examples.md", "md_atom_type": "TABLE_ROW", "md_parent_section": "§EX.7 [Example 7]", "md_verbatim": "| Reason for Dose Adjustment | | Dose-limiting toxicity | Dose-limiting toxicity |", "score": 0.4407, "match_basis": "verbatim_token+domain_route:EX"}, {"md_atom_id": "md_dmEX_ex_a225", "md_file": "knowledge_base/domains/EX/examples.md", "md_atom_type": "TABLE_ROW", "md_parent_section": "§EX.7 [Example 7]", "md_verbatim": "| 3 | ABC123 | EC | ABC123-0201 | 3 | | V2 | DRUG Z | SCHEDULED | | | | 7.5 | mg/kg | | | Dose limiting toxicity | VISIT TREATMENT | 2 | VISIT 2 | 2009-02-20 | 2009-02-20 | 8 | 8 |", "score": 0.4329, "match_basis": "verbatim_token+domain_route:EX"}, {"md_atom_id": "md_dmEX_ex_a195", "md_file": "knowledge_base/domains/EX/examples.md", "md_atom_type": "TABLE_ROW", "md_parent_section": "§EX.6 [Example 6]", "md_verbatim": "| 4 | 56789 | EX | 56789001 | 4 | PLACEBO | 0 | mg | CAPSULE | QD | ORAL | TREATMENT 2 | 2002-07-09 | 2002-07-11 | 9 | 11 | 30 MINUTES PRIOR | STD BREAKFAST |", "score": 0.4324, "match_basis": "verbatim_token+domain_route:EX"}, {"md_atom_id": "md_dmEX_ex_a196", "md_file": "knowledge_base/domains/EX/examples.md", "md_atom_type": "TABLE_ROW", "md_parent_section": "§EX.6 [Example 6]", "md_verbatim": "| 5 | 56789 | EX | 56789003 | 1 | PLACEBO | 0 | mg | CAPSULE | QD | ORAL | TREATMENT 1 | 2002-07-03 | 2002-07-05 | 1 | 3 | 30 MINUTES PRIOR | STD BREAKFAST |", "score": 0.4324, "match_basis": "verbatim_token+domain_route:EX"}, {"md_atom_id": "md_dmEX_ex_a193", "md_file": "knowledge_base/domains/EX/examples.md", "md_atom_type": "TABLE_ROW", "md_parent_section": "§EX.6 [Example 6]", "md_verbatim": "| 2 | 56789 | EX | 56789001 | 2 | PLACEBO | 0 | mg | TABLET, COATED | QD | ORAL | TREATMENT 1 | 2002-07-01 | 2002-07-03 | 1 | 3 | 30 MINUTES PRIOR | STD BREAKFAST |", "score": 0.4312, "match_basis": "verbatim_token+domain_route:EX"}], "candidate_count": 5, "zero_candidate": false}
{"pdf_atom_id": "ig34_p0105_a005", "pdf_atom_type": "TABLE_ROW", "pdf_source": "SDTMIG_v3.4", "pdf_page": 105, "pdf_parent_section": "§6.1.3.1 [Exposure (EX)]", "pdf_verbatim": "EPOCH | Epoch | Char | (EPOCH) | Timing | Trial epoch of the exposure record. Examples: \"RUN-IN\", \"TREATMENT\".", "figure_ref": null, "candidates": [{"md_atom_id": "md_dmEX_ex_a076", "md_file": "knowledge_base/domains/EX/examples.md", "md_atom_type": "TABLE_ROW", "md_parent_section": "§EX.3 [Example 3]", "md_verbatim": "| 1 | ABC | EC | ABC4001 | 1 | BOTTLE A | Y | Y | 1 | TABLET | QD | TREATMENT | 2011-01-14 | 2011-01-28 | 1 | 15 |", "score": 0.4808, "match_basis": "verbatim_token+domain_route:EX"}, {"md_atom_id": "md_dmEX_ex_a077", "md_file": "knowledge_base/domains/EX/examples.md", "md_atom_type": "TABLE_ROW", "md_parent_section": "§EX.3 [Example 3]", "md_verbatim": "| 2 | ABC | EC | ABC4001 | 2 | BOTTLE C | Y | Y | 1 | TABLET | QD | TREATMENT | 2011-01-14 | 2011-01-28 | 1 | 15 |", "score": 0.4808, "match_basis": "verbatim_token+domain_route:EX"}, {"md_atom_id": "md_dmEX_ex_a078", "md_file": "knowledge_base/domains/EX/examples.md", "md_atom_type": "TABLE_ROW", "md_parent_section": "§EX.3 [Example 3]", "md_verbatim": "| 3 | ABC | EC | ABC4001 | 3 | BOTTLE B | Y | Y | 1 | TABLET | QD | TREATMENT | 2011-01-14 | 2011-01-20 | 1 | 7 |", "score": 0.4808, "match_basis": "verbatim_token+domain_route:EX"}, {"md_atom_id": "md_dmEX_ex_a079", "md_file": "knowledge_base/domains/EX/examples.md", "md_atom_type": "TABLE_ROW", "md_parent_section": "§EX.3 [Example 3]", "md_verbatim": "| 4 | ABC | EC | ABC4001 | 4 | BOTTLE B | Y | N | | TABLET | QD | TREATMENT | 2011-01-21 | 2011-01-21 | 8 | 8 |", "score": 0.4808, "match_basis": "verbatim_token+domain_route:EX"}, {"md_atom_id": "md_dmEX_ex_a080", "md_file": "knowledge_base/domains/EX/examples.md", "md_atom_type": "TABLE_ROW", "md_parent_section": "§EX.3 [Example 3]", "md_verbatim": "| 5 | ABC | EC | ABC4001 | 5 | BOTTLE B | Y | Y | 2 | TABLET | QD | TREATMENT | 2011-01-22 | 2011-01-22 | 9 | 9 |", "score": 0.4808, "match_basis": "verbatim_token+domain_route:EX"}], "candidate_count": 5, "zero_candidate": false}
{"pdf_atom_id": "ig34_p0105_a006", "pdf_atom_type": "TABLE_ROW", "pdf_source": "SDTMIG_v3.4", "pdf_page": 105, "pdf_parent_section": "§6.1.3.1 [Exposure (EX)]", "pdf_verbatim": "EXSTDTC | Start Date/Time of Treatment | Char | ISO 8601 datetime or interval | Timing | The datetime when administration of the treatment indicated by EXTRT and EXDOSE began.", "figure_ref": null, "candidates": [{"md_atom_id": "md_dmEX_ex_a266", "md_file": "knowledge_base/domains/EX/examples.md", "md_atom_type": "TABLE_ROW", "md_parent_section": "§EX.8 [Example 8]", "md_verbatim": "| 1 | ABC | EC | ABC7001 | 1 | BOTTLE A | FIRST TO LAST DOSE INTERVAL | Y | Y | 1 | TABLET | QD | TREATMENT | 2012-01-13 | 2012-01-20 | 1 | 8 |", "score": 0.5047, "match_basis": "verbatim_token+domain_route:EX"}, {"md_atom_id": "md_dmEX_ex_a210", "md_file": "knowledge_base/domains/EX/examples.md", "md_atom_type": "TABLE_ROW", "md_parent_section": "§EX.7 [Example 7]", "md_verbatim": "| Dose Administered | Yes | Yes | Yes |", "score": 0.4771, "match_basis": "verbatim_token+domain_route:EX"}, {"md_atom_id": "md_dmEX_ex_a267", "md_file": "knowledge_base/domains/EX/examples.md", "md_atom_type": "TABLE_ROW", "md_parent_section": "§EX.8 [Example 8]", "md_verbatim": "| 2 | ABC | EC | ABC7001 | 2 | BOTTLE A | EXCEPTION DOSE | Y | N | | TABLET | QD | TREATMENT | 2012-01-15 | 2012-01-15 | 3 | 3 |", "score": 0.4767, "match_basis": "verbatim_token+domain_route:EX"}, {"md_atom_id": "md_dmEX_ex_a268", "md_file": "knowledge_base/domains/EX/examples.md", "md_atom_type": "TABLE_ROW", "md_parent_section": "§EX.8 [Example 8]", "md_verbatim": "| 3 | ABC | EC | ABC7001 | 3 | BOTTLE A | EXCEPTION DOSE | Y | Y | 2 | TABLET | QD | TREATMENT | 2012-01-16 | 2012-01-16 | 4 | 4 |", "score": 0.4767, "match_basis": "verbatim_token+domain_route:EX"}, {"md_atom_id": "md_dmEX_ex_a225", "md_file": "knowledge_base/domains/EX/examples.md", "md_atom_type": "TABLE_ROW", "md_parent_section": "§EX.7 [Example 7]", "md_verbatim": "| 3 | ABC123 | EC | ABC123-0201 | 3 | | V2 | DRUG Z | SCHEDULED | | | | 7.5 | mg/kg | | | Dose limiting toxicity | VISIT TREATMENT | 2 | VISIT 2 | 2009-02-20 | 2009-02-20 | 8 | 8 |", "score": 0.4688, "match_basis": "verbatim_token+domain_route:EX"}], "candidate_count": 5, "zero_candidate": false}
{"pdf_atom_id": "ig34_p0105_a007", "pdf_atom_type": "TABLE_ROW", "pdf_source": "SDTMIG_v3.4", "pdf_page": 105, "pdf_parent_section": "§6.1.3.1 [Exposure (EX)]", "pdf_verbatim": "EXENDTC | End Date/Time of Treatment | Char | ISO 8601 datetime or interval | Timing | The datetime when administration of the treatment was considered given at a point in time (e.g., oral tablet, pre-filled syringe injection), where an end date is not available the start date/time should be used for EXSTDTC as the standard representation.", "figure_ref": null, "candidates": [{"md_atom_id": "md_dmEX_assn_a021", "md_file": "knowledge_base/domains/EX/assumptions.md", "md_atom_type": "LIST_ITEM", "md_parent_section": "§EX [EX — Assumptions]", "md_verbatim": "   b. For administrations considered given at a point in time (e.g., oral tablet, pre-filled syringe injection), where only an administration date/time is collected, EXSTDTC should be copied to EXENDTC as the standard representation.", "score": 0.6168, "match_basis": "verbatim_token+domain_route:EX"}, {"md_atom_id": "md_dmEX_ex_a266", "md_file": "knowledge_base/domains/EX/examples.md", "md_atom_type": "TABLE_ROW", "md_parent_section": "§EX.8 [Example 8]", "md_verbatim": "| 1 | ABC | EC | ABC7001 | 1 | BOTTLE A | FIRST TO LAST DOSE INTERVAL | Y | Y | 1 | TABLET | QD | TREATMENT | 2012-01-13 | 2012-01-20 | 1 | 8 |", "score": 0.4779, "match_basis": "verbatim_token+domain_route:EX"}, {"md_atom_id": "md_dmEX_ex_a056", "md_file": "knowledge_base/domains/EX/examples.md", "md_atom_type": "TABLE_ROW", "md_parent_section": "§EX.2 [Example 2]", "md_verbatim": "| 2 | ABC | EC | ABC3001 | 2 | INJ2 | V3 | DRUG X | Y | Y | 5 | mL | INJECTION | ONCE | SUBCUTANEOUS | ABDOMINAL CAVITY | CENTER | VISIT 3 | TREATMENT | 2009-05-10 | 2009-05-10 | 21 | 21 |", "score": 0.473, "match_basis": "verbatim_token+domain_route:EX"}, {"md_atom_id": "md_dmEX_ex_a235", "md_file": "knowledge_base/domains/EX/examples.md", "md_atom_type": "TABLE_ROW", "md_parent_section": "§EX.7 [Example 7]", "md_verbatim": "| 2 | ABC123 | EX | ABC123-0201 | 2 | 20090220T1100 | V2 | DRUG Z | 2.6 | mg/kg | SOLUTION | CONTINUOUS | INTRAVENOUS | Injection site reaction | 2 | VISIT 2 | TREATMENT | 2009-02-20T11:00 | 2009-02-20T11:00 | 8 | 8 |", "score": 0.4701, "match_basis": "verbatim_token+domain_route:EX"}, {"md_atom_id": "md_dmEX_ex_a194", "md_file": "knowledge_base/domains/EX/examples.md", "md_atom_type": "TABLE_ROW", "md_parent_section": "§EX.6 [Example 6]", "md_verbatim": "| 3 | 56789 | EX | 56789001 | 3 | DRUG B | 30 | mg | TABLET, COATED | QD | ORAL | TREATMENT 2 | 2002-07-09 | 2002-07-11 | 9 | 11 | 30 MINUTES PRIOR | STD BREAKFAST |", "score": 0.4691, "match_basis": "verbatim_token+domain_route:EX"}], "candidate_count": 5, "zero_candidate": false}
{"pdf_atom_id": "ig34_p0105_a008", "pdf_atom_type": "TABLE_ROW", "pdf_source": "SDTMIG_v3.4", "pdf_page": 105, "pdf_parent_section": "§6.1.3.1 [Exposure (EX)]", "pdf_verbatim": "EXSTDY | Study Day of Start of Treatment | Num | | Timing | Study day of EXSTDTC relative to DM.RFSTDTC.", "figure_ref": null, "candidates": [{"md_atom_id": "md_dmEX_ex_a021", "md_file": "knowledge_base/domains/EX/examples.md", "md_atom_type": "TABLE_ROW", "md_parent_section": "§EX.1 [Example 1]", "md_verbatim": "| 3 | ABC | EC | ABC2001 | 2 | A0-20110124 | BOTTLE A | Y | N | PATIENT MISTAKE | | TABLET | QD | TREATMENT | 2011-01-24 | 2011-01-24 | 11 | 11 |", "score": 0.4915, "match_basis": "verbatim_token+domain_route:EX"}, {"md_atom_id": "md_dmEX_ex_a076", "md_file": "knowledge_base/domains/EX/examples.md", "md_atom_type": "TABLE_ROW", "md_parent_section": "§EX.3 [Example 3]", "md_verbatim": "| 1 | ABC | EC | ABC4001 | 1 | BOTTLE A | Y | Y | 1 | TABLET | QD | TREATMENT | 2011-01-14 | 2011-01-28 | 1 | 15 |", "score": 0.4875, "match_basis": "verbatim_token+domain_route:EX"}, {"md_atom_id": "md_dmEX_ex_a077", "md_file": "knowledge_base/domains/EX/examples.md", "md_atom_type": "TABLE_ROW", "md_parent_section": "§EX.3 [Example 3]", "md_verbatim": "| 2 | ABC | EC | ABC4001 | 2 | BOTTLE C | Y | Y | 1 | TABLET | QD | TREATMENT | 2011-01-14 | 2011-01-28 | 1 | 15 |", "score": 0.4875, "match_basis": "verbatim_token+domain_route:EX"}, {"md_atom_id": "md_dmEX_ex_a078", "md_file": "knowledge_base/domains/EX/examples.md", "md_atom_type": "TABLE_ROW", "md_parent_section": "§EX.3 [Example 3]", "md_verbatim": "| 3 | ABC | EC | ABC4001 | 3 | BOTTLE B | Y | Y | 1 | TABLET | QD | TREATMENT | 2011-01-14 | 2011-01-20 | 1 | 7 |", "score": 0.4875, "match_basis": "verbatim_token+domain_route:EX"}, {"md_atom_id": "md_dmEX_ex_a079", "md_file": "knowledge_base/domains/EX/examples.md", "md_atom_type": "TABLE_ROW", "md_parent_section": "§EX.3 [Example 3]", "md_verbatim": "| 4 | ABC | EC | ABC4001 | 4 | BOTTLE B | Y | N | | TABLET | QD | TREATMENT | 2011-01-21 | 2011-01-21 | 8 | 8 |", "score": 0.4875, "match_basis": "verbatim_token+domain_route:EX"}], "candidate_count": 5, "zero_candidate": false}
{"pdf_atom_id": "ig34_p0105_a009", "pdf_atom_type": "TABLE_ROW", "pdf_source": "SDTMIG_v3.4", "pdf_page": 105, "pdf_parent_section": "§6.1.3.1 [Exposure (EX)]", "pdf_verbatim": "EXENDY | Study Day of End of Treatment | Num | | Timing | Study day of EXENDTC relative to DM.RFSTDTC.", "figure_ref": null, "candidates": [{"md_atom_id": "md_dmEX_ex_a026", "md_file": "knowledge_base/domains/EX/examples.md", "md_atom_type": "TABLE_ROW", "md_parent_section": "§EX.1 [Example 1]", "md_verbatim": "| 1 | ABC | EX | ABC1001 | 1 | A2-20110114 | DRUG X | 1000 | mg | TABLET, EXTENDED RELEASE | QD | ORAL | TREATMENT | 2011-01-14 | 2011-01-28 | 1 | 15 |", "score": 0.49, "match_basis": "verbatim_token+domain_route:EX"}, {"md_atom_id": "md_dmEX_ex_a076", "md_file": "knowledge_base/domains/EX/examples.md", "md_atom_type": "TABLE_ROW", "md_parent_section": "§EX.3 [Example 3]", "md_verbatim": "| 1 | ABC | EC | ABC4001 | 1 | BOTTLE A | Y | Y | 1 | TABLET | QD | TREATMENT | 2011-01-14 | 2011-01-28 | 1 | 15 |", "score": 0.4894, "match_basis": "verbatim_token+domain_route:EX"}, {"md_atom_id": "md_dmEX_ex_a077", "md_file": "knowledge_base/domains/EX/examples.md", "md_atom_type": "TABLE_ROW", "md_parent_section": "§EX.3 [Example 3]", "md_verbatim": "| 2 | ABC | EC | ABC4001 | 2 | BOTTLE C | Y | Y | 1 | TABLET | QD | TREATMENT | 2011-01-14 | 2011-01-28 | 1 | 15 |", "score": 0.4894, "match_basis": "verbatim_token+domain_route:EX"}, {"md_atom_id": "md_dmEX_ex_a078", "md_file": "knowledge_base/domains/EX/examples.md", "md_atom_type": "TABLE_ROW", "md_parent_section": "§EX.3 [Example 3]", "md_verbatim": "| 3 | ABC | EC | ABC4001 | 3 | BOTTLE B | Y | Y | 1 | TABLET | QD | TREATMENT | 2011-01-14 | 2011-01-20 | 1 | 7 |", "score": 0.4894, "match_basis": "verbatim_token+domain_route:EX"}, {"md_atom_id": "md_dmEX_ex_a079", "md_file": "knowledge_base/domains/EX/examples.md", "md_atom_type": "TABLE_ROW", "md_parent_section": "§EX.3 [Example 3]", "md_verbatim": "| 4 | ABC | EC | ABC4001 | 4 | BOTTLE B | Y | N | | TABLET | QD | TREATMENT | 2011-01-21 | 2011-01-21 | 8 | 8 |", "score": 0.4894, "match_basis": "verbatim_token+domain_route:EX"}], "candidate_count": 5, "zero_candidate": false}
{"pdf_atom_id": "ig34_p0105_a010", "pdf_atom_type": "TABLE_ROW", "pdf_source": "SDTMIG_v3.4", "pdf_page": 105, "pdf_parent_section": "§6.1.3.1 [Exposure (EX)]", "pdf_verbatim": "EXDUR | Duration of Treatment | Char | ISO 8601 duration | Timing | Collected duration of administration. Used only if collected on the CRF and not derived from start and end datetimes.", "figure_ref": null, "candidates": [{"md_atom_id": "md_dmEX_ex_a021", "md_file": "knowledge_base/domains/EX/examples.md", "md_atom_type": "TABLE_ROW", "md_parent_section": "§EX.1 [Example 1]", "md_verbatim": "| 3 | ABC | EC | ABC2001 | 2 | A0-20110124 | BOTTLE A | Y | N | PATIENT MISTAKE | | TABLET | QD | TREATMENT | 2011-01-24 | 2011-01-24 | 11 | 11 |", "score": 0.4682, "match_basis": "verbatim_token+domain_route:EX"}, {"md_atom_id": "md_dmEX_ex_a267", "md_file": "knowledge_base/domains/EX/examples.md", "md_atom_type": "TABLE_ROW", "md_parent_section": "§EX.8 [Example 8]", "md_verbatim": "| 2 | ABC | EC | ABC7001 | 2 | BOTTLE A | EXCEPTION DOSE | Y | N | | TABLET | QD | TREATMENT | 2012-01-15 | 2012-01-15 | 3 | 3 |", "score": 0.4635, "match_basis": "verbatim_token+domain_route:EX"}, {"md_atom_id": "md_dmEX_ex_a268", "md_file": "knowledge_base/domains/EX/examples.md", "md_atom_type": "TABLE_ROW", "md_parent_section": "§EX.8 [Example 8]", "md_verbatim": "| 3 | ABC | EC | ABC7001 | 3 | BOTTLE A | EXCEPTION DOSE | Y | Y | 2 | TABLET | QD | TREATMENT | 2012-01-16 | 2012-01-16 | 4 | 4 |", "score": 0.4635, "match_basis": "verbatim_token+domain_route:EX"}, {"md_atom_id": "md_dmEX_ex_a055", "md_file": "knowledge_base/domains/EX/examples.md", "md_atom_type": "TABLE_ROW", "md_parent_section": "§EX.2 [Example 2]", "md_verbatim": "| 1 | ABC | EC | ABC3001 | 1 | INJ1 | V3 | DRUG X | Y | Y | 5 | mL | INJECTION | ONCE | SUBCUTANEOUS | ABDOMINAL CAVITY | LEFT | VISIT 3 | TREATMENT | 2009-05-10 | 2009-05-10 | 21 | 21 |", "score": 0.4635, "match_basis": "verbatim_token+domain_route:EX"}, {"md_atom_id": "md_dmEX_ex_a061", "md_file": "knowledge_base/domains/EX/examples.md", "md_atom_type": "TABLE_ROW", "md_parent_section": "§EX.2 [Example 2]", "md_verbatim": "| 1 | ABC | EX | ABC3001 | 1 | | V3 | DRUG X | 3 | mg/kg | INJECTION | ONCE | SUBCUTANEOUS | ABDOMEN | 3 | VISIT 3 | TREATMENT | 2009-05-10 | 2009-05-10 | 21 | 21 |", "score": 0.4632, "match_basis": "verbatim_token+domain_route:EX"}], "candidate_count": 5, "zero_candidate": false}
{"pdf_atom_id": "ig34_p0105_a011", "pdf_atom_type": "TABLE_ROW", "pdf_source": "SDTMIG_v3.4", "pdf_page": 105, "pdf_parent_section": "§6.1.3.1 [Exposure (EX)]", "pdf_verbatim": "EXTPT | Planned Time Point Name | Char | | Timing | Text description of time when administration should occur. This may be represented as an elapsed time relative to a fixed reference point, such as meal. See EXPTPREF and EXTPTREF.", "figure_ref": null, "candidates": [{"md_atom_id": "md_dmEX_ex_a215", "md_file": "knowledge_base/domains/EX/examples.md", "md_atom_type": "TABLE_ROW", "md_parent_section": "§EX.7 [Example 7]", "md_verbatim": "| Concentration | 5.5 mg/mL | 4.12 mg/mL | 4.12 mg/mL |", "score": 0.4442, "match_basis": "verbatim_token+domain_route:EX"}, {"md_atom_id": "md_dmEX_ex_a210", "md_file": "knowledge_base/domains/EX/examples.md", "md_atom_type": "TABLE_ROW", "md_parent_section": "§EX.7 [Example 7]", "md_verbatim": "| Dose Administered | Yes | Yes | Yes |", "score": 0.4433, "match_basis": "verbatim_token+domain_route:EX"}, {"md_atom_id": "md_dmEX_ex_a056", "md_file": "knowledge_base/domains/EX/examples.md", "md_atom_type": "TABLE_ROW", "md_parent_section": "§EX.2 [Example 2]", "md_verbatim": "| 2 | ABC | EC | ABC3001 | 2 | INJ2 | V3 | DRUG X | Y | Y | 5 | mL | INJECTION | ONCE | SUBCUTANEOUS | ABDOMINAL CAVITY | CENTER | VISIT 3 | TREATMENT | 2009-05-10 | 2009-05-10 | 21 | 21 |", "score": 0.4307, "match_basis": "verbatim_token+domain_route:EX"}, {"md_atom_id": "md_dmEX_ex_a234", "md_file": "knowledge_base/domains/EX/examples.md", "md_atom_type": "TABLE_ROW", "md_parent_section": "§EX.7 [Example 7]", "md_verbatim": "| 1 | ABC123 | EX | ABC123-0201 | 1 | 20090213T1000 | V1 | DRUG Z | 9.9 | mg/kg | SOLUTION | CONTINUOUS | INTRAVENOUS | | 1 | VISIT 1 | TREATMENT | 2009-02-13T10:00 | 2009-02-13T10:00 | 1 | 1 |", "score": 0.4265, "match_basis": "verbatim_token+domain_route:EX"}, {"md_atom_id": "md_dmEX_ex_a055", "md_file": "knowledge_base/domains/EX/examples.md", "md_atom_type": "TABLE_ROW", "md_parent_section": "§EX.2 [Example 2]", "md_verbatim": "| 1 | ABC | EC | ABC3001 | 1 | INJ1 | V3 | DRUG X | Y | Y | 5 | mL | INJECTION | ONCE | SUBCUTANEOUS | ABDOMINAL CAVITY | LEFT | VISIT 3 | TREATMENT | 2009-05-10 | 2009-05-10 | 21 | 21 |", "score": 0.4263, "match_basis": "verbatim_token+domain_route:EX"}], "candidate_count": 5, "zero_candidate": false}
{"pdf_atom_id": "ig34_p0105_a012", "pdf_atom_type": "TABLE_ROW", "pdf_source": "SDTMIG_v3.4", "pdf_page": 105, "pdf_parent_section": "§6.1.3.1 [Exposure (EX)]", "pdf_verbatim": "EXTPTNUM | Planned Time Point Number | Num | | Timing | Numerical version of EXTPT to aid in sorting.", "figure_ref": null, "candidates": [{"md_atom_id": "md_dmEX_ex_a108", "md_file": "knowledge_base/domains/EX/examples.md", "md_atom_type": "TABLE_HEADER", "md_parent_section": "§EX.5 [Example 5]", "md_verbatim": "| Bottle | Time Point | Number of Tablets Taken | Start Date | End Date |\n|--------|------------|-------------------------|------------|----------|", "score": 0.4364, "match_basis": "verbatim_token+domain_route:EX"}, {"md_atom_id": "md_dmEX_ex_a112", "md_file": "knowledge_base/domains/EX/examples.md", "md_atom_type": "TABLE_HEADER", "md_parent_section": "§EX.5 [Example 5]", "md_verbatim": "| Bottle | Time Point | Number of Tablets Taken | Start Date | End Date |\n|--------|------------|-------------------------|------------|----------|", "score": 0.4364, "match_basis": "verbatim_token+domain_route:EX"}, {"md_atom_id": "md_dmEX_ex_a116", "md_file": "knowledge_base/domains/EX/examples.md", "md_atom_type": "TABLE_HEADER", "md_parent_section": "§EX.5 [Example 5]", "md_verbatim": "| Bottle | Time Point | Number of Tablets Taken | Start Date | End Date |\n|--------|------------|-------------------------|------------|----------|", "score": 0.4364, "match_basis": "verbatim_token+domain_route:EX"}, {"md_atom_id": "md_dmEX_ex_a209", "md_file": "knowledge_base/domains/EX/examples.md", "md_atom_type": "TABLE_ROW", "md_parent_section": "§EX.7 [Example 7]", "md_verbatim": "| Reason for Dose Adjustment | | Dose-limiting toxicity | Dose-limiting toxicity |", "score": 0.429, "match_basis": "verbatim_token+domain_route:EX"}, {"md_atom_id": "md_dmEX_ex_a213", "md_file": "knowledge_base/domains/EX/examples.md", "md_atom_type": "TABLE_ROW", "md_parent_section": "§EX.7 [Example 7]", "md_verbatim": "| End Time (24 hour clock) | 10:45 | 11:20 | |", "score": 0.4273, "match_basis": "verbatim_token+domain_route:EX"}], "candidate_count": 5, "zero_candidate": false}
{"pdf_atom_id": "ig34_p0105_a013", "pdf_atom_type": "TABLE_ROW", "pdf_source": "SDTMIG_v3.4", "pdf_page": 105, "pdf_parent_section": "§6.1.3.1 [Exposure (EX)]", "pdf_verbatim": "EXELTM | Planned Elapsed Time from Time Point Ref | Char | ISO 8601 duration | Timing | Planned elapsed time relative to the planned fixed reference point (EXTPREF). This variable is useful where there are repetitive administrations. Not a clock time.", "figure_ref": null, "candidates": [{"md_atom_id": "md_dmEX_ex_a210", "md_file": "knowledge_base/domains/EX/examples.md", "md_atom_type": "TABLE_ROW", "md_parent_section": "§EX.7 [Example 7]", "md_verbatim": "| Dose Administered | Yes | Yes | Yes |", "score": 0.4452, "match_basis": "verbatim_token+domain_route:EX"}, {"md_atom_id": "md_dmEX_ex_a215", "md_file": "knowledge_base/domains/EX/examples.md", "md_atom_type": "TABLE_ROW", "md_parent_section": "§EX.7 [Example 7]", "md_verbatim": "| Concentration | 5.5 mg/mL | 4.12 mg/mL | 4.12 mg/mL |", "score": 0.4391, "match_basis": "verbatim_token+domain_route:EX"}, {"md_atom_id": "md_dmEX_ex_a213", "md_file": "knowledge_base/domains/EX/examples.md", "md_atom_type": "TABLE_ROW", "md_parent_section": "§EX.7 [Example 7]", "md_verbatim": "| End Time (24 hour clock) | 10:45 | 11:20 | |", "score": 0.4333, "match_basis": "verbatim_token+domain_route:EX"}, {"md_atom_id": "md_dmEX_ex_a212", "md_file": "knowledge_base/domains/EX/examples.md", "md_atom_type": "TABLE_ROW", "md_parent_section": "§EX.7 [Example 7]", "md_verbatim": "| Start Time (24 hour clock) | 10:00 | 11:00 | |", "score": 0.4326, "match_basis": "verbatim_token+domain_route:EX"}, {"md_atom_id": "md_dmEX_ex_a150", "md_file": "knowledge_base/domains/EX/examples.md", "md_atom_type": "TABLE_ROW", "md_parent_section": "§EX.6 [Example 6]", "md_verbatim": "| Day | Bottle 1 # of capsules | Bottle 2 # of tablets | Start Date/Time | End Date/Time | Day | Bottle 1 # of capsules | Bottle 2 # of tablets | Start Date/Time | End Date/Time |", "score": 0.4283, "match_basis": "verbatim_token+domain_route:EX"}], "candidate_count": 5, "zero_candidate": false}
{"pdf_atom_id": "ig34_p0105_a014", "pdf_atom_type": "TABLE_ROW", "pdf_source": "SDTMIG_v3.4", "pdf_page": 105, "pdf_parent_section": "§6.1.3.1 [Exposure (EX)]", "pdf_verbatim": "EXTPREF | Time Point Reference | Char | | Timing | Name of the fixed reference point referred to by EXELTM, EXTPTNUM, and EXTPT. Examples: PREVIOUS DOSE, PREVIOUS MEAL.", "figure_ref": null, "candidates": [{"md_atom_id": "md_dmEX_ex_a210", "md_file": "knowledge_base/domains/EX/examples.md", "md_atom_type": "TABLE_ROW", "md_parent_section": "§EX.7 [Example 7]", "md_verbatim": "| Dose Administered | Yes | Yes | Yes |", "score": 0.4484, "match_basis": "verbatim_token+domain_route:EX"}, {"md_atom_id": "md_dmEX_ex_a209", "md_file": "knowledge_base/domains/EX/examples.md", "md_atom_type": "TABLE_ROW", "md_parent_section": "§EX.7 [Example 7]", "md_verbatim": "| Reason for Dose Adjustment | | Dose-limiting toxicity | Dose-limiting toxicity |", "score": 0.4312, "match_basis": "verbatim_token+domain_route:EX"}, {"md_atom_id": "md_dmEX_ex_a208", "md_file": "knowledge_base/domains/EX/examples.md", "md_atom_type": "TABLE_ROW", "md_parent_section": "§EX.7 [Example 7]", "md_verbatim": "| Intended Dose | 10 mg/kg | 10 mg/kg / 7.5 mg/kg | 10 mg/kg / 7.5 mg/kg |", "score": 0.4305, "match_basis": "verbatim_token+domain_route:EX"}, {"md_atom_id": "md_dmEX_ex_a225", "md_file": "knowledge_base/domains/EX/examples.md", "md_atom_type": "TABLE_ROW", "md_parent_section": "§EX.7 [Example 7]", "md_verbatim": "| 3 | ABC123 | EC | ABC123-0201 | 3 | | V2 | DRUG Z | SCHEDULED | | | | 7.5 | mg/kg | | | Dose limiting toxicity | VISIT TREATMENT | 2 | VISIT 2 | 2009-02-20 | 2009-02-20 | 8 | 8 |", "score": 0.4264, "match_basis": "verbatim_token+domain_route:EX"}, {"md_atom_id": "md_dmEX_ex_a150", "md_file": "knowledge_base/domains/EX/examples.md", "md_atom_type": "TABLE_ROW", "md_parent_section": "§EX.6 [Example 6]", "md_verbatim": "| Day | Bottle 1 # of capsules | Bottle 2 # of tablets | Start Date/Time | End Date/Time | Day | Bottle 1 # of capsules | Bottle 2 # of tablets | Start Date/Time | End Date/Time |", "score": 0.424, "match_basis": "verbatim_token+domain_route:EX"}], "candidate_count": 5, "zero_candidate": false}
{"pdf_atom_id": "ig34_p0105_a015", "pdf_atom_type": "TABLE_ROW", "pdf_source": "SDTMIG_v3.4", "pdf_page": 105, "pdf_parent_section": "§6.1.3.1 [Exposure (EX)]", "pdf_verbatim": "EXRFDTC | Date/Time of Reference Time Point | Char | ISO 8601 datetime or interval | Timing | Date/time for a fixed reference time point defined by EXTPREF.", "figure_ref": null, "candidates": [{"md_atom_id": "md_dmEX_ex_a266", "md_file": "knowledge_base/domains/EX/examples.md", "md_atom_type": "TABLE_ROW", "md_parent_section": "§EX.8 [Example 8]", "md_verbatim": "| 1 | ABC | EC | ABC7001 | 1 | BOTTLE A | FIRST TO LAST DOSE INTERVAL | Y | Y | 1 | TABLET | QD | TREATMENT | 2012-01-13 | 2012-01-20 | 1 | 8 |", "score": 0.4474, "match_basis": "verbatim_token+domain_route:EX"}, {"md_atom_id": "md_dmEX_ex_a150", "md_file": "knowledge_base/domains/EX/examples.md", "md_atom_type": "TABLE_ROW", "md_parent_section": "§EX.6 [Example 6]", "md_verbatim": "| Day | Bottle 1 # of capsules | Bottle 2 # of tablets | Start Date/Time | End Date/Time | Day | Bottle 1 # of capsules | Bottle 2 # of tablets | Start Date/Time | End Date/Time |", "score": 0.4358, "match_basis": "verbatim_token+domain_route:EX"}, {"md_atom_id": "md_dmEX_ex_a156", "md_file": "knowledge_base/domains/EX/examples.md", "md_atom_type": "TABLE_ROW", "md_parent_section": "§EX.6 [Example 6]", "md_verbatim": "| Day | Bottle 1 # of capsules | Bottle 2 # of tablets | Start Date/Time | End Date/Time | Day | Bottle 1 # of capsules | Bottle 2 # of tablets | Start Date/Time | End Date/Time |", "score": 0.4358, "match_basis": "verbatim_token+domain_route:EX"}, {"md_atom_id": "md_dmEX_ex_a210", "md_file": "knowledge_base/domains/EX/examples.md", "md_atom_type": "TABLE_ROW", "md_parent_section": "§EX.7 [Example 7]", "md_verbatim": "| Dose Administered | Yes | Yes | Yes |", "score": 0.4316, "match_basis": "verbatim_token+domain_route:EX"}, {"md_atom_id": "md_dmEX_ex_a209", "md_file": "knowledge_base/domains/EX/examples.md", "md_atom_type": "TABLE_ROW", "md_parent_section": "§EX.7 [Example 7]", "md_verbatim": "| Reason for Dose Adjustment | | Dose-limiting toxicity | Dose-limiting toxicity |", "score": 0.4254, "match_basis": "verbatim_token+domain_route:EX"}], "candidate_count": 5, "zero_candidate": false}
{"pdf_atom_id": "ig34_p0105_a016", "pdf_atom_type": "NOTE", "pdf_source": "SDTMIG_v3.4", "pdf_page": 105, "pdf_parent_section": "§6.1.3.1 [Exposure (EX)]", "pdf_verbatim": "In this column, an asterisk (*) indicates that the variable may be subject to controlled terminology. CDISC/NCI codelist values are enclosed in parentheses.", "figure_ref": null, "candidates": [{"md_atom_id": "md_dmEX_ex_a231", "md_file": "knowledge_base/domains/EX/examples.md", "md_atom_type": "SENTENCE", "md_parent_section": "§EX.7 [Example 7]", "md_verbatim": "**Row 2:** Shows the subject's second dose. The collected explanation for the adjusted dose amount administered at visit 2 is in EXADJ.", "score": 0.3863, "match_basis": "verbatim_token+domain_route:EX"}, {"md_atom_id": "md_dmEX_ex_a119", "md_file": "knowledge_base/domains/EX/examples.md", "md_atom_type": "SENTENCE", "md_parent_section": "§EX.5 [Example 5]", "md_verbatim": "The EC dataset shows the administrations as collected. The time-point variables ECTPT and ECTPTNUM were used to describe the time of day of administration. This use of time-point variables is novel, representing data about multiple time points, 1 on each day of administration, rather than data for a single time point.", "score": 0.385, "match_basis": "verbatim_token+domain_route:EX"}, {"md_atom_id": "md_dmEX_ex_a035", "md_file": "knowledge_base/domains/EX/examples.md", "md_atom_type": "SENTENCE", "md_parent_section": "§EX.2 [Example 2]", "md_verbatim": "This example shows data from an open-label study. A subject received drug X as a 20 mg/mL solution administered across 3 injection sites to deliver a total dose of 3 mg/kg. The subject's weight was 100 kg.", "score": 0.3839, "match_basis": "verbatim_token+domain_route:EX"}, {"md_atom_id": "md_dmEX_ex_a058", "md_file": "knowledge_base/domains/EX/examples.md", "md_atom_type": "SENTENCE", "md_parent_section": "§EX.2 [Example 2]", "md_verbatim": "The sponsor considered the 3 injections to constitute a single administration, so the EX dataset shows the total dose given in the protocol-specified unit, mg/kg. EXLOC = \"ABDOMEN\" is included because the location was common to all injections, but EXLAT was not included. If the sponsor had chosen to represent laterality in the EX record, this would have been handled as described in Section 4.2.8.3, Multiple Values for a Non-result Qualifier Variable.", "score": 0.3836, "match_basis": "verbatim_token+domain_route:EX"}, {"md_atom_id": "md_dmEX_ex_a161", "md_file": "knowledge_base/domains/EX/examples.md", "md_atom_type": "SENTENCE", "md_parent_section": "§EX.6 [Example 6]", "md_verbatim": "**Rows 1-12:** Unblinding revealed that subject 56789001 received placebo-coated tablets during the first treatment epoch and placebo capsules during the second treatment epoch.", "score": 0.3791, "match_basis": "verbatim_token+domain_route:EX"}], "candidate_count": 5, "zero_candidate": false}
{"pdf_atom_id": "ig34_p0105_a017", "pdf_atom_type": "HEADING", "pdf_source": "SDTMIG_v3.4", "pdf_page": 105, "pdf_parent_section": "§6.1.3.1 [Exposure (EX)]", "pdf_verbatim": "EX – Assumptions", "figure_ref": null, "candidates": [{"md_atom_id": "md_dmEX_assn_a001", "md_file": "knowledge_base/domains/EX/assumptions.md", "md_atom_type": "HEADING", "md_parent_section": "§EX [EX — Assumptions]", "md_verbatim": "# EX — Assumptions", "score": 1.0, "match_basis": "verbatim_token+domain_route:EX"}, {"md_atom_id": "md_dmEX_ex_a001", "md_file": "knowledge_base/domains/EX/examples.md", "md_atom_type": "HEADING", "md_parent_section": "§EX [EX — Examples]", "md_verbatim": "# EX — Examples", "score": 0.4, "match_basis": "verbatim_token+domain_route:EX"}, {"md_atom_id": "md_dmEX_ex_a003", "md_file": "knowledge_base/domains/EX/examples.md", "md_atom_type": "HEADING", "md_parent_section": "§EX [EX — Examples]", "md_verbatim": "## Example 1", "score": 0.4, "match_basis": "verbatim_token+domain_route:EX"}, {"md_atom_id": "md_dmEX_ex_a034", "md_file": "knowledge_base/domains/EX/examples.md", "md_atom_type": "HEADING", "md_parent_section": "§EX [EX — Examples]", "md_verbatim": "## Example 2", "score": 0.4, "match_basis": "verbatim_token+domain_route:EX"}, {"md_atom_id": "md_dmEX_ex_a067", "md_file": "knowledge_base/domains/EX/examples.md", "md_atom_type": "HEADING", "md_parent_section": "§EX [EX — Examples]", "md_verbatim": "## Example 3", "score": 0.4, "match_basis": "verbatim_token+domain_route:EX"}], "candidate_count": 5, "zero_candidate": false}
{"pdf_atom_id": "ig34_p0105_a018", "pdf_atom_type": "LIST_ITEM", "pdf_source": "SDTMIG_v3.4", "pdf_page": 105, "pdf_parent_section": "§6.1.3.1 [Exposure (EX)]", "pdf_verbatim": "EX structure and use", "figure_ref": null, "candidates": [{"md_atom_id": "md_dmEX_assn_a002", "md_file": "knowledge_base/domains/EX/assumptions.md", "md_atom_type": "LIST_ITEM", "md_parent_section": "§EX [EX — Assumptions]", "md_verbatim": "1. EX structure and use", "score": 1.0, "match_basis": "verbatim_token+domain_route:EX"}, {"md_atom_id": "md_dmEX_ex_a069", "md_file": "knowledge_base/domains/EX/examples.md", "md_atom_type": "LIST_ITEM", "md_parent_section": "§EX.3 [Example 3]", "md_verbatim": "- 1 tablet from bottles A, B and C from 2011-01-14 to 2011-01-20", "score": 0.4273, "match_basis": "verbatim_token+domain_route:EX"}, {"md_atom_id": "md_dmEX_ex_a071", "md_file": "knowledge_base/domains/EX/examples.md", "md_atom_type": "LIST_ITEM", "md_parent_section": "§EX.3 [Example 3]", "md_verbatim": "- 1 tablet from bottles A and C on 2011-01-21 and 2011-01-22", "score": 0.4273, "match_basis": "verbatim_token+domain_route:EX"}, {"md_atom_id": "md_dmEX_ex_a072", "md_file": "knowledge_base/domains/EX/examples.md", "md_atom_type": "LIST_ITEM", "md_parent_section": "§EX.3 [Example 3]", "md_verbatim": "- 1 tablet from bottles A, B and C from 2011-01-23 to 2011-01-28", "score": 0.4273, "match_basis": "verbatim_token+domain_route:EX"}, {"md_atom_id": "md_dmEX_assn_a006", "md_file": "knowledge_base/domains/EX/assumptions.md", "md_atom_type": "LIST_ITEM", "md_parent_section": "§EX [EX — Assumptions]", "md_verbatim": "      i. Derived from actual observation of the administration of drug by the investigator", "score": 0.4245, "match_basis": "verbatim_token+domain_route:EX"}], "candidate_count": 5, "zero_candidate": false}
{"pdf_atom_id": "ig34_p0105_a019", "pdf_atom_type": "LIST_ITEM", "pdf_source": "SDTMIG_v3.4", "pdf_page": 105, "pdf_parent_section": "§6.1.3.1 [Exposure (EX)]", "pdf_verbatim": "Examples of treatments represented in the EX domain include but are not limited to placebo, active comparators, and investigational products. Treatments that are not protocol-specified should be represented in the Concomitant/Prior Medications (CM) or another Interventions domain as appropriate.", "figure_ref": null, "candidates": [{"md_atom_id": "md_dmEX_assn_a003", "md_file": "knowledge_base/domains/EX/assumptions.md", "md_atom_type": "LIST_ITEM", "md_parent_section": "§EX [EX — Assumptions]", "md_verbatim": "   a. Examples of treatments represented in the EX domain include but are not limited to placebo, active comparators, and investigational products. Treatments that are not protocol-specified should be represented in the Concomitant/Prior Medications (CM) or another Interventions domain as appropriate.", "score": 1.0, "match_basis": "verbatim_token+domain_route:EX"}, {"md_atom_id": "md_dmEX_assn_a018", "md_file": "knowledge_base/domains/EX/assumptions.md", "md_atom_type": "LIST_ITEM", "md_parent_section": "§EX [EX — Assumptions]", "md_verbatim": "   a. EXCAT and EXSCAT may be used when appropriate to categorize treatments into categories and subcategories. For example, if a study contains several active comparator medications, EXCAT may be set to \"ACTIVE COMPARATOR\". Such categorization may not be useful in all studies, so these variables are permissible.", "score": 0.5668, "match_basis": "verbatim_token+domain_route:EX"}, {"md_atom_id": "md_dmEX_assn_a011", "md_file": "knowledge_base/domains/EX/assumptions.md", "md_atom_type": "LIST_ITEM", "md_parent_section": "§EX [EX — Assumptions]", "md_verbatim": "   d. The EX domain should contain 1 record per constant-dosing interval per subject. Sponsors define the constant-dosing interval, which may include any period of time that can be described in terms of a known treatment given at a consistent dose, frequency, infusion rate, and so on. For example, for a study with once-a-week administration of a standard dose for 6 weeks, exposure may be represented as:", "score": 0.5453, "match_basis": "verbatim_token+domain_route:EX"}, {"md_atom_id": "md_dmEX_assn_a015", "md_file": "knowledge_base/domains/EX/assumptions.md", "md_atom_type": "LIST_ITEM", "md_parent_section": "§EX [EX — Assumptions]", "md_verbatim": "   a. EXTRT captures the name of the protocol-specified study treatment and is the topic variable. It is a required variable and must have a value. EXTRT must include only the treatment name and must not include dosage, formulation, or other qualifying information. For example, \"ASPIRIN 100MG TABLET\" is not a valid value for EXTRT. This example should be expressed as EXTRT = \"ASPIRIN\", EXDOSE = \"100\", EXDOSU = \"mg\", and EXDOSFRM = \"TABLET\".", "score": 0.5286, "match_basis": "verbatim_token+domain_route:EX"}, {"md_atom_id": "md_dmEX_assn_a020", "md_file": "knowledge_base/domains/EX/assumptions.md", "md_atom_type": "LIST_ITEM", "md_parent_section": "§EX [EX — Assumptions]", "md_verbatim": "   a. The timing of exposure to study treatment is captured by the start/end date and start/end time of each constant-dosing interval. If the subject is only exposed to study medication within a clinical encounter (e.g., if an injection is administered at the clinic), VISITNUM may be added to the domain as an additional timing variable. VISITDY and VISIT would then also be permissible qualifiers. However, if the beginning and end of a constant-dosing interval is not confined within the time limits of a clinical encounter (e.g., if a subject takes pills at home), then it is not appropriate to include VISITNUM in the EX domain. This is because EX is designed to capture the timing of exposure to treatment, not the timing of dispensing treatment. Further, VISITNUM should not be used to indicate that treatment began at a particular visit and continued for a period of time. The SDTM does not have any provision for recording \"start visit\" and \"end visit\" of exposure.", "score": 0.5263, "match_basis": "verbatim_token+domain_route:EX"}], "candidate_count": 5, "zero_candidate": false}
{"pdf_atom_id": "ig34_p0105_a020", "pdf_atom_type": "LIST_ITEM", "pdf_source": "SDTMIG_v3.4", "pdf_page": 105, "pdf_parent_section": "§6.1.3.1 [Exposure (EX)]", "pdf_verbatim": "The EX domain is recognized in most cases as a derived dataset where EXDOSU reflects the protocol-specified unit per study treatment. Collected data points (e.g., number of tablets, total volume infused) along with additional inputs (e.g., randomization file, concentration, dosage strength, product accountability) are used to derive records in the EX domain.", "figure_ref": null, "candidates": [{"md_atom_id": "md_dmEX_assn_a004", "md_file": "knowledge_base/domains/EX/assumptions.md", "md_atom_type": "LIST_ITEM", "md_parent_section": "§EX [EX — Assumptions]", "md_verbatim": "   b. The EX domain is recognized in most cases as a derived dataset where EXDOSU reflects the protocol-specified unit per study treatment. Collected data points (e.g., number of tablets, total volume infused) along with additional inputs (e.g., randomization file, concentration, dosage strength, product accountability) are used to derive records in the EX domain.", "score": 1.0, "match_basis": "verbatim_token+domain_route:EX"}, {"md_atom_id": "md_dmEX_assn_a010", "md_file": "knowledge_base/domains/EX/assumptions.md", "md_atom_type": "LIST_ITEM", "md_parent_section": "§EX [EX — Assumptions]", "md_verbatim": "      v. Derived from the protocol. When a study is still masked and protocol-specified study treatment doses cannot yet be reflected in the protocol-specified unit due to blinding requirements, then the EX domain is not expected to be populated.", "score": 0.5454, "match_basis": "verbatim_token+domain_route:EX"}, {"md_atom_id": "md_dmEX_assn_a005", "md_file": "knowledge_base/domains/EX/assumptions.md", "md_atom_type": "LIST_ITEM", "md_parent_section": "§EX [EX — Assumptions]", "md_verbatim": "   c. The EX domain is required for all studies that include protocol-specified study treatment. Exposure records may be directly or indirectly determined; metadata should describe how the records were derived. Common methods for determining exposure (from most direct to least direct) include the following:", "score": 0.52, "match_basis": "verbatim_token+domain_route:EX"}, {"md_atom_id": "md_dmEX_assn_a003", "md_file": "knowledge_base/domains/EX/assumptions.md", "md_atom_type": "LIST_ITEM", "md_parent_section": "§EX [EX — Assumptions]", "md_verbatim": "   a. Examples of treatments represented in the EX domain include but are not limited to placebo, active comparators, and investigational products. Treatments that are not protocol-specified should be represented in the Concomitant/Prior Medications (CM) or another Interventions domain as appropriate.", "score": 0.5165, "match_basis": "verbatim_token+domain_route:EX"}, {"md_atom_id": "md_dmEX_assn_a015", "md_file": "knowledge_base/domains/EX/assumptions.md", "md_atom_type": "LIST_ITEM", "md_parent_section": "§EX [EX — Assumptions]", "md_verbatim": "   a. EXTRT captures the name of the protocol-specified study treatment and is the topic variable. It is a required variable and must have a value. EXTRT must include only the treatment name and must not include dosage, formulation, or other qualifying information. For example, \"ASPIRIN 100MG TABLET\" is not a valid value for EXTRT. This example should be expressed as EXTRT = \"ASPIRIN\", EXDOSE = \"100\", EXDOSU = \"mg\", and EXDOSFRM = \"TABLET\".", "score": 0.5041, "match_basis": "verbatim_token+domain_route:EX"}], "candidate_count": 5, "zero_candidate": false}
{"pdf_atom_id": "ig34_p0106_a001", "pdf_atom_type": "LIST_ITEM", "pdf_source": "SDTMIG_v3.4", "pdf_page": 106, "pdf_parent_section": "§6.1.3.1 [Exposure (EX)]", "pdf_verbatim": "The EX domain is required for all studies that include protocol-specified study treatment. Exposure records may be directly or indirectly determined; metadata should describe how the records were derived. Common methods for determining exposure (from most direct to least direct) include the following:", "figure_ref": null, "candidates": [{"md_atom_id": "md_dmEX_assn_a005", "md_file": "knowledge_base/domains/EX/assumptions.md", "md_atom_type": "LIST_ITEM", "md_parent_section": "§EX [EX — Assumptions]", "md_verbatim": "   c. The EX domain is required for all studies that include protocol-specified study treatment. Exposure records may be directly or indirectly determined; metadata should describe how the records were derived. Common methods for determining exposure (from most direct to least direct) include the following:", "score": 1.0, "match_basis": "verbatim_token+domain_route:EX"}, {"md_atom_id": "md_dmEX_assn_a010", "md_file": "knowledge_base/domains/EX/assumptions.md", "md_atom_type": "LIST_ITEM", "md_parent_section": "§EX [EX — Assumptions]", "md_verbatim": "      v. Derived from the protocol. When a study is still masked and protocol-specified study treatment doses cannot yet be reflected in the protocol-specified unit due to blinding requirements, then the EX domain is not expected to be populated.", "score": 0.5687, "match_basis": "verbatim_token+domain_route:EX"}, {"md_atom_id": "md_dmEX_assn_a011", "md_file": "knowledge_base/domains/EX/assumptions.md", "md_atom_type": "LIST_ITEM", "md_parent_section": "§EX [EX — Assumptions]", "md_verbatim": "   d. The EX domain should contain 1 record per constant-dosing interval per subject. Sponsors define the constant-dosing interval, which may include any period of time that can be described in terms of a known treatment given at a consistent dose, frequency, infusion rate, and so on. For example, for a study with once-a-week administration of a standard dose for 6 weeks, exposure may be represented as:", "score": 0.5535, "match_basis": "verbatim_token+domain_route:EX"}, {"md_atom_id": "md_dmEX_assn_a022", "md_file": "knowledge_base/domains/EX/assumptions.md", "md_atom_type": "LIST_ITEM", "md_parent_section": "§EX [EX — Assumptions]", "md_verbatim": "5. Collected exposure data points are to be represented in the Exposure as Collected (EC) domain. When the relationship between EC and EX records can be described in RELREC, then it should be defined. EX derivations must be described in the Define-XML document.", "score": 0.5341, "match_basis": "verbatim_token+domain_route:EX"}, {"md_atom_id": "md_dmEX_assn_a015", "md_file": "knowledge_base/domains/EX/assumptions.md", "md_atom_type": "LIST_ITEM", "md_parent_section": "§EX [EX — Assumptions]", "md_verbatim": "   a. EXTRT captures the name of the protocol-specified study treatment and is the topic variable. It is a required variable and must have a value. EXTRT must include only the treatment name and must not include dosage, formulation, or other qualifying information. For example, \"ASPIRIN 100MG TABLET\" is not a valid value for EXTRT. This example should be expressed as EXTRT = \"ASPIRIN\", EXDOSE = \"100\", EXDOSU = \"mg\", and EXDOSFRM = \"TABLET\".", "score": 0.5294, "match_basis": "verbatim_token+domain_route:EX"}], "candidate_count": 5, "zero_candidate": false}
{"pdf_atom_id": "ig34_p0106_a002", "pdf_atom_type": "LIST_ITEM", "pdf_source": "SDTMIG_v3.4", "pdf_page": 106, "pdf_parent_section": "§6.1.3.1 [Exposure (EX)]", "pdf_verbatim": "Derived from actual observation of the administration of drug by the investigator", "figure_ref": null, "candidates": [{"md_atom_id": "md_dmEX_assn_a006", "md_file": "knowledge_base/domains/EX/assumptions.md", "md_atom_type": "LIST_ITEM", "md_parent_section": "§EX [EX — Assumptions]", "md_verbatim": "      i. Derived from actual observation of the administration of drug by the investigator", "score": 1.0, "match_basis": "verbatim_token+domain_route:EX"}, {"md_atom_id": "md_dmEX_ex_a202", "md_file": "knowledge_base/domains/EX/examples.md", "md_atom_type": "LIST_ITEM", "md_parent_section": "§EX.7 [Example 7]", "md_verbatim": "- The subject's first administration of drug Z was on 2009-02-13; the intended dose was 10 mg/kg, but the actual amount given was 99 mL at 5.5 mg/mL, so the actual dose was 9.9 mg/kg.", "score": 0.5765, "match_basis": "verbatim_token+domain_route:EX"}, {"md_atom_id": "md_dmEX_assn_a007", "md_file": "knowledge_base/domains/EX/assumptions.md", "md_atom_type": "LIST_ITEM", "md_parent_section": "§EX [EX — Assumptions]", "md_verbatim": "      ii. Derived from automated dispensing device that records administrations", "score": 0.5652, "match_basis": "verbatim_token+domain_route:EX"}, {"md_atom_id": "md_dmEX_assn_a013", "md_file": "knowledge_base/domains/EX/assumptions.md", "md_atom_type": "LIST_ITEM", "md_parent_section": "§EX [EX — Assumptions]", "md_verbatim": "      ii. up to 6 records (1 for each weekly administration), if the sponsor monitors each treatment administration.", "score": 0.5183, "match_basis": "verbatim_token+domain_route:EX"}, {"md_atom_id": "md_dmEX_ex_a204", "md_file": "knowledge_base/domains/EX/examples.md", "md_atom_type": "LIST_ITEM", "md_parent_section": "§EX.7 [Example 7]", "md_verbatim": "- The subject's third administration was intended to occur on 2009-02-27; the intended dose was 7.5 mg/kg but, due to a personal reason, the administration did not occur.", "score": 0.5013, "match_basis": "verbatim_token+domain_route:EX"}], "candidate_count": 5, "zero_candidate": false}
{"pdf_atom_id": "ig34_p0106_a003", "pdf_atom_type": "LIST_ITEM", "pdf_source": "SDTMIG_v3.4", "pdf_page": 106, "pdf_parent_section": "§6.1.3.1 [Exposure (EX)]", "pdf_verbatim": "Derived from automated dispensing device that records administrations", "figure_ref": null, "candidates": [{"md_atom_id": "md_dmEX_assn_a007", "md_file": "knowledge_base/domains/EX/assumptions.md", "md_atom_type": "LIST_ITEM", "md_parent_section": "§EX [EX — Assumptions]", "md_verbatim": "      ii. Derived from automated dispensing device that records administrations", "score": 1.0, "match_basis": "verbatim_token+domain_route:EX"}, {"md_atom_id": "md_dmEX_assn_a006", "md_file": "knowledge_base/domains/EX/assumptions.md", "md_atom_type": "LIST_ITEM", "md_parent_section": "§EX [EX — Assumptions]", "md_verbatim": "      i. Derived from actual observation of the administration of drug by the investigator", "score": 0.5652, "match_basis": "verbatim_token+domain_route:EX"}, {"md_atom_id": "md_dmEX_assn_a013", "md_file": "knowledge_base/domains/EX/assumptions.md", "md_atom_type": "LIST_ITEM", "md_parent_section": "§EX [EX — Assumptions]", "md_verbatim": "      ii. up to 6 records (1 for each weekly administration), if the sponsor monitors each treatment administration.", "score": 0.5521, "match_basis": "verbatim_token+domain_route:EX"}, {"md_atom_id": "md_dmEX_ex_a202", "md_file": "knowledge_base/domains/EX/examples.md", "md_atom_type": "LIST_ITEM", "md_parent_section": "§EX.7 [Example 7]", "md_verbatim": "- The subject's first administration of drug Z was on 2009-02-13; the intended dose was 10 mg/kg, but the actual amount given was 99 mL at 5.5 mg/mL, so the actual dose was 9.9 mg/kg.", "score": 0.4987, "match_basis": "verbatim_token+domain_route:EX"}, {"md_atom_id": "md_dmEX_assn_a011", "md_file": "knowledge_base/domains/EX/assumptions.md", "md_atom_type": "LIST_ITEM", "md_parent_section": "§EX [EX — Assumptions]", "md_verbatim": "   d. The EX domain should contain 1 record per constant-dosing interval per subject. Sponsors define the constant-dosing interval, which may include any period of time that can be described in terms of a known treatment given at a consistent dose, frequency, infusion rate, and so on. For example, for a study with once-a-week administration of a standard dose for 6 weeks, exposure may be represented as:", "score": 0.4959, "match_basis": "verbatim_token+domain_route:EX"}], "candidate_count": 5, "zero_candidate": false}
{"pdf_atom_id": "ig34_p0106_a004", "pdf_atom_type": "LIST_ITEM", "pdf_source": "SDTMIG_v3.4", "pdf_page": 106, "pdf_parent_section": "§6.1.3.1 [Exposure (EX)]", "pdf_verbatim": "Derived from subject recall", "figure_ref": null, "candidates": [{"md_atom_id": "md_dmEX_assn_a008", "md_file": "knowledge_base/domains/EX/assumptions.md", "md_atom_type": "LIST_ITEM", "md_parent_section": "§EX [EX — Assumptions]", "md_verbatim": "      iii. Derived from subject recall", "score": 0.9647, "match_basis": "verbatim_token+domain_route:EX"}, {"md_atom_id": "md_dmEX_assn_a009", "md_file": "knowledge_base/domains/EX/assumptions.md", "md_atom_type": "LIST_ITEM", "md_parent_section": "§EX [EX — Assumptions]", "md_verbatim": "      iv. Derived from product accountability data", "score": 0.52, "match_basis": "verbatim_token+domain_route:EX"}, {"md_atom_id": "md_dmEX_assn_a007", "md_file": "knowledge_base/domains/EX/assumptions.md", "md_atom_type": "LIST_ITEM", "md_parent_section": "§EX [EX — Assumptions]", "md_verbatim": "      ii. Derived from automated dispensing device that records administrations", "score": 0.4889, "match_basis": "verbatim_token+domain_route:EX"}, {"md_atom_id": "md_dmEX_assn_a006", "md_file": "knowledge_base/domains/EX/assumptions.md", "md_atom_type": "LIST_ITEM", "md_parent_section": "§EX [EX — Assumptions]", "md_verbatim": "      i. Derived from actual observation of the administration of drug by the investigator", "score": 0.4824, "match_basis": "verbatim_token+domain_route:EX"}, {"md_atom_id": "md_dmEX_ex_a202", "md_file": "knowledge_base/domains/EX/examples.md", "md_atom_type": "LIST_ITEM", "md_parent_section": "§EX.7 [Example 7]", "md_verbatim": "- The subject's first administration of drug Z was on 2009-02-13; the intended dose was 10 mg/kg, but the actual amount given was 99 mL at 5.5 mg/mL, so the actual dose was 9.9 mg/kg.", "score": 0.4643, "match_basis": "verbatim_token+domain_route:EX"}], "candidate_count": 5, "zero_candidate": false}
{"pdf_atom_id": "ig34_p0106_a005", "pdf_atom_type": "LIST_ITEM", "pdf_source": "SDTMIG_v3.4", "pdf_page": 106, "pdf_parent_section": "§6.1.3.1 [Exposure (EX)]", "pdf_verbatim": "Derived from product accountability data", "figure_ref": null, "candidates": [{"md_atom_id": "md_dmEX_assn_a009", "md_file": "knowledge_base/domains/EX/assumptions.md", "md_atom_type": "LIST_ITEM", "md_parent_section": "§EX [EX — Assumptions]", "md_verbatim": "      iv. Derived from product accountability data", "score": 1.0, "match_basis": "verbatim_token+domain_route:EX"}, {"md_atom_id": "md_dmEX_assn_a008", "md_file": "knowledge_base/domains/EX/assumptions.md", "md_atom_type": "LIST_ITEM", "md_parent_section": "§EX [EX — Assumptions]", "md_verbatim": "      iii. Derived from subject recall", "score": 0.5167, "match_basis": "verbatim_token+domain_route:EX"}, {"md_atom_id": "md_dmEX_assn_a004", "md_file": "knowledge_base/domains/EX/assumptions.md", "md_atom_type": "LIST_ITEM", "md_parent_section": "§EX [EX — Assumptions]", "md_verbatim": "   b. The EX domain is recognized in most cases as a derived dataset where EXDOSU reflects the protocol-specified unit per study treatment. Collected data points (e.g., number of tablets, total volume infused) along with additional inputs (e.g., randomization file, concentration, dosage strength, product accountability) are used to derive records in the EX domain.", "score": 0.4911, "match_basis": "verbatim_token+domain_route:EX"}, {"md_atom_id": "md_dmEX_assn_a006", "md_file": "knowledge_base/domains/EX/assumptions.md", "md_atom_type": "LIST_ITEM", "md_parent_section": "§EX [EX — Assumptions]", "md_verbatim": "      i. Derived from actual observation of the administration of drug by the investigator", "score": 0.4689, "match_basis": "verbatim_token+domain_route:EX"}, {"md_atom_id": "md_dmEX_assn_a007", "md_file": "knowledge_base/domains/EX/assumptions.md", "md_atom_type": "LIST_ITEM", "md_parent_section": "§EX [EX — Assumptions]", "md_verbatim": "      ii. Derived from automated dispensing device that records administrations", "score": 0.4646, "match_basis": "verbatim_token+domain_route:EX"}], "candidate_count": 5, "zero_candidate": false}
{"pdf_atom_id": "ig34_p0106_a006", "pdf_atom_type": "LIST_ITEM", "pdf_source": "SDTMIG_v3.4", "pdf_page": 106, "pdf_parent_section": "§6.1.3.1 [Exposure (EX)]", "pdf_verbatim": "Derived from the protocol. When a study is still masked and protocol-specified study treatment doses cannot yet be reflected in the protocol-specified unit due to blinding requirements, then the EX domain is not expected to be populated.", "figure_ref": null, "candidates": [{"md_atom_id": "md_dmEX_assn_a010", "md_file": "knowledge_base/domains/EX/assumptions.md", "md_atom_type": "LIST_ITEM", "md_parent_section": "§EX [EX — Assumptions]", "md_verbatim": "      v. Derived from the protocol. When a study is still masked and protocol-specified study treatment doses cannot yet be reflected in the protocol-specified unit due to blinding requirements, then the EX domain is not expected to be populated.", "score": 1.0, "match_basis": "verbatim_token+domain_route:EX"}, {"md_atom_id": "md_dmEX_assn_a005", "md_file": "knowledge_base/domains/EX/assumptions.md", "md_atom_type": "LIST_ITEM", "md_parent_section": "§EX [EX — Assumptions]", "md_verbatim": "   c. The EX domain is required for all studies that include protocol-specified study treatment. Exposure records may be directly or indirectly determined; metadata should describe how the records were derived. Common methods for determining exposure (from most direct to least direct) include the following:", "score": 0.5687, "match_basis": "verbatim_token+domain_route:EX"}, {"md_atom_id": "md_dmEX_assn_a004", "md_file": "knowledge_base/domains/EX/assumptions.md", "md_atom_type": "LIST_ITEM", "md_parent_section": "§EX [EX — Assumptions]", "md_verbatim": "   b. The EX domain is recognized in most cases as a derived dataset where EXDOSU reflects the protocol-specified unit per study treatment. Collected data points (e.g., number of tablets, total volume infused) along with additional inputs (e.g., randomization file, concentration, dosage strength, product accountability) are used to derive records in the EX domain.", "score": 0.5454, "match_basis": "verbatim_token+domain_route:EX"}, {"md_atom_id": "md_dmEX_assn_a015", "md_file": "knowledge_base/domains/EX/assumptions.md", "md_atom_type": "LIST_ITEM", "md_parent_section": "§EX [EX — Assumptions]", "md_verbatim": "   a. EXTRT captures the name of the protocol-specified study treatment and is the topic variable. It is a required variable and must have a value. EXTRT must include only the treatment name and must not include dosage, formulation, or other qualifying information. For example, \"ASPIRIN 100MG TABLET\" is not a valid value for EXTRT. This example should be expressed as EXTRT = \"ASPIRIN\", EXDOSE = \"100\", EXDOSU = \"mg\", and EXDOSFRM = \"TABLET\".", "score": 0.5261, "match_basis": "verbatim_token+domain_route:EX"}, {"md_atom_id": "md_dmEX_assn_a003", "md_file": "knowledge_base/domains/EX/assumptions.md", "md_atom_type": "LIST_ITEM", "md_parent_section": "§EX [EX — Assumptions]", "md_verbatim": "   a. Examples of treatments represented in the EX domain include but are not limited to placebo, active comparators, and investigational products. Treatments that are not protocol-specified should be represented in the Concomitant/Prior Medications (CM) or another Interventions domain as appropriate.", "score": 0.5067, "match_basis": "verbatim_token+domain_route:EX"}], "candidate_count": 5, "zero_candidate": false}
{"pdf_atom_id": "ig34_p0106_a007", "pdf_atom_type": "LIST_ITEM", "pdf_source": "SDTMIG_v3.4", "pdf_page": 106, "pdf_parent_section": "§6.1.3.1 [Exposure (EX)]", "pdf_verbatim": "The EX domain should contain 1 record per constant-dosing interval per subject. Sponsors define the constant-dosing interval, which may include any period of time that can be described in terms of a known treatment given at a consistent dose, frequency, infusion rate, and so on. For example, for a study with once-a-week administration of a standard dose for 6 weeks, exposure may be represented as:", "figure_ref": null, "candidates": [{"md_atom_id": "md_dmEX_assn_a011", "md_file": "knowledge_base/domains/EX/assumptions.md", "md_atom_type": "LIST_ITEM", "md_parent_section": "§EX [EX — Assumptions]", "md_verbatim": "   d. The EX domain should contain 1 record per constant-dosing interval per subject. Sponsors define the constant-dosing interval, which may include any period of time that can be described in terms of a known treatment given at a consistent dose, frequency, infusion rate, and so on. For example, for a study with once-a-week administration of a standard dose for 6 weeks, exposure may be represented as:", "score": 1.0, "match_basis": "verbatim_token+domain_route:EX"}, {"md_atom_id": "md_dmEX_assn_a020", "md_file": "knowledge_base/domains/EX/assumptions.md", "md_atom_type": "LIST_ITEM", "md_parent_section": "§EX [EX — Assumptions]", "md_verbatim": "   a. The timing of exposure to study treatment is captured by the start/end date and start/end time of each constant-dosing interval. If the subject is only exposed to study medication within a clinical encounter (e.g., if an injection is administered at the clinic), VISITNUM may be added to the domain as an additional timing variable. VISITDY and VISIT would then also be permissible qualifiers. However, if the beginning and end of a constant-dosing interval is not confined within the time limits of a clinical encounter (e.g., if a subject takes pills at home), then it is not appropriate to include VISITNUM in the EX domain. This is because EX is designed to capture the timing of exposure to treatment, not the timing of dispensing treatment. Further, VISITNUM should not be used to indicate that treatment began at a particular visit and continued for a period of time. The SDTM does not have any provision for recording \"start visit\" and \"end visit\" of exposure.", "score": 0.5768, "match_basis": "verbatim_token+domain_route:EX"}, {"md_atom_id": "md_dmEX_assn_a025", "md_file": "knowledge_base/domains/EX/assumptions.md", "md_atom_type": "LIST_ITEM", "md_parent_section": "§EX [EX — Assumptions]", "md_verbatim": "   b. --DOSTOT is under evaluation for potential deprecation and replacement with a mechanism to describe total dose over any interval of time (e.g., day, week, month). Sponsors considering use of EXDOSTOT may want to consider using other dose-amount variables (EXDOSE or EXDOSTXT) in combination with frequency (EXDOSFRQ) and timing variables to represent the data.", "score": 0.5656, "match_basis": "verbatim_token+domain_route:EX"}, {"md_atom_id": "md_dmEX_assn_a022", "md_file": "knowledge_base/domains/EX/assumptions.md", "md_atom_type": "LIST_ITEM", "md_parent_section": "§EX [EX — Assumptions]", "md_verbatim": "5. Collected exposure data points are to be represented in the Exposure as Collected (EC) domain. When the relationship between EC and EX records can be described in RELREC, then it should be defined. EX derivations must be described in the Define-XML document.", "score": 0.5596, "match_basis": "verbatim_token+domain_route:EX"}, {"md_atom_id": "md_dmEX_assn_a005", "md_file": "knowledge_base/domains/EX/assumptions.md", "md_atom_type": "LIST_ITEM", "md_parent_section": "§EX [EX — Assumptions]", "md_verbatim": "   c. The EX domain is required for all studies that include protocol-specified study treatment. Exposure records may be directly or indirectly determined; metadata should describe how the records were derived. Common methods for determining exposure (from most direct to least direct) include the following:", "score": 0.5535, "match_basis": "verbatim_token+domain_route:EX"}], "candidate_count": 5, "zero_candidate": false}
{"pdf_atom_id": "ig34_p0106_a008", "pdf_atom_type": "LIST_ITEM", "pdf_source": "SDTMIG_v3.4", "pdf_page": 106, "pdf_parent_section": "§6.1.3.1 [Exposure (EX)]", "pdf_verbatim": "a single record per subject, spanning the entire 6-week treatment phase, if information about each dose is not collected; or", "figure_ref": null, "candidates": [{"md_atom_id": "md_dmEX_assn_a012", "md_file": "knowledge_base/domains/EX/assumptions.md", "md_atom_type": "LIST_ITEM", "md_parent_section": "§EX [EX — Assumptions]", "md_verbatim": "      i. a single record per subject, spanning the entire 6-week treatment phase, if information about each dose is not collected; or", "score": 1.0, "match_basis": "verbatim_token+domain_route:EX"}, {"md_atom_id": "md_dmEX_assn_a013", "md_file": "knowledge_base/domains/EX/assumptions.md", "md_atom_type": "LIST_ITEM", "md_parent_section": "§EX [EX — Assumptions]", "md_verbatim": "      ii. up to 6 records (1 for each weekly administration), if the sponsor monitors each treatment administration.", "score": 0.5481, "match_basis": "verbatim_token+domain_route:EX"}, {"md_atom_id": "md_dmEX_assn_a011", "md_file": "knowledge_base/domains/EX/assumptions.md", "md_atom_type": "LIST_ITEM", "md_parent_section": "§EX [EX — Assumptions]", "md_verbatim": "   d. The EX domain should contain 1 record per constant-dosing interval per subject. Sponsors define the constant-dosing interval, which may include any period of time that can be described in terms of a known treatment given at a consistent dose, frequency, infusion rate, and so on. For example, for a study with once-a-week administration of a standard dose for 6 weeks, exposure may be represented as:", "score": 0.5011, "match_basis": "verbatim_token+domain_route:EX"}, {"md_atom_id": "md_dmEX_assn_a010", "md_file": "knowledge_base/domains/EX/assumptions.md", "md_atom_type": "LIST_ITEM", "md_parent_section": "§EX [EX — Assumptions]", "md_verbatim": "      v. Derived from the protocol. When a study is still masked and protocol-specified study treatment doses cannot yet be reflected in the protocol-specified unit due to blinding requirements, then the EX domain is not expected to be populated.", "score": 0.4919, "match_basis": "verbatim_token+domain_route:EX"}, {"md_atom_id": "md_dmEX_ex_a204", "md_file": "knowledge_base/domains/EX/examples.md", "md_atom_type": "LIST_ITEM", "md_parent_section": "§EX.7 [Example 7]", "md_verbatim": "- The subject's third administration was intended to occur on 2009-02-27; the intended dose was 7.5 mg/kg but, due to a personal reason, the administration did not occur.", "score": 0.4913, "match_basis": "verbatim_token+domain_route:EX"}], "candidate_count": 5, "zero_candidate": false}
{"pdf_atom_id": "ig34_p0106_a009", "pdf_atom_type": "LIST_ITEM", "pdf_source": "SDTMIG_v3.4", "pdf_page": 106, "pdf_parent_section": "§6.1.3.1 [Exposure (EX)]", "pdf_verbatim": "up to 6 records (1 for each weekly administration), if the sponsor monitors each treatment administration.", "figure_ref": null, "candidates": [{"md_atom_id": "md_dmEX_assn_a013", "md_file": "knowledge_base/domains/EX/assumptions.md", "md_atom_type": "LIST_ITEM", "md_parent_section": "§EX [EX — Assumptions]", "md_verbatim": "      ii. up to 6 records (1 for each weekly administration), if the sponsor monitors each treatment administration.", "score": 1.0, "match_basis": "verbatim_token+domain_route:EX"}, {"md_atom_id": "md_dmEX_assn_a007", "md_file": "knowledge_base/domains/EX/assumptions.md", "md_atom_type": "LIST_ITEM", "md_parent_section": "§EX [EX — Assumptions]", "md_verbatim": "      ii. Derived from automated dispensing device that records administrations", "score": 0.5521, "match_basis": "verbatim_token+domain_route:EX"}, {"md_atom_id": "md_dmEX_assn_a012", "md_file": "knowledge_base/domains/EX/assumptions.md", "md_atom_type": "LIST_ITEM", "md_parent_section": "§EX [EX — Assumptions]", "md_verbatim": "      i. a single record per subject, spanning the entire 6-week treatment phase, if information about each dose is not collected; or", "score": 0.5481, "match_basis": "verbatim_token+domain_route:EX"}, {"md_atom_id": "md_dmEX_assn_a024", "md_file": "knowledge_base/domains/EX/assumptions.md", "md_atom_type": "LIST_ITEM", "md_parent_section": "§EX [EX — Assumptions]", "md_verbatim": "   a. EX contains medications received; the inclusion of administrations not taken, not given, or missed is under evaluation. Because EX includes only treatments received, --MOOD would generally not be used in EX.", "score": 0.5245, "match_basis": "verbatim_token+domain_route:EX"}, {"md_atom_id": "md_dmEX_assn_a011", "md_file": "knowledge_base/domains/EX/assumptions.md", "md_atom_type": "LIST_ITEM", "md_parent_section": "§EX [EX — Assumptions]", "md_verbatim": "   d. The EX domain should contain 1 record per constant-dosing interval per subject. Sponsors define the constant-dosing interval, which may include any period of time that can be described in terms of a known treatment given at a consistent dose, frequency, infusion rate, and so on. For example, for a study with once-a-week administration of a standard dose for 6 weeks, exposure may be represented as:", "score": 0.5237, "match_basis": "verbatim_token+domain_route:EX"}], "candidate_count": 5, "zero_candidate": false}
{"pdf_atom_id": "ig34_p0106_a010", "pdf_atom_type": "LIST_ITEM", "pdf_source": "SDTMIG_v3.4", "pdf_page": 106, "pdf_parent_section": "§6.1.3.1 [Exposure (EX)]", "pdf_verbatim": "Exposure treatment description", "figure_ref": null, "candidates": [{"md_atom_id": "md_dmEX_assn_a014", "md_file": "knowledge_base/domains/EX/assumptions.md", "md_atom_type": "LIST_ITEM", "md_parent_section": "§EX [EX — Assumptions]", "md_verbatim": "2. Exposure treatment description", "score": 1.0, "match_basis": "verbatim_token+domain_route:EX"}, {"md_atom_id": "md_dmEX_assn_a013", "md_file": "knowledge_base/domains/EX/assumptions.md", "md_atom_type": "LIST_ITEM", "md_parent_section": "§EX [EX — Assumptions]", "md_verbatim": "      ii. up to 6 records (1 for each weekly administration), if the sponsor monitors each treatment administration.", "score": 0.4964, "match_basis": "verbatim_token+domain_route:EX"}, {"md_atom_id": "md_dmEX_assn_a022", "md_file": "knowledge_base/domains/EX/assumptions.md", "md_atom_type": "LIST_ITEM", "md_parent_section": "§EX [EX — Assumptions]", "md_verbatim": "5. Collected exposure data points are to be represented in the Exposure as Collected (EC) domain. When the relationship between EC and EX records can be described in RELREC, then it should be defined. EX derivations must be described in the Define-XML document.", "score": 0.4875, "match_basis": "verbatim_token+domain_route:EX"}, {"md_atom_id": "md_dmEX_assn_a005", "md_file": "knowledge_base/domains/EX/assumptions.md", "md_atom_type": "LIST_ITEM", "md_parent_section": "§EX [EX — Assumptions]", "md_verbatim": "   c. The EX domain is required for all studies that include protocol-specified study treatment. Exposure records may be directly or indirectly determined; metadata should describe how the records were derived. Common methods for determining exposure (from most direct to least direct) include the following:", "score": 0.4816, "match_basis": "verbatim_token+domain_route:EX"}, {"md_atom_id": "md_dmEX_assn_a012", "md_file": "knowledge_base/domains/EX/assumptions.md", "md_atom_type": "LIST_ITEM", "md_parent_section": "§EX [EX — Assumptions]", "md_verbatim": "      i. a single record per subject, spanning the entire 6-week treatment phase, if information about each dose is not collected; or", "score": 0.4761, "match_basis": "verbatim_token+domain_route:EX"}], "candidate_count": 5, "zero_candidate": false}
{"pdf_atom_id": "ig34_p0106_a011", "pdf_atom_type": "LIST_ITEM", "pdf_source": "SDTMIG_v3.4", "pdf_page": 106, "pdf_parent_section": "§6.1.3.1 [Exposure (EX)]", "pdf_verbatim": "EXTRT captures the name of the protocol-specified study treatment and is the topic variable. It is a required variable and must have a value. EXTRT must include only the treatment name and must not include dosage, formulation, or other qualifying information. For example, \"ASPIRIN 100MG TABLET\" is not a valid value for EXTRT. This example should be expressed as EXTRT = \"ASPIRIN\", EXDOSE = \"100\", EXDOSU = \"mg\", and EXDOSFRM = \"TABLET\".", "figure_ref": null, "candidates": [{"md_atom_id": "md_dmEX_assn_a015", "md_file": "knowledge_base/domains/EX/assumptions.md", "md_atom_type": "LIST_ITEM", "md_parent_section": "§EX [EX — Assumptions]", "md_verbatim": "   a. EXTRT captures the name of the protocol-specified study treatment and is the topic variable. It is a required variable and must have a value. EXTRT must include only the treatment name and must not include dosage, formulation, or other qualifying information. For example, \"ASPIRIN 100MG TABLET\" is not a valid value for EXTRT. This example should be expressed as EXTRT = \"ASPIRIN\", EXDOSE = \"100\", EXDOSU = \"mg\", and EXDOSFRM = \"TABLET\".", "score": 1.0, "match_basis": "verbatim_token+domain_route:EX"}, {"md_atom_id": "md_dmEX_assn_a005", "md_file": "knowledge_base/domains/EX/assumptions.md", "md_atom_type": "LIST_ITEM", "md_parent_section": "§EX [EX — Assumptions]", "md_verbatim": "   c. The EX domain is required for all studies that include protocol-specified study treatment. Exposure records may be directly or indirectly determined; metadata should describe how the records were derived. Common methods for determining exposure (from most direct to least direct) include the following:", "score": 0.5294, "match_basis": "verbatim_token+domain_route:EX"}, {"md_atom_id": "md_dmEX_assn_a003", "md_file": "knowledge_base/domains/EX/assumptions.md", "md_atom_type": "LIST_ITEM", "md_parent_section": "§EX [EX — Assumptions]", "md_verbatim": "   a. Examples of treatments represented in the EX domain include but are not limited to placebo, active comparators, and investigational products. Treatments that are not protocol-specified should be represented in the Concomitant/Prior Medications (CM) or another Interventions domain as appropriate.", "score": 0.5286, "match_basis": "verbatim_token+domain_route:EX"}, {"md_atom_id": "md_dmEX_assn_a010", "md_file": "knowledge_base/domains/EX/assumptions.md", "md_atom_type": "LIST_ITEM", "md_parent_section": "§EX [EX — Assumptions]", "md_verbatim": "      v. Derived from the protocol. When a study is still masked and protocol-specified study treatment doses cannot yet be reflected in the protocol-specified unit due to blinding requirements, then the EX domain is not expected to be populated.", "score": 0.5261, "match_basis": "verbatim_token+domain_route:EX"}, {"md_atom_id": "md_dmEX_assn_a020", "md_file": "knowledge_base/domains/EX/assumptions.md", "md_atom_type": "LIST_ITEM", "md_parent_section": "§EX [EX — Assumptions]", "md_verbatim": "   a. The timing of exposure to study treatment is captured by the start/end date and start/end time of each constant-dosing interval. If the subject is only exposed to study medication within a clinical encounter (e.g., if an injection is administered at the clinic), VISITNUM may be added to the domain as an additional timing variable. VISITDY and VISIT would then also be permissible qualifiers. However, if the beginning and end of a constant-dosing interval is not confined within the time limits of a clinical encounter (e.g., if a subject takes pills at home), then it is not appropriate to include VISITNUM in the EX domain. This is because EX is designed to capture the timing of exposure to treatment, not the timing of dispensing treatment. Further, VISITNUM should not be used to indicate that treatment began at a particular visit and continued for a period of time. The SDTM does not have any provision for recording \"start visit\" and \"end visit\" of exposure.", "score": 0.5188, "match_basis": "verbatim_token+domain_route:EX"}], "candidate_count": 5, "zero_candidate": false}
{"pdf_atom_id": "ig34_p0106_a012", "pdf_atom_type": "LIST_ITEM", "pdf_source": "SDTMIG_v3.4", "pdf_page": 106, "pdf_parent_section": "§6.1.3.1 [Exposure (EX)]", "pdf_verbatim": "Doses of placebo should be represented by EXTRT = \"PLACEBO\" and EXDOSE = \"0\" (indicating 0 mg of active ingredient was taken or administered).", "figure_ref": null, "candidates": [{"md_atom_id": "md_dmEX_assn_a016", "md_file": "knowledge_base/domains/EX/assumptions.md", "md_atom_type": "LIST_ITEM", "md_parent_section": "§EX [EX — Assumptions]", "md_verbatim": "   b. Doses of placebo should be represented by EXTRT = \"PLACEBO\" and EXDOSE = \"0\" (indicating 0 mg of active ingredient was taken or administered).", "score": 1.0, "match_basis": "verbatim_token+domain_route:EX"}, {"md_atom_id": "md_dmEX_ex_a085", "md_file": "knowledge_base/domains/EX/examples.md", "md_atom_type": "LIST_ITEM", "md_parent_section": "§EX.3 [Example 3]", "md_verbatim": "- Bottle C contained placebo (i.e., 0 mg of active ingredient/tablet)", "score": 0.5397, "match_basis": "verbatim_token+domain_route:EX"}, {"md_atom_id": "md_dmEX_assn_a021", "md_file": "knowledge_base/domains/EX/assumptions.md", "md_atom_type": "LIST_ITEM", "md_parent_section": "§EX [EX — Assumptions]", "md_verbatim": "   b. For administrations considered given at a point in time (e.g., oral tablet, pre-filled syringe injection), where only an administration date/time is collected, EXSTDTC should be copied to EXENDTC as the standard representation.", "score": 0.519, "match_basis": "verbatim_token+domain_route:EX"}, {"md_atom_id": "md_dmEX_assn_a003", "md_file": "knowledge_base/domains/EX/assumptions.md", "md_atom_type": "LIST_ITEM", "md_parent_section": "§EX [EX — Assumptions]", "md_verbatim": "   a. Examples of treatments represented in the EX domain include but are not limited to placebo, active comparators, and investigational products. Treatments that are not protocol-specified should be represented in the Concomitant/Prior Medications (CM) or another Interventions domain as appropriate.", "score": 0.5115, "match_basis": "verbatim_token+domain_route:EX"}, {"md_atom_id": "md_dmEX_assn_a011", "md_file": "knowledge_base/domains/EX/assumptions.md", "md_atom_type": "LIST_ITEM", "md_parent_section": "§EX [EX — Assumptions]", "md_verbatim": "   d. The EX domain should contain 1 record per constant-dosing interval per subject. Sponsors define the constant-dosing interval, which may include any period of time that can be described in terms of a known treatment given at a consistent dose, frequency, infusion rate, and so on. For example, for a study with once-a-week administration of a standard dose for 6 weeks, exposure may be represented as:", "score": 0.4895, "match_basis": "verbatim_token+domain_route:EX"}], "candidate_count": 5, "zero_candidate": false}
{"pdf_atom_id": "ig34_p0106_a013", "pdf_atom_type": "LIST_ITEM", "pdf_source": "SDTMIG_v3.4", "pdf_page": 106, "pdf_parent_section": "§6.1.3.1 [Exposure (EX)]", "pdf_verbatim": "Categorization and grouping", "figure_ref": null, "candidates": [{"md_atom_id": "md_dmEX_assn_a017", "md_file": "knowledge_base/domains/EX/assumptions.md", "md_atom_type": "LIST_ITEM", "md_parent_section": "§EX [EX — Assumptions]", "md_verbatim": "3. Categorization and grouping", "score": 1.0, "match_basis": "verbatim_token+domain_route:EX"}, {"md_atom_id": "md_dmEX_assn_a018", "md_file": "knowledge_base/domains/EX/assumptions.md", "md_atom_type": "LIST_ITEM", "md_parent_section": "§EX [EX — Assumptions]", "md_verbatim": "   a. EXCAT and EXSCAT may be used when appropriate to categorize treatments into categories and subcategories. For example, if a study contains several active comparator medications, EXCAT may be set to \"ACTIVE COMPARATOR\". Such categorization may not be useful in all studies, so these variables are permissible.", "score": 0.4661, "match_basis": "verbatim_token+domain_route:EX"}, {"md_atom_id": "md_dmEX_assn_a007", "md_file": "knowledge_base/domains/EX/assumptions.md", "md_atom_type": "LIST_ITEM", "md_parent_section": "§EX [EX — Assumptions]", "md_verbatim": "      ii. Derived from automated dispensing device that records administrations", "score": 0.45, "match_basis": "verbatim_token+domain_route:EX"}, {"md_atom_id": "md_dmEX_assn_a021", "md_file": "knowledge_base/domains/EX/assumptions.md", "md_atom_type": "LIST_ITEM", "md_parent_section": "§EX [EX — Assumptions]", "md_verbatim": "   b. For administrations considered given at a point in time (e.g., oral tablet, pre-filled syringe injection), where only an administration date/time is collected, EXSTDTC should be copied to EXENDTC as the standard representation.", "score": 0.434, "match_basis": "verbatim_token+domain_route:EX"}, {"md_atom_id": "md_dmEX_assn_a012", "md_file": "knowledge_base/domains/EX/assumptions.md", "md_atom_type": "LIST_ITEM", "md_parent_section": "§EX [EX — Assumptions]", "md_verbatim": "      i. a single record per subject, spanning the entire 6-week treatment phase, if information about each dose is not collected; or", "score": 0.4329, "match_basis": "verbatim_token+domain_route:EX"}], "candidate_count": 5, "zero_candidate": false}
{"pdf_atom_id": "ig34_p0106_a014", "pdf_atom_type": "LIST_ITEM", "pdf_source": "SDTMIG_v3.4", "pdf_page": 106, "pdf_parent_section": "§6.1.3.1 [Exposure (EX)]", "pdf_verbatim": "EXCAT and EXSCAT may be used when appropriate to categorize treatments into categories and subcategories. For example, if a study contains several active comparator medications, EXCAT may be set to \"ACTIVE COMPARATOR\". Such categorization may not be useful in all studies, so these variables are permissible.", "figure_ref": null, "candidates": [{"md_atom_id": "md_dmEX_assn_a018", "md_file": "knowledge_base/domains/EX/assumptions.md", "md_atom_type": "LIST_ITEM", "md_parent_section": "§EX [EX — Assumptions]", "md_verbatim": "   a. EXCAT and EXSCAT may be used when appropriate to categorize treatments into categories and subcategories. For example, if a study contains several active comparator medications, EXCAT may be set to \"ACTIVE COMPARATOR\". Such categorization may not be useful in all studies, so these variables are permissible.", "score": 1.0, "match_basis": "verbatim_token+domain_route:EX"}, {"md_atom_id": "md_dmEX_assn_a003", "md_file": "knowledge_base/domains/EX/assumptions.md", "md_atom_type": "LIST_ITEM", "md_parent_section": "§EX [EX — Assumptions]", "md_verbatim": "   a. Examples of treatments represented in the EX domain include but are not limited to placebo, active comparators, and investigational products. Treatments that are not protocol-specified should be represented in the Concomitant/Prior Medications (CM) or another Interventions domain as appropriate.", "score": 0.5668, "match_basis": "verbatim_token+domain_route:EX"}, {"md_atom_id": "md_dmEX_assn_a024", "md_file": "knowledge_base/domains/EX/assumptions.md", "md_atom_type": "LIST_ITEM", "md_parent_section": "§EX [EX — Assumptions]", "md_verbatim": "   a. EX contains medications received; the inclusion of administrations not taken, not given, or missed is under evaluation. Because EX includes only treatments received, --MOOD would generally not be used in EX.", "score": 0.5252, "match_basis": "verbatim_token+domain_route:EX"}, {"md_atom_id": "md_dmEX_assn_a020", "md_file": "knowledge_base/domains/EX/assumptions.md", "md_atom_type": "LIST_ITEM", "md_parent_section": "§EX [EX — Assumptions]", "md_verbatim": "   a. The timing of exposure to study treatment is captured by the start/end date and start/end time of each constant-dosing interval. If the subject is only exposed to study medication within a clinical encounter (e.g., if an injection is administered at the clinic), VISITNUM may be added to the domain as an additional timing variable. VISITDY and VISIT would then also be permissible qualifiers. However, if the beginning and end of a constant-dosing interval is not confined within the time limits of a clinical encounter (e.g., if a subject takes pills at home), then it is not appropriate to include VISITNUM in the EX domain. This is because EX is designed to capture the timing of exposure to treatment, not the timing of dispensing treatment. Further, VISITNUM should not be used to indicate that treatment began at a particular visit and continued for a period of time. The SDTM does not have any provision for recording \"start visit\" and \"end visit\" of exposure.", "score": 0.518, "match_basis": "verbatim_token+domain_route:EX"}, {"md_atom_id": "md_dmEX_assn_a011", "md_file": "knowledge_base/domains/EX/assumptions.md", "md_atom_type": "LIST_ITEM", "md_parent_section": "§EX [EX — Assumptions]", "md_verbatim": "   d. The EX domain should contain 1 record per constant-dosing interval per subject. Sponsors define the constant-dosing interval, which may include any period of time that can be described in terms of a known treatment given at a consistent dose, frequency, infusion rate, and so on. For example, for a study with once-a-week administration of a standard dose for 6 weeks, exposure may be represented as:", "score": 0.4956, "match_basis": "verbatim_token+domain_route:EX"}], "candidate_count": 5, "zero_candidate": false}
{"pdf_atom_id": "ig34_p0106_a015", "pdf_atom_type": "LIST_ITEM", "pdf_source": "SDTMIG_v3.4", "pdf_page": 106, "pdf_parent_section": "§6.1.3.1 [Exposure (EX)]", "pdf_verbatim": "Timing variables", "figure_ref": null, "candidates": [{"md_atom_id": "md_dmEX_assn_a019", "md_file": "knowledge_base/domains/EX/assumptions.md", "md_atom_type": "LIST_ITEM", "md_parent_section": "§EX [EX — Assumptions]", "md_verbatim": "4. Timing variables", "score": 1.0, "match_basis": "verbatim_token+domain_route:EX"}, {"md_atom_id": "md_dmEX_ex_a069", "md_file": "knowledge_base/domains/EX/examples.md", "md_atom_type": "LIST_ITEM", "md_parent_section": "§EX.3 [Example 3]", "md_verbatim": "- 1 tablet from bottles A, B and C from 2011-01-14 to 2011-01-20", "score": 0.4818, "match_basis": "verbatim_token+domain_route:EX"}, {"md_atom_id": "md_dmEX_ex_a071", "md_file": "knowledge_base/domains/EX/examples.md", "md_atom_type": "LIST_ITEM", "md_parent_section": "§EX.3 [Example 3]", "md_verbatim": "- 1 tablet from bottles A and C on 2011-01-21 and 2011-01-22", "score": 0.4818, "match_basis": "verbatim_token+domain_route:EX"}, {"md_atom_id": "md_dmEX_ex_a072", "md_file": "knowledge_base/domains/EX/examples.md", "md_atom_type": "LIST_ITEM", "md_parent_section": "§EX.3 [Example 3]", "md_verbatim": "- 1 tablet from bottles A, B and C from 2011-01-23 to 2011-01-28", "score": 0.4818, "match_basis": "verbatim_token+domain_route:EX"}, {"md_atom_id": "md_dmEX_assn_a027", "md_file": "knowledge_base/domains/EX/assumptions.md", "md_atom_type": "LIST_ITEM", "md_parent_section": "§EX [EX — Assumptions]", "md_verbatim": "   d. Any identifier variables, timing variables, or findings general observation-class qualifiers may be added to the EX domain, but the following qualifiers would generally not be used: --PRESP, --OCCUR, --STAT, and --REASND.", "score": 0.4786, "match_basis": "verbatim_token+domain_route:EX"}], "candidate_count": 5, "zero_candidate": false}
{"pdf_atom_id": "ig34_p0106_a016", "pdf_atom_type": "LIST_ITEM", "pdf_source": "SDTMIG_v3.4", "pdf_page": 106, "pdf_parent_section": "§6.1.3.1 [Exposure (EX)]", "pdf_verbatim": "The timing of exposure to study treatment is captured by the start/end date and start/end time of each constant-dosing interval. If the subject is only exposed to study medication within a clinical encounter (e.g., if an injection is administered at the clinic), VISITNUM may be added to the domain as an additional timing variable. VISITDY and VISIT would then also be permissible qualifiers. However, if the beginning and end of a constant-dosing interval is not confined within the time limits of a clinical encounter (e.g., if a subject takes pills at home), then it is not appropriate to include VISITNUM in the EX domain. This is because EX is designed to capture the timing of exposure to treatment, not the timing of dispensing treatment. Further, VISITNUM should not be used to indicate that treatment began at a particular visit and continued for a period of time. The SDTM does not have any provision for recording \"start visit\" and \"end visit\" of exposure.", "figure_ref": null, "candidates": [{"md_atom_id": "md_dmEX_assn_a020", "md_file": "knowledge_base/domains/EX/assumptions.md", "md_atom_type": "LIST_ITEM", "md_parent_section": "§EX [EX — Assumptions]", "md_verbatim": "   a. The timing of exposure to study treatment is captured by the start/end date and start/end time of each constant-dosing interval. If the subject is only exposed to study medication within a clinical encounter (e.g., if an injection is administered at the clinic), VISITNUM may be added to the domain as an additional timing variable. VISITDY and VISIT would then also be permissible qualifiers. However, if the beginning and end of a constant-dosing interval is not confined within the time limits of a clinical encounter (e.g., if a subject takes pills at home), then it is not appropriate to include VISITNUM in the EX domain. This is because EX is designed to capture the timing of exposure to treatment, not the timing of dispensing treatment. Further, VISITNUM should not be used to indicate that treatment began at a particular visit and continued for a period of time. The SDTM does not have any provision for recording \"start visit\" and \"end visit\" of exposure.", "score": 1.0, "match_basis": "verbatim_token+domain_route:EX"}, {"md_atom_id": "md_dmEX_assn_a011", "md_file": "knowledge_base/domains/EX/assumptions.md", "md_atom_type": "LIST_ITEM", "md_parent_section": "§EX [EX — Assumptions]", "md_verbatim": "   d. The EX domain should contain 1 record per constant-dosing interval per subject. Sponsors define the constant-dosing interval, which may include any period of time that can be described in terms of a known treatment given at a consistent dose, frequency, infusion rate, and so on. For example, for a study with once-a-week administration of a standard dose for 6 weeks, exposure may be represented as:", "score": 0.5768, "match_basis": "verbatim_token+domain_route:EX"}, {"md_atom_id": "md_dmEX_assn_a003", "md_file": "knowledge_base/domains/EX/assumptions.md", "md_atom_type": "LIST_ITEM", "md_parent_section": "§EX [EX — Assumptions]", "md_verbatim": "   a. Examples of treatments represented in the EX domain include but are not limited to placebo, active comparators, and investigational products. Treatments that are not protocol-specified should be represented in the Concomitant/Prior Medications (CM) or another Interventions domain as appropriate.", "score": 0.5263, "match_basis": "verbatim_token+domain_route:EX"}, {"md_atom_id": "md_dmEX_assn_a005", "md_file": "knowledge_base/domains/EX/assumptions.md", "md_atom_type": "LIST_ITEM", "md_parent_section": "§EX [EX — Assumptions]", "md_verbatim": "   c. The EX domain is required for all studies that include protocol-specified study treatment. Exposure records may be directly or indirectly determined; metadata should describe how the records were derived. Common methods for determining exposure (from most direct to least direct) include the following:", "score": 0.5196, "match_basis": "verbatim_token+domain_route:EX"}, {"md_atom_id": "md_dmEX_assn_a015", "md_file": "knowledge_base/domains/EX/assumptions.md", "md_atom_type": "LIST_ITEM", "md_parent_section": "§EX [EX — Assumptions]", "md_verbatim": "   a. EXTRT captures the name of the protocol-specified study treatment and is the topic variable. It is a required variable and must have a value. EXTRT must include only the treatment name and must not include dosage, formulation, or other qualifying information. For example, \"ASPIRIN 100MG TABLET\" is not a valid value for EXTRT. This example should be expressed as EXTRT = \"ASPIRIN\", EXDOSE = \"100\", EXDOSU = \"mg\", and EXDOSFRM = \"TABLET\".", "score": 0.5188, "match_basis": "verbatim_token+domain_route:EX"}], "candidate_count": 5, "zero_candidate": false}
{"pdf_atom_id": "ig34_p0107_a001", "pdf_atom_type": "LIST_ITEM", "pdf_source": "SDTMIG_v3.4", "pdf_page": 107, "pdf_parent_section": "§6.1.3.1 [Exposure (EX)]", "pdf_verbatim": "For administrations considered given at a point in time (e.g., oral tablet, pre-filled syringe injection), where only an administration date/time is collected, EXSTDTC should be copied to EXENDTC as the standard representation.", "figure_ref": null, "candidates": [{"md_atom_id": "md_dmEX_assn_a021", "md_file": "knowledge_base/domains/EX/assumptions.md", "md_atom_type": "LIST_ITEM", "md_parent_section": "§EX [EX — Assumptions]", "md_verbatim": "   b. For administrations considered given at a point in time (e.g., oral tablet, pre-filled syringe injection), where only an administration date/time is collected, EXSTDTC should be copied to EXENDTC as the standard representation.", "score": 1.0, "match_basis": "verbatim_token+domain_route:EX"}, {"md_atom_id": "md_dmEX_assn_a011", "md_file": "knowledge_base/domains/EX/assumptions.md", "md_atom_type": "LIST_ITEM", "md_parent_section": "§EX [EX — Assumptions]", "md_verbatim": "   d. The EX domain should contain 1 record per constant-dosing interval per subject. Sponsors define the constant-dosing interval, which may include any period of time that can be described in terms of a known treatment given at a consistent dose, frequency, infusion rate, and so on. For example, for a study with once-a-week administration of a standard dose for 6 weeks, exposure may be represented as:", "score": 0.5401, "match_basis": "verbatim_token+domain_route:EX"}, {"md_atom_id": "md_dmEX_assn_a022", "md_file": "knowledge_base/domains/EX/assumptions.md", "md_atom_type": "LIST_ITEM", "md_parent_section": "§EX [EX — Assumptions]", "md_verbatim": "5. Collected exposure data points are to be represented in the Exposure as Collected (EC) domain. When the relationship between EC and EX records can be described in RELREC, then it should be defined. EX derivations must be described in the Define-XML document.", "score": 0.5192, "match_basis": "verbatim_token+domain_route:EX"}, {"md_atom_id": "md_dmEX_assn_a016", "md_file": "knowledge_base/domains/EX/assumptions.md", "md_atom_type": "LIST_ITEM", "md_parent_section": "§EX [EX — Assumptions]", "md_verbatim": "   b. Doses of placebo should be represented by EXTRT = \"PLACEBO\" and EXDOSE = \"0\" (indicating 0 mg of active ingredient was taken or administered).", "score": 0.519, "match_basis": "verbatim_token+domain_route:EX"}, {"md_atom_id": "md_dmEX_ex_a203", "md_file": "knowledge_base/domains/EX/examples.md", "md_atom_type": "LIST_ITEM", "md_parent_section": "§EX.7 [Example 7]", "md_verbatim": "- The subject's second administration of drug Z occurred on 2009-02-20; the intended dose was reduced to 7.5 mg/kg due to dose-limiting toxicity, and the infusion was stopped early due to an injection site reaction. However, the actual amount given was 35 mL at a concentration of 4.12 mg/mL, so the calculated actual dose was 2.6 mg/kg.", "score": 0.5053, "match_basis": "verbatim_token+domain_route:EX"}], "candidate_count": 5, "zero_candidate": false}
{"pdf_atom_id": "ig34_p0107_a002", "pdf_atom_type": "LIST_ITEM", "pdf_source": "SDTMIG_v3.4", "pdf_page": 107, "pdf_parent_section": "§6.1.3.1 [Exposure (EX)]", "pdf_verbatim": "Collected exposure data points are to be represented in the Exposure as Collected (EC) domain. When the relationship between EC and EX records can be described in RELREC, then it should be defined. EX derivations must be described in the Define-XML document.Additional interventions qualifiers", "figure_ref": null, "candidates": [{"md_atom_id": "md_dmEX_assn_a022", "md_file": "knowledge_base/domains/EX/assumptions.md", "md_atom_type": "LIST_ITEM", "md_parent_section": "§EX [EX — Assumptions]", "md_verbatim": "5. Collected exposure data points are to be represented in the Exposure as Collected (EC) domain. When the relationship between EC and EX records can be described in RELREC, then it should be defined. EX derivations must be described in the Define-XML document.", "score": 0.8935, "match_basis": "verbatim_token+domain_route:EX"}, {"md_atom_id": "md_dmEX_assn_a011", "md_file": "knowledge_base/domains/EX/assumptions.md", "md_atom_type": "LIST_ITEM", "md_parent_section": "§EX [EX — Assumptions]", "md_verbatim": "   d. The EX domain should contain 1 record per constant-dosing interval per subject. Sponsors define the constant-dosing interval, which may include any period of time that can be described in terms of a known treatment given at a consistent dose, frequency, infusion rate, and so on. For example, for a study with once-a-week administration of a standard dose for 6 weeks, exposure may be represented as:", "score": 0.5559, "match_basis": "verbatim_token+domain_route:EX"}, {"md_atom_id": "md_dmEX_assn_a023", "md_file": "knowledge_base/domains/EX/assumptions.md", "md_atom_type": "LIST_ITEM", "md_parent_section": "§EX [EX — Assumptions]", "md_verbatim": "6. Additional interventions qualifiers", "score": 0.5402, "match_basis": "verbatim_token+domain_route:EX"}, {"md_atom_id": "md_dmEX_assn_a005", "md_file": "knowledge_base/domains/EX/assumptions.md", "md_atom_type": "LIST_ITEM", "md_parent_section": "§EX [EX — Assumptions]", "md_verbatim": "   c. The EX domain is required for all studies that include protocol-specified study treatment. Exposure records may be directly or indirectly determined; metadata should describe how the records were derived. Common methods for determining exposure (from most direct to least direct) include the following:", "score": 0.5323, "match_basis": "verbatim_token+domain_route:EX"}, {"md_atom_id": "md_dmEX_assn_a004", "md_file": "knowledge_base/domains/EX/assumptions.md", "md_atom_type": "LIST_ITEM", "md_parent_section": "§EX [EX — Assumptions]", "md_verbatim": "   b. The EX domain is recognized in most cases as a derived dataset where EXDOSU reflects the protocol-specified unit per study treatment. Collected data points (e.g., number of tablets, total volume infused) along with additional inputs (e.g., randomization file, concentration, dosage strength, product accountability) are used to derive records in the EX domain.", "score": 0.5205, "match_basis": "verbatim_token+domain_route:EX"}], "candidate_count": 5, "zero_candidate": false}
{"pdf_atom_id": "ig34_p0107_a003", "pdf_atom_type": "LIST_ITEM", "pdf_source": "SDTMIG_v3.4", "pdf_page": 107, "pdf_parent_section": "§6.1.3.1 [Exposure (EX)]", "pdf_verbatim": "Additional interventions qualifiers", "figure_ref": null, "candidates": [{"md_atom_id": "md_dmEX_assn_a023", "md_file": "knowledge_base/domains/EX/assumptions.md", "md_atom_type": "LIST_ITEM", "md_parent_section": "§EX [EX — Assumptions]", "md_verbatim": "6. Additional interventions qualifiers", "score": 1.0, "match_basis": "verbatim_token+domain_route:EX"}, {"md_atom_id": "md_dmEX_assn_a027", "md_file": "knowledge_base/domains/EX/assumptions.md", "md_atom_type": "LIST_ITEM", "md_parent_section": "§EX [EX — Assumptions]", "md_verbatim": "   d. Any identifier variables, timing variables, or findings general observation-class qualifiers may be added to the EX domain, but the following qualifiers would generally not be used: --PRESP, --OCCUR, --STAT, and --REASND.", "score": 0.4884, "match_basis": "verbatim_token+domain_route:EX"}, {"md_atom_id": "md_dmEX_assn_a003", "md_file": "knowledge_base/domains/EX/assumptions.md", "md_atom_type": "LIST_ITEM", "md_parent_section": "§EX [EX — Assumptions]", "md_verbatim": "   a. Examples of treatments represented in the EX domain include but are not limited to placebo, active comparators, and investigational products. Treatments that are not protocol-specified should be represented in the Concomitant/Prior Medications (CM) or another Interventions domain as appropriate.", "score": 0.4657, "match_basis": "verbatim_token+domain_route:EX"}, {"md_atom_id": "md_dmEX_ex_a204", "md_file": "knowledge_base/domains/EX/examples.md", "md_atom_type": "LIST_ITEM", "md_parent_section": "§EX.7 [Example 7]", "md_verbatim": "- The subject's third administration was intended to occur on 2009-02-27; the intended dose was 7.5 mg/kg but, due to a personal reason, the administration did not occur.", "score": 0.4636, "match_basis": "verbatim_token+domain_route:EX"}, {"md_atom_id": "md_dmEX_assn_a020", "md_file": "knowledge_base/domains/EX/assumptions.md", "md_atom_type": "LIST_ITEM", "md_parent_section": "§EX [EX — Assumptions]", "md_verbatim": "   a. The timing of exposure to study treatment is captured by the start/end date and start/end time of each constant-dosing interval. If the subject is only exposed to study medication within a clinical encounter (e.g., if an injection is administered at the clinic), VISITNUM may be added to the domain as an additional timing variable. VISITDY and VISIT would then also be permissible qualifiers. However, if the beginning and end of a constant-dosing interval is not confined within the time limits of a clinical encounter (e.g., if a subject takes pills at home), then it is not appropriate to include VISITNUM in the EX domain. This is because EX is designed to capture the timing of exposure to treatment, not the timing of dispensing treatment. Further, VISITNUM should not be used to indicate that treatment began at a particular visit and continued for a period of time. The SDTM does not have any provision for recording \"start visit\" and \"end visit\" of exposure.", "score": 0.4568, "match_basis": "verbatim_token+domain_route:EX"}], "candidate_count": 5, "zero_candidate": false}
{"pdf_atom_id": "ig34_p0107_a004", "pdf_atom_type": "LIST_ITEM", "pdf_source": "SDTMIG_v3.4", "pdf_page": 107, "pdf_parent_section": "§6.1.3.1 [Exposure (EX)]", "pdf_verbatim": "EX contains medications received; the inclusion of administrations not taken, not given, or missed is under evaluation. Because EX includes only treatments received, --MOOD would generally not be used in EX.", "figure_ref": null, "candidates": [{"md_atom_id": "md_dmEX_assn_a024", "md_file": "knowledge_base/domains/EX/assumptions.md", "md_atom_type": "LIST_ITEM", "md_parent_section": "§EX [EX — Assumptions]", "md_verbatim": "   a. EX contains medications received; the inclusion of administrations not taken, not given, or missed is under evaluation. Because EX includes only treatments received, --MOOD would generally not be used in EX.", "score": 1.0, "match_basis": "verbatim_token+domain_route:EX"}, {"md_atom_id": "md_dmEX_assn_a011", "md_file": "knowledge_base/domains/EX/assumptions.md", "md_atom_type": "LIST_ITEM", "md_parent_section": "§EX [EX — Assumptions]", "md_verbatim": "   d. The EX domain should contain 1 record per constant-dosing interval per subject. Sponsors define the constant-dosing interval, which may include any period of time that can be described in terms of a known treatment given at a consistent dose, frequency, infusion rate, and so on. For example, for a study with once-a-week administration of a standard dose for 6 weeks, exposure may be represented as:", "score": 0.5268, "match_basis": "verbatim_token+domain_route:EX"}, {"md_atom_id": "md_dmEX_assn_a018", "md_file": "knowledge_base/domains/EX/assumptions.md", "md_atom_type": "LIST_ITEM", "md_parent_section": "§EX [EX — Assumptions]", "md_verbatim": "   a. EXCAT and EXSCAT may be used when appropriate to categorize treatments into categories and subcategories. For example, if a study contains several active comparator medications, EXCAT may be set to \"ACTIVE COMPARATOR\". Such categorization may not be useful in all studies, so these variables are permissible.", "score": 0.5252, "match_basis": "verbatim_token+domain_route:EX"}, {"md_atom_id": "md_dmEX_assn_a013", "md_file": "knowledge_base/domains/EX/assumptions.md", "md_atom_type": "LIST_ITEM", "md_parent_section": "§EX [EX — Assumptions]", "md_verbatim": "      ii. up to 6 records (1 for each weekly administration), if the sponsor monitors each treatment administration.", "score": 0.5245, "match_basis": "verbatim_token+domain_route:EX"}, {"md_atom_id": "md_dmEX_assn_a020", "md_file": "knowledge_base/domains/EX/assumptions.md", "md_atom_type": "LIST_ITEM", "md_parent_section": "§EX [EX — Assumptions]", "md_verbatim": "   a. The timing of exposure to study treatment is captured by the start/end date and start/end time of each constant-dosing interval. If the subject is only exposed to study medication within a clinical encounter (e.g., if an injection is administered at the clinic), VISITNUM may be added to the domain as an additional timing variable. VISITDY and VISIT would then also be permissible qualifiers. However, if the beginning and end of a constant-dosing interval is not confined within the time limits of a clinical encounter (e.g., if a subject takes pills at home), then it is not appropriate to include VISITNUM in the EX domain. This is because EX is designed to capture the timing of exposure to treatment, not the timing of dispensing treatment. Further, VISITNUM should not be used to indicate that treatment began at a particular visit and continued for a period of time. The SDTM does not have any provision for recording \"start visit\" and \"end visit\" of exposure.", "score": 0.5113, "match_basis": "verbatim_token+domain_route:EX"}], "candidate_count": 5, "zero_candidate": false}
{"pdf_atom_id": "ig34_p0107_a005", "pdf_atom_type": "LIST_ITEM", "pdf_source": "SDTMIG_v3.4", "pdf_page": 107, "pdf_parent_section": "§6.1.3.1 [Exposure (EX)]", "pdf_verbatim": "--DOSTOT is under evaluation for potential deprecation and replacement with a mechanism to describe total dose over any interval of time (e.g., day, week, month). Sponsors considering use of EXDOSTOT may want to consider using other dose-amount variables (EXDOSE or EXDOSTXT) in combination with frequency (EXDOSFRQ) and timing variables to represent the data.", "figure_ref": null, "candidates": [{"md_atom_id": "md_dmEX_assn_a025", "md_file": "knowledge_base/domains/EX/assumptions.md", "md_atom_type": "LIST_ITEM", "md_parent_section": "§EX [EX — Assumptions]", "md_verbatim": "   b. --DOSTOT is under evaluation for potential deprecation and replacement with a mechanism to describe total dose over any interval of time (e.g., day, week, month). Sponsors considering use of EXDOSTOT may want to consider using other dose-amount variables (EXDOSE or EXDOSTXT) in combination with frequency (EXDOSFRQ) and timing variables to represent the data.", "score": 1.0, "match_basis": "verbatim_token+domain_route:EX"}, {"md_atom_id": "md_dmEX_assn_a011", "md_file": "knowledge_base/domains/EX/assumptions.md", "md_atom_type": "LIST_ITEM", "md_parent_section": "§EX [EX — Assumptions]", "md_verbatim": "   d. The EX domain should contain 1 record per constant-dosing interval per subject. Sponsors define the constant-dosing interval, which may include any period of time that can be described in terms of a known treatment given at a consistent dose, frequency, infusion rate, and so on. For example, for a study with once-a-week administration of a standard dose for 6 weeks, exposure may be represented as:", "score": 0.5656, "match_basis": "verbatim_token+domain_route:EX"}, {"md_atom_id": "md_dmEX_assn_a020", "md_file": "knowledge_base/domains/EX/assumptions.md", "md_atom_type": "LIST_ITEM", "md_parent_section": "§EX [EX — Assumptions]", "md_verbatim": "   a. The timing of exposure to study treatment is captured by the start/end date and start/end time of each constant-dosing interval. If the subject is only exposed to study medication within a clinical encounter (e.g., if an injection is administered at the clinic), VISITNUM may be added to the domain as an additional timing variable. VISITDY and VISIT would then also be permissible qualifiers. However, if the beginning and end of a constant-dosing interval is not confined within the time limits of a clinical encounter (e.g., if a subject takes pills at home), then it is not appropriate to include VISITNUM in the EX domain. This is because EX is designed to capture the timing of exposure to treatment, not the timing of dispensing treatment. Further, VISITNUM should not be used to indicate that treatment began at a particular visit and continued for a period of time. The SDTM does not have any provision for recording \"start visit\" and \"end visit\" of exposure.", "score": 0.495, "match_basis": "verbatim_token+domain_route:EX"}, {"md_atom_id": "md_dmEX_assn_a021", "md_file": "knowledge_base/domains/EX/assumptions.md", "md_atom_type": "LIST_ITEM", "md_parent_section": "§EX [EX — Assumptions]", "md_verbatim": "   b. For administrations considered given at a point in time (e.g., oral tablet, pre-filled syringe injection), where only an administration date/time is collected, EXSTDTC should be copied to EXENDTC as the standard representation.", "score": 0.4923, "match_basis": "verbatim_token+domain_route:EX"}, {"md_atom_id": "md_dmEX_assn_a022", "md_file": "knowledge_base/domains/EX/assumptions.md", "md_atom_type": "LIST_ITEM", "md_parent_section": "§EX [EX — Assumptions]", "md_verbatim": "5. Collected exposure data points are to be represented in the Exposure as Collected (EC) domain. When the relationship between EC and EX records can be described in RELREC, then it should be defined. EX derivations must be described in the Define-XML document.", "score": 0.4875, "match_basis": "verbatim_token+domain_route:EX"}], "candidate_count": 5, "zero_candidate": false}
{"pdf_atom_id": "ig34_p0107_a006", "pdf_atom_type": "LIST_ITEM", "pdf_source": "SDTMIG_v3.4", "pdf_page": 107, "pdf_parent_section": "§6.1.3.1 [Exposure (EX)]", "pdf_verbatim": "When the EC domain is implemented in conjunction with the EX domain, EXVAMT and EXVAMTU would not be used in EX; collected values instead would be represented in ECDOSE and ECDOSU (and ECVAMT and ECVAMTU as needed).", "figure_ref": null, "candidates": [{"md_atom_id": "md_dmEX_assn_a026", "md_file": "knowledge_base/domains/EX/assumptions.md", "md_atom_type": "LIST_ITEM", "md_parent_section": "§EX [EX — Assumptions]", "md_verbatim": "   c. When the EC domain is implemented in conjunction with the EX domain, EXVAMT and EXVAMTU would not be used in EX; collected values instead would be represented in ECDOSE and ECDOSU (and ECVAMT and ECVAMTU as needed).", "score": 1.0, "match_basis": "verbatim_token+domain_route:EX"}, {"md_atom_id": "md_dmEX_assn_a022", "md_file": "knowledge_base/domains/EX/assumptions.md", "md_atom_type": "LIST_ITEM", "md_parent_section": "§EX [EX — Assumptions]", "md_verbatim": "5. Collected exposure data points are to be represented in the Exposure as Collected (EC) domain. When the relationship between EC and EX records can be described in RELREC, then it should be defined. EX derivations must be described in the Define-XML document.", "score": 0.5338, "match_basis": "verbatim_token+domain_route:EX"}, {"md_atom_id": "md_dmEX_assn_a011", "md_file": "knowledge_base/domains/EX/assumptions.md", "md_atom_type": "LIST_ITEM", "md_parent_section": "§EX [EX — Assumptions]", "md_verbatim": "   d. The EX domain should contain 1 record per constant-dosing interval per subject. Sponsors define the constant-dosing interval, which may include any period of time that can be described in terms of a known treatment given at a consistent dose, frequency, infusion rate, and so on. For example, for a study with once-a-week administration of a standard dose for 6 weeks, exposure may be represented as:", "score": 0.5016, "match_basis": "verbatim_token+domain_route:EX"}, {"md_atom_id": "md_dmEX_assn_a021", "md_file": "knowledge_base/domains/EX/assumptions.md", "md_atom_type": "LIST_ITEM", "md_parent_section": "§EX [EX — Assumptions]", "md_verbatim": "   b. For administrations considered given at a point in time (e.g., oral tablet, pre-filled syringe injection), where only an administration date/time is collected, EXSTDTC should be copied to EXENDTC as the standard representation.", "score": 0.4979, "match_basis": "verbatim_token+domain_route:EX"}, {"md_atom_id": "md_dmEX_assn_a003", "md_file": "knowledge_base/domains/EX/assumptions.md", "md_atom_type": "LIST_ITEM", "md_parent_section": "§EX [EX — Assumptions]", "md_verbatim": "   a. Examples of treatments represented in the EX domain include but are not limited to placebo, active comparators, and investigational products. Treatments that are not protocol-specified should be represented in the Concomitant/Prior Medications (CM) or another Interventions domain as appropriate.", "score": 0.4907, "match_basis": "verbatim_token+domain_route:EX"}], "candidate_count": 5, "zero_candidate": false}
{"pdf_atom_id": "ig34_p0107_a007", "pdf_atom_type": "LIST_ITEM", "pdf_source": "SDTMIG_v3.4", "pdf_page": 107, "pdf_parent_section": "§6.1.3.1 [Exposure (EX)]", "pdf_verbatim": "Any identifier variables, timing variables, or findings general observation-class qualifiers may be added to the EX domain, but the following qualifiers would generally not be used: –PRESP, --OCCUR, --STAT, and --REASND.", "figure_ref": null, "candidates": [{"md_atom_id": "md_dmEX_assn_a027", "md_file": "knowledge_base/domains/EX/assumptions.md", "md_atom_type": "LIST_ITEM", "md_parent_section": "§EX [EX — Assumptions]", "md_verbatim": "   d. Any identifier variables, timing variables, or findings general observation-class qualifiers may be added to the EX domain, but the following qualifiers would generally not be used: --PRESP, --OCCUR, --STAT, and --REASND.", "score": 1.0, "match_basis": "verbatim_token+domain_route:EX"}, {"md_atom_id": "md_dmEX_assn_a020", "md_file": "knowledge_base/domains/EX/assumptions.md", "md_atom_type": "LIST_ITEM", "md_parent_section": "§EX [EX — Assumptions]", "md_verbatim": "   a. The timing of exposure to study treatment is captured by the start/end date and start/end time of each constant-dosing interval. If the subject is only exposed to study medication within a clinical encounter (e.g., if an injection is administered at the clinic), VISITNUM may be added to the domain as an additional timing variable. VISITDY and VISIT would then also be permissible qualifiers. However, if the beginning and end of a constant-dosing interval is not confined within the time limits of a clinical encounter (e.g., if a subject takes pills at home), then it is not appropriate to include VISITNUM in the EX domain. This is because EX is designed to capture the timing of exposure to treatment, not the timing of dispensing treatment. Further, VISITNUM should not be used to indicate that treatment began at a particular visit and continued for a period of time. The SDTM does not have any provision for recording \"start visit\" and \"end visit\" of exposure.", "score": 0.504, "match_basis": "verbatim_token+domain_route:EX"}, {"md_atom_id": "md_dmEX_assn_a023", "md_file": "knowledge_base/domains/EX/assumptions.md", "md_atom_type": "LIST_ITEM", "md_parent_section": "§EX [EX — Assumptions]", "md_verbatim": "6. Additional interventions qualifiers", "score": 0.4884, "match_basis": "verbatim_token+domain_route:EX"}, {"md_atom_id": "md_dmEX_assn_a024", "md_file": "knowledge_base/domains/EX/assumptions.md", "md_atom_type": "LIST_ITEM", "md_parent_section": "§EX [EX — Assumptions]", "md_verbatim": "   a. EX contains medications received; the inclusion of administrations not taken, not given, or missed is under evaluation. Because EX includes only treatments received, --MOOD would generally not be used in EX.", "score": 0.4851, "match_basis": "verbatim_token+domain_route:EX"}, {"md_atom_id": "md_dmEX_assn_a015", "md_file": "knowledge_base/domains/EX/assumptions.md", "md_atom_type": "LIST_ITEM", "md_parent_section": "§EX [EX — Assumptions]", "md_verbatim": "   a. EXTRT captures the name of the protocol-specified study treatment and is the topic variable. It is a required variable and must have a value. EXTRT must include only the treatment name and must not include dosage, formulation, or other qualifying information. For example, \"ASPIRIN 100MG TABLET\" is not a valid value for EXTRT. This example should be expressed as EXTRT = \"ASPIRIN\", EXDOSE = \"100\", EXDOSU = \"mg\", and EXDOSFRM = \"TABLET\".", "score": 0.4839, "match_basis": "verbatim_token+domain_route:EX"}], "candidate_count": 5, "zero_candidate": false}
{"pdf_atom_id": "ig34_p0107_a008", "pdf_atom_type": "HEADING", "pdf_source": "SDTMIG_v3.4", "pdf_page": 107, "pdf_parent_section": "§6.1.3 [Exposure Domains]", "pdf_verbatim": "6.1.3.2  Exposure as Collected (EC)", "figure_ref": null, "candidates": [{"md_atom_id": "md_varindex_a434", "md_file": "knowledge_base/VARIABLE_INDEX.md", "md_atom_type": "HEADING", "md_parent_section": "§ 二、领域专属变量（仅 1 个域，共 1499 个），按域分组", "md_verbatim": "### EC — Exposure as Collected (Interventions)", "score": 0.625, "match_basis": "verbatim_token+global_search"}, {"md_atom_id": "md_varindex_a513", "md_file": "knowledge_base/VARIABLE_INDEX.md", "md_atom_type": "HEADING", "md_parent_section": "§ 二、领域专属变量（仅 1 个域，共 1499 个），按域分组", "md_verbatim": "### EX — Exposure (Interventions)", "score": 0.45, "match_basis": "verbatim_token+global_search"}, {"md_atom_id": "md_ch04_a419", "md_file": "knowledge_base/chapters/ch04_general_assumptions.md", "md_atom_type": "HEADING", "md_parent_section": "§4.3 [Coding and Controlled Terminology Assumptions]", "md_verbatim": "### 4.3.1 Controlled Terms, Codelist or Format Column", "score": 0.3514, "match_basis": "verbatim_token+global_search"}, {"md_atom_id": "md_model06_a064", "md_file": "knowledge_base/model/06_relationship_datasets.md", "md_atom_type": "HEADING", "md_parent_section": "§6.4 Related Subjects (RELSUB)", "md_verbatim": "## 6.4 Related Subjects (RELSUB)", "score": 0.35, "match_basis": "verbatim_token+global_search"}, {"md_atom_id": "md_ch08_a275", "md_file": "knowledge_base/chapters/ch08_relationships.md", "md_atom_type": "HEADING", "md_parent_section": "§8 [Representing Relationships and Data]", "md_verbatim": "## 8.7 Related Subjects (RELSUB)", "score": 0.35, "match_basis": "verbatim_token+global_search"}], "candidate_count": 5, "zero_candidate": false}
{"pdf_atom_id": "ig34_p0107_a009", "pdf_atom_type": "HEADING", "pdf_source": "SDTMIG_v3.4", "pdf_page": 107, "pdf_parent_section": "§6.1.3.2 [Exposure as Collected (EC)]", "pdf_verbatim": "EC – Description/Overview", "figure_ref": null, "candidates": [{"md_atom_id": "md_dmEC_assn_a001", "md_file": "knowledge_base/domains/EC/assumptions.md", "md_atom_type": "HEADING", "md_parent_section": "§EC [EC — Assumptions]", "md_verbatim": "# EC — Assumptions", "score": 0.4857, "match_basis": "verbatim_token+domain_route:EC"}, {"md_atom_id": "md_dmEC_ex_a001", "md_file": "knowledge_base/domains/EC/examples.md", "md_atom_type": "HEADING", "md_parent_section": "§EC [EC — Examples]", "md_verbatim": "# EC — Examples", "score": 0.4, "match_basis": "verbatim_token+domain_route:EC"}, {"md_atom_id": "md_dmEC_ex_a003", "md_file": "knowledge_base/domains/EC/examples.md", "md_atom_type": "HEADING", "md_parent_section": "§EC [EC — Examples]", "md_verbatim": "## Example 1", "score": 0.4, "match_basis": "verbatim_token+domain_route:EC"}, {"md_atom_id": "md_dmEC_ex_a014", "md_file": "knowledge_base/domains/EC/examples.md", "md_atom_type": "HEADING", "md_parent_section": "§EC [EC — Examples]", "md_verbatim": "## Example 2", "score": 0.4, "match_basis": "verbatim_token+domain_route:EC"}, {"md_atom_id": "md_dmEC_ex_a022", "md_file": "knowledge_base/domains/EC/examples.md", "md_atom_type": "HEADING", "md_parent_section": "§EC [EC — Examples]", "md_verbatim": "## Example 3", "score": 0.4, "match_basis": "verbatim_token+domain_route:EC"}], "candidate_count": 5, "zero_candidate": false}
{"pdf_atom_id": "ig34_p0107_a010", "pdf_atom_type": "SENTENCE", "pdf_source": "SDTMIG_v3.4", "pdf_page": 107, "pdf_parent_section": "§6.1.3.2 [Exposure as Collected (EC)]", "pdf_verbatim": "An interventions domain that contains information about protocol-specified study treatment administrations, as collected.", "figure_ref": null, "candidates": [{"md_atom_id": "md_dmEC_assn_a002", "md_file": "knowledge_base/domains/EC/assumptions.md", "md_atom_type": "LIST_ITEM", "md_parent_section": "§EC [EC — Assumptions]", "md_verbatim": "1. The EC domain model reflects protocol-specified study treatment administrations, as collected.", "score": 0.6684, "match_basis": "verbatim_token+domain_route:EC"}, {"md_atom_id": "md_dmEC_ex_a005", "md_file": "knowledge_base/domains/EC/examples.md", "md_atom_type": "SENTENCE", "md_parent_section": "§EC.1 [Example 1]", "md_verbatim": "Upon unmasking, it became known that subject ABC1001 received drug X and Subject ABC2001 received drug Z. The EC dataset shows the administrations of study treatment as collected.", "score": 0.567, "match_basis": "verbatim_token+domain_route:EC"}, {"md_atom_id": "md_dmEC_ex_a046", "md_file": "knowledge_base/domains/EC/examples.md", "md_atom_type": "SENTENCE", "md_parent_section": "§EC.6 [Example 6]", "md_verbatim": "The EC dataset shows administrations as collected.", "score": 0.5538, "match_basis": "verbatim_token+domain_route:EC"}, {"md_atom_id": "md_dmEC_ex_a073", "md_file": "knowledge_base/domains/EC/examples.md", "md_atom_type": "SENTENCE", "md_parent_section": "§EC.8 [Example 8]", "md_verbatim": "The EC dataset shows administrations as collected.", "score": 0.5538, "match_basis": "verbatim_token+domain_route:EC"}, {"md_atom_id": "md_dmEC_ex_a024", "md_file": "knowledge_base/domains/EC/examples.md", "md_atom_type": "SENTENCE", "md_parent_section": "§EC.3 [Example 3]", "md_verbatim": "The EC dataset shows administrations as collected, in tablets.", "score": 0.5446, "match_basis": "verbatim_token+domain_route:EC"}], "candidate_count": 5, "zero_candidate": false}
{"pdf_atom_id": "ig34_p0107_a011", "pdf_atom_type": "HEADING", "pdf_source": "SDTMIG_v3.4", "pdf_page": 107, "pdf_parent_section": "§6.1.3.2 [Exposure as Collected (EC)]", "pdf_verbatim": "EC – Specification", "figure_ref": null, "candidates": [{"md_atom_id": "md_dmEC_assn_a001", "md_file": "knowledge_base/domains/EC/assumptions.md", "md_atom_type": "HEADING", "md_parent_section": "§EC [EC — Assumptions]", "md_verbatim": "# EC — Assumptions", "score": 0.4667, "match_basis": "verbatim_token+domain_route:EC"}, {"md_atom_id": "md_dmEC_ex_a001", "md_file": "knowledge_base/domains/EC/examples.md", "md_atom_type": "HEADING", "md_parent_section": "§EC [EC — Examples]", "md_verbatim": "# EC — Examples", "score": 0.4, "match_basis": "verbatim_token+domain_route:EC"}, {"md_atom_id": "md_dmEC_ex_a003", "md_file": "knowledge_base/domains/EC/examples.md", "md_atom_type": "HEADING", "md_parent_section": "§EC [EC — Examples]", "md_verbatim": "## Example 1", "score": 0.4, "match_basis": "verbatim_token+domain_route:EC"}, {"md_atom_id": "md_dmEC_ex_a014", "md_file": "knowledge_base/domains/EC/examples.md", "md_atom_type": "HEADING", "md_parent_section": "§EC [EC — Examples]", "md_verbatim": "## Example 2", "score": 0.4, "match_basis": "verbatim_token+domain_route:EC"}, {"md_atom_id": "md_dmEC_ex_a022", "md_file": "knowledge_base/domains/EC/examples.md", "md_atom_type": "HEADING", "md_parent_section": "§EC [EC — Examples]", "md_verbatim": "## Example 3", "score": 0.4, "match_basis": "verbatim_token+domain_route:EC"}], "candidate_count": 5, "zero_candidate": false}
{"pdf_atom_id": "ig34_p0107_a012", "pdf_atom_type": "SENTENCE", "pdf_source": "SDTMIG_v3.4", "pdf_page": 107, "pdf_parent_section": "§6.1.3.2 [Exposure as Collected (EC)]", "pdf_verbatim": "ec.xpt, Exposure as Collected — Interventions. One record per protocol-specified study treatment, collected-dosing interval, per subject, per mood, Tabulation.", "figure_ref": null, "candidates": [{"md_atom_id": "md_dmEC_ex_a005", "md_file": "knowledge_base/domains/EC/examples.md", "md_atom_type": "SENTENCE", "md_parent_section": "§EC.1 [Example 1]", "md_verbatim": "Upon unmasking, it became known that subject ABC1001 received drug X and Subject ABC2001 received drug Z. The EC dataset shows the administrations of study treatment as collected.", "score": 0.5339, "match_basis": "verbatim_token+domain_route:EC"}, {"md_atom_id": "md_dmEC_assn_a002", "md_file": "knowledge_base/domains/EC/assumptions.md", "md_atom_type": "LIST_ITEM", "md_parent_section": "§EC [EC — Assumptions]", "md_verbatim": "1. The EC domain model reflects protocol-specified study treatment administrations, as collected.", "score": 0.5276, "match_basis": "verbatim_token+domain_route:EC"}, {"md_atom_id": "md_dmEC_ex_a072", "md_file": "knowledge_base/domains/EC/examples.md", "md_atom_type": "SENTENCE", "md_parent_section": "§EC.8 [Example 8]", "md_verbatim": "In this example, a 100 mg tablet is scheduled to be taken daily. Start and end of dosing were collected, along with deviations from the planned daily dosing.", "score": 0.4814, "match_basis": "verbatim_token+domain_route:EC"}, {"md_atom_id": "md_dmEC_ex_a047", "md_file": "knowledge_base/domains/EC/examples.md", "md_atom_type": "SENTENCE", "md_parent_section": "§EC.6 [Example 6]", "md_verbatim": "**Rows 1-12:** Unblinding revealed that subject 56789001 received placebo-coated tablets during the first treatment epoch and placebo capsules during the second treatment epoch.", "score": 0.4785, "match_basis": "verbatim_token+domain_route:EC"}, {"md_atom_id": "md_dmEC_ex_a048", "md_file": "knowledge_base/domains/EC/examples.md", "md_atom_type": "SENTENCE", "md_parent_section": "§EC.6 [Example 6]", "md_verbatim": "**Rows 13-24:** Unblinding revealed that subject 56789003 received placebo capsules during the first treatment epoch and placebo-coated tablets during the second treatment epoch.", "score": 0.4785, "match_basis": "verbatim_token+domain_route:EC"}], "candidate_count": 5, "zero_candidate": false}
{"pdf_atom_id": "ig34_p0107_a013", "pdf_atom_type": "CODE_LITERAL", "pdf_source": "SDTMIG_v3.4", "pdf_page": 107, "pdf_parent_section": "§6.1.3.2 [Exposure as Collected (EC)]", "pdf_verbatim": "ec.xpt", "figure_ref": null, "candidates": [{"md_atom_id": "md_dmEC_ex_a008", "md_file": "knowledge_base/domains/EC/examples.md", "md_atom_type": "SENTENCE", "md_parent_section": "§EC.1 [Example 1]", "md_verbatim": "**ec.xpt**", "score": 0.79, "match_basis": "verbatim_token+domain_route:EC"}, {"md_atom_id": "md_dmEC_ex_a017", "md_file": "knowledge_base/domains/EC/examples.md", "md_atom_type": "SENTENCE", "md_parent_section": "§EC.2 [Example 2]", "md_verbatim": "**ec.xpt**", "score": 0.79, "match_basis": "verbatim_token+domain_route:EC"}, {"md_atom_id": "md_dmEC_ex_a025", "md_file": "knowledge_base/domains/EC/examples.md", "md_atom_type": "SENTENCE", "md_parent_section": "§EC.3 [Example 3]", "md_verbatim": "**ec.xpt**", "score": 0.79, "match_basis": "verbatim_token+domain_route:EC"}, {"md_atom_id": "md_dmEC_ex_a036", "md_file": "knowledge_base/domains/EC/examples.md", "md_atom_type": "SENTENCE", "md_parent_section": "§EC.5 [Example 5]", "md_verbatim": "**ec.xpt**", "score": 0.79, "match_basis": "verbatim_token+domain_route:EC"}, {"md_atom_id": "md_dmEC_ex_a049", "md_file": "knowledge_base/domains/EC/examples.md", "md_atom_type": "SENTENCE", "md_parent_section": "§EC.6 [Example 6]", "md_verbatim": "**ec.xpt**", "score": 0.79, "match_basis": "verbatim_token+domain_route:EC"}, {"md_atom_id": "md_dmEC_ex_a063", "md_file": "knowledge_base/domains/EC/examples.md", "md_atom_type": "SENTENCE", "md_parent_section": "§EC.7 [Example 7]", "md_verbatim": "**ec.xpt**", "score": 0.79, "match_basis": "verbatim_token+domain_route:EC"}, {"md_atom_id": "md_dmEC_ex_a077", "md_file": "knowledge_base/domains/EC/examples.md", "md_atom_type": "SENTENCE", "md_parent_section": "§EC.8 [Example 8]", "md_verbatim": "**ec.xpt**", "score": 0.79, "match_basis": "verbatim_token+domain_route:EC"}, {"md_atom_id": "md_dmEC_assn_a001", "md_file": "knowledge_base/domains/EC/assumptions.md", "md_atom_type": "HEADING", "md_parent_section": "§EC [EC — Assumptions]", "md_verbatim": "# EC — Assumptions", "score": 0.19, "match_basis": "verbatim_token+domain_route:EC"}, {"md_atom_id": "md_dmEC_assn_a002", "md_file": "knowledge_base/domains/EC/assumptions.md", "md_atom_type": "LIST_ITEM", "md_parent_section": "§EC [EC — Assumptions]", "md_verbatim": "1. The EC domain model reflects protocol-specified study treatment administrations, as collected.", "score": 0.19, "match_basis": "verbatim_token+domain_route:EC"}, {"md_atom_id": "md_dmEC_assn_a003", "md_file": "knowledge_base/domains/EC/assumptions.md", "md_atom_type": "LIST_ITEM", "md_parent_section": "§EC [EC — Assumptions]", "md_verbatim": "   a. EC should be used in all cases where collected exposure information cannot or should not be directly represented in the Exposure (EX) domain. For example, administrations collected in tablets when the protocol-specified unit is mg, or administrations collected in mL when the protocol-specified unit is mg/kg. Product accountability details (e.g., amount dispensed, amount returned) are represented in the DA domain, not in EC.", "score": 0.19, "match_basis": "verbatim_token+domain_route:EC"}], "candidate_count": 10, "zero_candidate": false}
{"pdf_atom_id": "ig34_p0107_a014", "pdf_atom_type": "TABLE_HEADER", "pdf_source": "SDTMIG_v3.4", "pdf_page": 107, "pdf_parent_section": "§6.1.3.2 [Exposure as Collected (EC)]", "pdf_verbatim": "Variable Name | Variable Label | Type | Controlled Terms, Codelist or Format1 | Role | CDISC Notes | Core", "figure_ref": null, "candidates": [{"md_atom_id": "md_dmEC_ex_a009", "md_file": "knowledge_base/domains/EC/examples.md", "md_atom_type": "TABLE_HEADER", "md_parent_section": "§EC.1 [Example 1]", "md_verbatim": "| Row | STUDYID | DOMAIN | USUBJID | ECSEQ | ECLNKID | ECTRT | ECPRESP | ECOCCUR | ECREASOC | ECDOSE | ECDOSU | ECDOSFRQ | EPOCH | ECSTDTC | ECENDTC | ECSTDY | ECENDY |\n|-----|---------|--------|---------|-------|---------|-------|---------|---------|----------|--------|--------|----------|-------|---------|---------|--------|--------|", "score": 0.4, "match_basis": "verbatim_token+domain_route:EC"}, {"md_atom_id": "md_dmEC_ex_a018", "md_file": "knowledge_base/domains/EC/examples.md", "md_atom_type": "TABLE_HEADER", "md_parent_section": "§EC.2 [Example 2]", "md_verbatim": "| Row | STUDYID | DOMAIN | USUBJID | ECSEQ | ECSPID | ECLNKID | ECTRT | ECPRESP | ECOCCUR | ECDOSE | ECDOSU | ECDOSFRM | ECDOSFRQ | ECROUTE | ECLOC | ECLAT | VISIT | EPOCH | ECSTDTC | ECENDTC | ECSTDY | ECENDY |\n|-----|---------|--------|---------|-------|--------|---------|-------|---------|---------|--------|--------|----------|----------|---------|-------|-------|-------|-------|---------|---------|--------|--------|", "score": 0.4, "match_basis": "verbatim_token+domain_route:EC"}, {"md_atom_id": "md_dmEC_ex_a026", "md_file": "knowledge_base/domains/EC/examples.md", "md_atom_type": "TABLE_HEADER", "md_parent_section": "§EC.3 [Example 3]", "md_verbatim": "| Row | STUDYID | DOMAIN | USUBJID | ECSEQ | ECTRT | ECPRESP | ECOCCUR | ECDOSE | ECDOSU | ECDOSFRQ | EPOCH | ECSTDTC | ECENDTC | ECSTDY | ECENDY |\n|-----|---------|--------|---------|-------|-------|---------|---------|--------|--------|----------|-------|---------|---------|--------|--------|", "score": 0.4, "match_basis": "verbatim_token+domain_route:EC"}, {"md_atom_id": "md_dmEC_ex_a037", "md_file": "knowledge_base/domains/EC/examples.md", "md_atom_type": "TABLE_HEADER", "md_parent_section": "§EC.5 [Example 5]", "md_verbatim": "| Row | STUDYID | DOMAIN | USUBJID | ECSEQ | ECLNKID | ECTRT | ECPRESP | ECOCCUR | ECDOSE | ECDOSU | ECDOSFRQ | EPOCH | ECSTDTC | ECENDTC | ECSTDY | ECENDY | ECTPT | ECTPTNUM |\n|-----|---------|--------|---------|-------|---------|-------|---------|---------|--------|--------|----------|-------|---------|---------|--------|--------|-------|----------|", "score": 0.4, "match_basis": "verbatim_token+domain_route:EC"}, {"md_atom_id": "md_dmEC_ex_a050", "md_file": "knowledge_base/domains/EC/examples.md", "md_atom_type": "TABLE_HEADER", "md_parent_section": "§EC.6 [Example 6]", "md_verbatim": "| Row | STUDYID | DOMAIN | USUBJID | ECSEQ | ECTRT | ECPRESP | ECOCCUR | ECDOSE | ECDOSU | ECDOSFRM | ECDOSFRQ | ECROUTE | EPOCH | ECSTDTC | ECENDTC | ECSTDY | ECENDY | ECTPT | ECELTM | ECTPTREF |\n|-----|---------|--------|---------|-------|-------|---------|---------|--------|--------|----------|----------|---------|-------|---------|---------|--------|--------|-------|--------|----------|", "score": 0.4, "match_basis": "verbatim_token+domain_route:EC"}], "candidate_count": 5, "zero_candidate": false}
{"pdf_atom_id": "ig34_p0107_a015", "pdf_atom_type": "TABLE_ROW", "pdf_source": "SDTMIG_v3.4", "pdf_page": 107, "pdf_parent_section": "§6.1.3.2 [Exposure as Collected (EC)]", "pdf_verbatim": "STUDYID | Study Identifier | Char | | Identifier | Unique identifier for a study. | Req", "figure_ref": null, "candidates": [{"md_atom_id": "md_dmEC_ex_a066", "md_file": "knowledge_base/domains/EC/examples.md", "md_atom_type": "TABLE_ROW", "md_parent_section": "§EC.7 [Example 7]", "md_verbatim": "| 2 | ABC123 | EC | ABC123-0201 | 2 | 20090213T1000 | V1 | DRUG Z | PERFORMED | Y | Y | | 99 | mL | 5.5 | mg/mL | | VISIT TREATMENT | 1 | VISIT 1 | 2009-02-13T10:00 | 2009-02-13T10:45 | 1 | 1 |", "score": 0.4218, "match_basis": "verbatim_token+domain_route:EC"}, {"md_atom_id": "md_dmEC_ex_a068", "md_file": "knowledge_base/domains/EC/examples.md", "md_atom_type": "TABLE_ROW", "md_parent_section": "§EC.7 [Example 7]", "md_verbatim": "| 4 | ABC123 | EC | ABC123-0201 | 4 | 20090220T1100 | V2 | DRUG Z | PERFORMED | Y | Y | | 35 | mL | 4.12 | mg/mL | | VISIT TREATMENT | 2 | VISIT 2 | 2009-02-20T11:00 | 2009-02-20T11:20 | 8 | 8 |", "score": 0.4218, "match_basis": "verbatim_token+domain_route:EC"}, {"md_atom_id": "md_dmEC_ex_a070", "md_file": "knowledge_base/domains/EC/examples.md", "md_atom_type": "TABLE_ROW", "md_parent_section": "§EC.7 [Example 7]", "md_verbatim": "| 6 | ABC123 | EC | ABC123-0201 | 6 | 20090227 | V3 | DRUG Z | PERFORMED | Y | N | PERSONAL REASON | | mL | 4.12 | mg/mL | | VISIT TREATMENT | 3 | VISIT 3 | 2009-02-27 | 2009-02-27 | 15 | 15 |", "score": 0.4211, "match_basis": "verbatim_token+domain_route:EC"}, {"md_atom_id": "md_dmEC_ex_a027", "md_file": "knowledge_base/domains/EC/examples.md", "md_atom_type": "TABLE_ROW", "md_parent_section": "§EC.3 [Example 3]", "md_verbatim": "| 1 | ABC | EC | ABC4001 | 1 | BOTTLE A | Y | Y | 1 | TABLET | QD | TREATMENT | 2011-01-14 | 2011-01-28 | 1 | 15 |", "score": 0.4143, "match_basis": "verbatim_token+domain_route:EC"}, {"md_atom_id": "md_dmEC_ex_a028", "md_file": "knowledge_base/domains/EC/examples.md", "md_atom_type": "TABLE_ROW", "md_parent_section": "§EC.3 [Example 3]", "md_verbatim": "| 2 | ABC | EC | ABC4001 | 2 | BOTTLE C | Y | Y | 1 | TABLET | QD | TREATMENT | 2011-01-14 | 2011-01-28 | 1 | 15 |", "score": 0.4143, "match_basis": "verbatim_token+domain_route:EC"}], "candidate_count": 5, "zero_candidate": false}
{"pdf_atom_id": "ig34_p0107_a016", "pdf_atom_type": "TABLE_ROW", "pdf_source": "SDTMIG_v3.4", "pdf_page": 107, "pdf_parent_section": "§6.1.3.2 [Exposure as Collected (EC)]", "pdf_verbatim": "DOMAIN | Domain Abbreviation | Char | EC | Identifier | Two-character abbreviation for the domain. | Req", "figure_ref": null, "candidates": [{"md_atom_id": "md_dmEC_ex_a020", "md_file": "knowledge_base/domains/EC/examples.md", "md_atom_type": "TABLE_ROW", "md_parent_section": "§EC.2 [Example 2]", "md_verbatim": "| 2 | ABC | EC | ABC3001 | 2 | INJ2 | V3 | DRUG X | Y | Y | 5 | mL | INJECTION | ONCE | SUBCUTANEOUS | ABDOMINAL CAVITY | CENTER | VISIT 3 | TREATMENT | 2009-05-10 | 2009-05-10 | 21 | 21 |", "score": 0.437, "match_basis": "verbatim_token+domain_route:EC"}, {"md_atom_id": "md_dmEC_ex_a019", "md_file": "knowledge_base/domains/EC/examples.md", "md_atom_type": "TABLE_ROW", "md_parent_section": "§EC.2 [Example 2]", "md_verbatim": "| 1 | ABC | EC | ABC3001 | 1 | INJ1 | V3 | DRUG X | Y | Y | 5 | mL | INJECTION | ONCE | SUBCUTANEOUS | ABDOMINAL CAVITY | LEFT | VISIT 3 | TREATMENT | 2009-05-10 | 2009-05-10 | 21 | 21 |", "score": 0.4296, "match_basis": "verbatim_token+domain_route:EC"}, {"md_atom_id": "md_dmEC_ex_a080", "md_file": "knowledge_base/domains/EC/examples.md", "md_atom_type": "TABLE_ROW", "md_parent_section": "§EC.8 [Example 8]", "md_verbatim": "| 2 | ABC | EC | ABC7001 | 2 | BOTTLE A | EXCEPTION DOSE | Y | N | | TABLET | QD | TREATMENT | 2012-01-15 | 2012-01-15 | 3 | 3 |", "score": 0.4295, "match_basis": "verbatim_token+domain_route:EC"}, {"md_atom_id": "md_dmEC_ex_a081", "md_file": "knowledge_base/domains/EC/examples.md", "md_atom_type": "TABLE_ROW", "md_parent_section": "§EC.8 [Example 8]", "md_verbatim": "| 3 | ABC | EC | ABC7001 | 3 | BOTTLE A | EXCEPTION DOSE | Y | Y | 2 | TABLET | QD | TREATMENT | 2012-01-16 | 2012-01-16 | 4 | 4 |", "score": 0.4295, "match_basis": "verbatim_token+domain_route:EC"}, {"md_atom_id": "md_dmEC_ex_a021", "md_file": "knowledge_base/domains/EC/examples.md", "md_atom_type": "TABLE_ROW", "md_parent_section": "§EC.2 [Example 2]", "md_verbatim": "| 3 | ABC | EC | ABC3001 | 3 | INJ3 | V3 | DRUG X | Y | Y | 5 | mL | INJECTION | ONCE | SUBCUTANEOUS | ABDOMINAL CAVITY | RIGHT | VISIT 3 | TREATMENT | 2009-05-10 | 2009-05-10 | 21 | 21 |", "score": 0.4293, "match_basis": "verbatim_token+domain_route:EC"}], "candidate_count": 5, "zero_candidate": false}
{"pdf_atom_id": "ig34_p0107_a017", "pdf_atom_type": "TABLE_ROW", "pdf_source": "SDTMIG_v3.4", "pdf_page": 107, "pdf_parent_section": "§6.1.3.2 [Exposure as Collected (EC)]", "pdf_verbatim": "USUBJID | Unique Subject Identifier | Char | | Identifier | Identifier used to uniquely identify a subject across all studies for all applications or submissions involving the product. | Req", "figure_ref": null, "candidates": [{"md_atom_id": "md_dmEC_ex_a019", "md_file": "knowledge_base/domains/EC/examples.md", "md_atom_type": "TABLE_ROW", "md_parent_section": "§EC.2 [Example 2]", "md_verbatim": "| 1 | ABC | EC | ABC3001 | 1 | INJ1 | V3 | DRUG X | Y | Y | 5 | mL | INJECTION | ONCE | SUBCUTANEOUS | ABDOMINAL CAVITY | LEFT | VISIT 3 | TREATMENT | 2009-05-10 | 2009-05-10 | 21 | 21 |", "score": 0.4316, "match_basis": "verbatim_token+domain_route:EC"}, {"md_atom_id": "md_dmEC_ex_a020", "md_file": "knowledge_base/domains/EC/examples.md", "md_atom_type": "TABLE_ROW", "md_parent_section": "§EC.2 [Example 2]", "md_verbatim": "| 2 | ABC | EC | ABC3001 | 2 | INJ2 | V3 | DRUG X | Y | Y | 5 | mL | INJECTION | ONCE | SUBCUTANEOUS | ABDOMINAL CAVITY | CENTER | VISIT 3 | TREATMENT | 2009-05-10 | 2009-05-10 | 21 | 21 |", "score": 0.4313, "match_basis": "verbatim_token+domain_route:EC"}, {"md_atom_id": "md_dmEC_ex_a021", "md_file": "knowledge_base/domains/EC/examples.md", "md_atom_type": "TABLE_ROW", "md_parent_section": "§EC.2 [Example 2]", "md_verbatim": "| 3 | ABC | EC | ABC3001 | 3 | INJ3 | V3 | DRUG X | Y | Y | 5 | mL | INJECTION | ONCE | SUBCUTANEOUS | ABDOMINAL CAVITY | RIGHT | VISIT 3 | TREATMENT | 2009-05-10 | 2009-05-10 | 21 | 21 |", "score": 0.4313, "match_basis": "verbatim_token+domain_route:EC"}, {"md_atom_id": "md_dmEC_ex_a080", "md_file": "knowledge_base/domains/EC/examples.md", "md_atom_type": "TABLE_ROW", "md_parent_section": "§EC.8 [Example 8]", "md_verbatim": "| 2 | ABC | EC | ABC7001 | 2 | BOTTLE A | EXCEPTION DOSE | Y | N | | TABLET | QD | TREATMENT | 2012-01-15 | 2012-01-15 | 3 | 3 |", "score": 0.4187, "match_basis": "verbatim_token+domain_route:EC"}, {"md_atom_id": "md_dmEC_ex_a081", "md_file": "knowledge_base/domains/EC/examples.md", "md_atom_type": "TABLE_ROW", "md_parent_section": "§EC.8 [Example 8]", "md_verbatim": "| 3 | ABC | EC | ABC7001 | 3 | BOTTLE A | EXCEPTION DOSE | Y | Y | 2 | TABLET | QD | TREATMENT | 2012-01-16 | 2012-01-16 | 4 | 4 |", "score": 0.4187, "match_basis": "verbatim_token+domain_route:EC"}], "candidate_count": 5, "zero_candidate": false}
{"pdf_atom_id": "ig34_p0107_a018", "pdf_atom_type": "TABLE_ROW", "pdf_source": "SDTMIG_v3.4", "pdf_page": 107, "pdf_parent_section": "§6.1.3.2 [Exposure as Collected (EC)]", "pdf_verbatim": "ECSEQ | Sequence Number | Num | | Identifier | Sequence number given to ensure uniqueness of subject records within a domain. May be any valid number. | Req", "figure_ref": null, "candidates": [{"md_atom_id": "md_dmEC_ex_a019", "md_file": "knowledge_base/domains/EC/examples.md", "md_atom_type": "TABLE_ROW", "md_parent_section": "§EC.2 [Example 2]", "md_verbatim": "| 1 | ABC | EC | ABC3001 | 1 | INJ1 | V3 | DRUG X | Y | Y | 5 | mL | INJECTION | ONCE | SUBCUTANEOUS | ABDOMINAL CAVITY | LEFT | VISIT 3 | TREATMENT | 2009-05-10 | 2009-05-10 | 21 | 21 |", "score": 0.435, "match_basis": "verbatim_token+domain_route:EC"}, {"md_atom_id": "md_dmEC_ex_a020", "md_file": "knowledge_base/domains/EC/examples.md", "md_atom_type": "TABLE_ROW", "md_parent_section": "§EC.2 [Example 2]", "md_verbatim": "| 2 | ABC | EC | ABC3001 | 2 | INJ2 | V3 | DRUG X | Y | Y | 5 | mL | INJECTION | ONCE | SUBCUTANEOUS | ABDOMINAL CAVITY | CENTER | VISIT 3 | TREATMENT | 2009-05-10 | 2009-05-10 | 21 | 21 |", "score": 0.4346, "match_basis": "verbatim_token+domain_route:EC"}, {"md_atom_id": "md_dmEC_ex_a021", "md_file": "knowledge_base/domains/EC/examples.md", "md_atom_type": "TABLE_ROW", "md_parent_section": "§EC.2 [Example 2]", "md_verbatim": "| 3 | ABC | EC | ABC3001 | 3 | INJ3 | V3 | DRUG X | Y | Y | 5 | mL | INJECTION | ONCE | SUBCUTANEOUS | ABDOMINAL CAVITY | RIGHT | VISIT 3 | TREATMENT | 2009-05-10 | 2009-05-10 | 21 | 21 |", "score": 0.4346, "match_basis": "verbatim_token+domain_route:EC"}, {"md_atom_id": "md_dmEC_ex_a079", "md_file": "knowledge_base/domains/EC/examples.md", "md_atom_type": "TABLE_ROW", "md_parent_section": "§EC.8 [Example 8]", "md_verbatim": "| 1 | ABC | EC | ABC7001 | 1 | BOTTLE A | FIRST TO LAST DOSE INTERVAL | Y | Y | 1 | TABLET | QD | TREATMENT | 2012-01-13 | 2012-01-20 | 1 | 8 |", "score": 0.4133, "match_basis": "verbatim_token+domain_route:EC"}, {"md_atom_id": "md_dmEC_ex_a027", "md_file": "knowledge_base/domains/EC/examples.md", "md_atom_type": "TABLE_ROW", "md_parent_section": "§EC.3 [Example 3]", "md_verbatim": "| 1 | ABC | EC | ABC4001 | 1 | BOTTLE A | Y | Y | 1 | TABLET | QD | TREATMENT | 2011-01-14 | 2011-01-28 | 1 | 15 |", "score": 0.4077, "match_basis": "verbatim_token+domain_route:EC"}], "candidate_count": 5, "zero_candidate": false}
{"pdf_atom_id": "ig34_p0107_a019", "pdf_atom_type": "TABLE_ROW", "pdf_source": "SDTMIG_v3.4", "pdf_page": 107, "pdf_parent_section": "§6.1.3.2 [Exposure as Collected (EC)]", "pdf_verbatim": "ECGRPID | Group ID | Char | | Identifier | Used to tie together a block of related records in a single domain for a subject. | Perm", "figure_ref": null, "candidates": [{"md_atom_id": "md_dmEC_ex_a019", "md_file": "knowledge_base/domains/EC/examples.md", "md_atom_type": "TABLE_ROW", "md_parent_section": "§EC.2 [Example 2]", "md_verbatim": "| 1 | ABC | EC | ABC3001 | 1 | INJ1 | V3 | DRUG X | Y | Y | 5 | mL | INJECTION | ONCE | SUBCUTANEOUS | ABDOMINAL CAVITY | LEFT | VISIT 3 | TREATMENT | 2009-05-10 | 2009-05-10 | 21 | 21 |", "score": 0.4291, "match_basis": "verbatim_token+domain_route:EC"}, {"md_atom_id": "md_dmEC_ex_a020", "md_file": "knowledge_base/domains/EC/examples.md", "md_atom_type": "TABLE_ROW", "md_parent_section": "§EC.2 [Example 2]", "md_verbatim": "| 2 | ABC | EC | ABC3001 | 2 | INJ2 | V3 | DRUG X | Y | Y | 5 | mL | INJECTION | ONCE | SUBCUTANEOUS | ABDOMINAL CAVITY | CENTER | VISIT 3 | TREATMENT | 2009-05-10 | 2009-05-10 | 21 | 21 |", "score": 0.4288, "match_basis": "verbatim_token+domain_route:EC"}, {"md_atom_id": "md_dmEC_ex_a021", "md_file": "knowledge_base/domains/EC/examples.md", "md_atom_type": "TABLE_ROW", "md_parent_section": "§EC.2 [Example 2]", "md_verbatim": "| 3 | ABC | EC | ABC3001 | 3 | INJ3 | V3 | DRUG X | Y | Y | 5 | mL | INJECTION | ONCE | SUBCUTANEOUS | ABDOMINAL CAVITY | RIGHT | VISIT 3 | TREATMENT | 2009-05-10 | 2009-05-10 | 21 | 21 |", "score": 0.4288, "match_basis": "verbatim_token+domain_route:EC"}, {"md_atom_id": "md_dmEC_ex_a066", "md_file": "knowledge_base/domains/EC/examples.md", "md_atom_type": "TABLE_ROW", "md_parent_section": "§EC.7 [Example 7]", "md_verbatim": "| 2 | ABC123 | EC | ABC123-0201 | 2 | 20090213T1000 | V1 | DRUG Z | PERFORMED | Y | Y | | 99 | mL | 5.5 | mg/mL | | VISIT TREATMENT | 1 | VISIT 1 | 2009-02-13T10:00 | 2009-02-13T10:45 | 1 | 1 |", "score": 0.4202, "match_basis": "verbatim_token+domain_route:EC"}, {"md_atom_id": "md_dmEC_ex_a068", "md_file": "knowledge_base/domains/EC/examples.md", "md_atom_type": "TABLE_ROW", "md_parent_section": "§EC.7 [Example 7]", "md_verbatim": "| 4 | ABC123 | EC | ABC123-0201 | 4 | 20090220T1100 | V2 | DRUG Z | PERFORMED | Y | Y | | 35 | mL | 4.12 | mg/mL | | VISIT TREATMENT | 2 | VISIT 2 | 2009-02-20T11:00 | 2009-02-20T11:20 | 8 | 8 |", "score": 0.4202, "match_basis": "verbatim_token+domain_route:EC"}], "candidate_count": 5, "zero_candidate": false}
{"pdf_atom_id": "ig34_p0107_a020", "pdf_atom_type": "TABLE_ROW", "pdf_source": "SDTMIG_v3.4", "pdf_page": 107, "pdf_parent_section": "§6.1.3.2 [Exposure as Collected (EC)]", "pdf_verbatim": "ECREFID | Reference ID | Char | | Identifier | Internal or external identifier (e.g., kit number, bottle label, vial identifier). | Perm", "figure_ref": null, "candidates": [{"md_atom_id": "md_dmEC_ex_a079", "md_file": "knowledge_base/domains/EC/examples.md", "md_atom_type": "TABLE_ROW", "md_parent_section": "§EC.8 [Example 8]", "md_verbatim": "| 1 | ABC | EC | ABC7001 | 1 | BOTTLE A | FIRST TO LAST DOSE INTERVAL | Y | Y | 1 | TABLET | QD | TREATMENT | 2012-01-13 | 2012-01-20 | 1 | 8 |", "score": 0.4667, "match_basis": "verbatim_token+domain_route:EC"}, {"md_atom_id": "md_dmEC_ex_a027", "md_file": "knowledge_base/domains/EC/examples.md", "md_atom_type": "TABLE_ROW", "md_parent_section": "§EC.3 [Example 3]", "md_verbatim": "| 1 | ABC | EC | ABC4001 | 1 | BOTTLE A | Y | Y | 1 | TABLET | QD | TREATMENT | 2011-01-14 | 2011-01-28 | 1 | 15 |", "score": 0.4484, "match_basis": "verbatim_token+domain_route:EC"}, {"md_atom_id": "md_dmEC_ex_a028", "md_file": "knowledge_base/domains/EC/examples.md", "md_atom_type": "TABLE_ROW", "md_parent_section": "§EC.3 [Example 3]", "md_verbatim": "| 2 | ABC | EC | ABC4001 | 2 | BOTTLE C | Y | Y | 1 | TABLET | QD | TREATMENT | 2011-01-14 | 2011-01-28 | 1 | 15 |", "score": 0.4484, "match_basis": "verbatim_token+domain_route:EC"}, {"md_atom_id": "md_dmEC_ex_a029", "md_file": "knowledge_base/domains/EC/examples.md", "md_atom_type": "TABLE_ROW", "md_parent_section": "§EC.3 [Example 3]", "md_verbatim": "| 3 | ABC | EC | ABC4001 | 3 | BOTTLE B | Y | Y | 1 | TABLET | QD | TREATMENT | 2011-01-14 | 2011-01-20 | 1 | 7 |", "score": 0.4484, "match_basis": "verbatim_token+domain_route:EC"}, {"md_atom_id": "md_dmEC_ex_a030", "md_file": "knowledge_base/domains/EC/examples.md", "md_atom_type": "TABLE_ROW", "md_parent_section": "§EC.3 [Example 3]", "md_verbatim": "| 4 | ABC | EC | ABC4001 | 4 | BOTTLE B | Y | N | | TABLET | QD | TREATMENT | 2011-01-21 | 2011-01-21 | 8 | 8 |", "score": 0.4484, "match_basis": "verbatim_token+domain_route:EC"}], "candidate_count": 5, "zero_candidate": false}
{"pdf_atom_id": "ig34_p0107_a021", "pdf_atom_type": "TABLE_ROW", "pdf_source": "SDTMIG_v3.4", "pdf_page": 107, "pdf_parent_section": "§6.1.3.2 [Exposure as Collected (EC)]", "pdf_verbatim": "ECSPID | Sponsor-Defined Identifier | Char | | Identifier | Sponsor-defined reference number. May be preprinted on the CRF as an explicit line identifier or defined in the sponsor's operational database. Example: Line number on a CRF page. | Perm", "figure_ref": null, "candidates": [{"md_atom_id": "md_dmEC_ex_a020", "md_file": "knowledge_base/domains/EC/examples.md", "md_atom_type": "TABLE_ROW", "md_parent_section": "§EC.2 [Example 2]", "md_verbatim": "| 2 | ABC | EC | ABC3001 | 2 | INJ2 | V3 | DRUG X | Y | Y | 5 | mL | INJECTION | ONCE | SUBCUTANEOUS | ABDOMINAL CAVITY | CENTER | VISIT 3 | TREATMENT | 2009-05-10 | 2009-05-10 | 21 | 21 |", "score": 0.4293, "match_basis": "verbatim_token+domain_route:EC"}, {"md_atom_id": "md_dmEC_ex_a019", "md_file": "knowledge_base/domains/EC/examples.md", "md_atom_type": "TABLE_ROW", "md_parent_section": "§EC.2 [Example 2]", "md_verbatim": "| 1 | ABC | EC | ABC3001 | 1 | INJ1 | V3 | DRUG X | Y | Y | 5 | mL | INJECTION | ONCE | SUBCUTANEOUS | ABDOMINAL CAVITY | LEFT | VISIT 3 | TREATMENT | 2009-05-10 | 2009-05-10 | 21 | 21 |", "score": 0.4244, "match_basis": "verbatim_token+domain_route:EC"}, {"md_atom_id": "md_dmEC_ex_a021", "md_file": "knowledge_base/domains/EC/examples.md", "md_atom_type": "TABLE_ROW", "md_parent_section": "§EC.2 [Example 2]", "md_verbatim": "| 3 | ABC | EC | ABC3001 | 3 | INJ3 | V3 | DRUG X | Y | Y | 5 | mL | INJECTION | ONCE | SUBCUTANEOUS | ABDOMINAL CAVITY | RIGHT | VISIT 3 | TREATMENT | 2009-05-10 | 2009-05-10 | 21 | 21 |", "score": 0.4242, "match_basis": "verbatim_token+domain_route:EC"}, {"md_atom_id": "md_dmEC_ex_a080", "md_file": "knowledge_base/domains/EC/examples.md", "md_atom_type": "TABLE_ROW", "md_parent_section": "§EC.8 [Example 8]", "md_verbatim": "| 2 | ABC | EC | ABC7001 | 2 | BOTTLE A | EXCEPTION DOSE | Y | N | | TABLET | QD | TREATMENT | 2012-01-15 | 2012-01-15 | 3 | 3 |", "score": 0.4233, "match_basis": "verbatim_token+domain_route:EC"}, {"md_atom_id": "md_dmEC_ex_a081", "md_file": "knowledge_base/domains/EC/examples.md", "md_atom_type": "TABLE_ROW", "md_parent_section": "§EC.8 [Example 8]", "md_verbatim": "| 3 | ABC | EC | ABC7001 | 3 | BOTTLE A | EXCEPTION DOSE | Y | Y | 2 | TABLET | QD | TREATMENT | 2012-01-16 | 2012-01-16 | 4 | 4 |", "score": 0.4233, "match_basis": "verbatim_token+domain_route:EC"}], "candidate_count": 5, "zero_candidate": false}
{"pdf_atom_id": "ig34_p0107_a022", "pdf_atom_type": "TABLE_ROW", "pdf_source": "SDTMIG_v3.4", "pdf_page": 107, "pdf_parent_section": "§6.1.3.2 [Exposure as Collected (EC)]", "pdf_verbatim": "ECLNKID | Link ID | Char | | Identifier | Identifier used to link related records across domains. | Perm", "figure_ref": null, "candidates": [{"md_atom_id": "md_dmEC_ex_a052", "md_file": "knowledge_base/domains/EC/examples.md", "md_atom_type": "TABLE_ROW", "md_parent_section": "§EC.6 [Example 6]", "md_verbatim": "| 2 | 56789 | EC | 56789001 | 2 | BOTTLE 2 | Y | Y | 1 | TABLET, COATED | CAPSULE | QD | ORAL | TREATMENT 1 | 2002-07-01T07:30 | 2002-07-01T07:30 | 1 | 1 | 30 MINUTES PRIOR | -PT30M | STD BREAKFAST |", "score": 0.4196, "match_basis": "verbatim_token+domain_route:EC"}, {"md_atom_id": "md_dmEC_ex_a066", "md_file": "knowledge_base/domains/EC/examples.md", "md_atom_type": "TABLE_ROW", "md_parent_section": "§EC.7 [Example 7]", "md_verbatim": "| 2 | ABC123 | EC | ABC123-0201 | 2 | 20090213T1000 | V1 | DRUG Z | PERFORMED | Y | Y | | 99 | mL | 5.5 | mg/mL | | VISIT TREATMENT | 1 | VISIT 1 | 2009-02-13T10:00 | 2009-02-13T10:45 | 1 | 1 |", "score": 0.4162, "match_basis": "verbatim_token+domain_route:EC"}, {"md_atom_id": "md_dmEC_ex_a068", "md_file": "knowledge_base/domains/EC/examples.md", "md_atom_type": "TABLE_ROW", "md_parent_section": "§EC.7 [Example 7]", "md_verbatim": "| 4 | ABC123 | EC | ABC123-0201 | 4 | 20090220T1100 | V2 | DRUG Z | PERFORMED | Y | Y | | 35 | mL | 4.12 | mg/mL | | VISIT TREATMENT | 2 | VISIT 2 | 2009-02-20T11:00 | 2009-02-20T11:20 | 8 | 8 |", "score": 0.4162, "match_basis": "verbatim_token+domain_route:EC"}, {"md_atom_id": "md_dmEC_ex_a070", "md_file": "knowledge_base/domains/EC/examples.md", "md_atom_type": "TABLE_ROW", "md_parent_section": "§EC.7 [Example 7]", "md_verbatim": "| 6 | ABC123 | EC | ABC123-0201 | 6 | 20090227 | V3 | DRUG Z | PERFORMED | Y | N | PERSONAL REASON | | mL | 4.12 | mg/mL | | VISIT TREATMENT | 3 | VISIT 3 | 2009-02-27 | 2009-02-27 | 15 | 15 |", "score": 0.4158, "match_basis": "verbatim_token+domain_route:EC"}, {"md_atom_id": "md_dmEC_ex_a019", "md_file": "knowledge_base/domains/EC/examples.md", "md_atom_type": "TABLE_ROW", "md_parent_section": "§EC.2 [Example 2]", "md_verbatim": "| 1 | ABC | EC | ABC3001 | 1 | INJ1 | V3 | DRUG X | Y | Y | 5 | mL | INJECTION | ONCE | SUBCUTANEOUS | ABDOMINAL CAVITY | LEFT | VISIT 3 | TREATMENT | 2009-05-10 | 2009-05-10 | 21 | 21 |", "score": 0.4133, "match_basis": "verbatim_token+domain_route:EC"}], "candidate_count": 5, "zero_candidate": false}
{"pdf_atom_id": "ig34_p0107_a023", "pdf_atom_type": "TABLE_ROW", "pdf_source": "SDTMIG_v3.4", "pdf_page": 107, "pdf_parent_section": "§6.1.3.2 [Exposure as Collected (EC)]", "pdf_verbatim": "ECLNKGRP | Link Group ID | Char | | Identifier | Identifier used to link related, grouped records across domains. | Perm", "figure_ref": null, "candidates": [{"md_atom_id": "md_dmEC_ex_a052", "md_file": "knowledge_base/domains/EC/examples.md", "md_atom_type": "TABLE_ROW", "md_parent_section": "§EC.6 [Example 6]", "md_verbatim": "| 2 | 56789 | EC | 56789001 | 2 | BOTTLE 2 | Y | Y | 1 | TABLET, COATED | CAPSULE | QD | ORAL | TREATMENT 1 | 2002-07-01T07:30 | 2002-07-01T07:30 | 1 | 1 | 30 MINUTES PRIOR | -PT30M | STD BREAKFAST |", "score": 0.4184, "match_basis": "verbatim_token+domain_route:EC"}, {"md_atom_id": "md_dmEC_ex_a066", "md_file": "knowledge_base/domains/EC/examples.md", "md_atom_type": "TABLE_ROW", "md_parent_section": "§EC.7 [Example 7]", "md_verbatim": "| 2 | ABC123 | EC | ABC123-0201 | 2 | 20090213T1000 | V1 | DRUG Z | PERFORMED | Y | Y | | 99 | mL | 5.5 | mg/mL | | VISIT TREATMENT | 1 | VISIT 1 | 2009-02-13T10:00 | 2009-02-13T10:45 | 1 | 1 |", "score": 0.415, "match_basis": "verbatim_token+domain_route:EC"}, {"md_atom_id": "md_dmEC_ex_a068", "md_file": "knowledge_base/domains/EC/examples.md", "md_atom_type": "TABLE_ROW", "md_parent_section": "§EC.7 [Example 7]", "md_verbatim": "| 4 | ABC123 | EC | ABC123-0201 | 4 | 20090220T1100 | V2 | DRUG Z | PERFORMED | Y | Y | | 35 | mL | 4.12 | mg/mL | | VISIT TREATMENT | 2 | VISIT 2 | 2009-02-20T11:00 | 2009-02-20T11:20 | 8 | 8 |", "score": 0.415, "match_basis": "verbatim_token+domain_route:EC"}, {"md_atom_id": "md_dmEC_ex_a070", "md_file": "knowledge_base/domains/EC/examples.md", "md_atom_type": "TABLE_ROW", "md_parent_section": "§EC.7 [Example 7]", "md_verbatim": "| 6 | ABC123 | EC | ABC123-0201 | 6 | 20090227 | V3 | DRUG Z | PERFORMED | Y | N | PERSONAL REASON | | mL | 4.12 | mg/mL | | VISIT TREATMENT | 3 | VISIT 3 | 2009-02-27 | 2009-02-27 | 15 | 15 |", "score": 0.4146, "match_basis": "verbatim_token+domain_route:EC"}, {"md_atom_id": "md_dmEC_ex_a019", "md_file": "knowledge_base/domains/EC/examples.md", "md_atom_type": "TABLE_ROW", "md_parent_section": "§EC.2 [Example 2]", "md_verbatim": "| 1 | ABC | EC | ABC3001 | 1 | INJ1 | V3 | DRUG X | Y | Y | 5 | mL | INJECTION | ONCE | SUBCUTANEOUS | ABDOMINAL CAVITY | LEFT | VISIT 3 | TREATMENT | 2009-05-10 | 2009-05-10 | 21 | 21 |", "score": 0.4125, "match_basis": "verbatim_token+domain_route:EC"}], "candidate_count": 5, "zero_candidate": false}
{"pdf_atom_id": "ig34_p0107_a024", "pdf_atom_type": "TABLE_ROW", "pdf_source": "SDTMIG_v3.4", "pdf_page": 107, "pdf_parent_section": "§6.1.3.2 [Exposure as Collected (EC)]", "pdf_verbatim": "ECTRT | Name of Treatment | Char | * | Topic | Name of the intervention treatment known to the subject and/or administrator. | Req", "figure_ref": null, "candidates": [{"md_atom_id": "md_dmEC_ex_a020", "md_file": "knowledge_base/domains/EC/examples.md", "md_atom_type": "TABLE_ROW", "md_parent_section": "§EC.2 [Example 2]", "md_verbatim": "| 2 | ABC | EC | ABC3001 | 2 | INJ2 | V3 | DRUG X | Y | Y | 5 | mL | INJECTION | ONCE | SUBCUTANEOUS | ABDOMINAL CAVITY | CENTER | VISIT 3 | TREATMENT | 2009-05-10 | 2009-05-10 | 21 | 21 |", "score": 0.5059, "match_basis": "verbatim_token+domain_route:EC"}, {"md_atom_id": "md_dmEC_ex_a079", "md_file": "knowledge_base/domains/EC/examples.md", "md_atom_type": "TABLE_ROW", "md_parent_section": "§EC.8 [Example 8]", "md_verbatim": "| 1 | ABC | EC | ABC7001 | 1 | BOTTLE A | FIRST TO LAST DOSE INTERVAL | Y | Y | 1 | TABLET | QD | TREATMENT | 2012-01-13 | 2012-01-20 | 1 | 8 |", "score": 0.493, "match_basis": "verbatim_token+domain_route:EC"}, {"md_atom_id": "md_dmEC_ex_a019", "md_file": "knowledge_base/domains/EC/examples.md", "md_atom_type": "TABLE_ROW", "md_parent_section": "§EC.2 [Example 2]", "md_verbatim": "| 1 | ABC | EC | ABC3001 | 1 | INJ1 | V3 | DRUG X | Y | Y | 5 | mL | INJECTION | ONCE | SUBCUTANEOUS | ABDOMINAL CAVITY | LEFT | VISIT 3 | TREATMENT | 2009-05-10 | 2009-05-10 | 21 | 21 |", "score": 0.4907, "match_basis": "verbatim_token+domain_route:EC"}, {"md_atom_id": "md_dmEC_ex_a021", "md_file": "knowledge_base/domains/EC/examples.md", "md_atom_type": "TABLE_ROW", "md_parent_section": "§EC.2 [Example 2]", "md_verbatim": "| 3 | ABC | EC | ABC3001 | 3 | INJ3 | V3 | DRUG X | Y | Y | 5 | mL | INJECTION | ONCE | SUBCUTANEOUS | ABDOMINAL CAVITY | RIGHT | VISIT 3 | TREATMENT | 2009-05-10 | 2009-05-10 | 21 | 21 |", "score": 0.4897, "match_basis": "verbatim_token+domain_route:EC"}, {"md_atom_id": "md_dmEC_ex_a080", "md_file": "knowledge_base/domains/EC/examples.md", "md_atom_type": "TABLE_ROW", "md_parent_section": "§EC.8 [Example 8]", "md_verbatim": "| 2 | ABC | EC | ABC7001 | 2 | BOTTLE A | EXCEPTION DOSE | Y | N | | TABLET | QD | TREATMENT | 2012-01-15 | 2012-01-15 | 3 | 3 |", "score": 0.4783, "match_basis": "verbatim_token+domain_route:EC"}], "candidate_count": 5, "zero_candidate": false}
{"pdf_atom_id": "ig34_p0107_a025", "pdf_atom_type": "TABLE_ROW", "pdf_source": "SDTMIG_v3.4", "pdf_page": 107, "pdf_parent_section": "§6.1.3.2 [Exposure as Collected (EC)]", "pdf_verbatim": "ECMOOD | Mood | Char | (BRDGMOOD) | Record Qualifier | Mode or condition of the record specifying whether the intervention (activity) is intended to happen or has happened. Values align with BRIDG pillars (e.g., scheduled context, performed context) and HL7 activity moods (e.g., intent, event). Examples: \"SCHEDULED\", \"PERFORMED\". | Perm", "figure_ref": null, "candidates": [{"md_atom_id": "md_dmEC_ex_a067", "md_file": "knowledge_base/domains/EC/examples.md", "md_atom_type": "TABLE_ROW", "md_parent_section": "§EC.7 [Example 7]", "md_verbatim": "| 3 | ABC123 | EC | ABC123-0201 | 3 | | V2 | DRUG Z | SCHEDULED | | | | 7.5 | mg/kg | | | Dose limiting toxicity | VISIT TREATMENT | 2 | VISIT 2 | 2009-02-20 | 2009-02-20 | 8 | 8 |", "score": 0.4465, "match_basis": "verbatim_token+domain_route:EC"}, {"md_atom_id": "md_dmEC_ex_a065", "md_file": "knowledge_base/domains/EC/examples.md", "md_atom_type": "TABLE_ROW", "md_parent_section": "§EC.7 [Example 7]", "md_verbatim": "| 1 | ABC123 | EC | ABC123-0201 | 1 | | V1 | DRUG Z | SCHEDULED | | | | 10 | mg/kg | | | | VISIT TREATMENT | 1 | VISIT 1 | 2009-02-13 | 2009-02-13 | 1 | 1 |", "score": 0.4366, "match_basis": "verbatim_token+domain_route:EC"}, {"md_atom_id": "md_dmEC_ex_a069", "md_file": "knowledge_base/domains/EC/examples.md", "md_atom_type": "TABLE_ROW", "md_parent_section": "§EC.7 [Example 7]", "md_verbatim": "| 5 | ABC123 | EC | ABC123-0201 | 5 | | V3 | DRUG Z | SCHEDULED | | | | 7.5 | mg/kg | | | | VISIT TREATMENT | 3 | VISIT 3 | 2009-02-27 | 2009-02-27 | 15 | 15 |", "score": 0.4366, "match_basis": "verbatim_token+domain_route:EC"}, {"md_atom_id": "md_dmEC_ex_a066", "md_file": "knowledge_base/domains/EC/examples.md", "md_atom_type": "TABLE_ROW", "md_parent_section": "§EC.7 [Example 7]", "md_verbatim": "| 2 | ABC123 | EC | ABC123-0201 | 2 | 20090213T1000 | V1 | DRUG Z | PERFORMED | Y | Y | | 99 | mL | 5.5 | mg/mL | | VISIT TREATMENT | 1 | VISIT 1 | 2009-02-13T10:00 | 2009-02-13T10:45 | 1 | 1 |", "score": 0.4343, "match_basis": "verbatim_token+domain_route:EC"}, {"md_atom_id": "md_dmEC_ex_a068", "md_file": "knowledge_base/domains/EC/examples.md", "md_atom_type": "TABLE_ROW", "md_parent_section": "§EC.7 [Example 7]", "md_verbatim": "| 4 | ABC123 | EC | ABC123-0201 | 4 | 20090220T1100 | V2 | DRUG Z | PERFORMED | Y | Y | | 35 | mL | 4.12 | mg/mL | | VISIT TREATMENT | 2 | VISIT 2 | 2009-02-20T11:00 | 2009-02-20T11:20 | 8 | 8 |", "score": 0.4343, "match_basis": "verbatim_token+domain_route:EC"}], "candidate_count": 5, "zero_candidate": false}
{"pdf_atom_id": "ig34_p0108_a001", "pdf_atom_type": "TABLE_ROW", "pdf_source": "SDTMIG_v3.4", "pdf_page": 108, "pdf_parent_section": "§6.1.3.2 [Exposure as Collected (EC)]", "pdf_verbatim": "ECCAT | Category of Treatment | Char | * | Grouping Qualifier | Used to define a category of related ECTRT values. | Perm", "figure_ref": null, "candidates": [{"md_atom_id": "md_dmEC_ex_a027", "md_file": "knowledge_base/domains/EC/examples.md", "md_atom_type": "TABLE_ROW", "md_parent_section": "§EC.3 [Example 3]", "md_verbatim": "| 1 | ABC | EC | ABC4001 | 1 | BOTTLE A | Y | Y | 1 | TABLET | QD | TREATMENT | 2011-01-14 | 2011-01-28 | 1 | 15 |", "score": 0.4656, "match_basis": "verbatim_token+domain_route:EC"}, {"md_atom_id": "md_dmEC_ex_a028", "md_file": "knowledge_base/domains/EC/examples.md", "md_atom_type": "TABLE_ROW", "md_parent_section": "§EC.3 [Example 3]", "md_verbatim": "| 2 | ABC | EC | ABC4001 | 2 | BOTTLE C | Y | Y | 1 | TABLET | QD | TREATMENT | 2011-01-14 | 2011-01-28 | 1 | 15 |", "score": 0.4656, "match_basis": "verbatim_token+domain_route:EC"}, {"md_atom_id": "md_dmEC_ex_a029", "md_file": "knowledge_base/domains/EC/examples.md", "md_atom_type": "TABLE_ROW", "md_parent_section": "§EC.3 [Example 3]", "md_verbatim": "| 3 | ABC | EC | ABC4001 | 3 | BOTTLE B | Y | Y | 1 | TABLET | QD | TREATMENT | 2011-01-14 | 2011-01-20 | 1 | 7 |", "score": 0.4656, "match_basis": "verbatim_token+domain_route:EC"}, {"md_atom_id": "md_dmEC_ex_a030", "md_file": "knowledge_base/domains/EC/examples.md", "md_atom_type": "TABLE_ROW", "md_parent_section": "§EC.3 [Example 3]", "md_verbatim": "| 4 | ABC | EC | ABC4001 | 4 | BOTTLE B | Y | N | | TABLET | QD | TREATMENT | 2011-01-21 | 2011-01-21 | 8 | 8 |", "score": 0.4656, "match_basis": "verbatim_token+domain_route:EC"}, {"md_atom_id": "md_dmEC_ex_a031", "md_file": "knowledge_base/domains/EC/examples.md", "md_atom_type": "TABLE_ROW", "md_parent_section": "§EC.3 [Example 3]", "md_verbatim": "| 5 | ABC | EC | ABC4001 | 5 | BOTTLE B | Y | Y | 2 | TABLET | QD | TREATMENT | 2011-01-22 | 2011-01-22 | 9 | 9 |", "score": 0.4656, "match_basis": "verbatim_token+domain_route:EC"}], "candidate_count": 5, "zero_candidate": false}
{"pdf_atom_id": "ig34_p0108_a002", "pdf_atom_type": "TABLE_ROW", "pdf_source": "SDTMIG_v3.4", "pdf_page": 108, "pdf_parent_section": "§6.1.3.2 [Exposure as Collected (EC)]", "pdf_verbatim": "ECSCAT | Subcategory of Treatment | Char | * | Grouping Qualifier | A further categorization of ECCAT values. | Perm", "figure_ref": null, "candidates": [{"md_atom_id": "md_dmEC_ex_a080", "md_file": "knowledge_base/domains/EC/examples.md", "md_atom_type": "TABLE_ROW", "md_parent_section": "§EC.8 [Example 8]", "md_verbatim": "| 2 | ABC | EC | ABC7001 | 2 | BOTTLE A | EXCEPTION DOSE | Y | N | | TABLET | QD | TREATMENT | 2012-01-15 | 2012-01-15 | 3 | 3 |", "score": 0.4711, "match_basis": "verbatim_token+domain_route:EC"}, {"md_atom_id": "md_dmEC_ex_a081", "md_file": "knowledge_base/domains/EC/examples.md", "md_atom_type": "TABLE_ROW", "md_parent_section": "§EC.8 [Example 8]", "md_verbatim": "| 3 | ABC | EC | ABC7001 | 3 | BOTTLE A | EXCEPTION DOSE | Y | Y | 2 | TABLET | QD | TREATMENT | 2012-01-16 | 2012-01-16 | 4 | 4 |", "score": 0.4711, "match_basis": "verbatim_token+domain_route:EC"}, {"md_atom_id": "md_dmEC_ex_a019", "md_file": "knowledge_base/domains/EC/examples.md", "md_atom_type": "TABLE_ROW", "md_parent_section": "§EC.2 [Example 2]", "md_verbatim": "| 1 | ABC | EC | ABC3001 | 1 | INJ1 | V3 | DRUG X | Y | Y | 5 | mL | INJECTION | ONCE | SUBCUTANEOUS | ABDOMINAL CAVITY | LEFT | VISIT 3 | TREATMENT | 2009-05-10 | 2009-05-10 | 21 | 21 |", "score": 0.4695, "match_basis": "verbatim_token+domain_route:EC"}, {"md_atom_id": "md_dmEC_ex_a020", "md_file": "knowledge_base/domains/EC/examples.md", "md_atom_type": "TABLE_ROW", "md_parent_section": "§EC.2 [Example 2]", "md_verbatim": "| 2 | ABC | EC | ABC3001 | 2 | INJ2 | V3 | DRUG X | Y | Y | 5 | mL | INJECTION | ONCE | SUBCUTANEOUS | ABDOMINAL CAVITY | CENTER | VISIT 3 | TREATMENT | 2009-05-10 | 2009-05-10 | 21 | 21 |", "score": 0.4688, "match_basis": "verbatim_token+domain_route:EC"}, {"md_atom_id": "md_dmEC_ex_a021", "md_file": "knowledge_base/domains/EC/examples.md", "md_atom_type": "TABLE_ROW", "md_parent_section": "§EC.2 [Example 2]", "md_verbatim": "| 3 | ABC | EC | ABC3001 | 3 | INJ3 | V3 | DRUG X | Y | Y | 5 | mL | INJECTION | ONCE | SUBCUTANEOUS | ABDOMINAL CAVITY | RIGHT | VISIT 3 | TREATMENT | 2009-05-10 | 2009-05-10 | 21 | 21 |", "score": 0.4688, "match_basis": "verbatim_token+domain_route:EC"}], "candidate_count": 5, "zero_candidate": false}
{"pdf_atom_id": "ig34_p0108_a003", "pdf_atom_type": "TABLE_ROW", "pdf_source": "SDTMIG_v3.4", "pdf_page": 108, "pdf_parent_section": "§6.1.3.2 [Exposure as Collected (EC)]", "pdf_verbatim": "ECPRESP | Pre-Specified | Char | (NY) | Variable Qualifier | Used when a specific intervention is prespecified. Values should be \"Y\" or null. | Perm", "figure_ref": null, "candidates": [{"md_atom_id": "md_dmEC_ex_a079", "md_file": "knowledge_base/domains/EC/examples.md", "md_atom_type": "TABLE_ROW", "md_parent_section": "§EC.8 [Example 8]", "md_verbatim": "| 1 | ABC | EC | ABC7001 | 1 | BOTTLE A | FIRST TO LAST DOSE INTERVAL | Y | Y | 1 | TABLET | QD | TREATMENT | 2012-01-13 | 2012-01-20 | 1 | 8 |", "score": 0.4608, "match_basis": "verbatim_token+domain_route:EC"}, {"md_atom_id": "md_dmEC_ex_a080", "md_file": "knowledge_base/domains/EC/examples.md", "md_atom_type": "TABLE_ROW", "md_parent_section": "§EC.8 [Example 8]", "md_verbatim": "| 2 | ABC | EC | ABC7001 | 2 | BOTTLE A | EXCEPTION DOSE | Y | N | | TABLET | QD | TREATMENT | 2012-01-15 | 2012-01-15 | 3 | 3 |", "score": 0.4385, "match_basis": "verbatim_token+domain_route:EC"}, {"md_atom_id": "md_dmEC_ex_a081", "md_file": "knowledge_base/domains/EC/examples.md", "md_atom_type": "TABLE_ROW", "md_parent_section": "§EC.8 [Example 8]", "md_verbatim": "| 3 | ABC | EC | ABC7001 | 3 | BOTTLE A | EXCEPTION DOSE | Y | Y | 2 | TABLET | QD | TREATMENT | 2012-01-16 | 2012-01-16 | 4 | 4 |", "score": 0.4385, "match_basis": "verbatim_token+domain_route:EC"}, {"md_atom_id": "md_dmEC_ex_a020", "md_file": "knowledge_base/domains/EC/examples.md", "md_atom_type": "TABLE_ROW", "md_parent_section": "§EC.2 [Example 2]", "md_verbatim": "| 2 | ABC | EC | ABC3001 | 2 | INJ2 | V3 | DRUG X | Y | Y | 5 | mL | INJECTION | ONCE | SUBCUTANEOUS | ABDOMINAL CAVITY | CENTER | VISIT 3 | TREATMENT | 2009-05-10 | 2009-05-10 | 21 | 21 |", "score": 0.43, "match_basis": "verbatim_token+domain_route:EC"}, {"md_atom_id": "md_dmEC_ex_a027", "md_file": "knowledge_base/domains/EC/examples.md", "md_atom_type": "TABLE_ROW", "md_parent_section": "§EC.3 [Example 3]", "md_verbatim": "| 1 | ABC | EC | ABC4001 | 1 | BOTTLE A | Y | Y | 1 | TABLET | QD | TREATMENT | 2011-01-14 | 2011-01-28 | 1 | 15 |", "score": 0.4254, "match_basis": "verbatim_token+domain_route:EC"}], "candidate_count": 5, "zero_candidate": false}
{"pdf_atom_id": "ig34_p0108_a004", "pdf_atom_type": "TABLE_ROW", "pdf_source": "SDTMIG_v3.4", "pdf_page": 108, "pdf_parent_section": "§6.1.3.2 [Exposure as Collected (EC)]", "pdf_verbatim": "ECOCCUR | Occurrence | Char | (NY) | Record Qualifier | Used to indicate whether a treatment occurred when information about the occurrence is solicited. ECOCCUR = \"N\" when a treatment was not taken, not given, or missed. | Perm", "figure_ref": null, "candidates": [{"md_atom_id": "md_dmEC_ex_a012", "md_file": "knowledge_base/domains/EC/examples.md", "md_atom_type": "TABLE_ROW", "md_parent_section": "§EC.1 [Example 1]", "md_verbatim": "| 3 | ABC | EC | ABC2001 | 2 | A0-20110124 | BOTTLE A | Y | N | PATIENT MISTAKE | | TABLET | QD | TREATMENT | 2011-01-24 | 2011-01-24 | 11 | 11 |", "score": 0.466, "match_basis": "verbatim_token+domain_route:EC"}, {"md_atom_id": "md_dmEC_ex_a066", "md_file": "knowledge_base/domains/EC/examples.md", "md_atom_type": "TABLE_ROW", "md_parent_section": "§EC.7 [Example 7]", "md_verbatim": "| 2 | ABC123 | EC | ABC123-0201 | 2 | 20090213T1000 | V1 | DRUG Z | PERFORMED | Y | Y | | 99 | mL | 5.5 | mg/mL | | VISIT TREATMENT | 1 | VISIT 1 | 2009-02-13T10:00 | 2009-02-13T10:45 | 1 | 1 |", "score": 0.4588, "match_basis": "verbatim_token+domain_route:EC"}, {"md_atom_id": "md_dmEC_ex_a068", "md_file": "knowledge_base/domains/EC/examples.md", "md_atom_type": "TABLE_ROW", "md_parent_section": "§EC.7 [Example 7]", "md_verbatim": "| 4 | ABC123 | EC | ABC123-0201 | 4 | 20090220T1100 | V2 | DRUG Z | PERFORMED | Y | Y | | 35 | mL | 4.12 | mg/mL | | VISIT TREATMENT | 2 | VISIT 2 | 2009-02-20T11:00 | 2009-02-20T11:20 | 8 | 8 |", "score": 0.4588, "match_basis": "verbatim_token+domain_route:EC"}, {"md_atom_id": "md_dmEC_ex_a070", "md_file": "knowledge_base/domains/EC/examples.md", "md_atom_type": "TABLE_ROW", "md_parent_section": "§EC.7 [Example 7]", "md_verbatim": "| 6 | ABC123 | EC | ABC123-0201 | 6 | 20090227 | V3 | DRUG Z | PERFORMED | Y | N | PERSONAL REASON | | mL | 4.12 | mg/mL | | VISIT TREATMENT | 3 | VISIT 3 | 2009-02-27 | 2009-02-27 | 15 | 15 |", "score": 0.4577, "match_basis": "verbatim_token+domain_route:EC"}, {"md_atom_id": "md_dmEC_ex_a080", "md_file": "knowledge_base/domains/EC/examples.md", "md_atom_type": "TABLE_ROW", "md_parent_section": "§EC.8 [Example 8]", "md_verbatim": "| 2 | ABC | EC | ABC7001 | 2 | BOTTLE A | EXCEPTION DOSE | Y | N | | TABLET | QD | TREATMENT | 2012-01-15 | 2012-01-15 | 3 | 3 |", "score": 0.4551, "match_basis": "verbatim_token+domain_route:EC"}], "candidate_count": 5, "zero_candidate": false}
{"pdf_atom_id": "ig34_p0108_a005", "pdf_atom_type": "TABLE_ROW", "pdf_source": "SDTMIG_v3.4", "pdf_page": 108, "pdf_parent_section": "§6.1.3.2 [Exposure as Collected (EC)]", "pdf_verbatim": "ECREASOC | Reason for Occur Value | Char | | Record Qualifier | The reason for the value in --OCCUR. If --OCCUR = \"N\", this is the reason the exposure did not occur. | Perm", "figure_ref": null, "candidates": [{"md_atom_id": "md_dmEC_ex_a070", "md_file": "knowledge_base/domains/EC/examples.md", "md_atom_type": "TABLE_ROW", "md_parent_section": "§EC.7 [Example 7]", "md_verbatim": "| 6 | ABC123 | EC | ABC123-0201 | 6 | 20090227 | V3 | DRUG Z | PERFORMED | Y | N | PERSONAL REASON | | mL | 4.12 | mg/mL | | VISIT TREATMENT | 3 | VISIT 3 | 2009-02-27 | 2009-02-27 | 15 | 15 |", "score": 0.45, "match_basis": "verbatim_token+domain_route:EC"}, {"md_atom_id": "md_dmEC_ex_a066", "md_file": "knowledge_base/domains/EC/examples.md", "md_atom_type": "TABLE_ROW", "md_parent_section": "§EC.7 [Example 7]", "md_verbatim": "| 2 | ABC123 | EC | ABC123-0201 | 2 | 20090213T1000 | V1 | DRUG Z | PERFORMED | Y | Y | | 99 | mL | 5.5 | mg/mL | | VISIT TREATMENT | 1 | VISIT 1 | 2009-02-13T10:00 | 2009-02-13T10:45 | 1 | 1 |", "score": 0.4247, "match_basis": "verbatim_token+domain_route:EC"}, {"md_atom_id": "md_dmEC_ex_a068", "md_file": "knowledge_base/domains/EC/examples.md", "md_atom_type": "TABLE_ROW", "md_parent_section": "§EC.7 [Example 7]", "md_verbatim": "| 4 | ABC123 | EC | ABC123-0201 | 4 | 20090220T1100 | V2 | DRUG Z | PERFORMED | Y | Y | | 35 | mL | 4.12 | mg/mL | | VISIT TREATMENT | 2 | VISIT 2 | 2009-02-20T11:00 | 2009-02-20T11:20 | 8 | 8 |", "score": 0.4247, "match_basis": "verbatim_token+domain_route:EC"}, {"md_atom_id": "md_dmEC_ex_a079", "md_file": "knowledge_base/domains/EC/examples.md", "md_atom_type": "TABLE_ROW", "md_parent_section": "§EC.8 [Example 8]", "md_verbatim": "| 1 | ABC | EC | ABC7001 | 1 | BOTTLE A | FIRST TO LAST DOSE INTERVAL | Y | Y | 1 | TABLET | QD | TREATMENT | 2012-01-13 | 2012-01-20 | 1 | 8 |", "score": 0.4164, "match_basis": "verbatim_token+domain_route:EC"}, {"md_atom_id": "md_dmEC_ex_a009", "md_file": "knowledge_base/domains/EC/examples.md", "md_atom_type": "TABLE_HEADER", "md_parent_section": "§EC.1 [Example 1]", "md_verbatim": "| Row | STUDYID | DOMAIN | USUBJID | ECSEQ | ECLNKID | ECTRT | ECPRESP | ECOCCUR | ECREASOC | ECDOSE | ECDOSU | ECDOSFRQ | EPOCH | ECSTDTC | ECENDTC | ECSTDY | ECENDY |\n|-----|---------|--------|---------|-------|---------|-------|---------|---------|----------|--------|--------|----------|-------|---------|---------|--------|--------|", "score": 0.4117, "match_basis": "verbatim_token+domain_route:EC"}], "candidate_count": 5, "zero_candidate": false}
{"pdf_atom_id": "ig34_p0108_a006", "pdf_atom_type": "TABLE_ROW", "pdf_source": "SDTMIG_v3.4", "pdf_page": 108, "pdf_parent_section": "§6.1.3.2 [Exposure as Collected (EC)]", "pdf_verbatim": "ECDOSE | Dose | Num | | Record Qualifier | Amount of ECTRT when numeric. Not populated when ECDOSTXT is populated. | Exp", "figure_ref": null, "candidates": [{"md_atom_id": "md_dmEC_ex_a080", "md_file": "knowledge_base/domains/EC/examples.md", "md_atom_type": "TABLE_ROW", "md_parent_section": "§EC.8 [Example 8]", "md_verbatim": "| 2 | ABC | EC | ABC7001 | 2 | BOTTLE A | EXCEPTION DOSE | Y | N | | TABLET | QD | TREATMENT | 2012-01-15 | 2012-01-15 | 3 | 3 |", "score": 0.4171, "match_basis": "verbatim_token+domain_route:EC"}, {"md_atom_id": "md_dmEC_ex_a081", "md_file": "knowledge_base/domains/EC/examples.md", "md_atom_type": "TABLE_ROW", "md_parent_section": "§EC.8 [Example 8]", "md_verbatim": "| 3 | ABC | EC | ABC7001 | 3 | BOTTLE A | EXCEPTION DOSE | Y | Y | 2 | TABLET | QD | TREATMENT | 2012-01-16 | 2012-01-16 | 4 | 4 |", "score": 0.4171, "match_basis": "verbatim_token+domain_route:EC"}, {"md_atom_id": "md_dmEC_ex_a079", "md_file": "knowledge_base/domains/EC/examples.md", "md_atom_type": "TABLE_ROW", "md_parent_section": "§EC.8 [Example 8]", "md_verbatim": "| 1 | ABC | EC | ABC7001 | 1 | BOTTLE A | FIRST TO LAST DOSE INTERVAL | Y | Y | 1 | TABLET | QD | TREATMENT | 2012-01-13 | 2012-01-20 | 1 | 8 |", "score": 0.4162, "match_basis": "verbatim_token+domain_route:EC"}, {"md_atom_id": "md_dmEC_ex_a067", "md_file": "knowledge_base/domains/EC/examples.md", "md_atom_type": "TABLE_ROW", "md_parent_section": "§EC.7 [Example 7]", "md_verbatim": "| 3 | ABC123 | EC | ABC123-0201 | 3 | | V2 | DRUG Z | SCHEDULED | | | | 7.5 | mg/kg | | | Dose limiting toxicity | VISIT TREATMENT | 2 | VISIT 2 | 2009-02-20 | 2009-02-20 | 8 | 8 |", "score": 0.415, "match_basis": "verbatim_token+domain_route:EC"}, {"md_atom_id": "md_dmEC_ex_a052", "md_file": "knowledge_base/domains/EC/examples.md", "md_atom_type": "TABLE_ROW", "md_parent_section": "§EC.6 [Example 6]", "md_verbatim": "| 2 | 56789 | EC | 56789001 | 2 | BOTTLE 2 | Y | Y | 1 | TABLET, COATED | CAPSULE | QD | ORAL | TREATMENT 1 | 2002-07-01T07:30 | 2002-07-01T07:30 | 1 | 1 | 30 MINUTES PRIOR | -PT30M | STD BREAKFAST |", "score": 0.4128, "match_basis": "verbatim_token+domain_route:EC"}], "candidate_count": 5, "zero_candidate": false}
{"pdf_atom_id": "ig34_p0108_a007", "pdf_atom_type": "TABLE_ROW", "pdf_source": "SDTMIG_v3.4", "pdf_page": 108, "pdf_parent_section": "§6.1.3.2 [Exposure as Collected (EC)]", "pdf_verbatim": "ECDOSTXT | Dose Description | Char | | Record Qualifier | Amount of ECTRT when non-numeric. Dosing amounts or a range of dosing information collected in text form. Example: \"200-400\". Not populated when ECDOSE is populated. | Perm", "figure_ref": null, "candidates": [{"md_atom_id": "md_dmEC_ex_a080", "md_file": "knowledge_base/domains/EC/examples.md", "md_atom_type": "TABLE_ROW", "md_parent_section": "§EC.8 [Example 8]", "md_verbatim": "| 2 | ABC | EC | ABC7001 | 2 | BOTTLE A | EXCEPTION DOSE | Y | N | | TABLET | QD | TREATMENT | 2012-01-15 | 2012-01-15 | 3 | 3 |", "score": 0.4278, "match_basis": "verbatim_token+domain_route:EC"}, {"md_atom_id": "md_dmEC_ex_a081", "md_file": "knowledge_base/domains/EC/examples.md", "md_atom_type": "TABLE_ROW", "md_parent_section": "§EC.8 [Example 8]", "md_verbatim": "| 3 | ABC | EC | ABC7001 | 3 | BOTTLE A | EXCEPTION DOSE | Y | Y | 2 | TABLET | QD | TREATMENT | 2012-01-16 | 2012-01-16 | 4 | 4 |", "score": 0.4278, "match_basis": "verbatim_token+domain_route:EC"}, {"md_atom_id": "md_dmEC_ex_a066", "md_file": "knowledge_base/domains/EC/examples.md", "md_atom_type": "TABLE_ROW", "md_parent_section": "§EC.7 [Example 7]", "md_verbatim": "| 2 | ABC123 | EC | ABC123-0201 | 2 | 20090213T1000 | V1 | DRUG Z | PERFORMED | Y | Y | | 99 | mL | 5.5 | mg/mL | | VISIT TREATMENT | 1 | VISIT 1 | 2009-02-13T10:00 | 2009-02-13T10:45 | 1 | 1 |", "score": 0.4211, "match_basis": "verbatim_token+domain_route:EC"}, {"md_atom_id": "md_dmEC_ex_a068", "md_file": "knowledge_base/domains/EC/examples.md", "md_atom_type": "TABLE_ROW", "md_parent_section": "§EC.7 [Example 7]", "md_verbatim": "| 4 | ABC123 | EC | ABC123-0201 | 4 | 20090220T1100 | V2 | DRUG Z | PERFORMED | Y | Y | | 35 | mL | 4.12 | mg/mL | | VISIT TREATMENT | 2 | VISIT 2 | 2009-02-20T11:00 | 2009-02-20T11:20 | 8 | 8 |", "score": 0.4211, "match_basis": "verbatim_token+domain_route:EC"}, {"md_atom_id": "md_dmEC_ex_a070", "md_file": "knowledge_base/domains/EC/examples.md", "md_atom_type": "TABLE_ROW", "md_parent_section": "§EC.7 [Example 7]", "md_verbatim": "| 6 | ABC123 | EC | ABC123-0201 | 6 | 20090227 | V3 | DRUG Z | PERFORMED | Y | N | PERSONAL REASON | | mL | 4.12 | mg/mL | | VISIT TREATMENT | 3 | VISIT 3 | 2009-02-27 | 2009-02-27 | 15 | 15 |", "score": 0.4207, "match_basis": "verbatim_token+domain_route:EC"}], "candidate_count": 5, "zero_candidate": false}
