{"pdf_atom_id": "ig34_p0017_a030", "pdf_atom_type": "TABLE_ROW", "pdf_source": "SDTMIG_v3.4", "pdf_page": 17, "pdf_parent_section": "§3.2.1 Dataset-level Metadata", "pdf_verbatim": "SV | Subject Visits | Special Purpose | One record per actual or planned visit per subject | Tabulation | STUDYID, USUBJID, SVTERM | sv.xpt", "figure_ref": null, "candidates": [{"md_atom_id": "md_ch03_a029", "md_file": "knowledge_base/chapters/ch03_submitting_data.md", "md_atom_type": "TABLE_ROW", "md_parent_section": "§3.2.1 [Dataset-level Metadata]", "md_verbatim": "| SV | Subject Visits | Special Purpose | One record per actual or planned visit per subject | Tabulation | STUDYID, USUBJID, SVTERM | sv.xpt |", "score": 0.9, "match_basis": "verbatim_token+chapter_route:ch03"}, {"md_atom_id": "md_ch03_a027", "md_file": "knowledge_base/chapters/ch03_submitting_data.md", "md_atom_type": "TABLE_ROW", "md_parent_section": "§3.2.1 [Dataset-level Metadata]", "md_verbatim": "| SE | Subject Elements | Special Purpose | One record per actual Element per subject | Tabulation | STUDYID, USUBJID, ETCD, SESTDTC | se.xpt |", "score": 0.6706, "match_basis": "verbatim_token+chapter_route:ch03"}, {"md_atom_id": "md_ch03_a026", "md_file": "knowledge_base/chapters/ch03_submitting_data.md", "md_atom_type": "TABLE_ROW", "md_parent_section": "§3.2.1 [Dataset-level Metadata]", "md_verbatim": "| DM | Demographics | Special Purpose | One record per subject | Tabulation | STUDYID, USUBJID | dm.xpt |", "score": 0.6508, "match_basis": "verbatim_token+chapter_route:ch03"}, {"md_atom_id": "md_ch03_a025", "md_file": "knowledge_base/chapters/ch03_submitting_data.md", "md_atom_type": "TABLE_ROW", "md_parent_section": "§3.2.1 [Dataset-level Metadata]", "md_verbatim": "| CO | Comments | Special Purpose | One record per comment per subject | Tabulation | STUDYID, USUBJID, IDVAR, COREF, COOTC | co.xpt |", "score": 0.6304, "match_basis": "verbatim_token+chapter_route:ch03"}, {"md_atom_id": "md_ch03_a028", "md_file": "knowledge_base/chapters/ch03_submitting_data.md", "md_atom_type": "TABLE_ROW", "md_parent_section": "§3.2.1 [Dataset-level Metadata]", "md_verbatim": "| SM | Subject Disease Milestones | Special Purpose | One record per Disease Milestone per subject | Tabulation | STUDYID, USUBJID, MIDS | sm.xpt |", "score": 0.6304, "match_basis": "verbatim_token+chapter_route:ch03"}], "candidate_count": 5, "zero_candidate": false}
{"pdf_atom_id": "ig34_p0017_a031", "pdf_atom_type": "CODE_LITERAL", "pdf_source": "SDTMIG_v3.4", "pdf_page": 17, "pdf_parent_section": "§3.2.1 Dataset-level Metadata", "pdf_verbatim": "sv.xpt", "figure_ref": null, "candidates": [{"md_atom_id": "md_ch03_a082", "md_file": "knowledge_base/chapters/ch03_submitting_data.md", "md_atom_type": "TABLE_ROW", "md_parent_section": "§3.2.1 [Dataset-level Metadata]", "md_verbatim": "| TV | Trial Visits | Trial Design | One record per planned Visit per Arm | Tabulation | STUDYID, ARM, VISIT | tv.xpt |", "score": 0.1062, "match_basis": "verbatim_token+chapter_route:ch03"}, {"md_atom_id": "md_ch03_a078", "md_file": "knowledge_base/chapters/ch03_submitting_data.md", "md_atom_type": "TABLE_ROW", "md_parent_section": "§3.2.1 [Dataset-level Metadata]", "md_verbatim": "| TE | Trial Elements | Trial Design | One record per planned Element | Tabulation | STUDYID, ETCD | te.xpt |", "score": 0.105, "match_basis": "verbatim_token+chapter_route:ch03"}, {"md_atom_id": "md_ch03_a088", "md_file": "knowledge_base/chapters/ch03_submitting_data.md", "md_atom_type": "SENTENCE", "md_parent_section": "§3.2.1 [Dataset-level Metadata]", "md_verbatim": "Separate Supplemental Qualifier datasets of the form supp--.xpt are required.", "score": 0.105, "match_basis": "verbatim_token+chapter_route:ch03"}, {"md_atom_id": "md_ch03_a085", "md_file": "knowledge_base/chapters/ch03_submitting_data.md", "md_atom_type": "TABLE_ROW", "md_parent_section": "§3.2.1 [Dataset-level Metadata]", "md_verbatim": "| RELSUB | Related Subjects | Relationship | One record per relationship per related subject per subject | Tabulation | STUDYID, USUBJID, RSUBJID, SREL | relsub.xpt |", "score": 0.1046, "match_basis": "verbatim_token+chapter_route:ch03"}, {"md_atom_id": "md_ch03_a076", "md_file": "knowledge_base/chapters/ch03_submitting_data.md", "md_atom_type": "TABLE_ROW", "md_parent_section": "§3.2.1 [Dataset-level Metadata]", "md_verbatim": "| TA | Trial Arms | Trial Design | One record per planned Element per Arm | Tabulation | STUDYID, ARMCD, TAETORD | ta.xpt |", "score": 0.1033, "match_basis": "verbatim_token+chapter_route:ch03"}, {"md_atom_id": "md_ch03_a080", "md_file": "knowledge_base/chapters/ch03_submitting_data.md", "md_atom_type": "TABLE_ROW", "md_parent_section": "§3.2.1 [Dataset-level Metadata]", "md_verbatim": "| TM | Trial Disease Milestones | Trial Design | One record per Disease Milestone type | Tabulation | STUDYID, MIDSTYPE | tm.xpt |", "score": 0.1033, "match_basis": "verbatim_token+chapter_route:ch03"}, {"md_atom_id": "md_ch03_a037", "md_file": "knowledge_base/chapters/ch03_submitting_data.md", "md_atom_type": "TABLE_ROW", "md_parent_section": "§3.2.1 [Dataset-level Metadata]", "md_verbatim": "| AE | Adverse Events | Events | One record per adverse event per subject | Tabulation | STUDYID, USUBJID, AEDECOD, AESTDTC | ae.xpt |", "score": 0.103, "match_basis": "verbatim_token+chapter_route:ch03"}, {"md_atom_id": "md_ch03_a043", "md_file": "knowledge_base/chapters/ch03_submitting_data.md", "md_atom_type": "TABLE_ROW", "md_parent_section": "§3.2.1 [Dataset-level Metadata]", "md_verbatim": "| MH | Medical History | Events | One record per medical history event per subject | Tabulation | STUDYID, USUBJID, MHDECOD | mh.xpt |", "score": 0.103, "match_basis": "verbatim_token+chapter_route:ch03"}, {"md_atom_id": "md_ch03_a039", "md_file": "knowledge_base/chapters/ch03_submitting_data.md", "md_atom_type": "TABLE_ROW", "md_parent_section": "§3.2.1 [Dataset-level Metadata]", "md_verbatim": "| CE | Clinical Events | Events | One record per event per subject | Tabulation | STUDYID, USUBJID, CETERM, CESTDTC | ce.xpt |", "score": 0.1028, "match_basis": "verbatim_token+chapter_route:ch03"}, {"md_atom_id": "md_ch03_a079", "md_file": "knowledge_base/chapters/ch03_submitting_data.md", "md_atom_type": "TABLE_ROW", "md_parent_section": "§3.2.1 [Dataset-level Metadata]", "md_verbatim": "| TI | Trial Inclusion/Exclusion Criteria | Trial Design | One record per I/E criterion | Tabulation | STUDYID, IETESTCD | ti.xpt |", "score": 0.1028, "match_basis": "verbatim_token+chapter_route:ch03"}], "candidate_count": 10, "zero_candidate": false}
{"pdf_atom_id": "ig34_p0017_a032", "pdf_atom_type": "TABLE_ROW", "pdf_source": "SDTMIG_v3.4", "pdf_page": 17, "pdf_parent_section": "§3.2.1 Dataset-level Metadata", "pdf_verbatim": "AG | Procedure Agents | Interventions | One record per recorded intervention occurrence per subject | Tabulation | STUDYID, USUBJID, AGTRT, AGSTDTC | ag.xpt", "figure_ref": null, "candidates": [{"md_atom_id": "md_ch03_a030", "md_file": "knowledge_base/chapters/ch03_submitting_data.md", "md_atom_type": "TABLE_ROW", "md_parent_section": "§3.2.1 [Dataset-level Metadata]", "md_verbatim": "| AG | Procedure Agents | Interventions | One record per recorded intervention occurrence per subject | Tabulation | STUDYID, USUBJID, AGTRT, AGSTDTC | ag.xpt |", "score": 0.9, "match_basis": "verbatim_token+chapter_route:ch03"}, {"md_atom_id": "md_ch03_a035", "md_file": "knowledge_base/chapters/ch03_submitting_data.md", "md_atom_type": "TABLE_ROW", "md_parent_section": "§3.2.1 [Dataset-level Metadata]", "md_verbatim": "| PR | Procedures | Interventions | One record per recorded procedure per occurrence per subject | Tabulation | STUDYID, USUBJID, PRTRT, PRSTDTC | pr.xpt |", "score": 0.7971, "match_basis": "verbatim_token+chapter_route:ch03"}, {"md_atom_id": "md_ch03_a036", "md_file": "knowledge_base/chapters/ch03_submitting_data.md", "md_atom_type": "TABLE_ROW", "md_parent_section": "§3.2.1 [Dataset-level Metadata]", "md_verbatim": "| SU | Substance Use | Interventions | One record per substance type per reported occurrence per subject | Tabulation | STUDYID, USUBJID, SUTRT, SUSTDTC | su.xpt |", "score": 0.6542, "match_basis": "verbatim_token+chapter_route:ch03"}, {"md_atom_id": "md_ch03_a034", "md_file": "knowledge_base/chapters/ch03_submitting_data.md", "md_atom_type": "TABLE_ROW", "md_parent_section": "§3.2.1 [Dataset-level Metadata]", "md_verbatim": "| ML | Meal Data | Interventions | One record per food product occurrence or constant intake interval per subject | Tabulation | STUDYID, USUBJID, MLTRT, MLSTDTC | ml.xpt |", "score": 0.6371, "match_basis": "verbatim_token+chapter_route:ch03"}, {"md_atom_id": "md_ch03_a031", "md_file": "knowledge_base/chapters/ch03_submitting_data.md", "md_atom_type": "TABLE_ROW", "md_parent_section": "§3.2.1 [Dataset-level Metadata]", "md_verbatim": "| CM | Concomitant/Prior Medications | Interventions | One record per recorded intervention occurrence or constant-dosing interval per subject | Tabulation | STUDYID, USUBJID, CMTRT, CMSTDTC | cm.xpt |", "score": 0.6255, "match_basis": "verbatim_token+chapter_route:ch03"}], "candidate_count": 5, "zero_candidate": false}
{"pdf_atom_id": "ig34_p0017_a033", "pdf_atom_type": "CODE_LITERAL", "pdf_source": "SDTMIG_v3.4", "pdf_page": 17, "pdf_parent_section": "§3.2.1 Dataset-level Metadata", "pdf_verbatim": "ag.xpt", "figure_ref": null, "candidates": [{"md_atom_id": "md_ch03_a082", "md_file": "knowledge_base/chapters/ch03_submitting_data.md", "md_atom_type": "TABLE_ROW", "md_parent_section": "§3.2.1 [Dataset-level Metadata]", "md_verbatim": "| TV | Trial Visits | Trial Design | One record per planned Visit per Arm | Tabulation | STUDYID, ARM, VISIT | tv.xpt |", "score": 0.1062, "match_basis": "verbatim_token+chapter_route:ch03"}, {"md_atom_id": "md_ch03_a078", "md_file": "knowledge_base/chapters/ch03_submitting_data.md", "md_atom_type": "TABLE_ROW", "md_parent_section": "§3.2.1 [Dataset-level Metadata]", "md_verbatim": "| TE | Trial Elements | Trial Design | One record per planned Element | Tabulation | STUDYID, ETCD | te.xpt |", "score": 0.105, "match_basis": "verbatim_token+chapter_route:ch03"}, {"md_atom_id": "md_ch03_a088", "md_file": "knowledge_base/chapters/ch03_submitting_data.md", "md_atom_type": "SENTENCE", "md_parent_section": "§3.2.1 [Dataset-level Metadata]", "md_verbatim": "Separate Supplemental Qualifier datasets of the form supp--.xpt are required.", "score": 0.105, "match_basis": "verbatim_token+chapter_route:ch03"}, {"md_atom_id": "md_ch03_a085", "md_file": "knowledge_base/chapters/ch03_submitting_data.md", "md_atom_type": "TABLE_ROW", "md_parent_section": "§3.2.1 [Dataset-level Metadata]", "md_verbatim": "| RELSUB | Related Subjects | Relationship | One record per relationship per related subject per subject | Tabulation | STUDYID, USUBJID, RSUBJID, SREL | relsub.xpt |", "score": 0.1046, "match_basis": "verbatim_token+chapter_route:ch03"}, {"md_atom_id": "md_ch03_a076", "md_file": "knowledge_base/chapters/ch03_submitting_data.md", "md_atom_type": "TABLE_ROW", "md_parent_section": "§3.2.1 [Dataset-level Metadata]", "md_verbatim": "| TA | Trial Arms | Trial Design | One record per planned Element per Arm | Tabulation | STUDYID, ARMCD, TAETORD | ta.xpt |", "score": 0.1033, "match_basis": "verbatim_token+chapter_route:ch03"}, {"md_atom_id": "md_ch03_a080", "md_file": "knowledge_base/chapters/ch03_submitting_data.md", "md_atom_type": "TABLE_ROW", "md_parent_section": "§3.2.1 [Dataset-level Metadata]", "md_verbatim": "| TM | Trial Disease Milestones | Trial Design | One record per Disease Milestone type | Tabulation | STUDYID, MIDSTYPE | tm.xpt |", "score": 0.1033, "match_basis": "verbatim_token+chapter_route:ch03"}, {"md_atom_id": "md_ch03_a037", "md_file": "knowledge_base/chapters/ch03_submitting_data.md", "md_atom_type": "TABLE_ROW", "md_parent_section": "§3.2.1 [Dataset-level Metadata]", "md_verbatim": "| AE | Adverse Events | Events | One record per adverse event per subject | Tabulation | STUDYID, USUBJID, AEDECOD, AESTDTC | ae.xpt |", "score": 0.103, "match_basis": "verbatim_token+chapter_route:ch03"}, {"md_atom_id": "md_ch03_a043", "md_file": "knowledge_base/chapters/ch03_submitting_data.md", "md_atom_type": "TABLE_ROW", "md_parent_section": "§3.2.1 [Dataset-level Metadata]", "md_verbatim": "| MH | Medical History | Events | One record per medical history event per subject | Tabulation | STUDYID, USUBJID, MHDECOD | mh.xpt |", "score": 0.103, "match_basis": "verbatim_token+chapter_route:ch03"}, {"md_atom_id": "md_ch03_a039", "md_file": "knowledge_base/chapters/ch03_submitting_data.md", "md_atom_type": "TABLE_ROW", "md_parent_section": "§3.2.1 [Dataset-level Metadata]", "md_verbatim": "| CE | Clinical Events | Events | One record per event per subject | Tabulation | STUDYID, USUBJID, CETERM, CESTDTC | ce.xpt |", "score": 0.1028, "match_basis": "verbatim_token+chapter_route:ch03"}, {"md_atom_id": "md_ch03_a079", "md_file": "knowledge_base/chapters/ch03_submitting_data.md", "md_atom_type": "TABLE_ROW", "md_parent_section": "§3.2.1 [Dataset-level Metadata]", "md_verbatim": "| TI | Trial Inclusion/Exclusion Criteria | Trial Design | One record per I/E criterion | Tabulation | STUDYID, IETESTCD | ti.xpt |", "score": 0.1028, "match_basis": "verbatim_token+chapter_route:ch03"}], "candidate_count": 10, "zero_candidate": false}
{"pdf_atom_id": "ig34_p0017_a034", "pdf_atom_type": "TABLE_ROW", "pdf_source": "SDTMIG_v3.4", "pdf_page": 17, "pdf_parent_section": "§3.2.1 Dataset-level Metadata", "pdf_verbatim": "CM | Concomitant/Prior Medications | Interventions | One record per recorded intervention occurrence or constant-dosing interval per subject | Tabulation | STUDYID, USUBJID, CMTRT, CMSTDTC | cm.xpt", "figure_ref": null, "candidates": [{"md_atom_id": "md_ch03_a031", "md_file": "knowledge_base/chapters/ch03_submitting_data.md", "md_atom_type": "TABLE_ROW", "md_parent_section": "§3.2.1 [Dataset-level Metadata]", "md_verbatim": "| CM | Concomitant/Prior Medications | Interventions | One record per recorded intervention occurrence or constant-dosing interval per subject | Tabulation | STUDYID, USUBJID, CMTRT, CMSTDTC | cm.xpt |", "score": 0.9, "match_basis": "verbatim_token+chapter_route:ch03"}, {"md_atom_id": "md_ch03_a034", "md_file": "knowledge_base/chapters/ch03_submitting_data.md", "md_atom_type": "TABLE_ROW", "md_parent_section": "§3.2.1 [Dataset-level Metadata]", "md_verbatim": "| ML | Meal Data | Interventions | One record per food product occurrence or constant intake interval per subject | Tabulation | STUDYID, USUBJID, MLTRT, MLSTDTC | ml.xpt |", "score": 0.6429, "match_basis": "verbatim_token+chapter_route:ch03"}, {"md_atom_id": "md_ch03_a035", "md_file": "knowledge_base/chapters/ch03_submitting_data.md", "md_atom_type": "TABLE_ROW", "md_parent_section": "§3.2.1 [Dataset-level Metadata]", "md_verbatim": "| PR | Procedures | Interventions | One record per recorded procedure per occurrence per subject | Tabulation | STUDYID, USUBJID, PRTRT, PRSTDTC | pr.xpt |", "score": 0.6326, "match_basis": "verbatim_token+chapter_route:ch03"}, {"md_atom_id": "md_ch03_a030", "md_file": "knowledge_base/chapters/ch03_submitting_data.md", "md_atom_type": "TABLE_ROW", "md_parent_section": "§3.2.1 [Dataset-level Metadata]", "md_verbatim": "| AG | Procedure Agents | Interventions | One record per recorded intervention occurrence per subject | Tabulation | STUDYID, USUBJID, AGTRT, AGSTDTC | ag.xpt |", "score": 0.6255, "match_basis": "verbatim_token+chapter_route:ch03"}, {"md_atom_id": "md_ch03_a036", "md_file": "knowledge_base/chapters/ch03_submitting_data.md", "md_atom_type": "TABLE_ROW", "md_parent_section": "§3.2.1 [Dataset-level Metadata]", "md_verbatim": "| SU | Substance Use | Interventions | One record per substance type per reported occurrence per subject | Tabulation | STUDYID, USUBJID, SUTRT, SUSTDTC | su.xpt |", "score": 0.6187, "match_basis": "verbatim_token+chapter_route:ch03"}], "candidate_count": 5, "zero_candidate": false}
{"pdf_atom_id": "ig34_p0017_a035", "pdf_atom_type": "CODE_LITERAL", "pdf_source": "SDTMIG_v3.4", "pdf_page": 17, "pdf_parent_section": "§3.2.1 Dataset-level Metadata", "pdf_verbatim": "cm.xpt", "figure_ref": null, "candidates": [{"md_atom_id": "md_ch03_a082", "md_file": "knowledge_base/chapters/ch03_submitting_data.md", "md_atom_type": "TABLE_ROW", "md_parent_section": "§3.2.1 [Dataset-level Metadata]", "md_verbatim": "| TV | Trial Visits | Trial Design | One record per planned Visit per Arm | Tabulation | STUDYID, ARM, VISIT | tv.xpt |", "score": 0.1062, "match_basis": "verbatim_token+chapter_route:ch03"}, {"md_atom_id": "md_ch03_a078", "md_file": "knowledge_base/chapters/ch03_submitting_data.md", "md_atom_type": "TABLE_ROW", "md_parent_section": "§3.2.1 [Dataset-level Metadata]", "md_verbatim": "| TE | Trial Elements | Trial Design | One record per planned Element | Tabulation | STUDYID, ETCD | te.xpt |", "score": 0.105, "match_basis": "verbatim_token+chapter_route:ch03"}, {"md_atom_id": "md_ch03_a088", "md_file": "knowledge_base/chapters/ch03_submitting_data.md", "md_atom_type": "SENTENCE", "md_parent_section": "§3.2.1 [Dataset-level Metadata]", "md_verbatim": "Separate Supplemental Qualifier datasets of the form supp--.xpt are required.", "score": 0.105, "match_basis": "verbatim_token+chapter_route:ch03"}, {"md_atom_id": "md_ch03_a085", "md_file": "knowledge_base/chapters/ch03_submitting_data.md", "md_atom_type": "TABLE_ROW", "md_parent_section": "§3.2.1 [Dataset-level Metadata]", "md_verbatim": "| RELSUB | Related Subjects | Relationship | One record per relationship per related subject per subject | Tabulation | STUDYID, USUBJID, RSUBJID, SREL | relsub.xpt |", "score": 0.1046, "match_basis": "verbatim_token+chapter_route:ch03"}, {"md_atom_id": "md_ch03_a076", "md_file": "knowledge_base/chapters/ch03_submitting_data.md", "md_atom_type": "TABLE_ROW", "md_parent_section": "§3.2.1 [Dataset-level Metadata]", "md_verbatim": "| TA | Trial Arms | Trial Design | One record per planned Element per Arm | Tabulation | STUDYID, ARMCD, TAETORD | ta.xpt |", "score": 0.1033, "match_basis": "verbatim_token+chapter_route:ch03"}, {"md_atom_id": "md_ch03_a080", "md_file": "knowledge_base/chapters/ch03_submitting_data.md", "md_atom_type": "TABLE_ROW", "md_parent_section": "§3.2.1 [Dataset-level Metadata]", "md_verbatim": "| TM | Trial Disease Milestones | Trial Design | One record per Disease Milestone type | Tabulation | STUDYID, MIDSTYPE | tm.xpt |", "score": 0.1033, "match_basis": "verbatim_token+chapter_route:ch03"}, {"md_atom_id": "md_ch03_a037", "md_file": "knowledge_base/chapters/ch03_submitting_data.md", "md_atom_type": "TABLE_ROW", "md_parent_section": "§3.2.1 [Dataset-level Metadata]", "md_verbatim": "| AE | Adverse Events | Events | One record per adverse event per subject | Tabulation | STUDYID, USUBJID, AEDECOD, AESTDTC | ae.xpt |", "score": 0.103, "match_basis": "verbatim_token+chapter_route:ch03"}, {"md_atom_id": "md_ch03_a043", "md_file": "knowledge_base/chapters/ch03_submitting_data.md", "md_atom_type": "TABLE_ROW", "md_parent_section": "§3.2.1 [Dataset-level Metadata]", "md_verbatim": "| MH | Medical History | Events | One record per medical history event per subject | Tabulation | STUDYID, USUBJID, MHDECOD | mh.xpt |", "score": 0.103, "match_basis": "verbatim_token+chapter_route:ch03"}, {"md_atom_id": "md_ch03_a039", "md_file": "knowledge_base/chapters/ch03_submitting_data.md", "md_atom_type": "TABLE_ROW", "md_parent_section": "§3.2.1 [Dataset-level Metadata]", "md_verbatim": "| CE | Clinical Events | Events | One record per event per subject | Tabulation | STUDYID, USUBJID, CETERM, CESTDTC | ce.xpt |", "score": 0.1028, "match_basis": "verbatim_token+chapter_route:ch03"}, {"md_atom_id": "md_ch03_a079", "md_file": "knowledge_base/chapters/ch03_submitting_data.md", "md_atom_type": "TABLE_ROW", "md_parent_section": "§3.2.1 [Dataset-level Metadata]", "md_verbatim": "| TI | Trial Inclusion/Exclusion Criteria | Trial Design | One record per I/E criterion | Tabulation | STUDYID, IETESTCD | ti.xpt |", "score": 0.1028, "match_basis": "verbatim_token+chapter_route:ch03"}], "candidate_count": 10, "zero_candidate": false}
{"pdf_atom_id": "ig34_p0017_a036", "pdf_atom_type": "TABLE_ROW", "pdf_source": "SDTMIG_v3.4", "pdf_page": 17, "pdf_parent_section": "§3.2.1 Dataset-level Metadata", "pdf_verbatim": "EC | Exposure as Collected | Interventions | One record per protocol-specified study treatment, collected-dosing interval, per subject, per mood | Tabulation | STUDYID, USUBJID, ECTRT, ECSTDTC, ECMOOD | ec.xpt", "figure_ref": null, "candidates": [{"md_atom_id": "md_ch03_a032", "md_file": "knowledge_base/chapters/ch03_submitting_data.md", "md_atom_type": "TABLE_ROW", "md_parent_section": "§3.2.1 [Dataset-level Metadata]", "md_verbatim": "| EC | Exposure as Collected | Interventions | One record per protocol-specified study treatment, collected-dosing interval, per subject, per mood | Tabulation | STUDYID, USUBJID, ECTRT, ECSTDTC, ECMOOD | ec.xpt |", "score": 0.9, "match_basis": "verbatim_token+chapter_route:ch03"}, {"md_atom_id": "md_ch03_a033", "md_file": "knowledge_base/chapters/ch03_submitting_data.md", "md_atom_type": "TABLE_ROW", "md_parent_section": "§3.2.1 [Dataset-level Metadata]", "md_verbatim": "| EX | Exposure | Interventions | One record per protocol-specified study treatment, constant-dosing interval, per subject | Tabulation | STUDYID, USUBJID, EXTRT, EXSTDTC | ex.xpt |", "score": 0.7645, "match_basis": "verbatim_token+chapter_route:ch03"}, {"md_atom_id": "md_ch03_a041", "md_file": "knowledge_base/chapters/ch03_submitting_data.md", "md_atom_type": "TABLE_ROW", "md_parent_section": "§3.2.1 [Dataset-level Metadata]", "md_verbatim": "| DV | Protocol Deviations | Events | One record per protocol deviation per subject | Tabulation | STUDYID, USUBJID, DVTERM, DVSTDTC | dv.xpt |", "score": 0.5589, "match_basis": "verbatim_token+chapter_route:ch03"}, {"md_atom_id": "md_ch03_a035", "md_file": "knowledge_base/chapters/ch03_submitting_data.md", "md_atom_type": "TABLE_ROW", "md_parent_section": "§3.2.1 [Dataset-level Metadata]", "md_verbatim": "| PR | Procedures | Interventions | One record per recorded procedure per occurrence per subject | Tabulation | STUDYID, USUBJID, PRTRT, PRSTDTC | pr.xpt |", "score": 0.5481, "match_basis": "verbatim_token+chapter_route:ch03"}, {"md_atom_id": "md_ch03_a030", "md_file": "knowledge_base/chapters/ch03_submitting_data.md", "md_atom_type": "TABLE_ROW", "md_parent_section": "§3.2.1 [Dataset-level Metadata]", "md_verbatim": "| AG | Procedure Agents | Interventions | One record per recorded intervention occurrence per subject | Tabulation | STUDYID, USUBJID, AGTRT, AGSTDTC | ag.xpt |", "score": 0.5434, "match_basis": "verbatim_token+chapter_route:ch03"}], "candidate_count": 5, "zero_candidate": false}
{"pdf_atom_id": "ig34_p0017_a037", "pdf_atom_type": "CODE_LITERAL", "pdf_source": "SDTMIG_v3.4", "pdf_page": 17, "pdf_parent_section": "§3.2.1 Dataset-level Metadata", "pdf_verbatim": "ec.xpt", "figure_ref": null, "candidates": [{"md_atom_id": "md_ch03_a082", "md_file": "knowledge_base/chapters/ch03_submitting_data.md", "md_atom_type": "TABLE_ROW", "md_parent_section": "§3.2.1 [Dataset-level Metadata]", "md_verbatim": "| TV | Trial Visits | Trial Design | One record per planned Visit per Arm | Tabulation | STUDYID, ARM, VISIT | tv.xpt |", "score": 0.1062, "match_basis": "verbatim_token+chapter_route:ch03"}, {"md_atom_id": "md_ch03_a078", "md_file": "knowledge_base/chapters/ch03_submitting_data.md", "md_atom_type": "TABLE_ROW", "md_parent_section": "§3.2.1 [Dataset-level Metadata]", "md_verbatim": "| TE | Trial Elements | Trial Design | One record per planned Element | Tabulation | STUDYID, ETCD | te.xpt |", "score": 0.105, "match_basis": "verbatim_token+chapter_route:ch03"}, {"md_atom_id": "md_ch03_a088", "md_file": "knowledge_base/chapters/ch03_submitting_data.md", "md_atom_type": "SENTENCE", "md_parent_section": "§3.2.1 [Dataset-level Metadata]", "md_verbatim": "Separate Supplemental Qualifier datasets of the form supp--.xpt are required.", "score": 0.105, "match_basis": "verbatim_token+chapter_route:ch03"}, {"md_atom_id": "md_ch03_a085", "md_file": "knowledge_base/chapters/ch03_submitting_data.md", "md_atom_type": "TABLE_ROW", "md_parent_section": "§3.2.1 [Dataset-level Metadata]", "md_verbatim": "| RELSUB | Related Subjects | Relationship | One record per relationship per related subject per subject | Tabulation | STUDYID, USUBJID, RSUBJID, SREL | relsub.xpt |", "score": 0.1046, "match_basis": "verbatim_token+chapter_route:ch03"}, {"md_atom_id": "md_ch03_a076", "md_file": "knowledge_base/chapters/ch03_submitting_data.md", "md_atom_type": "TABLE_ROW", "md_parent_section": "§3.2.1 [Dataset-level Metadata]", "md_verbatim": "| TA | Trial Arms | Trial Design | One record per planned Element per Arm | Tabulation | STUDYID, ARMCD, TAETORD | ta.xpt |", "score": 0.1033, "match_basis": "verbatim_token+chapter_route:ch03"}, {"md_atom_id": "md_ch03_a080", "md_file": "knowledge_base/chapters/ch03_submitting_data.md", "md_atom_type": "TABLE_ROW", "md_parent_section": "§3.2.1 [Dataset-level Metadata]", "md_verbatim": "| TM | Trial Disease Milestones | Trial Design | One record per Disease Milestone type | Tabulation | STUDYID, MIDSTYPE | tm.xpt |", "score": 0.1033, "match_basis": "verbatim_token+chapter_route:ch03"}, {"md_atom_id": "md_ch03_a037", "md_file": "knowledge_base/chapters/ch03_submitting_data.md", "md_atom_type": "TABLE_ROW", "md_parent_section": "§3.2.1 [Dataset-level Metadata]", "md_verbatim": "| AE | Adverse Events | Events | One record per adverse event per subject | Tabulation | STUDYID, USUBJID, AEDECOD, AESTDTC | ae.xpt |", "score": 0.103, "match_basis": "verbatim_token+chapter_route:ch03"}, {"md_atom_id": "md_ch03_a043", "md_file": "knowledge_base/chapters/ch03_submitting_data.md", "md_atom_type": "TABLE_ROW", "md_parent_section": "§3.2.1 [Dataset-level Metadata]", "md_verbatim": "| MH | Medical History | Events | One record per medical history event per subject | Tabulation | STUDYID, USUBJID, MHDECOD | mh.xpt |", "score": 0.103, "match_basis": "verbatim_token+chapter_route:ch03"}, {"md_atom_id": "md_ch03_a039", "md_file": "knowledge_base/chapters/ch03_submitting_data.md", "md_atom_type": "TABLE_ROW", "md_parent_section": "§3.2.1 [Dataset-level Metadata]", "md_verbatim": "| CE | Clinical Events | Events | One record per event per subject | Tabulation | STUDYID, USUBJID, CETERM, CESTDTC | ce.xpt |", "score": 0.1028, "match_basis": "verbatim_token+chapter_route:ch03"}, {"md_atom_id": "md_ch03_a079", "md_file": "knowledge_base/chapters/ch03_submitting_data.md", "md_atom_type": "TABLE_ROW", "md_parent_section": "§3.2.1 [Dataset-level Metadata]", "md_verbatim": "| TI | Trial Inclusion/Exclusion Criteria | Trial Design | One record per I/E criterion | Tabulation | STUDYID, IETESTCD | ti.xpt |", "score": 0.1028, "match_basis": "verbatim_token+chapter_route:ch03"}], "candidate_count": 10, "zero_candidate": false}
{"pdf_atom_id": "ig34_p0018_a001", "pdf_atom_type": "TABLE_HEADER", "pdf_source": "SDTMIG_v3.4", "pdf_page": 18, "pdf_parent_section": "§3.2.1 Dataset-level Metadata", "pdf_verbatim": "Dataset | Description | Class | Structure | Purpose | Keys | Location", "figure_ref": null, "candidates": [{"md_atom_id": "md_ch03_a024", "md_file": "knowledge_base/chapters/ch03_submitting_data.md", "md_atom_type": "TABLE_HEADER", "md_parent_section": "§3.2.1 [Dataset-level Metadata]", "md_verbatim": "| Dataset | Description | Class | Structure | Purpose | Keys | Location |\n|---------|-------------|-------|-----------|---------|------|----------|", "score": 0.9, "match_basis": "verbatim_token+chapter_route:ch03"}, {"md_atom_id": "md_ch03_a019", "md_file": "knowledge_base/chapters/ch03_submitting_data.md", "md_atom_type": "LIST_ITEM", "md_parent_section": "§3.2 [Using the CDISC Domain Models in Regulatory Submissions — Dataset Metadata]", "md_verbatim": "- Dataset filenames, descriptions, locations, structures, class, purpose, and keys", "score": 0.5567, "match_basis": "verbatim_token+chapter_route:ch03"}, {"md_atom_id": "md_ch03_a028", "md_file": "knowledge_base/chapters/ch03_submitting_data.md", "md_atom_type": "TABLE_ROW", "md_parent_section": "§3.2.1 [Dataset-level Metadata]", "md_verbatim": "| SM | Subject Disease Milestones | Special Purpose | One record per Disease Milestone per subject | Tabulation | STUDYID, USUBJID, MIDS | sm.xpt |", "score": 0.3092, "match_basis": "verbatim_token+chapter_route:ch03"}, {"md_atom_id": "md_ch03_a027", "md_file": "knowledge_base/chapters/ch03_submitting_data.md", "md_atom_type": "TABLE_ROW", "md_parent_section": "§3.2.1 [Dataset-level Metadata]", "md_verbatim": "| SE | Subject Elements | Special Purpose | One record per actual Element per subject | Tabulation | STUDYID, USUBJID, ETCD, SESTDTC | se.xpt |", "score": 0.3067, "match_basis": "verbatim_token+chapter_route:ch03"}, {"md_atom_id": "md_ch03_a029", "md_file": "knowledge_base/chapters/ch03_submitting_data.md", "md_atom_type": "TABLE_ROW", "md_parent_section": "§3.2.1 [Dataset-level Metadata]", "md_verbatim": "| SV | Subject Visits | Special Purpose | One record per actual or planned visit per subject | Tabulation | STUDYID, USUBJID, SVTERM | sv.xpt |", "score": 0.3067, "match_basis": "verbatim_token+chapter_route:ch03"}], "candidate_count": 5, "zero_candidate": false}
{"pdf_atom_id": "ig34_p0018_a002", "pdf_atom_type": "TABLE_ROW", "pdf_source": "SDTMIG_v3.4", "pdf_page": 18, "pdf_parent_section": "§3.2.1 Dataset-level Metadata", "pdf_verbatim": "EX | Exposure | Interventions | One record per protocol-specified study treatment, constant-dosing interval, per subject | Tabulation | STUDYID, USUBJID, EXTRT, EXSTDTC | ex.xpt", "figure_ref": null, "candidates": [{"md_atom_id": "md_ch03_a033", "md_file": "knowledge_base/chapters/ch03_submitting_data.md", "md_atom_type": "TABLE_ROW", "md_parent_section": "§3.2.1 [Dataset-level Metadata]", "md_verbatim": "| EX | Exposure | Interventions | One record per protocol-specified study treatment, constant-dosing interval, per subject | Tabulation | STUDYID, USUBJID, EXTRT, EXSTDTC | ex.xpt |", "score": 0.9, "match_basis": "verbatim_token+chapter_route:ch03"}, {"md_atom_id": "md_ch03_a032", "md_file": "knowledge_base/chapters/ch03_submitting_data.md", "md_atom_type": "TABLE_ROW", "md_parent_section": "§3.2.1 [Dataset-level Metadata]", "md_verbatim": "| EC | Exposure as Collected | Interventions | One record per protocol-specified study treatment, collected-dosing interval, per subject, per mood | Tabulation | STUDYID, USUBJID, ECTRT, ECSTDTC, ECMOOD | ec.xpt |", "score": 0.7645, "match_basis": "verbatim_token+chapter_route:ch03"}, {"md_atom_id": "md_ch03_a031", "md_file": "knowledge_base/chapters/ch03_submitting_data.md", "md_atom_type": "TABLE_ROW", "md_parent_section": "§3.2.1 [Dataset-level Metadata]", "md_verbatim": "| CM | Concomitant/Prior Medications | Interventions | One record per recorded intervention occurrence or constant-dosing interval per subject | Tabulation | STUDYID, USUBJID, CMTRT, CMSTDTC | cm.xpt |", "score": 0.5862, "match_basis": "verbatim_token+chapter_route:ch03"}, {"md_atom_id": "md_ch03_a034", "md_file": "knowledge_base/chapters/ch03_submitting_data.md", "md_atom_type": "TABLE_ROW", "md_parent_section": "§3.2.1 [Dataset-level Metadata]", "md_verbatim": "| ML | Meal Data | Interventions | One record per food product occurrence or constant intake interval per subject | Tabulation | STUDYID, USUBJID, MLTRT, MLSTDTC | ml.xpt |", "score": 0.5774, "match_basis": "verbatim_token+chapter_route:ch03"}, {"md_atom_id": "md_ch03_a041", "md_file": "knowledge_base/chapters/ch03_submitting_data.md", "md_atom_type": "TABLE_ROW", "md_parent_section": "§3.2.1 [Dataset-level Metadata]", "md_verbatim": "| DV | Protocol Deviations | Events | One record per protocol deviation per subject | Tabulation | STUDYID, USUBJID, DVTERM, DVSTDTC | dv.xpt |", "score": 0.5674, "match_basis": "verbatim_token+chapter_route:ch03"}], "candidate_count": 5, "zero_candidate": false}
{"pdf_atom_id": "ig34_p0018_a003", "pdf_atom_type": "CODE_LITERAL", "pdf_source": "SDTMIG_v3.4", "pdf_page": 18, "pdf_parent_section": "§3.2.1 Dataset-level Metadata", "pdf_verbatim": "ex.xpt", "figure_ref": null, "candidates": [{"md_atom_id": "md_ch03_a082", "md_file": "knowledge_base/chapters/ch03_submitting_data.md", "md_atom_type": "TABLE_ROW", "md_parent_section": "§3.2.1 [Dataset-level Metadata]", "md_verbatim": "| TV | Trial Visits | Trial Design | One record per planned Visit per Arm | Tabulation | STUDYID, ARM, VISIT | tv.xpt |", "score": 0.1062, "match_basis": "verbatim_token+chapter_route:ch03"}, {"md_atom_id": "md_ch03_a078", "md_file": "knowledge_base/chapters/ch03_submitting_data.md", "md_atom_type": "TABLE_ROW", "md_parent_section": "§3.2.1 [Dataset-level Metadata]", "md_verbatim": "| TE | Trial Elements | Trial Design | One record per planned Element | Tabulation | STUDYID, ETCD | te.xpt |", "score": 0.105, "match_basis": "verbatim_token+chapter_route:ch03"}, {"md_atom_id": "md_ch03_a088", "md_file": "knowledge_base/chapters/ch03_submitting_data.md", "md_atom_type": "SENTENCE", "md_parent_section": "§3.2.1 [Dataset-level Metadata]", "md_verbatim": "Separate Supplemental Qualifier datasets of the form supp--.xpt are required.", "score": 0.105, "match_basis": "verbatim_token+chapter_route:ch03"}, {"md_atom_id": "md_ch03_a085", "md_file": "knowledge_base/chapters/ch03_submitting_data.md", "md_atom_type": "TABLE_ROW", "md_parent_section": "§3.2.1 [Dataset-level Metadata]", "md_verbatim": "| RELSUB | Related Subjects | Relationship | One record per relationship per related subject per subject | Tabulation | STUDYID, USUBJID, RSUBJID, SREL | relsub.xpt |", "score": 0.1046, "match_basis": "verbatim_token+chapter_route:ch03"}, {"md_atom_id": "md_ch03_a076", "md_file": "knowledge_base/chapters/ch03_submitting_data.md", "md_atom_type": "TABLE_ROW", "md_parent_section": "§3.2.1 [Dataset-level Metadata]", "md_verbatim": "| TA | Trial Arms | Trial Design | One record per planned Element per Arm | Tabulation | STUDYID, ARMCD, TAETORD | ta.xpt |", "score": 0.1033, "match_basis": "verbatim_token+chapter_route:ch03"}, {"md_atom_id": "md_ch03_a080", "md_file": "knowledge_base/chapters/ch03_submitting_data.md", "md_atom_type": "TABLE_ROW", "md_parent_section": "§3.2.1 [Dataset-level Metadata]", "md_verbatim": "| TM | Trial Disease Milestones | Trial Design | One record per Disease Milestone type | Tabulation | STUDYID, MIDSTYPE | tm.xpt |", "score": 0.1033, "match_basis": "verbatim_token+chapter_route:ch03"}, {"md_atom_id": "md_ch03_a037", "md_file": "knowledge_base/chapters/ch03_submitting_data.md", "md_atom_type": "TABLE_ROW", "md_parent_section": "§3.2.1 [Dataset-level Metadata]", "md_verbatim": "| AE | Adverse Events | Events | One record per adverse event per subject | Tabulation | STUDYID, USUBJID, AEDECOD, AESTDTC | ae.xpt |", "score": 0.103, "match_basis": "verbatim_token+chapter_route:ch03"}, {"md_atom_id": "md_ch03_a043", "md_file": "knowledge_base/chapters/ch03_submitting_data.md", "md_atom_type": "TABLE_ROW", "md_parent_section": "§3.2.1 [Dataset-level Metadata]", "md_verbatim": "| MH | Medical History | Events | One record per medical history event per subject | Tabulation | STUDYID, USUBJID, MHDECOD | mh.xpt |", "score": 0.103, "match_basis": "verbatim_token+chapter_route:ch03"}, {"md_atom_id": "md_ch03_a039", "md_file": "knowledge_base/chapters/ch03_submitting_data.md", "md_atom_type": "TABLE_ROW", "md_parent_section": "§3.2.1 [Dataset-level Metadata]", "md_verbatim": "| CE | Clinical Events | Events | One record per event per subject | Tabulation | STUDYID, USUBJID, CETERM, CESTDTC | ce.xpt |", "score": 0.1028, "match_basis": "verbatim_token+chapter_route:ch03"}, {"md_atom_id": "md_ch03_a079", "md_file": "knowledge_base/chapters/ch03_submitting_data.md", "md_atom_type": "TABLE_ROW", "md_parent_section": "§3.2.1 [Dataset-level Metadata]", "md_verbatim": "| TI | Trial Inclusion/Exclusion Criteria | Trial Design | One record per I/E criterion | Tabulation | STUDYID, IETESTCD | ti.xpt |", "score": 0.1028, "match_basis": "verbatim_token+chapter_route:ch03"}], "candidate_count": 10, "zero_candidate": false}
{"pdf_atom_id": "ig34_p0018_a004", "pdf_atom_type": "TABLE_ROW", "pdf_source": "SDTMIG_v3.4", "pdf_page": 18, "pdf_parent_section": "§3.2.1 Dataset-level Metadata", "pdf_verbatim": "ML | Meal Data | Interventions | One record per food product occurrence or constant intake interval per subject | Tabulation | STUDYID, USUBJID, MLTRT, MLSTDTC | ml.xpt", "figure_ref": null, "candidates": [{"md_atom_id": "md_ch03_a034", "md_file": "knowledge_base/chapters/ch03_submitting_data.md", "md_atom_type": "TABLE_ROW", "md_parent_section": "§3.2.1 [Dataset-level Metadata]", "md_verbatim": "| ML | Meal Data | Interventions | One record per food product occurrence or constant intake interval per subject | Tabulation | STUDYID, USUBJID, MLTRT, MLSTDTC | ml.xpt |", "score": 0.9, "match_basis": "verbatim_token+chapter_route:ch03"}, {"md_atom_id": "md_ch03_a035", "md_file": "knowledge_base/chapters/ch03_submitting_data.md", "md_atom_type": "TABLE_ROW", "md_parent_section": "§3.2.1 [Dataset-level Metadata]", "md_verbatim": "| PR | Procedures | Interventions | One record per recorded procedure per occurrence per subject | Tabulation | STUDYID, USUBJID, PRTRT, PRSTDTC | pr.xpt |", "score": 0.6448, "match_basis": "verbatim_token+chapter_route:ch03"}, {"md_atom_id": "md_ch03_a031", "md_file": "knowledge_base/chapters/ch03_submitting_data.md", "md_atom_type": "TABLE_ROW", "md_parent_section": "§3.2.1 [Dataset-level Metadata]", "md_verbatim": "| CM | Concomitant/Prior Medications | Interventions | One record per recorded intervention occurrence or constant-dosing interval per subject | Tabulation | STUDYID, USUBJID, CMTRT, CMSTDTC | cm.xpt |", "score": 0.6429, "match_basis": "verbatim_token+chapter_route:ch03"}, {"md_atom_id": "md_ch03_a036", "md_file": "knowledge_base/chapters/ch03_submitting_data.md", "md_atom_type": "TABLE_ROW", "md_parent_section": "§3.2.1 [Dataset-level Metadata]", "md_verbatim": "| SU | Substance Use | Interventions | One record per substance type per reported occurrence per subject | Tabulation | STUDYID, USUBJID, SUTRT, SUSTDTC | su.xpt |", "score": 0.64, "match_basis": "verbatim_token+chapter_route:ch03"}, {"md_atom_id": "md_ch03_a030", "md_file": "knowledge_base/chapters/ch03_submitting_data.md", "md_atom_type": "TABLE_ROW", "md_parent_section": "§3.2.1 [Dataset-level Metadata]", "md_verbatim": "| AG | Procedure Agents | Interventions | One record per recorded intervention occurrence per subject | Tabulation | STUDYID, USUBJID, AGTRT, AGSTDTC | ag.xpt |", "score": 0.6371, "match_basis": "verbatim_token+chapter_route:ch03"}], "candidate_count": 5, "zero_candidate": false}
{"pdf_atom_id": "ig34_p0018_a005", "pdf_atom_type": "CODE_LITERAL", "pdf_source": "SDTMIG_v3.4", "pdf_page": 18, "pdf_parent_section": "§3.2.1 Dataset-level Metadata", "pdf_verbatim": "ml.xpt", "figure_ref": null, "candidates": [{"md_atom_id": "md_ch03_a082", "md_file": "knowledge_base/chapters/ch03_submitting_data.md", "md_atom_type": "TABLE_ROW", "md_parent_section": "§3.2.1 [Dataset-level Metadata]", "md_verbatim": "| TV | Trial Visits | Trial Design | One record per planned Visit per Arm | Tabulation | STUDYID, ARM, VISIT | tv.xpt |", "score": 0.1062, "match_basis": "verbatim_token+chapter_route:ch03"}, {"md_atom_id": "md_ch03_a078", "md_file": "knowledge_base/chapters/ch03_submitting_data.md", "md_atom_type": "TABLE_ROW", "md_parent_section": "§3.2.1 [Dataset-level Metadata]", "md_verbatim": "| TE | Trial Elements | Trial Design | One record per planned Element | Tabulation | STUDYID, ETCD | te.xpt |", "score": 0.105, "match_basis": "verbatim_token+chapter_route:ch03"}, {"md_atom_id": "md_ch03_a088", "md_file": "knowledge_base/chapters/ch03_submitting_data.md", "md_atom_type": "SENTENCE", "md_parent_section": "§3.2.1 [Dataset-level Metadata]", "md_verbatim": "Separate Supplemental Qualifier datasets of the form supp--.xpt are required.", "score": 0.105, "match_basis": "verbatim_token+chapter_route:ch03"}, {"md_atom_id": "md_ch03_a085", "md_file": "knowledge_base/chapters/ch03_submitting_data.md", "md_atom_type": "TABLE_ROW", "md_parent_section": "§3.2.1 [Dataset-level Metadata]", "md_verbatim": "| RELSUB | Related Subjects | Relationship | One record per relationship per related subject per subject | Tabulation | STUDYID, USUBJID, RSUBJID, SREL | relsub.xpt |", "score": 0.1046, "match_basis": "verbatim_token+chapter_route:ch03"}, {"md_atom_id": "md_ch03_a076", "md_file": "knowledge_base/chapters/ch03_submitting_data.md", "md_atom_type": "TABLE_ROW", "md_parent_section": "§3.2.1 [Dataset-level Metadata]", "md_verbatim": "| TA | Trial Arms | Trial Design | One record per planned Element per Arm | Tabulation | STUDYID, ARMCD, TAETORD | ta.xpt |", "score": 0.1033, "match_basis": "verbatim_token+chapter_route:ch03"}, {"md_atom_id": "md_ch03_a080", "md_file": "knowledge_base/chapters/ch03_submitting_data.md", "md_atom_type": "TABLE_ROW", "md_parent_section": "§3.2.1 [Dataset-level Metadata]", "md_verbatim": "| TM | Trial Disease Milestones | Trial Design | One record per Disease Milestone type | Tabulation | STUDYID, MIDSTYPE | tm.xpt |", "score": 0.1033, "match_basis": "verbatim_token+chapter_route:ch03"}, {"md_atom_id": "md_ch03_a037", "md_file": "knowledge_base/chapters/ch03_submitting_data.md", "md_atom_type": "TABLE_ROW", "md_parent_section": "§3.2.1 [Dataset-level Metadata]", "md_verbatim": "| AE | Adverse Events | Events | One record per adverse event per subject | Tabulation | STUDYID, USUBJID, AEDECOD, AESTDTC | ae.xpt |", "score": 0.103, "match_basis": "verbatim_token+chapter_route:ch03"}, {"md_atom_id": "md_ch03_a043", "md_file": "knowledge_base/chapters/ch03_submitting_data.md", "md_atom_type": "TABLE_ROW", "md_parent_section": "§3.2.1 [Dataset-level Metadata]", "md_verbatim": "| MH | Medical History | Events | One record per medical history event per subject | Tabulation | STUDYID, USUBJID, MHDECOD | mh.xpt |", "score": 0.103, "match_basis": "verbatim_token+chapter_route:ch03"}, {"md_atom_id": "md_ch03_a039", "md_file": "knowledge_base/chapters/ch03_submitting_data.md", "md_atom_type": "TABLE_ROW", "md_parent_section": "§3.2.1 [Dataset-level Metadata]", "md_verbatim": "| CE | Clinical Events | Events | One record per event per subject | Tabulation | STUDYID, USUBJID, CETERM, CESTDTC | ce.xpt |", "score": 0.1028, "match_basis": "verbatim_token+chapter_route:ch03"}, {"md_atom_id": "md_ch03_a079", "md_file": "knowledge_base/chapters/ch03_submitting_data.md", "md_atom_type": "TABLE_ROW", "md_parent_section": "§3.2.1 [Dataset-level Metadata]", "md_verbatim": "| TI | Trial Inclusion/Exclusion Criteria | Trial Design | One record per I/E criterion | Tabulation | STUDYID, IETESTCD | ti.xpt |", "score": 0.1028, "match_basis": "verbatim_token+chapter_route:ch03"}], "candidate_count": 10, "zero_candidate": false}
{"pdf_atom_id": "ig34_p0018_a006", "pdf_atom_type": "TABLE_ROW", "pdf_source": "SDTMIG_v3.4", "pdf_page": 18, "pdf_parent_section": "§3.2.1 Dataset-level Metadata", "pdf_verbatim": "PR | Procedures | Interventions | One record per recorded procedure per occurrence per subject | Tabulation | STUDYID, USUBJID, PRTRT, PRSTDTC | pr.xpt", "figure_ref": null, "candidates": [{"md_atom_id": "md_ch03_a035", "md_file": "knowledge_base/chapters/ch03_submitting_data.md", "md_atom_type": "TABLE_ROW", "md_parent_section": "§3.2.1 [Dataset-level Metadata]", "md_verbatim": "| PR | Procedures | Interventions | One record per recorded procedure per occurrence per subject | Tabulation | STUDYID, USUBJID, PRTRT, PRSTDTC | pr.xpt |", "score": 0.9, "match_basis": "verbatim_token+chapter_route:ch03"}, {"md_atom_id": "md_ch03_a030", "md_file": "knowledge_base/chapters/ch03_submitting_data.md", "md_atom_type": "TABLE_ROW", "md_parent_section": "§3.2.1 [Dataset-level Metadata]", "md_verbatim": "| AG | Procedure Agents | Interventions | One record per recorded intervention occurrence per subject | Tabulation | STUDYID, USUBJID, AGTRT, AGSTDTC | ag.xpt |", "score": 0.7971, "match_basis": "verbatim_token+chapter_route:ch03"}, {"md_atom_id": "md_ch03_a036", "md_file": "knowledge_base/chapters/ch03_submitting_data.md", "md_atom_type": "TABLE_ROW", "md_parent_section": "§3.2.1 [Dataset-level Metadata]", "md_verbatim": "| SU | Substance Use | Interventions | One record per substance type per reported occurrence per subject | Tabulation | STUDYID, USUBJID, SUTRT, SUSTDTC | su.xpt |", "score": 0.663, "match_basis": "verbatim_token+chapter_route:ch03"}, {"md_atom_id": "md_ch03_a034", "md_file": "knowledge_base/chapters/ch03_submitting_data.md", "md_atom_type": "TABLE_ROW", "md_parent_section": "§3.2.1 [Dataset-level Metadata]", "md_verbatim": "| ML | Meal Data | Interventions | One record per food product occurrence or constant intake interval per subject | Tabulation | STUDYID, USUBJID, MLTRT, MLSTDTC | ml.xpt |", "score": 0.6448, "match_basis": "verbatim_token+chapter_route:ch03"}, {"md_atom_id": "md_ch03_a031", "md_file": "knowledge_base/chapters/ch03_submitting_data.md", "md_atom_type": "TABLE_ROW", "md_parent_section": "§3.2.1 [Dataset-level Metadata]", "md_verbatim": "| CM | Concomitant/Prior Medications | Interventions | One record per recorded intervention occurrence or constant-dosing interval per subject | Tabulation | STUDYID, USUBJID, CMTRT, CMSTDTC | cm.xpt |", "score": 0.6326, "match_basis": "verbatim_token+chapter_route:ch03"}], "candidate_count": 5, "zero_candidate": false}
{"pdf_atom_id": "ig34_p0018_a007", "pdf_atom_type": "CODE_LITERAL", "pdf_source": "SDTMIG_v3.4", "pdf_page": 18, "pdf_parent_section": "§3.2.1 Dataset-level Metadata", "pdf_verbatim": "pr.xpt", "figure_ref": null, "candidates": [{"md_atom_id": "md_ch03_a082", "md_file": "knowledge_base/chapters/ch03_submitting_data.md", "md_atom_type": "TABLE_ROW", "md_parent_section": "§3.2.1 [Dataset-level Metadata]", "md_verbatim": "| TV | Trial Visits | Trial Design | One record per planned Visit per Arm | Tabulation | STUDYID, ARM, VISIT | tv.xpt |", "score": 0.1062, "match_basis": "verbatim_token+chapter_route:ch03"}, {"md_atom_id": "md_ch03_a078", "md_file": "knowledge_base/chapters/ch03_submitting_data.md", "md_atom_type": "TABLE_ROW", "md_parent_section": "§3.2.1 [Dataset-level Metadata]", "md_verbatim": "| TE | Trial Elements | Trial Design | One record per planned Element | Tabulation | STUDYID, ETCD | te.xpt |", "score": 0.105, "match_basis": "verbatim_token+chapter_route:ch03"}, {"md_atom_id": "md_ch03_a088", "md_file": "knowledge_base/chapters/ch03_submitting_data.md", "md_atom_type": "SENTENCE", "md_parent_section": "§3.2.1 [Dataset-level Metadata]", "md_verbatim": "Separate Supplemental Qualifier datasets of the form supp--.xpt are required.", "score": 0.105, "match_basis": "verbatim_token+chapter_route:ch03"}, {"md_atom_id": "md_ch03_a085", "md_file": "knowledge_base/chapters/ch03_submitting_data.md", "md_atom_type": "TABLE_ROW", "md_parent_section": "§3.2.1 [Dataset-level Metadata]", "md_verbatim": "| RELSUB | Related Subjects | Relationship | One record per relationship per related subject per subject | Tabulation | STUDYID, USUBJID, RSUBJID, SREL | relsub.xpt |", "score": 0.1046, "match_basis": "verbatim_token+chapter_route:ch03"}, {"md_atom_id": "md_ch03_a076", "md_file": "knowledge_base/chapters/ch03_submitting_data.md", "md_atom_type": "TABLE_ROW", "md_parent_section": "§3.2.1 [Dataset-level Metadata]", "md_verbatim": "| TA | Trial Arms | Trial Design | One record per planned Element per Arm | Tabulation | STUDYID, ARMCD, TAETORD | ta.xpt |", "score": 0.1033, "match_basis": "verbatim_token+chapter_route:ch03"}, {"md_atom_id": "md_ch03_a080", "md_file": "knowledge_base/chapters/ch03_submitting_data.md", "md_atom_type": "TABLE_ROW", "md_parent_section": "§3.2.1 [Dataset-level Metadata]", "md_verbatim": "| TM | Trial Disease Milestones | Trial Design | One record per Disease Milestone type | Tabulation | STUDYID, MIDSTYPE | tm.xpt |", "score": 0.1033, "match_basis": "verbatim_token+chapter_route:ch03"}, {"md_atom_id": "md_ch03_a037", "md_file": "knowledge_base/chapters/ch03_submitting_data.md", "md_atom_type": "TABLE_ROW", "md_parent_section": "§3.2.1 [Dataset-level Metadata]", "md_verbatim": "| AE | Adverse Events | Events | One record per adverse event per subject | Tabulation | STUDYID, USUBJID, AEDECOD, AESTDTC | ae.xpt |", "score": 0.103, "match_basis": "verbatim_token+chapter_route:ch03"}, {"md_atom_id": "md_ch03_a043", "md_file": "knowledge_base/chapters/ch03_submitting_data.md", "md_atom_type": "TABLE_ROW", "md_parent_section": "§3.2.1 [Dataset-level Metadata]", "md_verbatim": "| MH | Medical History | Events | One record per medical history event per subject | Tabulation | STUDYID, USUBJID, MHDECOD | mh.xpt |", "score": 0.103, "match_basis": "verbatim_token+chapter_route:ch03"}, {"md_atom_id": "md_ch03_a039", "md_file": "knowledge_base/chapters/ch03_submitting_data.md", "md_atom_type": "TABLE_ROW", "md_parent_section": "§3.2.1 [Dataset-level Metadata]", "md_verbatim": "| CE | Clinical Events | Events | One record per event per subject | Tabulation | STUDYID, USUBJID, CETERM, CESTDTC | ce.xpt |", "score": 0.1028, "match_basis": "verbatim_token+chapter_route:ch03"}, {"md_atom_id": "md_ch03_a079", "md_file": "knowledge_base/chapters/ch03_submitting_data.md", "md_atom_type": "TABLE_ROW", "md_parent_section": "§3.2.1 [Dataset-level Metadata]", "md_verbatim": "| TI | Trial Inclusion/Exclusion Criteria | Trial Design | One record per I/E criterion | Tabulation | STUDYID, IETESTCD | ti.xpt |", "score": 0.1028, "match_basis": "verbatim_token+chapter_route:ch03"}], "candidate_count": 10, "zero_candidate": false}
{"pdf_atom_id": "ig34_p0018_a008", "pdf_atom_type": "TABLE_ROW", "pdf_source": "SDTMIG_v3.4", "pdf_page": 18, "pdf_parent_section": "§3.2.1 Dataset-level Metadata", "pdf_verbatim": "SU | Substance Use | Interventions | One record per substance type per reported occurrence per subject | Tabulation | STUDYID, USUBJID, SUTRT, SUSTDTC | su.xpt", "figure_ref": null, "candidates": [{"md_atom_id": "md_ch03_a036", "md_file": "knowledge_base/chapters/ch03_submitting_data.md", "md_atom_type": "TABLE_ROW", "md_parent_section": "§3.2.1 [Dataset-level Metadata]", "md_verbatim": "| SU | Substance Use | Interventions | One record per substance type per reported occurrence per subject | Tabulation | STUDYID, USUBJID, SUTRT, SUSTDTC | su.xpt |", "score": 0.9, "match_basis": "verbatim_token+chapter_route:ch03"}, {"md_atom_id": "md_ch03_a035", "md_file": "knowledge_base/chapters/ch03_submitting_data.md", "md_atom_type": "TABLE_ROW", "md_parent_section": "§3.2.1 [Dataset-level Metadata]", "md_verbatim": "| PR | Procedures | Interventions | One record per recorded procedure per occurrence per subject | Tabulation | STUDYID, USUBJID, PRTRT, PRSTDTC | pr.xpt |", "score": 0.663, "match_basis": "verbatim_token+chapter_route:ch03"}, {"md_atom_id": "md_ch03_a030", "md_file": "knowledge_base/chapters/ch03_submitting_data.md", "md_atom_type": "TABLE_ROW", "md_parent_section": "§3.2.1 [Dataset-level Metadata]", "md_verbatim": "| AG | Procedure Agents | Interventions | One record per recorded intervention occurrence per subject | Tabulation | STUDYID, USUBJID, AGTRT, AGSTDTC | ag.xpt |", "score": 0.6542, "match_basis": "verbatim_token+chapter_route:ch03"}, {"md_atom_id": "md_ch03_a034", "md_file": "knowledge_base/chapters/ch03_submitting_data.md", "md_atom_type": "TABLE_ROW", "md_parent_section": "§3.2.1 [Dataset-level Metadata]", "md_verbatim": "| ML | Meal Data | Interventions | One record per food product occurrence or constant intake interval per subject | Tabulation | STUDYID, USUBJID, MLTRT, MLSTDTC | ml.xpt |", "score": 0.64, "match_basis": "verbatim_token+chapter_route:ch03"}, {"md_atom_id": "md_ch03_a031", "md_file": "knowledge_base/chapters/ch03_submitting_data.md", "md_atom_type": "TABLE_ROW", "md_parent_section": "§3.2.1 [Dataset-level Metadata]", "md_verbatim": "| CM | Concomitant/Prior Medications | Interventions | One record per recorded intervention occurrence or constant-dosing interval per subject | Tabulation | STUDYID, USUBJID, CMTRT, CMSTDTC | cm.xpt |", "score": 0.6187, "match_basis": "verbatim_token+chapter_route:ch03"}], "candidate_count": 5, "zero_candidate": false}
{"pdf_atom_id": "ig34_p0018_a009", "pdf_atom_type": "CODE_LITERAL", "pdf_source": "SDTMIG_v3.4", "pdf_page": 18, "pdf_parent_section": "§3.2.1 Dataset-level Metadata", "pdf_verbatim": "su.xpt", "figure_ref": null, "candidates": [{"md_atom_id": "md_ch03_a082", "md_file": "knowledge_base/chapters/ch03_submitting_data.md", "md_atom_type": "TABLE_ROW", "md_parent_section": "§3.2.1 [Dataset-level Metadata]", "md_verbatim": "| TV | Trial Visits | Trial Design | One record per planned Visit per Arm | Tabulation | STUDYID, ARM, VISIT | tv.xpt |", "score": 0.1062, "match_basis": "verbatim_token+chapter_route:ch03"}, {"md_atom_id": "md_ch03_a078", "md_file": "knowledge_base/chapters/ch03_submitting_data.md", "md_atom_type": "TABLE_ROW", "md_parent_section": "§3.2.1 [Dataset-level Metadata]", "md_verbatim": "| TE | Trial Elements | Trial Design | One record per planned Element | Tabulation | STUDYID, ETCD | te.xpt |", "score": 0.105, "match_basis": "verbatim_token+chapter_route:ch03"}, {"md_atom_id": "md_ch03_a088", "md_file": "knowledge_base/chapters/ch03_submitting_data.md", "md_atom_type": "SENTENCE", "md_parent_section": "§3.2.1 [Dataset-level Metadata]", "md_verbatim": "Separate Supplemental Qualifier datasets of the form supp--.xpt are required.", "score": 0.105, "match_basis": "verbatim_token+chapter_route:ch03"}, {"md_atom_id": "md_ch03_a085", "md_file": "knowledge_base/chapters/ch03_submitting_data.md", "md_atom_type": "TABLE_ROW", "md_parent_section": "§3.2.1 [Dataset-level Metadata]", "md_verbatim": "| RELSUB | Related Subjects | Relationship | One record per relationship per related subject per subject | Tabulation | STUDYID, USUBJID, RSUBJID, SREL | relsub.xpt |", "score": 0.1046, "match_basis": "verbatim_token+chapter_route:ch03"}, {"md_atom_id": "md_ch03_a076", "md_file": "knowledge_base/chapters/ch03_submitting_data.md", "md_atom_type": "TABLE_ROW", "md_parent_section": "§3.2.1 [Dataset-level Metadata]", "md_verbatim": "| TA | Trial Arms | Trial Design | One record per planned Element per Arm | Tabulation | STUDYID, ARMCD, TAETORD | ta.xpt |", "score": 0.1033, "match_basis": "verbatim_token+chapter_route:ch03"}, {"md_atom_id": "md_ch03_a080", "md_file": "knowledge_base/chapters/ch03_submitting_data.md", "md_atom_type": "TABLE_ROW", "md_parent_section": "§3.2.1 [Dataset-level Metadata]", "md_verbatim": "| TM | Trial Disease Milestones | Trial Design | One record per Disease Milestone type | Tabulation | STUDYID, MIDSTYPE | tm.xpt |", "score": 0.1033, "match_basis": "verbatim_token+chapter_route:ch03"}, {"md_atom_id": "md_ch03_a037", "md_file": "knowledge_base/chapters/ch03_submitting_data.md", "md_atom_type": "TABLE_ROW", "md_parent_section": "§3.2.1 [Dataset-level Metadata]", "md_verbatim": "| AE | Adverse Events | Events | One record per adverse event per subject | Tabulation | STUDYID, USUBJID, AEDECOD, AESTDTC | ae.xpt |", "score": 0.103, "match_basis": "verbatim_token+chapter_route:ch03"}, {"md_atom_id": "md_ch03_a043", "md_file": "knowledge_base/chapters/ch03_submitting_data.md", "md_atom_type": "TABLE_ROW", "md_parent_section": "§3.2.1 [Dataset-level Metadata]", "md_verbatim": "| MH | Medical History | Events | One record per medical history event per subject | Tabulation | STUDYID, USUBJID, MHDECOD | mh.xpt |", "score": 0.103, "match_basis": "verbatim_token+chapter_route:ch03"}, {"md_atom_id": "md_ch03_a039", "md_file": "knowledge_base/chapters/ch03_submitting_data.md", "md_atom_type": "TABLE_ROW", "md_parent_section": "§3.2.1 [Dataset-level Metadata]", "md_verbatim": "| CE | Clinical Events | Events | One record per event per subject | Tabulation | STUDYID, USUBJID, CETERM, CESTDTC | ce.xpt |", "score": 0.1028, "match_basis": "verbatim_token+chapter_route:ch03"}, {"md_atom_id": "md_ch03_a079", "md_file": "knowledge_base/chapters/ch03_submitting_data.md", "md_atom_type": "TABLE_ROW", "md_parent_section": "§3.2.1 [Dataset-level Metadata]", "md_verbatim": "| TI | Trial Inclusion/Exclusion Criteria | Trial Design | One record per I/E criterion | Tabulation | STUDYID, IETESTCD | ti.xpt |", "score": 0.1028, "match_basis": "verbatim_token+chapter_route:ch03"}], "candidate_count": 10, "zero_candidate": false}
{"pdf_atom_id": "ig34_p0018_a010", "pdf_atom_type": "TABLE_ROW", "pdf_source": "SDTMIG_v3.4", "pdf_page": 18, "pdf_parent_section": "§3.2.1 Dataset-level Metadata", "pdf_verbatim": "AE | Adverse Events | Events | One record per adverse event per subject | Tabulation | STUDYID, USUBJID, AEDECOD, AESTDTC | ae.xpt", "figure_ref": null, "candidates": [{"md_atom_id": "md_ch03_a037", "md_file": "knowledge_base/chapters/ch03_submitting_data.md", "md_atom_type": "TABLE_ROW", "md_parent_section": "§3.2.1 [Dataset-level Metadata]", "md_verbatim": "| AE | Adverse Events | Events | One record per adverse event per subject | Tabulation | STUDYID, USUBJID, AEDECOD, AESTDTC | ae.xpt |", "score": 0.9, "match_basis": "verbatim_token+chapter_route:ch03"}, {"md_atom_id": "md_ch03_a039", "md_file": "knowledge_base/chapters/ch03_submitting_data.md", "md_atom_type": "TABLE_ROW", "md_parent_section": "§3.2.1 [Dataset-level Metadata]", "md_verbatim": "| CE | Clinical Events | Events | One record per event per subject | Tabulation | STUDYID, USUBJID, CETERM, CESTDTC | ce.xpt |", "score": 0.6789, "match_basis": "verbatim_token+chapter_route:ch03"}, {"md_atom_id": "md_ch03_a043", "md_file": "knowledge_base/chapters/ch03_submitting_data.md", "md_atom_type": "TABLE_ROW", "md_parent_section": "§3.2.1 [Dataset-level Metadata]", "md_verbatim": "| MH | Medical History | Events | One record per medical history event per subject | Tabulation | STUDYID, USUBJID, MHDECOD | mh.xpt |", "score": 0.6517, "match_basis": "verbatim_token+chapter_route:ch03"}, {"md_atom_id": "md_ch03_a041", "md_file": "knowledge_base/chapters/ch03_submitting_data.md", "md_atom_type": "TABLE_ROW", "md_parent_section": "§3.2.1 [Dataset-level Metadata]", "md_verbatim": "| DV | Protocol Deviations | Events | One record per protocol deviation per subject | Tabulation | STUDYID, USUBJID, DVTERM, DVSTDTC | dv.xpt |", "score": 0.6333, "match_basis": "verbatim_token+chapter_route:ch03"}, {"md_atom_id": "md_ch03_a042", "md_file": "knowledge_base/chapters/ch03_submitting_data.md", "md_atom_type": "TABLE_ROW", "md_parent_section": "§3.2.1 [Dataset-level Metadata]", "md_verbatim": "| HO | Healthcare Encounters | Events | One record per healthcare encounter per subject | Tabulation | STUDYID, USUBJID, HOTERM, HOSTDTC | ho.xpt |", "score": 0.6273, "match_basis": "verbatim_token+chapter_route:ch03"}], "candidate_count": 5, "zero_candidate": false}
{"pdf_atom_id": "ig34_p0018_a011", "pdf_atom_type": "CODE_LITERAL", "pdf_source": "SDTMIG_v3.4", "pdf_page": 18, "pdf_parent_section": "§3.2.1 Dataset-level Metadata", "pdf_verbatim": "ae.xpt", "figure_ref": null, "candidates": [{"md_atom_id": "md_ch03_a082", "md_file": "knowledge_base/chapters/ch03_submitting_data.md", "md_atom_type": "TABLE_ROW", "md_parent_section": "§3.2.1 [Dataset-level Metadata]", "md_verbatim": "| TV | Trial Visits | Trial Design | One record per planned Visit per Arm | Tabulation | STUDYID, ARM, VISIT | tv.xpt |", "score": 0.1062, "match_basis": "verbatim_token+chapter_route:ch03"}, {"md_atom_id": "md_ch03_a078", "md_file": "knowledge_base/chapters/ch03_submitting_data.md", "md_atom_type": "TABLE_ROW", "md_parent_section": "§3.2.1 [Dataset-level Metadata]", "md_verbatim": "| TE | Trial Elements | Trial Design | One record per planned Element | Tabulation | STUDYID, ETCD | te.xpt |", "score": 0.105, "match_basis": "verbatim_token+chapter_route:ch03"}, {"md_atom_id": "md_ch03_a088", "md_file": "knowledge_base/chapters/ch03_submitting_data.md", "md_atom_type": "SENTENCE", "md_parent_section": "§3.2.1 [Dataset-level Metadata]", "md_verbatim": "Separate Supplemental Qualifier datasets of the form supp--.xpt are required.", "score": 0.105, "match_basis": "verbatim_token+chapter_route:ch03"}, {"md_atom_id": "md_ch03_a085", "md_file": "knowledge_base/chapters/ch03_submitting_data.md", "md_atom_type": "TABLE_ROW", "md_parent_section": "§3.2.1 [Dataset-level Metadata]", "md_verbatim": "| RELSUB | Related Subjects | Relationship | One record per relationship per related subject per subject | Tabulation | STUDYID, USUBJID, RSUBJID, SREL | relsub.xpt |", "score": 0.1046, "match_basis": "verbatim_token+chapter_route:ch03"}, {"md_atom_id": "md_ch03_a076", "md_file": "knowledge_base/chapters/ch03_submitting_data.md", "md_atom_type": "TABLE_ROW", "md_parent_section": "§3.2.1 [Dataset-level Metadata]", "md_verbatim": "| TA | Trial Arms | Trial Design | One record per planned Element per Arm | Tabulation | STUDYID, ARMCD, TAETORD | ta.xpt |", "score": 0.1033, "match_basis": "verbatim_token+chapter_route:ch03"}, {"md_atom_id": "md_ch03_a080", "md_file": "knowledge_base/chapters/ch03_submitting_data.md", "md_atom_type": "TABLE_ROW", "md_parent_section": "§3.2.1 [Dataset-level Metadata]", "md_verbatim": "| TM | Trial Disease Milestones | Trial Design | One record per Disease Milestone type | Tabulation | STUDYID, MIDSTYPE | tm.xpt |", "score": 0.1033, "match_basis": "verbatim_token+chapter_route:ch03"}, {"md_atom_id": "md_ch03_a037", "md_file": "knowledge_base/chapters/ch03_submitting_data.md", "md_atom_type": "TABLE_ROW", "md_parent_section": "§3.2.1 [Dataset-level Metadata]", "md_verbatim": "| AE | Adverse Events | Events | One record per adverse event per subject | Tabulation | STUDYID, USUBJID, AEDECOD, AESTDTC | ae.xpt |", "score": 0.103, "match_basis": "verbatim_token+chapter_route:ch03"}, {"md_atom_id": "md_ch03_a043", "md_file": "knowledge_base/chapters/ch03_submitting_data.md", "md_atom_type": "TABLE_ROW", "md_parent_section": "§3.2.1 [Dataset-level Metadata]", "md_verbatim": "| MH | Medical History | Events | One record per medical history event per subject | Tabulation | STUDYID, USUBJID, MHDECOD | mh.xpt |", "score": 0.103, "match_basis": "verbatim_token+chapter_route:ch03"}, {"md_atom_id": "md_ch03_a039", "md_file": "knowledge_base/chapters/ch03_submitting_data.md", "md_atom_type": "TABLE_ROW", "md_parent_section": "§3.2.1 [Dataset-level Metadata]", "md_verbatim": "| CE | Clinical Events | Events | One record per event per subject | Tabulation | STUDYID, USUBJID, CETERM, CESTDTC | ce.xpt |", "score": 0.1028, "match_basis": "verbatim_token+chapter_route:ch03"}, {"md_atom_id": "md_ch03_a079", "md_file": "knowledge_base/chapters/ch03_submitting_data.md", "md_atom_type": "TABLE_ROW", "md_parent_section": "§3.2.1 [Dataset-level Metadata]", "md_verbatim": "| TI | Trial Inclusion/Exclusion Criteria | Trial Design | One record per I/E criterion | Tabulation | STUDYID, IETESTCD | ti.xpt |", "score": 0.1028, "match_basis": "verbatim_token+chapter_route:ch03"}], "candidate_count": 10, "zero_candidate": false}
{"pdf_atom_id": "ig34_p0018_a012", "pdf_atom_type": "TABLE_ROW", "pdf_source": "SDTMIG_v3.4", "pdf_page": 18, "pdf_parent_section": "§3.2.1 Dataset-level Metadata", "pdf_verbatim": "BE | Biospecimen Events | Events | One record per instance per biospecimen event per biospecimen identifier per subject | Tabulation | STUDYID, USUBJID, BEREFID, BETERM, BESDTC | be.xpt", "figure_ref": null, "candidates": [{"md_atom_id": "md_ch03_a038", "md_file": "knowledge_base/chapters/ch03_submitting_data.md", "md_atom_type": "TABLE_ROW", "md_parent_section": "§3.2.1 [Dataset-level Metadata]", "md_verbatim": "| BE | Biospecimen Events | Events | One record per instance per biospecimen event per biospecimen identifier per subject | Tabulation | STUDYID, USUBJID, BEREFID, BETERM, BESTDTC | be.xpt |", "score": 0.8571, "match_basis": "verbatim_token+chapter_route:ch03"}, {"md_atom_id": "md_ch03_a084", "md_file": "knowledge_base/chapters/ch03_submitting_data.md", "md_atom_type": "TABLE_ROW", "md_parent_section": "§3.2.1 [Dataset-level Metadata]", "md_verbatim": "| RELSPEC | Related Specimens | Relationship | One record per specimen identifier per subject | Tabulation | STUDYID, USUBJID, REFID | relspec.xpt |", "score": 0.6462, "match_basis": "verbatim_token+chapter_route:ch03"}, {"md_atom_id": "md_ch03_a044", "md_file": "knowledge_base/chapters/ch03_submitting_data.md", "md_atom_type": "TABLE_ROW", "md_parent_section": "§3.2.1 [Dataset-level Metadata]", "md_verbatim": "| BS | Biospecimen Findings | Findings | One record per measurement per biospecimen identifier per subject | Tabulation | STUDYID, USUBJID, BSREFID, BSTESTCD | bs.xpt |", "score": 0.6273, "match_basis": "verbatim_token+chapter_route:ch03"}, {"md_atom_id": "md_ch03_a039", "md_file": "knowledge_base/chapters/ch03_submitting_data.md", "md_atom_type": "TABLE_ROW", "md_parent_section": "§3.2.1 [Dataset-level Metadata]", "md_verbatim": "| CE | Clinical Events | Events | One record per event per subject | Tabulation | STUDYID, USUBJID, CETERM, CESTDTC | ce.xpt |", "score": 0.5769, "match_basis": "verbatim_token+chapter_route:ch03"}, {"md_atom_id": "md_ch03_a025", "md_file": "knowledge_base/chapters/ch03_submitting_data.md", "md_atom_type": "TABLE_ROW", "md_parent_section": "§3.2.1 [Dataset-level Metadata]", "md_verbatim": "| CO | Comments | Special Purpose | One record per comment per subject | Tabulation | STUDYID, USUBJID, IDVAR, COREF, COOTC | co.xpt |", "score": 0.55, "match_basis": "verbatim_token+chapter_route:ch03"}], "candidate_count": 5, "zero_candidate": false}
{"pdf_atom_id": "ig34_p0018_a013", "pdf_atom_type": "CODE_LITERAL", "pdf_source": "SDTMIG_v3.4", "pdf_page": 18, "pdf_parent_section": "§3.2.1 Dataset-level Metadata", "pdf_verbatim": "be.xpt", "figure_ref": null, "candidates": [{"md_atom_id": "md_ch03_a082", "md_file": "knowledge_base/chapters/ch03_submitting_data.md", "md_atom_type": "TABLE_ROW", "md_parent_section": "§3.2.1 [Dataset-level Metadata]", "md_verbatim": "| TV | Trial Visits | Trial Design | One record per planned Visit per Arm | Tabulation | STUDYID, ARM, VISIT | tv.xpt |", "score": 0.1062, "match_basis": "verbatim_token+chapter_route:ch03"}, {"md_atom_id": "md_ch03_a078", "md_file": "knowledge_base/chapters/ch03_submitting_data.md", "md_atom_type": "TABLE_ROW", "md_parent_section": "§3.2.1 [Dataset-level Metadata]", "md_verbatim": "| TE | Trial Elements | Trial Design | One record per planned Element | Tabulation | STUDYID, ETCD | te.xpt |", "score": 0.105, "match_basis": "verbatim_token+chapter_route:ch03"}, {"md_atom_id": "md_ch03_a088", "md_file": "knowledge_base/chapters/ch03_submitting_data.md", "md_atom_type": "SENTENCE", "md_parent_section": "§3.2.1 [Dataset-level Metadata]", "md_verbatim": "Separate Supplemental Qualifier datasets of the form supp--.xpt are required.", "score": 0.105, "match_basis": "verbatim_token+chapter_route:ch03"}, {"md_atom_id": "md_ch03_a085", "md_file": "knowledge_base/chapters/ch03_submitting_data.md", "md_atom_type": "TABLE_ROW", "md_parent_section": "§3.2.1 [Dataset-level Metadata]", "md_verbatim": "| RELSUB | Related Subjects | Relationship | One record per relationship per related subject per subject | Tabulation | STUDYID, USUBJID, RSUBJID, SREL | relsub.xpt |", "score": 0.1046, "match_basis": "verbatim_token+chapter_route:ch03"}, {"md_atom_id": "md_ch03_a076", "md_file": "knowledge_base/chapters/ch03_submitting_data.md", "md_atom_type": "TABLE_ROW", "md_parent_section": "§3.2.1 [Dataset-level Metadata]", "md_verbatim": "| TA | Trial Arms | Trial Design | One record per planned Element per Arm | Tabulation | STUDYID, ARMCD, TAETORD | ta.xpt |", "score": 0.1033, "match_basis": "verbatim_token+chapter_route:ch03"}, {"md_atom_id": "md_ch03_a080", "md_file": "knowledge_base/chapters/ch03_submitting_data.md", "md_atom_type": "TABLE_ROW", "md_parent_section": "§3.2.1 [Dataset-level Metadata]", "md_verbatim": "| TM | Trial Disease Milestones | Trial Design | One record per Disease Milestone type | Tabulation | STUDYID, MIDSTYPE | tm.xpt |", "score": 0.1033, "match_basis": "verbatim_token+chapter_route:ch03"}, {"md_atom_id": "md_ch03_a037", "md_file": "knowledge_base/chapters/ch03_submitting_data.md", "md_atom_type": "TABLE_ROW", "md_parent_section": "§3.2.1 [Dataset-level Metadata]", "md_verbatim": "| AE | Adverse Events | Events | One record per adverse event per subject | Tabulation | STUDYID, USUBJID, AEDECOD, AESTDTC | ae.xpt |", "score": 0.103, "match_basis": "verbatim_token+chapter_route:ch03"}, {"md_atom_id": "md_ch03_a043", "md_file": "knowledge_base/chapters/ch03_submitting_data.md", "md_atom_type": "TABLE_ROW", "md_parent_section": "§3.2.1 [Dataset-level Metadata]", "md_verbatim": "| MH | Medical History | Events | One record per medical history event per subject | Tabulation | STUDYID, USUBJID, MHDECOD | mh.xpt |", "score": 0.103, "match_basis": "verbatim_token+chapter_route:ch03"}, {"md_atom_id": "md_ch03_a039", "md_file": "knowledge_base/chapters/ch03_submitting_data.md", "md_atom_type": "TABLE_ROW", "md_parent_section": "§3.2.1 [Dataset-level Metadata]", "md_verbatim": "| CE | Clinical Events | Events | One record per event per subject | Tabulation | STUDYID, USUBJID, CETERM, CESTDTC | ce.xpt |", "score": 0.1028, "match_basis": "verbatim_token+chapter_route:ch03"}, {"md_atom_id": "md_ch03_a079", "md_file": "knowledge_base/chapters/ch03_submitting_data.md", "md_atom_type": "TABLE_ROW", "md_parent_section": "§3.2.1 [Dataset-level Metadata]", "md_verbatim": "| TI | Trial Inclusion/Exclusion Criteria | Trial Design | One record per I/E criterion | Tabulation | STUDYID, IETESTCD | ti.xpt |", "score": 0.1028, "match_basis": "verbatim_token+chapter_route:ch03"}], "candidate_count": 10, "zero_candidate": false}
{"pdf_atom_id": "ig34_p0018_a014", "pdf_atom_type": "TABLE_ROW", "pdf_source": "SDTMIG_v3.4", "pdf_page": 18, "pdf_parent_section": "§3.2.1 Dataset-level Metadata", "pdf_verbatim": "CE | Clinical Events | Events | One record per event per subject | Tabulation | STUDYID, USUBJID, CETERM, CESTDTC | ce.xpt", "figure_ref": null, "candidates": [{"md_atom_id": "md_ch03_a039", "md_file": "knowledge_base/chapters/ch03_submitting_data.md", "md_atom_type": "TABLE_ROW", "md_parent_section": "§3.2.1 [Dataset-level Metadata]", "md_verbatim": "| CE | Clinical Events | Events | One record per event per subject | Tabulation | STUDYID, USUBJID, CETERM, CESTDTC | ce.xpt |", "score": 0.9, "match_basis": "verbatim_token+chapter_route:ch03"}, {"md_atom_id": "md_ch03_a037", "md_file": "knowledge_base/chapters/ch03_submitting_data.md", "md_atom_type": "TABLE_ROW", "md_parent_section": "§3.2.1 [Dataset-level Metadata]", "md_verbatim": "| AE | Adverse Events | Events | One record per adverse event per subject | Tabulation | STUDYID, USUBJID, AEDECOD, AESTDTC | ae.xpt |", "score": 0.6789, "match_basis": "verbatim_token+chapter_route:ch03"}, {"md_atom_id": "md_ch03_a041", "md_file": "knowledge_base/chapters/ch03_submitting_data.md", "md_atom_type": "TABLE_ROW", "md_parent_section": "§3.2.1 [Dataset-level Metadata]", "md_verbatim": "| DV | Protocol Deviations | Events | One record per protocol deviation per subject | Tabulation | STUDYID, USUBJID, DVTERM, DVSTDTC | dv.xpt |", "score": 0.6581, "match_basis": "verbatim_token+chapter_route:ch03"}, {"md_atom_id": "md_ch03_a043", "md_file": "knowledge_base/chapters/ch03_submitting_data.md", "md_atom_type": "TABLE_ROW", "md_parent_section": "§3.2.1 [Dataset-level Metadata]", "md_verbatim": "| MH | Medical History | Events | One record per medical history event per subject | Tabulation | STUDYID, USUBJID, MHDECOD | mh.xpt |", "score": 0.6458, "match_basis": "verbatim_token+chapter_route:ch03"}, {"md_atom_id": "md_ch03_a042", "md_file": "knowledge_base/chapters/ch03_submitting_data.md", "md_atom_type": "TABLE_ROW", "md_parent_section": "§3.2.1 [Dataset-level Metadata]", "md_verbatim": "| HO | Healthcare Encounters | Events | One record per healthcare encounter per subject | Tabulation | STUDYID, USUBJID, HOTERM, HOSTDTC | ho.xpt |", "score": 0.6364, "match_basis": "verbatim_token+chapter_route:ch03"}], "candidate_count": 5, "zero_candidate": false}
{"pdf_atom_id": "ig34_p0018_a015", "pdf_atom_type": "CODE_LITERAL", "pdf_source": "SDTMIG_v3.4", "pdf_page": 18, "pdf_parent_section": "§3.2.1 Dataset-level Metadata", "pdf_verbatim": "ce.xpt", "figure_ref": null, "candidates": [{"md_atom_id": "md_ch03_a082", "md_file": "knowledge_base/chapters/ch03_submitting_data.md", "md_atom_type": "TABLE_ROW", "md_parent_section": "§3.2.1 [Dataset-level Metadata]", "md_verbatim": "| TV | Trial Visits | Trial Design | One record per planned Visit per Arm | Tabulation | STUDYID, ARM, VISIT | tv.xpt |", "score": 0.1062, "match_basis": "verbatim_token+chapter_route:ch03"}, {"md_atom_id": "md_ch03_a078", "md_file": "knowledge_base/chapters/ch03_submitting_data.md", "md_atom_type": "TABLE_ROW", "md_parent_section": "§3.2.1 [Dataset-level Metadata]", "md_verbatim": "| TE | Trial Elements | Trial Design | One record per planned Element | Tabulation | STUDYID, ETCD | te.xpt |", "score": 0.105, "match_basis": "verbatim_token+chapter_route:ch03"}, {"md_atom_id": "md_ch03_a088", "md_file": "knowledge_base/chapters/ch03_submitting_data.md", "md_atom_type": "SENTENCE", "md_parent_section": "§3.2.1 [Dataset-level Metadata]", "md_verbatim": "Separate Supplemental Qualifier datasets of the form supp--.xpt are required.", "score": 0.105, "match_basis": "verbatim_token+chapter_route:ch03"}, {"md_atom_id": "md_ch03_a085", "md_file": "knowledge_base/chapters/ch03_submitting_data.md", "md_atom_type": "TABLE_ROW", "md_parent_section": "§3.2.1 [Dataset-level Metadata]", "md_verbatim": "| RELSUB | Related Subjects | Relationship | One record per relationship per related subject per subject | Tabulation | STUDYID, USUBJID, RSUBJID, SREL | relsub.xpt |", "score": 0.1046, "match_basis": "verbatim_token+chapter_route:ch03"}, {"md_atom_id": "md_ch03_a076", "md_file": "knowledge_base/chapters/ch03_submitting_data.md", "md_atom_type": "TABLE_ROW", "md_parent_section": "§3.2.1 [Dataset-level Metadata]", "md_verbatim": "| TA | Trial Arms | Trial Design | One record per planned Element per Arm | Tabulation | STUDYID, ARMCD, TAETORD | ta.xpt |", "score": 0.1033, "match_basis": "verbatim_token+chapter_route:ch03"}, {"md_atom_id": "md_ch03_a080", "md_file": "knowledge_base/chapters/ch03_submitting_data.md", "md_atom_type": "TABLE_ROW", "md_parent_section": "§3.2.1 [Dataset-level Metadata]", "md_verbatim": "| TM | Trial Disease Milestones | Trial Design | One record per Disease Milestone type | Tabulation | STUDYID, MIDSTYPE | tm.xpt |", "score": 0.1033, "match_basis": "verbatim_token+chapter_route:ch03"}, {"md_atom_id": "md_ch03_a037", "md_file": "knowledge_base/chapters/ch03_submitting_data.md", "md_atom_type": "TABLE_ROW", "md_parent_section": "§3.2.1 [Dataset-level Metadata]", "md_verbatim": "| AE | Adverse Events | Events | One record per adverse event per subject | Tabulation | STUDYID, USUBJID, AEDECOD, AESTDTC | ae.xpt |", "score": 0.103, "match_basis": "verbatim_token+chapter_route:ch03"}, {"md_atom_id": "md_ch03_a043", "md_file": "knowledge_base/chapters/ch03_submitting_data.md", "md_atom_type": "TABLE_ROW", "md_parent_section": "§3.2.1 [Dataset-level Metadata]", "md_verbatim": "| MH | Medical History | Events | One record per medical history event per subject | Tabulation | STUDYID, USUBJID, MHDECOD | mh.xpt |", "score": 0.103, "match_basis": "verbatim_token+chapter_route:ch03"}, {"md_atom_id": "md_ch03_a039", "md_file": "knowledge_base/chapters/ch03_submitting_data.md", "md_atom_type": "TABLE_ROW", "md_parent_section": "§3.2.1 [Dataset-level Metadata]", "md_verbatim": "| CE | Clinical Events | Events | One record per event per subject | Tabulation | STUDYID, USUBJID, CETERM, CESTDTC | ce.xpt |", "score": 0.1028, "match_basis": "verbatim_token+chapter_route:ch03"}, {"md_atom_id": "md_ch03_a079", "md_file": "knowledge_base/chapters/ch03_submitting_data.md", "md_atom_type": "TABLE_ROW", "md_parent_section": "§3.2.1 [Dataset-level Metadata]", "md_verbatim": "| TI | Trial Inclusion/Exclusion Criteria | Trial Design | One record per I/E criterion | Tabulation | STUDYID, IETESTCD | ti.xpt |", "score": 0.1028, "match_basis": "verbatim_token+chapter_route:ch03"}], "candidate_count": 10, "zero_candidate": false}
{"pdf_atom_id": "ig34_p0018_a016", "pdf_atom_type": "TABLE_ROW", "pdf_source": "SDTMIG_v3.4", "pdf_page": 18, "pdf_parent_section": "§3.2.1 Dataset-level Metadata", "pdf_verbatim": "DS | Disposition | Events | One record per disposition status or protocol milestone per subject | Tabulation | STUDYID, USUBJID, DSDECOD, DSSTDTC | ds.xpt", "figure_ref": null, "candidates": [{"md_atom_id": "md_ch03_a040", "md_file": "knowledge_base/chapters/ch03_submitting_data.md", "md_atom_type": "TABLE_ROW", "md_parent_section": "§3.2.1 [Dataset-level Metadata]", "md_verbatim": "| DS | Disposition | Events | One record per disposition status or protocol milestone per subject | Tabulation | STUDYID, USUBJID, DSDECOD, DSSTDTC | ds.xpt |", "score": 0.9, "match_basis": "verbatim_token+chapter_route:ch03"}, {"md_atom_id": "md_ch03_a041", "md_file": "knowledge_base/chapters/ch03_submitting_data.md", "md_atom_type": "TABLE_ROW", "md_parent_section": "§3.2.1 [Dataset-level Metadata]", "md_verbatim": "| DV | Protocol Deviations | Events | One record per protocol deviation per subject | Tabulation | STUDYID, USUBJID, DVTERM, DVSTDTC | dv.xpt |", "score": 0.628, "match_basis": "verbatim_token+chapter_route:ch03"}, {"md_atom_id": "md_ch03_a037", "md_file": "knowledge_base/chapters/ch03_submitting_data.md", "md_atom_type": "TABLE_ROW", "md_parent_section": "§3.2.1 [Dataset-level Metadata]", "md_verbatim": "| AE | Adverse Events | Events | One record per adverse event per subject | Tabulation | STUDYID, USUBJID, AEDECOD, AESTDTC | ae.xpt |", "score": 0.6167, "match_basis": "verbatim_token+chapter_route:ch03"}, {"md_atom_id": "md_ch03_a039", "md_file": "knowledge_base/chapters/ch03_submitting_data.md", "md_atom_type": "TABLE_ROW", "md_parent_section": "§3.2.1 [Dataset-level Metadata]", "md_verbatim": "| CE | Clinical Events | Events | One record per event per subject | Tabulation | STUDYID, USUBJID, CETERM, CESTDTC | ce.xpt |", "score": 0.588, "match_basis": "verbatim_token+chapter_route:ch03"}, {"md_atom_id": "md_ch03_a043", "md_file": "knowledge_base/chapters/ch03_submitting_data.md", "md_atom_type": "TABLE_ROW", "md_parent_section": "§3.2.1 [Dataset-level Metadata]", "md_verbatim": "| MH | Medical History | Events | One record per medical history event per subject | Tabulation | STUDYID, USUBJID, MHDECOD | mh.xpt |", "score": 0.58, "match_basis": "verbatim_token+chapter_route:ch03"}], "candidate_count": 5, "zero_candidate": false}
{"pdf_atom_id": "ig34_p0018_a017", "pdf_atom_type": "CODE_LITERAL", "pdf_source": "SDTMIG_v3.4", "pdf_page": 18, "pdf_parent_section": "§3.2.1 Dataset-level Metadata", "pdf_verbatim": "ds.xpt", "figure_ref": null, "candidates": [{"md_atom_id": "md_ch03_a082", "md_file": "knowledge_base/chapters/ch03_submitting_data.md", "md_atom_type": "TABLE_ROW", "md_parent_section": "§3.2.1 [Dataset-level Metadata]", "md_verbatim": "| TV | Trial Visits | Trial Design | One record per planned Visit per Arm | Tabulation | STUDYID, ARM, VISIT | tv.xpt |", "score": 0.1062, "match_basis": "verbatim_token+chapter_route:ch03"}, {"md_atom_id": "md_ch03_a078", "md_file": "knowledge_base/chapters/ch03_submitting_data.md", "md_atom_type": "TABLE_ROW", "md_parent_section": "§3.2.1 [Dataset-level Metadata]", "md_verbatim": "| TE | Trial Elements | Trial Design | One record per planned Element | Tabulation | STUDYID, ETCD | te.xpt |", "score": 0.105, "match_basis": "verbatim_token+chapter_route:ch03"}, {"md_atom_id": "md_ch03_a088", "md_file": "knowledge_base/chapters/ch03_submitting_data.md", "md_atom_type": "SENTENCE", "md_parent_section": "§3.2.1 [Dataset-level Metadata]", "md_verbatim": "Separate Supplemental Qualifier datasets of the form supp--.xpt are required.", "score": 0.105, "match_basis": "verbatim_token+chapter_route:ch03"}, {"md_atom_id": "md_ch03_a085", "md_file": "knowledge_base/chapters/ch03_submitting_data.md", "md_atom_type": "TABLE_ROW", "md_parent_section": "§3.2.1 [Dataset-level Metadata]", "md_verbatim": "| RELSUB | Related Subjects | Relationship | One record per relationship per related subject per subject | Tabulation | STUDYID, USUBJID, RSUBJID, SREL | relsub.xpt |", "score": 0.1046, "match_basis": "verbatim_token+chapter_route:ch03"}, {"md_atom_id": "md_ch03_a076", "md_file": "knowledge_base/chapters/ch03_submitting_data.md", "md_atom_type": "TABLE_ROW", "md_parent_section": "§3.2.1 [Dataset-level Metadata]", "md_verbatim": "| TA | Trial Arms | Trial Design | One record per planned Element per Arm | Tabulation | STUDYID, ARMCD, TAETORD | ta.xpt |", "score": 0.1033, "match_basis": "verbatim_token+chapter_route:ch03"}, {"md_atom_id": "md_ch03_a080", "md_file": "knowledge_base/chapters/ch03_submitting_data.md", "md_atom_type": "TABLE_ROW", "md_parent_section": "§3.2.1 [Dataset-level Metadata]", "md_verbatim": "| TM | Trial Disease Milestones | Trial Design | One record per Disease Milestone type | Tabulation | STUDYID, MIDSTYPE | tm.xpt |", "score": 0.1033, "match_basis": "verbatim_token+chapter_route:ch03"}, {"md_atom_id": "md_ch03_a037", "md_file": "knowledge_base/chapters/ch03_submitting_data.md", "md_atom_type": "TABLE_ROW", "md_parent_section": "§3.2.1 [Dataset-level Metadata]", "md_verbatim": "| AE | Adverse Events | Events | One record per adverse event per subject | Tabulation | STUDYID, USUBJID, AEDECOD, AESTDTC | ae.xpt |", "score": 0.103, "match_basis": "verbatim_token+chapter_route:ch03"}, {"md_atom_id": "md_ch03_a043", "md_file": "knowledge_base/chapters/ch03_submitting_data.md", "md_atom_type": "TABLE_ROW", "md_parent_section": "§3.2.1 [Dataset-level Metadata]", "md_verbatim": "| MH | Medical History | Events | One record per medical history event per subject | Tabulation | STUDYID, USUBJID, MHDECOD | mh.xpt |", "score": 0.103, "match_basis": "verbatim_token+chapter_route:ch03"}, {"md_atom_id": "md_ch03_a039", "md_file": "knowledge_base/chapters/ch03_submitting_data.md", "md_atom_type": "TABLE_ROW", "md_parent_section": "§3.2.1 [Dataset-level Metadata]", "md_verbatim": "| CE | Clinical Events | Events | One record per event per subject | Tabulation | STUDYID, USUBJID, CETERM, CESTDTC | ce.xpt |", "score": 0.1028, "match_basis": "verbatim_token+chapter_route:ch03"}, {"md_atom_id": "md_ch03_a079", "md_file": "knowledge_base/chapters/ch03_submitting_data.md", "md_atom_type": "TABLE_ROW", "md_parent_section": "§3.2.1 [Dataset-level Metadata]", "md_verbatim": "| TI | Trial Inclusion/Exclusion Criteria | Trial Design | One record per I/E criterion | Tabulation | STUDYID, IETESTCD | ti.xpt |", "score": 0.1028, "match_basis": "verbatim_token+chapter_route:ch03"}], "candidate_count": 10, "zero_candidate": false}
{"pdf_atom_id": "ig34_p0018_a018", "pdf_atom_type": "TABLE_ROW", "pdf_source": "SDTMIG_v3.4", "pdf_page": 18, "pdf_parent_section": "§3.2.1 Dataset-level Metadata", "pdf_verbatim": "DV | Protocol Deviations | Events | One record per protocol deviation per subject | Tabulation | STUDYID, USUBJID, DVTERM, DVSTDTC | dv.xpt", "figure_ref": null, "candidates": [{"md_atom_id": "md_ch03_a041", "md_file": "knowledge_base/chapters/ch03_submitting_data.md", "md_atom_type": "TABLE_ROW", "md_parent_section": "§3.2.1 [Dataset-level Metadata]", "md_verbatim": "| DV | Protocol Deviations | Events | One record per protocol deviation per subject | Tabulation | STUDYID, USUBJID, DVTERM, DVSTDTC | dv.xpt |", "score": 0.9, "match_basis": "verbatim_token+chapter_route:ch03"}, {"md_atom_id": "md_ch03_a039", "md_file": "knowledge_base/chapters/ch03_submitting_data.md", "md_atom_type": "TABLE_ROW", "md_parent_section": "§3.2.1 [Dataset-level Metadata]", "md_verbatim": "| CE | Clinical Events | Events | One record per event per subject | Tabulation | STUDYID, USUBJID, CETERM, CESTDTC | ce.xpt |", "score": 0.6581, "match_basis": "verbatim_token+chapter_route:ch03"}, {"md_atom_id": "md_ch03_a037", "md_file": "knowledge_base/chapters/ch03_submitting_data.md", "md_atom_type": "TABLE_ROW", "md_parent_section": "§3.2.1 [Dataset-level Metadata]", "md_verbatim": "| AE | Adverse Events | Events | One record per adverse event per subject | Tabulation | STUDYID, USUBJID, AEDECOD, AESTDTC | ae.xpt |", "score": 0.6333, "match_basis": "verbatim_token+chapter_route:ch03"}, {"md_atom_id": "md_ch03_a040", "md_file": "knowledge_base/chapters/ch03_submitting_data.md", "md_atom_type": "TABLE_ROW", "md_parent_section": "§3.2.1 [Dataset-level Metadata]", "md_verbatim": "| DS | Disposition | Events | One record per disposition status or protocol milestone per subject | Tabulation | STUDYID, USUBJID, DSDECOD, DSSTDTC | ds.xpt |", "score": 0.628, "match_basis": "verbatim_token+chapter_route:ch03"}, {"md_atom_id": "md_ch03_a042", "md_file": "knowledge_base/chapters/ch03_submitting_data.md", "md_atom_type": "TABLE_ROW", "md_parent_section": "§3.2.1 [Dataset-level Metadata]", "md_verbatim": "| HO | Healthcare Encounters | Events | One record per healthcare encounter per subject | Tabulation | STUDYID, USUBJID, HOTERM, HOSTDTC | ho.xpt |", "score": 0.6127, "match_basis": "verbatim_token+chapter_route:ch03"}], "candidate_count": 5, "zero_candidate": false}
{"pdf_atom_id": "ig34_p0018_a019", "pdf_atom_type": "CODE_LITERAL", "pdf_source": "SDTMIG_v3.4", "pdf_page": 18, "pdf_parent_section": "§3.2.1 Dataset-level Metadata", "pdf_verbatim": "dv.xpt", "figure_ref": null, "candidates": [{"md_atom_id": "md_ch03_a082", "md_file": "knowledge_base/chapters/ch03_submitting_data.md", "md_atom_type": "TABLE_ROW", "md_parent_section": "§3.2.1 [Dataset-level Metadata]", "md_verbatim": "| TV | Trial Visits | Trial Design | One record per planned Visit per Arm | Tabulation | STUDYID, ARM, VISIT | tv.xpt |", "score": 0.1062, "match_basis": "verbatim_token+chapter_route:ch03"}, {"md_atom_id": "md_ch03_a078", "md_file": "knowledge_base/chapters/ch03_submitting_data.md", "md_atom_type": "TABLE_ROW", "md_parent_section": "§3.2.1 [Dataset-level Metadata]", "md_verbatim": "| TE | Trial Elements | Trial Design | One record per planned Element | Tabulation | STUDYID, ETCD | te.xpt |", "score": 0.105, "match_basis": "verbatim_token+chapter_route:ch03"}, {"md_atom_id": "md_ch03_a088", "md_file": "knowledge_base/chapters/ch03_submitting_data.md", "md_atom_type": "SENTENCE", "md_parent_section": "§3.2.1 [Dataset-level Metadata]", "md_verbatim": "Separate Supplemental Qualifier datasets of the form supp--.xpt are required.", "score": 0.105, "match_basis": "verbatim_token+chapter_route:ch03"}, {"md_atom_id": "md_ch03_a085", "md_file": "knowledge_base/chapters/ch03_submitting_data.md", "md_atom_type": "TABLE_ROW", "md_parent_section": "§3.2.1 [Dataset-level Metadata]", "md_verbatim": "| RELSUB | Related Subjects | Relationship | One record per relationship per related subject per subject | Tabulation | STUDYID, USUBJID, RSUBJID, SREL | relsub.xpt |", "score": 0.1046, "match_basis": "verbatim_token+chapter_route:ch03"}, {"md_atom_id": "md_ch03_a076", "md_file": "knowledge_base/chapters/ch03_submitting_data.md", "md_atom_type": "TABLE_ROW", "md_parent_section": "§3.2.1 [Dataset-level Metadata]", "md_verbatim": "| TA | Trial Arms | Trial Design | One record per planned Element per Arm | Tabulation | STUDYID, ARMCD, TAETORD | ta.xpt |", "score": 0.1033, "match_basis": "verbatim_token+chapter_route:ch03"}, {"md_atom_id": "md_ch03_a080", "md_file": "knowledge_base/chapters/ch03_submitting_data.md", "md_atom_type": "TABLE_ROW", "md_parent_section": "§3.2.1 [Dataset-level Metadata]", "md_verbatim": "| TM | Trial Disease Milestones | Trial Design | One record per Disease Milestone type | Tabulation | STUDYID, MIDSTYPE | tm.xpt |", "score": 0.1033, "match_basis": "verbatim_token+chapter_route:ch03"}, {"md_atom_id": "md_ch03_a037", "md_file": "knowledge_base/chapters/ch03_submitting_data.md", "md_atom_type": "TABLE_ROW", "md_parent_section": "§3.2.1 [Dataset-level Metadata]", "md_verbatim": "| AE | Adverse Events | Events | One record per adverse event per subject | Tabulation | STUDYID, USUBJID, AEDECOD, AESTDTC | ae.xpt |", "score": 0.103, "match_basis": "verbatim_token+chapter_route:ch03"}, {"md_atom_id": "md_ch03_a043", "md_file": "knowledge_base/chapters/ch03_submitting_data.md", "md_atom_type": "TABLE_ROW", "md_parent_section": "§3.2.1 [Dataset-level Metadata]", "md_verbatim": "| MH | Medical History | Events | One record per medical history event per subject | Tabulation | STUDYID, USUBJID, MHDECOD | mh.xpt |", "score": 0.103, "match_basis": "verbatim_token+chapter_route:ch03"}, {"md_atom_id": "md_ch03_a039", "md_file": "knowledge_base/chapters/ch03_submitting_data.md", "md_atom_type": "TABLE_ROW", "md_parent_section": "§3.2.1 [Dataset-level Metadata]", "md_verbatim": "| CE | Clinical Events | Events | One record per event per subject | Tabulation | STUDYID, USUBJID, CETERM, CESTDTC | ce.xpt |", "score": 0.1028, "match_basis": "verbatim_token+chapter_route:ch03"}, {"md_atom_id": "md_ch03_a079", "md_file": "knowledge_base/chapters/ch03_submitting_data.md", "md_atom_type": "TABLE_ROW", "md_parent_section": "§3.2.1 [Dataset-level Metadata]", "md_verbatim": "| TI | Trial Inclusion/Exclusion Criteria | Trial Design | One record per I/E criterion | Tabulation | STUDYID, IETESTCD | ti.xpt |", "score": 0.1028, "match_basis": "verbatim_token+chapter_route:ch03"}], "candidate_count": 10, "zero_candidate": false}
{"pdf_atom_id": "ig34_p0018_a020", "pdf_atom_type": "TABLE_ROW", "pdf_source": "SDTMIG_v3.4", "pdf_page": 18, "pdf_parent_section": "§3.2.1 Dataset-level Metadata", "pdf_verbatim": "HO | Healthcare Encounters | Events | One record per healthcare encounter per subject | Tabulation | STUDYID, USUBJID, HOTERM, HOSTDTC | ho.xpt", "figure_ref": null, "candidates": [{"md_atom_id": "md_ch03_a042", "md_file": "knowledge_base/chapters/ch03_submitting_data.md", "md_atom_type": "TABLE_ROW", "md_parent_section": "§3.2.1 [Dataset-level Metadata]", "md_verbatim": "| HO | Healthcare Encounters | Events | One record per healthcare encounter per subject | Tabulation | STUDYID, USUBJID, HOTERM, HOSTDTC | ho.xpt |", "score": 0.9, "match_basis": "verbatim_token+chapter_route:ch03"}, {"md_atom_id": "md_ch03_a039", "md_file": "knowledge_base/chapters/ch03_submitting_data.md", "md_atom_type": "TABLE_ROW", "md_parent_section": "§3.2.1 [Dataset-level Metadata]", "md_verbatim": "| CE | Clinical Events | Events | One record per event per subject | Tabulation | STUDYID, USUBJID, CETERM, CESTDTC | ce.xpt |", "score": 0.6364, "match_basis": "verbatim_token+chapter_route:ch03"}, {"md_atom_id": "md_ch03_a037", "md_file": "knowledge_base/chapters/ch03_submitting_data.md", "md_atom_type": "TABLE_ROW", "md_parent_section": "§3.2.1 [Dataset-level Metadata]", "md_verbatim": "| AE | Adverse Events | Events | One record per adverse event per subject | Tabulation | STUDYID, USUBJID, AEDECOD, AESTDTC | ae.xpt |", "score": 0.6273, "match_basis": "verbatim_token+chapter_route:ch03"}, {"md_atom_id": "md_ch03_a041", "md_file": "knowledge_base/chapters/ch03_submitting_data.md", "md_atom_type": "TABLE_ROW", "md_parent_section": "§3.2.1 [Dataset-level Metadata]", "md_verbatim": "| DV | Protocol Deviations | Events | One record per protocol deviation per subject | Tabulation | STUDYID, USUBJID, DVTERM, DVSTDTC | dv.xpt |", "score": 0.6127, "match_basis": "verbatim_token+chapter_route:ch03"}, {"md_atom_id": "md_ch03_a043", "md_file": "knowledge_base/chapters/ch03_submitting_data.md", "md_atom_type": "TABLE_ROW", "md_parent_section": "§3.2.1 [Dataset-level Metadata]", "md_verbatim": "| MH | Medical History | Events | One record per medical history event per subject | Tabulation | STUDYID, USUBJID, MHDECOD | mh.xpt |", "score": 0.5743, "match_basis": "verbatim_token+chapter_route:ch03"}], "candidate_count": 5, "zero_candidate": false}
{"pdf_atom_id": "ig34_p0018_a021", "pdf_atom_type": "CODE_LITERAL", "pdf_source": "SDTMIG_v3.4", "pdf_page": 18, "pdf_parent_section": "§3.2.1 Dataset-level Metadata", "pdf_verbatim": "ho.xpt", "figure_ref": null, "candidates": [{"md_atom_id": "md_ch03_a082", "md_file": "knowledge_base/chapters/ch03_submitting_data.md", "md_atom_type": "TABLE_ROW", "md_parent_section": "§3.2.1 [Dataset-level Metadata]", "md_verbatim": "| TV | Trial Visits | Trial Design | One record per planned Visit per Arm | Tabulation | STUDYID, ARM, VISIT | tv.xpt |", "score": 0.1062, "match_basis": "verbatim_token+chapter_route:ch03"}, {"md_atom_id": "md_ch03_a078", "md_file": "knowledge_base/chapters/ch03_submitting_data.md", "md_atom_type": "TABLE_ROW", "md_parent_section": "§3.2.1 [Dataset-level Metadata]", "md_verbatim": "| TE | Trial Elements | Trial Design | One record per planned Element | Tabulation | STUDYID, ETCD | te.xpt |", "score": 0.105, "match_basis": "verbatim_token+chapter_route:ch03"}, {"md_atom_id": "md_ch03_a088", "md_file": "knowledge_base/chapters/ch03_submitting_data.md", "md_atom_type": "SENTENCE", "md_parent_section": "§3.2.1 [Dataset-level Metadata]", "md_verbatim": "Separate Supplemental Qualifier datasets of the form supp--.xpt are required.", "score": 0.105, "match_basis": "verbatim_token+chapter_route:ch03"}, {"md_atom_id": "md_ch03_a085", "md_file": "knowledge_base/chapters/ch03_submitting_data.md", "md_atom_type": "TABLE_ROW", "md_parent_section": "§3.2.1 [Dataset-level Metadata]", "md_verbatim": "| RELSUB | Related Subjects | Relationship | One record per relationship per related subject per subject | Tabulation | STUDYID, USUBJID, RSUBJID, SREL | relsub.xpt |", "score": 0.1046, "match_basis": "verbatim_token+chapter_route:ch03"}, {"md_atom_id": "md_ch03_a076", "md_file": "knowledge_base/chapters/ch03_submitting_data.md", "md_atom_type": "TABLE_ROW", "md_parent_section": "§3.2.1 [Dataset-level Metadata]", "md_verbatim": "| TA | Trial Arms | Trial Design | One record per planned Element per Arm | Tabulation | STUDYID, ARMCD, TAETORD | ta.xpt |", "score": 0.1033, "match_basis": "verbatim_token+chapter_route:ch03"}, {"md_atom_id": "md_ch03_a080", "md_file": "knowledge_base/chapters/ch03_submitting_data.md", "md_atom_type": "TABLE_ROW", "md_parent_section": "§3.2.1 [Dataset-level Metadata]", "md_verbatim": "| TM | Trial Disease Milestones | Trial Design | One record per Disease Milestone type | Tabulation | STUDYID, MIDSTYPE | tm.xpt |", "score": 0.1033, "match_basis": "verbatim_token+chapter_route:ch03"}, {"md_atom_id": "md_ch03_a037", "md_file": "knowledge_base/chapters/ch03_submitting_data.md", "md_atom_type": "TABLE_ROW", "md_parent_section": "§3.2.1 [Dataset-level Metadata]", "md_verbatim": "| AE | Adverse Events | Events | One record per adverse event per subject | Tabulation | STUDYID, USUBJID, AEDECOD, AESTDTC | ae.xpt |", "score": 0.103, "match_basis": "verbatim_token+chapter_route:ch03"}, {"md_atom_id": "md_ch03_a043", "md_file": "knowledge_base/chapters/ch03_submitting_data.md", "md_atom_type": "TABLE_ROW", "md_parent_section": "§3.2.1 [Dataset-level Metadata]", "md_verbatim": "| MH | Medical History | Events | One record per medical history event per subject | Tabulation | STUDYID, USUBJID, MHDECOD | mh.xpt |", "score": 0.103, "match_basis": "verbatim_token+chapter_route:ch03"}, {"md_atom_id": "md_ch03_a039", "md_file": "knowledge_base/chapters/ch03_submitting_data.md", "md_atom_type": "TABLE_ROW", "md_parent_section": "§3.2.1 [Dataset-level Metadata]", "md_verbatim": "| CE | Clinical Events | Events | One record per event per subject | Tabulation | STUDYID, USUBJID, CETERM, CESTDTC | ce.xpt |", "score": 0.1028, "match_basis": "verbatim_token+chapter_route:ch03"}, {"md_atom_id": "md_ch03_a079", "md_file": "knowledge_base/chapters/ch03_submitting_data.md", "md_atom_type": "TABLE_ROW", "md_parent_section": "§3.2.1 [Dataset-level Metadata]", "md_verbatim": "| TI | Trial Inclusion/Exclusion Criteria | Trial Design | One record per I/E criterion | Tabulation | STUDYID, IETESTCD | ti.xpt |", "score": 0.1028, "match_basis": "verbatim_token+chapter_route:ch03"}], "candidate_count": 10, "zero_candidate": false}
{"pdf_atom_id": "ig34_p0018_a022", "pdf_atom_type": "TABLE_ROW", "pdf_source": "SDTMIG_v3.4", "pdf_page": 18, "pdf_parent_section": "§3.2.1 Dataset-level Metadata", "pdf_verbatim": "MH | Medical History | Events | One record per medical history event per subject | Tabulation | STUDYID, USUBJID, MHDECOD | mh.xpt", "figure_ref": null, "candidates": [{"md_atom_id": "md_ch03_a043", "md_file": "knowledge_base/chapters/ch03_submitting_data.md", "md_atom_type": "TABLE_ROW", "md_parent_section": "§3.2.1 [Dataset-level Metadata]", "md_verbatim": "| MH | Medical History | Events | One record per medical history event per subject | Tabulation | STUDYID, USUBJID, MHDECOD | mh.xpt |", "score": 0.9, "match_basis": "verbatim_token+chapter_route:ch03"}, {"md_atom_id": "md_ch03_a037", "md_file": "knowledge_base/chapters/ch03_submitting_data.md", "md_atom_type": "TABLE_ROW", "md_parent_section": "§3.2.1 [Dataset-level Metadata]", "md_verbatim": "| AE | Adverse Events | Events | One record per adverse event per subject | Tabulation | STUDYID, USUBJID, AEDECOD, AESTDTC | ae.xpt |", "score": 0.6517, "match_basis": "verbatim_token+chapter_route:ch03"}, {"md_atom_id": "md_ch03_a039", "md_file": "knowledge_base/chapters/ch03_submitting_data.md", "md_atom_type": "TABLE_ROW", "md_parent_section": "§3.2.1 [Dataset-level Metadata]", "md_verbatim": "| CE | Clinical Events | Events | One record per event per subject | Tabulation | STUDYID, USUBJID, CETERM, CESTDTC | ce.xpt |", "score": 0.6458, "match_basis": "verbatim_token+chapter_route:ch03"}, {"md_atom_id": "md_ch03_a041", "md_file": "knowledge_base/chapters/ch03_submitting_data.md", "md_atom_type": "TABLE_ROW", "md_parent_section": "§3.2.1 [Dataset-level Metadata]", "md_verbatim": "| DV | Protocol Deviations | Events | One record per protocol deviation per subject | Tabulation | STUDYID, USUBJID, DVTERM, DVSTDTC | dv.xpt |", "score": 0.5909, "match_basis": "verbatim_token+chapter_route:ch03"}, {"md_atom_id": "md_ch03_a085", "md_file": "knowledge_base/chapters/ch03_submitting_data.md", "md_atom_type": "TABLE_ROW", "md_parent_section": "§3.2.1 [Dataset-level Metadata]", "md_verbatim": "| RELSUB | Related Subjects | Relationship | One record per relationship per related subject per subject | Tabulation | STUDYID, USUBJID, RSUBJID, SREL | relsub.xpt |", "score": 0.5847, "match_basis": "verbatim_token+chapter_route:ch03"}], "candidate_count": 5, "zero_candidate": false}
{"pdf_atom_id": "ig34_p0018_a023", "pdf_atom_type": "CODE_LITERAL", "pdf_source": "SDTMIG_v3.4", "pdf_page": 18, "pdf_parent_section": "§3.2.1 Dataset-level Metadata", "pdf_verbatim": "mh.xpt", "figure_ref": null, "candidates": [{"md_atom_id": "md_ch03_a082", "md_file": "knowledge_base/chapters/ch03_submitting_data.md", "md_atom_type": "TABLE_ROW", "md_parent_section": "§3.2.1 [Dataset-level Metadata]", "md_verbatim": "| TV | Trial Visits | Trial Design | One record per planned Visit per Arm | Tabulation | STUDYID, ARM, VISIT | tv.xpt |", "score": 0.1062, "match_basis": "verbatim_token+chapter_route:ch03"}, {"md_atom_id": "md_ch03_a078", "md_file": "knowledge_base/chapters/ch03_submitting_data.md", "md_atom_type": "TABLE_ROW", "md_parent_section": "§3.2.1 [Dataset-level Metadata]", "md_verbatim": "| TE | Trial Elements | Trial Design | One record per planned Element | Tabulation | STUDYID, ETCD | te.xpt |", "score": 0.105, "match_basis": "verbatim_token+chapter_route:ch03"}, {"md_atom_id": "md_ch03_a088", "md_file": "knowledge_base/chapters/ch03_submitting_data.md", "md_atom_type": "SENTENCE", "md_parent_section": "§3.2.1 [Dataset-level Metadata]", "md_verbatim": "Separate Supplemental Qualifier datasets of the form supp--.xpt are required.", "score": 0.105, "match_basis": "verbatim_token+chapter_route:ch03"}, {"md_atom_id": "md_ch03_a085", "md_file": "knowledge_base/chapters/ch03_submitting_data.md", "md_atom_type": "TABLE_ROW", "md_parent_section": "§3.2.1 [Dataset-level Metadata]", "md_verbatim": "| RELSUB | Related Subjects | Relationship | One record per relationship per related subject per subject | Tabulation | STUDYID, USUBJID, RSUBJID, SREL | relsub.xpt |", "score": 0.1046, "match_basis": "verbatim_token+chapter_route:ch03"}, {"md_atom_id": "md_ch03_a076", "md_file": "knowledge_base/chapters/ch03_submitting_data.md", "md_atom_type": "TABLE_ROW", "md_parent_section": "§3.2.1 [Dataset-level Metadata]", "md_verbatim": "| TA | Trial Arms | Trial Design | One record per planned Element per Arm | Tabulation | STUDYID, ARMCD, TAETORD | ta.xpt |", "score": 0.1033, "match_basis": "verbatim_token+chapter_route:ch03"}, {"md_atom_id": "md_ch03_a080", "md_file": "knowledge_base/chapters/ch03_submitting_data.md", "md_atom_type": "TABLE_ROW", "md_parent_section": "§3.2.1 [Dataset-level Metadata]", "md_verbatim": "| TM | Trial Disease Milestones | Trial Design | One record per Disease Milestone type | Tabulation | STUDYID, MIDSTYPE | tm.xpt |", "score": 0.1033, "match_basis": "verbatim_token+chapter_route:ch03"}, {"md_atom_id": "md_ch03_a037", "md_file": "knowledge_base/chapters/ch03_submitting_data.md", "md_atom_type": "TABLE_ROW", "md_parent_section": "§3.2.1 [Dataset-level Metadata]", "md_verbatim": "| AE | Adverse Events | Events | One record per adverse event per subject | Tabulation | STUDYID, USUBJID, AEDECOD, AESTDTC | ae.xpt |", "score": 0.103, "match_basis": "verbatim_token+chapter_route:ch03"}, {"md_atom_id": "md_ch03_a043", "md_file": "knowledge_base/chapters/ch03_submitting_data.md", "md_atom_type": "TABLE_ROW", "md_parent_section": "§3.2.1 [Dataset-level Metadata]", "md_verbatim": "| MH | Medical History | Events | One record per medical history event per subject | Tabulation | STUDYID, USUBJID, MHDECOD | mh.xpt |", "score": 0.103, "match_basis": "verbatim_token+chapter_route:ch03"}, {"md_atom_id": "md_ch03_a039", "md_file": "knowledge_base/chapters/ch03_submitting_data.md", "md_atom_type": "TABLE_ROW", "md_parent_section": "§3.2.1 [Dataset-level Metadata]", "md_verbatim": "| CE | Clinical Events | Events | One record per event per subject | Tabulation | STUDYID, USUBJID, CETERM, CESTDTC | ce.xpt |", "score": 0.1028, "match_basis": "verbatim_token+chapter_route:ch03"}, {"md_atom_id": "md_ch03_a079", "md_file": "knowledge_base/chapters/ch03_submitting_data.md", "md_atom_type": "TABLE_ROW", "md_parent_section": "§3.2.1 [Dataset-level Metadata]", "md_verbatim": "| TI | Trial Inclusion/Exclusion Criteria | Trial Design | One record per I/E criterion | Tabulation | STUDYID, IETESTCD | ti.xpt |", "score": 0.1028, "match_basis": "verbatim_token+chapter_route:ch03"}], "candidate_count": 10, "zero_candidate": false}
{"pdf_atom_id": "ig34_p0018_a024", "pdf_atom_type": "TABLE_ROW", "pdf_source": "SDTMIG_v3.4", "pdf_page": 18, "pdf_parent_section": "§3.2.1 Dataset-level Metadata", "pdf_verbatim": "BS | Biospecimen Findings | Findings | One record per measurement per biospecimen identifier per subject | Tabulation | STUDYID, USUBJID, BSREFID, BSTESTCD | bs.xpt", "figure_ref": null, "candidates": [{"md_atom_id": "md_ch03_a044", "md_file": "knowledge_base/chapters/ch03_submitting_data.md", "md_atom_type": "TABLE_ROW", "md_parent_section": "§3.2.1 [Dataset-level Metadata]", "md_verbatim": "| BS | Biospecimen Findings | Findings | One record per measurement per biospecimen identifier per subject | Tabulation | STUDYID, USUBJID, BSREFID, BSTESTCD | bs.xpt |", "score": 0.9, "match_basis": "verbatim_token+chapter_route:ch03"}, {"md_atom_id": "md_ch03_a084", "md_file": "knowledge_base/chapters/ch03_submitting_data.md", "md_atom_type": "TABLE_ROW", "md_parent_section": "§3.2.1 [Dataset-level Metadata]", "md_verbatim": "| RELSPEC | Related Specimens | Relationship | One record per specimen identifier per subject | Tabulation | STUDYID, USUBJID, REFID | relspec.xpt |", "score": 0.6375, "match_basis": "verbatim_token+chapter_route:ch03"}, {"md_atom_id": "md_ch03_a038", "md_file": "knowledge_base/chapters/ch03_submitting_data.md", "md_atom_type": "TABLE_ROW", "md_parent_section": "§3.2.1 [Dataset-level Metadata]", "md_verbatim": "| BE | Biospecimen Events | Events | One record per instance per biospecimen event per biospecimen identifier per subject | Tabulation | STUDYID, USUBJID, BEREFID, BETERM, BESTDTC | be.xpt |", "score": 0.6341, "match_basis": "verbatim_token+chapter_route:ch03"}, {"md_atom_id": "md_ch03_a073", "md_file": "knowledge_base/chapters/ch03_submitting_data.md", "md_atom_type": "TABLE_ROW", "md_parent_section": "§3.2.1 [Dataset-level Metadata]", "md_verbatim": "| VS | Vital Signs | Findings | One record per vital sign measurement per time point per visit per subject | Tabulation | STUDYID, USUBJID, VSTESTCD, VISITNUM, VSTPTREF, VSTPTNUM | vs.xpt |", "score": 0.6297, "match_basis": "verbatim_token+chapter_route:ch03"}, {"md_atom_id": "md_ch03_a056", "md_file": "knowledge_base/chapters/ch03_submitting_data.md", "md_atom_type": "TABLE_ROW", "md_parent_section": "§3.2.1 [Dataset-level Metadata]", "md_verbatim": "| MI | Microscopic Findings | Findings | One record per finding per specimen per subject | Tabulation | STUDYID, USUBJID, MISPEC, MITESTCD | mi.xpt |", "score": 0.622, "match_basis": "verbatim_token+chapter_route:ch03"}], "candidate_count": 5, "zero_candidate": false}
{"pdf_atom_id": "ig34_p0018_a025", "pdf_atom_type": "CODE_LITERAL", "pdf_source": "SDTMIG_v3.4", "pdf_page": 18, "pdf_parent_section": "§3.2.1 Dataset-level Metadata", "pdf_verbatim": "bs.xpt", "figure_ref": null, "candidates": [{"md_atom_id": "md_ch03_a082", "md_file": "knowledge_base/chapters/ch03_submitting_data.md", "md_atom_type": "TABLE_ROW", "md_parent_section": "§3.2.1 [Dataset-level Metadata]", "md_verbatim": "| TV | Trial Visits | Trial Design | One record per planned Visit per Arm | Tabulation | STUDYID, ARM, VISIT | tv.xpt |", "score": 0.1062, "match_basis": "verbatim_token+chapter_route:ch03"}, {"md_atom_id": "md_ch03_a078", "md_file": "knowledge_base/chapters/ch03_submitting_data.md", "md_atom_type": "TABLE_ROW", "md_parent_section": "§3.2.1 [Dataset-level Metadata]", "md_verbatim": "| TE | Trial Elements | Trial Design | One record per planned Element | Tabulation | STUDYID, ETCD | te.xpt |", "score": 0.105, "match_basis": "verbatim_token+chapter_route:ch03"}, {"md_atom_id": "md_ch03_a088", "md_file": "knowledge_base/chapters/ch03_submitting_data.md", "md_atom_type": "SENTENCE", "md_parent_section": "§3.2.1 [Dataset-level Metadata]", "md_verbatim": "Separate Supplemental Qualifier datasets of the form supp--.xpt are required.", "score": 0.105, "match_basis": "verbatim_token+chapter_route:ch03"}, {"md_atom_id": "md_ch03_a085", "md_file": "knowledge_base/chapters/ch03_submitting_data.md", "md_atom_type": "TABLE_ROW", "md_parent_section": "§3.2.1 [Dataset-level Metadata]", "md_verbatim": "| RELSUB | Related Subjects | Relationship | One record per relationship per related subject per subject | Tabulation | STUDYID, USUBJID, RSUBJID, SREL | relsub.xpt |", "score": 0.1046, "match_basis": "verbatim_token+chapter_route:ch03"}, {"md_atom_id": "md_ch03_a076", "md_file": "knowledge_base/chapters/ch03_submitting_data.md", "md_atom_type": "TABLE_ROW", "md_parent_section": "§3.2.1 [Dataset-level Metadata]", "md_verbatim": "| TA | Trial Arms | Trial Design | One record per planned Element per Arm | Tabulation | STUDYID, ARMCD, TAETORD | ta.xpt |", "score": 0.1033, "match_basis": "verbatim_token+chapter_route:ch03"}, {"md_atom_id": "md_ch03_a080", "md_file": "knowledge_base/chapters/ch03_submitting_data.md", "md_atom_type": "TABLE_ROW", "md_parent_section": "§3.2.1 [Dataset-level Metadata]", "md_verbatim": "| TM | Trial Disease Milestones | Trial Design | One record per Disease Milestone type | Tabulation | STUDYID, MIDSTYPE | tm.xpt |", "score": 0.1033, "match_basis": "verbatim_token+chapter_route:ch03"}, {"md_atom_id": "md_ch03_a037", "md_file": "knowledge_base/chapters/ch03_submitting_data.md", "md_atom_type": "TABLE_ROW", "md_parent_section": "§3.2.1 [Dataset-level Metadata]", "md_verbatim": "| AE | Adverse Events | Events | One record per adverse event per subject | Tabulation | STUDYID, USUBJID, AEDECOD, AESTDTC | ae.xpt |", "score": 0.103, "match_basis": "verbatim_token+chapter_route:ch03"}, {"md_atom_id": "md_ch03_a043", "md_file": "knowledge_base/chapters/ch03_submitting_data.md", "md_atom_type": "TABLE_ROW", "md_parent_section": "§3.2.1 [Dataset-level Metadata]", "md_verbatim": "| MH | Medical History | Events | One record per medical history event per subject | Tabulation | STUDYID, USUBJID, MHDECOD | mh.xpt |", "score": 0.103, "match_basis": "verbatim_token+chapter_route:ch03"}, {"md_atom_id": "md_ch03_a039", "md_file": "knowledge_base/chapters/ch03_submitting_data.md", "md_atom_type": "TABLE_ROW", "md_parent_section": "§3.2.1 [Dataset-level Metadata]", "md_verbatim": "| CE | Clinical Events | Events | One record per event per subject | Tabulation | STUDYID, USUBJID, CETERM, CESTDTC | ce.xpt |", "score": 0.1028, "match_basis": "verbatim_token+chapter_route:ch03"}, {"md_atom_id": "md_ch03_a079", "md_file": "knowledge_base/chapters/ch03_submitting_data.md", "md_atom_type": "TABLE_ROW", "md_parent_section": "§3.2.1 [Dataset-level Metadata]", "md_verbatim": "| TI | Trial Inclusion/Exclusion Criteria | Trial Design | One record per I/E criterion | Tabulation | STUDYID, IETESTCD | ti.xpt |", "score": 0.1028, "match_basis": "verbatim_token+chapter_route:ch03"}], "candidate_count": 10, "zero_candidate": false}
{"pdf_atom_id": "ig34_p0018_a026", "pdf_atom_type": "TABLE_ROW", "pdf_source": "SDTMIG_v3.4", "pdf_page": 18, "pdf_parent_section": "§3.2.1 Dataset-level Metadata", "pdf_verbatim": "CP | Cell Phenotype Findings | Findings | One record per test per specimen per timepoint per visit per subject | Tabulation | STUDYID, USUBJID, CPTESTCD, CPSPEC, VISITNUM, CPTPTREF, CPTPTNUM | cp.xpt", "figure_ref": null, "candidates": [{"md_atom_id": "md_ch03_a045", "md_file": "knowledge_base/chapters/ch03_submitting_data.md", "md_atom_type": "TABLE_ROW", "md_parent_section": "§3.2.1 [Dataset-level Metadata]", "md_verbatim": "| CP | Cell Phenotype Findings | Findings | One record per test per specimen per timepoint per visit per subject | Tabulation | STUDYID, USUBJID, CPTESTCD, CPSPEC, VISITNUM, CPTPTREF, CPTPTNUM | cp.xpt |", "score": 0.9, "match_basis": "verbatim_token+chapter_route:ch03"}, {"md_atom_id": "md_ch03_a055", "md_file": "knowledge_base/chapters/ch03_submitting_data.md", "md_atom_type": "TABLE_ROW", "md_parent_section": "§3.2.1 [Dataset-level Metadata]", "md_verbatim": "| MB | Microbiology Specimen | Findings | One record per microbiology specimen finding per time point per visit per subject | Tabulation | STUDYID, USUBJID, MBTESTCD, VISITNUM, MBTPTREF, MBTPTNUM | mb.xpt |", "score": 0.7023, "match_basis": "verbatim_token+chapter_route:ch03"}, {"md_atom_id": "md_ch03_a050", "md_file": "knowledge_base/chapters/ch03_submitting_data.md", "md_atom_type": "TABLE_ROW", "md_parent_section": "§3.2.1 [Dataset-level Metadata]", "md_verbatim": "| FT | Functional Tests | Findings | One record per Functional Test finding per time point per visit per subject | Tabulation | STUDYID, USUBJID, FTTESTCD, VISITNUM, FTTPTREF, FTTPTNUM | ft.xpt |", "score": 0.6812, "match_basis": "verbatim_token+chapter_route:ch03"}, {"md_atom_id": "md_ch03_a054", "md_file": "knowledge_base/chapters/ch03_submitting_data.md", "md_atom_type": "TABLE_ROW", "md_parent_section": "§3.2.1 [Dataset-level Metadata]", "md_verbatim": "| LB | Laboratory Test Results | Findings | One record per lab test per time point per visit per subject | Tabulation | STUDYID, USUBJID, LBTESTCD, LBSPEC, VISITNUM, LBTPTREF, LBTPTNUM | lb.xpt |", "score": 0.6613, "match_basis": "verbatim_token+chapter_route:ch03"}, {"md_atom_id": "md_ch03_a073", "md_file": "knowledge_base/chapters/ch03_submitting_data.md", "md_atom_type": "TABLE_ROW", "md_parent_section": "§3.2.1 [Dataset-level Metadata]", "md_verbatim": "| VS | Vital Signs | Findings | One record per vital sign measurement per time point per visit per subject | Tabulation | STUDYID, USUBJID, VSTESTCD, VISITNUM, VSTPTREF, VSTPTNUM | vs.xpt |", "score": 0.6587, "match_basis": "verbatim_token+chapter_route:ch03"}], "candidate_count": 5, "zero_candidate": false}
{"pdf_atom_id": "ig34_p0018_a027", "pdf_atom_type": "CODE_LITERAL", "pdf_source": "SDTMIG_v3.4", "pdf_page": 18, "pdf_parent_section": "§3.2.1 Dataset-level Metadata", "pdf_verbatim": "cp.xpt", "figure_ref": null, "candidates": [{"md_atom_id": "md_ch03_a082", "md_file": "knowledge_base/chapters/ch03_submitting_data.md", "md_atom_type": "TABLE_ROW", "md_parent_section": "§3.2.1 [Dataset-level Metadata]", "md_verbatim": "| TV | Trial Visits | Trial Design | One record per planned Visit per Arm | Tabulation | STUDYID, ARM, VISIT | tv.xpt |", "score": 0.1062, "match_basis": "verbatim_token+chapter_route:ch03"}, {"md_atom_id": "md_ch03_a078", "md_file": "knowledge_base/chapters/ch03_submitting_data.md", "md_atom_type": "TABLE_ROW", "md_parent_section": "§3.2.1 [Dataset-level Metadata]", "md_verbatim": "| TE | Trial Elements | Trial Design | One record per planned Element | Tabulation | STUDYID, ETCD | te.xpt |", "score": 0.105, "match_basis": "verbatim_token+chapter_route:ch03"}, {"md_atom_id": "md_ch03_a088", "md_file": "knowledge_base/chapters/ch03_submitting_data.md", "md_atom_type": "SENTENCE", "md_parent_section": "§3.2.1 [Dataset-level Metadata]", "md_verbatim": "Separate Supplemental Qualifier datasets of the form supp--.xpt are required.", "score": 0.105, "match_basis": "verbatim_token+chapter_route:ch03"}, {"md_atom_id": "md_ch03_a085", "md_file": "knowledge_base/chapters/ch03_submitting_data.md", "md_atom_type": "TABLE_ROW", "md_parent_section": "§3.2.1 [Dataset-level Metadata]", "md_verbatim": "| RELSUB | Related Subjects | Relationship | One record per relationship per related subject per subject | Tabulation | STUDYID, USUBJID, RSUBJID, SREL | relsub.xpt |", "score": 0.1046, "match_basis": "verbatim_token+chapter_route:ch03"}, {"md_atom_id": "md_ch03_a076", "md_file": "knowledge_base/chapters/ch03_submitting_data.md", "md_atom_type": "TABLE_ROW", "md_parent_section": "§3.2.1 [Dataset-level Metadata]", "md_verbatim": "| TA | Trial Arms | Trial Design | One record per planned Element per Arm | Tabulation | STUDYID, ARMCD, TAETORD | ta.xpt |", "score": 0.1033, "match_basis": "verbatim_token+chapter_route:ch03"}, {"md_atom_id": "md_ch03_a080", "md_file": "knowledge_base/chapters/ch03_submitting_data.md", "md_atom_type": "TABLE_ROW", "md_parent_section": "§3.2.1 [Dataset-level Metadata]", "md_verbatim": "| TM | Trial Disease Milestones | Trial Design | One record per Disease Milestone type | Tabulation | STUDYID, MIDSTYPE | tm.xpt |", "score": 0.1033, "match_basis": "verbatim_token+chapter_route:ch03"}, {"md_atom_id": "md_ch03_a037", "md_file": "knowledge_base/chapters/ch03_submitting_data.md", "md_atom_type": "TABLE_ROW", "md_parent_section": "§3.2.1 [Dataset-level Metadata]", "md_verbatim": "| AE | Adverse Events | Events | One record per adverse event per subject | Tabulation | STUDYID, USUBJID, AEDECOD, AESTDTC | ae.xpt |", "score": 0.103, "match_basis": "verbatim_token+chapter_route:ch03"}, {"md_atom_id": "md_ch03_a043", "md_file": "knowledge_base/chapters/ch03_submitting_data.md", "md_atom_type": "TABLE_ROW", "md_parent_section": "§3.2.1 [Dataset-level Metadata]", "md_verbatim": "| MH | Medical History | Events | One record per medical history event per subject | Tabulation | STUDYID, USUBJID, MHDECOD | mh.xpt |", "score": 0.103, "match_basis": "verbatim_token+chapter_route:ch03"}, {"md_atom_id": "md_ch03_a039", "md_file": "knowledge_base/chapters/ch03_submitting_data.md", "md_atom_type": "TABLE_ROW", "md_parent_section": "§3.2.1 [Dataset-level Metadata]", "md_verbatim": "| CE | Clinical Events | Events | One record per event per subject | Tabulation | STUDYID, USUBJID, CETERM, CESTDTC | ce.xpt |", "score": 0.1028, "match_basis": "verbatim_token+chapter_route:ch03"}, {"md_atom_id": "md_ch03_a079", "md_file": "knowledge_base/chapters/ch03_submitting_data.md", "md_atom_type": "TABLE_ROW", "md_parent_section": "§3.2.1 [Dataset-level Metadata]", "md_verbatim": "| TI | Trial Inclusion/Exclusion Criteria | Trial Design | One record per I/E criterion | Tabulation | STUDYID, IETESTCD | ti.xpt |", "score": 0.1028, "match_basis": "verbatim_token+chapter_route:ch03"}], "candidate_count": 10, "zero_candidate": false}
{"pdf_atom_id": "ig34_p0018_a028", "pdf_atom_type": "TABLE_ROW", "pdf_source": "SDTMIG_v3.4", "pdf_page": 18, "pdf_parent_section": "§3.2.1 Dataset-level Metadata", "pdf_verbatim": "CV | Cardiovascular System Findings | Findings | One record per finding or result per time point per visit per subject | Tabulation | STUDYID, USUBJID, VISITNUM, CVTESTCD, CVTPTREF, CVTPTNUM | cv.xpt", "figure_ref": null, "candidates": [{"md_atom_id": "md_ch03_a046", "md_file": "knowledge_base/chapters/ch03_submitting_data.md", "md_atom_type": "TABLE_ROW", "md_parent_section": "§3.2.1 [Dataset-level Metadata]", "md_verbatim": "| CV | Cardiovascular System Findings | Findings | One record per finding or result per time point per visit per subject | Tabulation | STUDYID, USUBJID, VISITNUM, CVTESTCD, CVTPTREF, CVTPTNUM | cv.xpt |", "score": 0.9, "match_basis": "verbatim_token+chapter_route:ch03"}, {"md_atom_id": "md_ch03_a059", "md_file": "knowledge_base/chapters/ch03_submitting_data.md", "md_atom_type": "TABLE_ROW", "md_parent_section": "§3.2.1 [Dataset-level Metadata]", "md_verbatim": "| NV | Nervous System Findings | Findings | One record per finding per location per time point per visit per subject | Tabulation | STUDYID, USUBJID, VISITNUM, NVTPTNUM, NVLOC, NVTESTCD | nv.xpt |", "score": 0.6931, "match_basis": "verbatim_token+chapter_route:ch03"}, {"md_atom_id": "md_ch03_a065", "md_file": "knowledge_base/chapters/ch03_submitting_data.md", "md_atom_type": "TABLE_ROW", "md_parent_section": "§3.2.1 [Dataset-level Metadata]", "md_verbatim": "| RE | Respiratory System Findings | Findings | One record per finding or result per time point per visit per subject | Tabulation | STUDYID, USUBJID, VISITNUM, RETESTCD, RETPTNUM, REREPNUM | re.xpt |", "score": 0.6848, "match_basis": "verbatim_token+chapter_route:ch03"}, {"md_atom_id": "md_ch03_a054", "md_file": "knowledge_base/chapters/ch03_submitting_data.md", "md_atom_type": "TABLE_ROW", "md_parent_section": "§3.2.1 [Dataset-level Metadata]", "md_verbatim": "| LB | Laboratory Test Results | Findings | One record per lab test per time point per visit per subject | Tabulation | STUDYID, USUBJID, LBTESTCD, LBSPEC, VISITNUM, LBTPTREF, LBTPTNUM | lb.xpt |", "score": 0.6783, "match_basis": "verbatim_token+chapter_route:ch03"}, {"md_atom_id": "md_ch03_a050", "md_file": "knowledge_base/chapters/ch03_submitting_data.md", "md_atom_type": "TABLE_ROW", "md_parent_section": "§3.2.1 [Dataset-level Metadata]", "md_verbatim": "| FT | Functional Tests | Findings | One record per Functional Test finding per time point per visit per subject | Tabulation | STUDYID, USUBJID, FTTESTCD, VISITNUM, FTTPTREF, FTTPTNUM | ft.xpt |", "score": 0.6767, "match_basis": "verbatim_token+chapter_route:ch03"}], "candidate_count": 5, "zero_candidate": false}
{"pdf_atom_id": "ig34_p0018_a029", "pdf_atom_type": "CODE_LITERAL", "pdf_source": "SDTMIG_v3.4", "pdf_page": 18, "pdf_parent_section": "§3.2.1 Dataset-level Metadata", "pdf_verbatim": "cv.xpt", "figure_ref": null, "candidates": [{"md_atom_id": "md_ch03_a082", "md_file": "knowledge_base/chapters/ch03_submitting_data.md", "md_atom_type": "TABLE_ROW", "md_parent_section": "§3.2.1 [Dataset-level Metadata]", "md_verbatim": "| TV | Trial Visits | Trial Design | One record per planned Visit per Arm | Tabulation | STUDYID, ARM, VISIT | tv.xpt |", "score": 0.1062, "match_basis": "verbatim_token+chapter_route:ch03"}, {"md_atom_id": "md_ch03_a078", "md_file": "knowledge_base/chapters/ch03_submitting_data.md", "md_atom_type": "TABLE_ROW", "md_parent_section": "§3.2.1 [Dataset-level Metadata]", "md_verbatim": "| TE | Trial Elements | Trial Design | One record per planned Element | Tabulation | STUDYID, ETCD | te.xpt |", "score": 0.105, "match_basis": "verbatim_token+chapter_route:ch03"}, {"md_atom_id": "md_ch03_a088", "md_file": "knowledge_base/chapters/ch03_submitting_data.md", "md_atom_type": "SENTENCE", "md_parent_section": "§3.2.1 [Dataset-level Metadata]", "md_verbatim": "Separate Supplemental Qualifier datasets of the form supp--.xpt are required.", "score": 0.105, "match_basis": "verbatim_token+chapter_route:ch03"}, {"md_atom_id": "md_ch03_a085", "md_file": "knowledge_base/chapters/ch03_submitting_data.md", "md_atom_type": "TABLE_ROW", "md_parent_section": "§3.2.1 [Dataset-level Metadata]", "md_verbatim": "| RELSUB | Related Subjects | Relationship | One record per relationship per related subject per subject | Tabulation | STUDYID, USUBJID, RSUBJID, SREL | relsub.xpt |", "score": 0.1046, "match_basis": "verbatim_token+chapter_route:ch03"}, {"md_atom_id": "md_ch03_a076", "md_file": "knowledge_base/chapters/ch03_submitting_data.md", "md_atom_type": "TABLE_ROW", "md_parent_section": "§3.2.1 [Dataset-level Metadata]", "md_verbatim": "| TA | Trial Arms | Trial Design | One record per planned Element per Arm | Tabulation | STUDYID, ARMCD, TAETORD | ta.xpt |", "score": 0.1033, "match_basis": "verbatim_token+chapter_route:ch03"}, {"md_atom_id": "md_ch03_a080", "md_file": "knowledge_base/chapters/ch03_submitting_data.md", "md_atom_type": "TABLE_ROW", "md_parent_section": "§3.2.1 [Dataset-level Metadata]", "md_verbatim": "| TM | Trial Disease Milestones | Trial Design | One record per Disease Milestone type | Tabulation | STUDYID, MIDSTYPE | tm.xpt |", "score": 0.1033, "match_basis": "verbatim_token+chapter_route:ch03"}, {"md_atom_id": "md_ch03_a037", "md_file": "knowledge_base/chapters/ch03_submitting_data.md", "md_atom_type": "TABLE_ROW", "md_parent_section": "§3.2.1 [Dataset-level Metadata]", "md_verbatim": "| AE | Adverse Events | Events | One record per adverse event per subject | Tabulation | STUDYID, USUBJID, AEDECOD, AESTDTC | ae.xpt |", "score": 0.103, "match_basis": "verbatim_token+chapter_route:ch03"}, {"md_atom_id": "md_ch03_a043", "md_file": "knowledge_base/chapters/ch03_submitting_data.md", "md_atom_type": "TABLE_ROW", "md_parent_section": "§3.2.1 [Dataset-level Metadata]", "md_verbatim": "| MH | Medical History | Events | One record per medical history event per subject | Tabulation | STUDYID, USUBJID, MHDECOD | mh.xpt |", "score": 0.103, "match_basis": "verbatim_token+chapter_route:ch03"}, {"md_atom_id": "md_ch03_a039", "md_file": "knowledge_base/chapters/ch03_submitting_data.md", "md_atom_type": "TABLE_ROW", "md_parent_section": "§3.2.1 [Dataset-level Metadata]", "md_verbatim": "| CE | Clinical Events | Events | One record per event per subject | Tabulation | STUDYID, USUBJID, CETERM, CESTDTC | ce.xpt |", "score": 0.1028, "match_basis": "verbatim_token+chapter_route:ch03"}, {"md_atom_id": "md_ch03_a079", "md_file": "knowledge_base/chapters/ch03_submitting_data.md", "md_atom_type": "TABLE_ROW", "md_parent_section": "§3.2.1 [Dataset-level Metadata]", "md_verbatim": "| TI | Trial Inclusion/Exclusion Criteria | Trial Design | One record per I/E criterion | Tabulation | STUDYID, IETESTCD | ti.xpt |", "score": 0.1028, "match_basis": "verbatim_token+chapter_route:ch03"}], "candidate_count": 10, "zero_candidate": false}
{"pdf_atom_id": "ig34_p0018_a030", "pdf_atom_type": "TABLE_ROW", "pdf_source": "SDTMIG_v3.4", "pdf_page": 18, "pdf_parent_section": "§3.2.1 Dataset-level Metadata", "pdf_verbatim": "DA | Product Accountability | Findings | One record per product accountability finding per subject | Tabulation | STUDYID, USUBJID, DATESTCD, DADTC | da.xpt", "figure_ref": null, "candidates": [{"md_atom_id": "md_ch03_a047", "md_file": "knowledge_base/chapters/ch03_submitting_data.md", "md_atom_type": "TABLE_ROW", "md_parent_section": "§3.2.1 [Dataset-level Metadata]", "md_verbatim": "| DA | Product Accountability | Findings | One record per product accountability finding per subject | Tabulation | STUDYID, USUBJID, DATESTCD, DADTC | da.xpt |", "score": 0.9, "match_basis": "verbatim_token+chapter_route:ch03"}, {"md_atom_id": "md_ch03_a048", "md_file": "knowledge_base/chapters/ch03_submitting_data.md", "md_atom_type": "TABLE_ROW", "md_parent_section": "§3.2.1 [Dataset-level Metadata]", "md_verbatim": "| DD | Death Details | Findings | One record per finding per subject | Tabulation | STUDYID, USUBJID, DDTESTCD, DDDTC | dd.xpt |", "score": 0.6343, "match_basis": "verbatim_token+chapter_route:ch03"}, {"md_atom_id": "md_ch03_a069", "md_file": "knowledge_base/chapters/ch03_submitting_data.md", "md_atom_type": "TABLE_ROW", "md_parent_section": "§3.2.1 [Dataset-level Metadata]", "md_verbatim": "| SS | Subject Status | Findings | One record per status per visit per subject | Tabulation | STUDYID, USUBJID, SSTESTCD, VISITNUM | ss.xpt |", "score": 0.6211, "match_basis": "verbatim_token+chapter_route:ch03"}, {"md_atom_id": "md_ch03_a052", "md_file": "knowledge_base/chapters/ch03_submitting_data.md", "md_atom_type": "TABLE_ROW", "md_parent_section": "§3.2.1 [Dataset-level Metadata]", "md_verbatim": "| IE | Inclusion/Exclusion Criteria Not Met | Findings | One record per inclusion/exclusion criterion not met per subject | Tabulation | STUDYID, USUBJID, IETESTCD | ie.xpt |", "score": 0.5923, "match_basis": "verbatim_token+chapter_route:ch03"}, {"md_atom_id": "md_ch03_a056", "md_file": "knowledge_base/chapters/ch03_submitting_data.md", "md_atom_type": "TABLE_ROW", "md_parent_section": "§3.2.1 [Dataset-level Metadata]", "md_verbatim": "| MI | Microscopic Findings | Findings | One record per finding per specimen per subject | Tabulation | STUDYID, USUBJID, MISPEC, MITESTCD | mi.xpt |", "score": 0.5923, "match_basis": "verbatim_token+chapter_route:ch03"}], "candidate_count": 5, "zero_candidate": false}
{"pdf_atom_id": "ig34_p0018_a031", "pdf_atom_type": "CODE_LITERAL", "pdf_source": "SDTMIG_v3.4", "pdf_page": 18, "pdf_parent_section": "§3.2.1 Dataset-level Metadata", "pdf_verbatim": "da.xpt", "figure_ref": null, "candidates": [{"md_atom_id": "md_ch03_a082", "md_file": "knowledge_base/chapters/ch03_submitting_data.md", "md_atom_type": "TABLE_ROW", "md_parent_section": "§3.2.1 [Dataset-level Metadata]", "md_verbatim": "| TV | Trial Visits | Trial Design | One record per planned Visit per Arm | Tabulation | STUDYID, ARM, VISIT | tv.xpt |", "score": 0.1062, "match_basis": "verbatim_token+chapter_route:ch03"}, {"md_atom_id": "md_ch03_a078", "md_file": "knowledge_base/chapters/ch03_submitting_data.md", "md_atom_type": "TABLE_ROW", "md_parent_section": "§3.2.1 [Dataset-level Metadata]", "md_verbatim": "| TE | Trial Elements | Trial Design | One record per planned Element | Tabulation | STUDYID, ETCD | te.xpt |", "score": 0.105, "match_basis": "verbatim_token+chapter_route:ch03"}, {"md_atom_id": "md_ch03_a088", "md_file": "knowledge_base/chapters/ch03_submitting_data.md", "md_atom_type": "SENTENCE", "md_parent_section": "§3.2.1 [Dataset-level Metadata]", "md_verbatim": "Separate Supplemental Qualifier datasets of the form supp--.xpt are required.", "score": 0.105, "match_basis": "verbatim_token+chapter_route:ch03"}, {"md_atom_id": "md_ch03_a085", "md_file": "knowledge_base/chapters/ch03_submitting_data.md", "md_atom_type": "TABLE_ROW", "md_parent_section": "§3.2.1 [Dataset-level Metadata]", "md_verbatim": "| RELSUB | Related Subjects | Relationship | One record per relationship per related subject per subject | Tabulation | STUDYID, USUBJID, RSUBJID, SREL | relsub.xpt |", "score": 0.1046, "match_basis": "verbatim_token+chapter_route:ch03"}, {"md_atom_id": "md_ch03_a076", "md_file": "knowledge_base/chapters/ch03_submitting_data.md", "md_atom_type": "TABLE_ROW", "md_parent_section": "§3.2.1 [Dataset-level Metadata]", "md_verbatim": "| TA | Trial Arms | Trial Design | One record per planned Element per Arm | Tabulation | STUDYID, ARMCD, TAETORD | ta.xpt |", "score": 0.1033, "match_basis": "verbatim_token+chapter_route:ch03"}, {"md_atom_id": "md_ch03_a080", "md_file": "knowledge_base/chapters/ch03_submitting_data.md", "md_atom_type": "TABLE_ROW", "md_parent_section": "§3.2.1 [Dataset-level Metadata]", "md_verbatim": "| TM | Trial Disease Milestones | Trial Design | One record per Disease Milestone type | Tabulation | STUDYID, MIDSTYPE | tm.xpt |", "score": 0.1033, "match_basis": "verbatim_token+chapter_route:ch03"}, {"md_atom_id": "md_ch03_a037", "md_file": "knowledge_base/chapters/ch03_submitting_data.md", "md_atom_type": "TABLE_ROW", "md_parent_section": "§3.2.1 [Dataset-level Metadata]", "md_verbatim": "| AE | Adverse Events | Events | One record per adverse event per subject | Tabulation | STUDYID, USUBJID, AEDECOD, AESTDTC | ae.xpt |", "score": 0.103, "match_basis": "verbatim_token+chapter_route:ch03"}, {"md_atom_id": "md_ch03_a043", "md_file": "knowledge_base/chapters/ch03_submitting_data.md", "md_atom_type": "TABLE_ROW", "md_parent_section": "§3.2.1 [Dataset-level Metadata]", "md_verbatim": "| MH | Medical History | Events | One record per medical history event per subject | Tabulation | STUDYID, USUBJID, MHDECOD | mh.xpt |", "score": 0.103, "match_basis": "verbatim_token+chapter_route:ch03"}, {"md_atom_id": "md_ch03_a039", "md_file": "knowledge_base/chapters/ch03_submitting_data.md", "md_atom_type": "TABLE_ROW", "md_parent_section": "§3.2.1 [Dataset-level Metadata]", "md_verbatim": "| CE | Clinical Events | Events | One record per event per subject | Tabulation | STUDYID, USUBJID, CETERM, CESTDTC | ce.xpt |", "score": 0.1028, "match_basis": "verbatim_token+chapter_route:ch03"}, {"md_atom_id": "md_ch03_a079", "md_file": "knowledge_base/chapters/ch03_submitting_data.md", "md_atom_type": "TABLE_ROW", "md_parent_section": "§3.2.1 [Dataset-level Metadata]", "md_verbatim": "| TI | Trial Inclusion/Exclusion Criteria | Trial Design | One record per I/E criterion | Tabulation | STUDYID, IETESTCD | ti.xpt |", "score": 0.1028, "match_basis": "verbatim_token+chapter_route:ch03"}], "candidate_count": 10, "zero_candidate": false}
{"pdf_atom_id": "ig34_p0018_a032", "pdf_atom_type": "TABLE_ROW", "pdf_source": "SDTMIG_v3.4", "pdf_page": 18, "pdf_parent_section": "§3.2.1 Dataset-level Metadata", "pdf_verbatim": "DD | Death Details | Findings | One record per finding per subject | Tabulation | STUDYID, USUBJID, DDTESTCD, DDDTC | dd.xpt", "figure_ref": null, "candidates": [{"md_atom_id": "md_ch03_a048", "md_file": "knowledge_base/chapters/ch03_submitting_data.md", "md_atom_type": "TABLE_ROW", "md_parent_section": "§3.2.1 [Dataset-level Metadata]", "md_verbatim": "| DD | Death Details | Findings | One record per finding per subject | Tabulation | STUDYID, USUBJID, DDTESTCD, DDDTC | dd.xpt |", "score": 0.9, "match_basis": "verbatim_token+chapter_route:ch03"}, {"md_atom_id": "md_ch03_a069", "md_file": "knowledge_base/chapters/ch03_submitting_data.md", "md_atom_type": "TABLE_ROW", "md_parent_section": "§3.2.1 [Dataset-level Metadata]", "md_verbatim": "| SS | Subject Status | Findings | One record per status per visit per subject | Tabulation | STUDYID, USUBJID, SSTESTCD, VISITNUM | ss.xpt |", "score": 0.6677, "match_basis": "verbatim_token+chapter_route:ch03"}, {"md_atom_id": "md_ch03_a047", "md_file": "knowledge_base/chapters/ch03_submitting_data.md", "md_atom_type": "TABLE_ROW", "md_parent_section": "§3.2.1 [Dataset-level Metadata]", "md_verbatim": "| DA | Product Accountability | Findings | One record per product accountability finding per subject | Tabulation | STUDYID, USUBJID, DATESTCD, DADTC | da.xpt |", "score": 0.6343, "match_basis": "verbatim_token+chapter_route:ch03"}, {"md_atom_id": "md_ch03_a052", "md_file": "knowledge_base/chapters/ch03_submitting_data.md", "md_atom_type": "TABLE_ROW", "md_parent_section": "§3.2.1 [Dataset-level Metadata]", "md_verbatim": "| IE | Inclusion/Exclusion Criteria Not Met | Findings | One record per inclusion/exclusion criterion not met per subject | Tabulation | STUDYID, USUBJID, IETESTCD | ie.xpt |", "score": 0.6304, "match_basis": "verbatim_token+chapter_route:ch03"}, {"md_atom_id": "md_ch03_a056", "md_file": "knowledge_base/chapters/ch03_submitting_data.md", "md_atom_type": "TABLE_ROW", "md_parent_section": "§3.2.1 [Dataset-level Metadata]", "md_verbatim": "| MI | Microscopic Findings | Findings | One record per finding per specimen per subject | Tabulation | STUDYID, USUBJID, MISPEC, MITESTCD | mi.xpt |", "score": 0.6304, "match_basis": "verbatim_token+chapter_route:ch03"}], "candidate_count": 5, "zero_candidate": false}
{"pdf_atom_id": "ig34_p0018_a033", "pdf_atom_type": "CODE_LITERAL", "pdf_source": "SDTMIG_v3.4", "pdf_page": 18, "pdf_parent_section": "§3.2.1 Dataset-level Metadata", "pdf_verbatim": "dd.xpt", "figure_ref": null, "candidates": [{"md_atom_id": "md_ch03_a082", "md_file": "knowledge_base/chapters/ch03_submitting_data.md", "md_atom_type": "TABLE_ROW", "md_parent_section": "§3.2.1 [Dataset-level Metadata]", "md_verbatim": "| TV | Trial Visits | Trial Design | One record per planned Visit per Arm | Tabulation | STUDYID, ARM, VISIT | tv.xpt |", "score": 0.1062, "match_basis": "verbatim_token+chapter_route:ch03"}, {"md_atom_id": "md_ch03_a078", "md_file": "knowledge_base/chapters/ch03_submitting_data.md", "md_atom_type": "TABLE_ROW", "md_parent_section": "§3.2.1 [Dataset-level Metadata]", "md_verbatim": "| TE | Trial Elements | Trial Design | One record per planned Element | Tabulation | STUDYID, ETCD | te.xpt |", "score": 0.105, "match_basis": "verbatim_token+chapter_route:ch03"}, {"md_atom_id": "md_ch03_a088", "md_file": "knowledge_base/chapters/ch03_submitting_data.md", "md_atom_type": "SENTENCE", "md_parent_section": "§3.2.1 [Dataset-level Metadata]", "md_verbatim": "Separate Supplemental Qualifier datasets of the form supp--.xpt are required.", "score": 0.105, "match_basis": "verbatim_token+chapter_route:ch03"}, {"md_atom_id": "md_ch03_a085", "md_file": "knowledge_base/chapters/ch03_submitting_data.md", "md_atom_type": "TABLE_ROW", "md_parent_section": "§3.2.1 [Dataset-level Metadata]", "md_verbatim": "| RELSUB | Related Subjects | Relationship | One record per relationship per related subject per subject | Tabulation | STUDYID, USUBJID, RSUBJID, SREL | relsub.xpt |", "score": 0.1046, "match_basis": "verbatim_token+chapter_route:ch03"}, {"md_atom_id": "md_ch03_a076", "md_file": "knowledge_base/chapters/ch03_submitting_data.md", "md_atom_type": "TABLE_ROW", "md_parent_section": "§3.2.1 [Dataset-level Metadata]", "md_verbatim": "| TA | Trial Arms | Trial Design | One record per planned Element per Arm | Tabulation | STUDYID, ARMCD, TAETORD | ta.xpt |", "score": 0.1033, "match_basis": "verbatim_token+chapter_route:ch03"}, {"md_atom_id": "md_ch03_a080", "md_file": "knowledge_base/chapters/ch03_submitting_data.md", "md_atom_type": "TABLE_ROW", "md_parent_section": "§3.2.1 [Dataset-level Metadata]", "md_verbatim": "| TM | Trial Disease Milestones | Trial Design | One record per Disease Milestone type | Tabulation | STUDYID, MIDSTYPE | tm.xpt |", "score": 0.1033, "match_basis": "verbatim_token+chapter_route:ch03"}, {"md_atom_id": "md_ch03_a037", "md_file": "knowledge_base/chapters/ch03_submitting_data.md", "md_atom_type": "TABLE_ROW", "md_parent_section": "§3.2.1 [Dataset-level Metadata]", "md_verbatim": "| AE | Adverse Events | Events | One record per adverse event per subject | Tabulation | STUDYID, USUBJID, AEDECOD, AESTDTC | ae.xpt |", "score": 0.103, "match_basis": "verbatim_token+chapter_route:ch03"}, {"md_atom_id": "md_ch03_a043", "md_file": "knowledge_base/chapters/ch03_submitting_data.md", "md_atom_type": "TABLE_ROW", "md_parent_section": "§3.2.1 [Dataset-level Metadata]", "md_verbatim": "| MH | Medical History | Events | One record per medical history event per subject | Tabulation | STUDYID, USUBJID, MHDECOD | mh.xpt |", "score": 0.103, "match_basis": "verbatim_token+chapter_route:ch03"}, {"md_atom_id": "md_ch03_a039", "md_file": "knowledge_base/chapters/ch03_submitting_data.md", "md_atom_type": "TABLE_ROW", "md_parent_section": "§3.2.1 [Dataset-level Metadata]", "md_verbatim": "| CE | Clinical Events | Events | One record per event per subject | Tabulation | STUDYID, USUBJID, CETERM, CESTDTC | ce.xpt |", "score": 0.1028, "match_basis": "verbatim_token+chapter_route:ch03"}, {"md_atom_id": "md_ch03_a079", "md_file": "knowledge_base/chapters/ch03_submitting_data.md", "md_atom_type": "TABLE_ROW", "md_parent_section": "§3.2.1 [Dataset-level Metadata]", "md_verbatim": "| TI | Trial Inclusion/Exclusion Criteria | Trial Design | One record per I/E criterion | Tabulation | STUDYID, IETESTCD | ti.xpt |", "score": 0.1028, "match_basis": "verbatim_token+chapter_route:ch03"}], "candidate_count": 10, "zero_candidate": false}
{"pdf_atom_id": "ig34_p0018_a034", "pdf_atom_type": "TABLE_ROW", "pdf_source": "SDTMIG_v3.4", "pdf_page": 18, "pdf_parent_section": "§3.2.1 Dataset-level Metadata", "pdf_verbatim": "EG | ECG Test Results | Findings | One record per ECG observation per replicate per time point or one record per ECG observation per beat per visit per subject | Tabulation | STUDYID, USUBJID, EGTESTCD, VISITNUM, EGTPTREF, EGTPTNUM | eg.xpt", "figure_ref": null, "candidates": [{"md_atom_id": "md_ch03_a049", "md_file": "knowledge_base/chapters/ch03_submitting_data.md", "md_atom_type": "TABLE_ROW", "md_parent_section": "§3.2.1 [Dataset-level Metadata]", "md_verbatim": "| EG | ECG Test Results | Findings | One record per ECG observation per replicate per time point or one record per ECG observation per beat per visit per subject | Tabulation | STUDYID, USUBJID, EGTESTCD, VISITNUM, EGTPTREF, EGTPTNUM, EGREPNUM | eg.xpt |", "score": 0.8707, "match_basis": "verbatim_token+chapter_route:ch03"}, {"md_atom_id": "md_ch03_a054", "md_file": "knowledge_base/chapters/ch03_submitting_data.md", "md_atom_type": "TABLE_ROW", "md_parent_section": "§3.2.1 [Dataset-level Metadata]", "md_verbatim": "| LB | Laboratory Test Results | Findings | One record per lab test per time point per visit per subject | Tabulation | STUDYID, USUBJID, LBTESTCD, LBSPEC, VISITNUM, LBTPTREF, LBTPTNUM | lb.xpt |", "score": 0.6806, "match_basis": "verbatim_token+chapter_route:ch03"}, {"md_atom_id": "md_ch03_a050", "md_file": "knowledge_base/chapters/ch03_submitting_data.md", "md_atom_type": "TABLE_ROW", "md_parent_section": "§3.2.1 [Dataset-level Metadata]", "md_verbatim": "| FT | Functional Tests | Findings | One record per Functional Test finding per time point per visit per subject | Tabulation | STUDYID, USUBJID, FTTESTCD, VISITNUM, FTTPTREF, FTTPTNUM | ft.xpt |", "score": 0.6682, "match_basis": "verbatim_token+chapter_route:ch03"}, {"md_atom_id": "md_ch03_a046", "md_file": "knowledge_base/chapters/ch03_submitting_data.md", "md_atom_type": "TABLE_ROW", "md_parent_section": "§3.2.1 [Dataset-level Metadata]", "md_verbatim": "| CV | Cardiovascular System Findings | Findings | One record per finding or result per time point per visit per subject | Tabulation | STUDYID, USUBJID, VISITNUM, CVTESTCD, CVTPTREF, CVTPTNUM | cv.xpt |", "score": 0.6625, "match_basis": "verbatim_token+chapter_route:ch03"}, {"md_atom_id": "md_ch03_a074", "md_file": "knowledge_base/chapters/ch03_submitting_data.md", "md_atom_type": "TABLE_ROW", "md_parent_section": "§3.2.1 [Dataset-level Metadata]", "md_verbatim": "| FA | Findings About Events or Interventions | Findings About | One record per finding, per object, per time point, per visit per subject | Tabulation | STUDYID, USUBJID, FATESTCD, FAOBJ, VISITNUM, FATPTREF, FATPTNUM | fa.xpt |", "score": 0.6537, "match_basis": "verbatim_token+chapter_route:ch03"}], "candidate_count": 5, "zero_candidate": false}
{"pdf_atom_id": "ig34_p0018_a035", "pdf_atom_type": "CODE_LITERAL", "pdf_source": "SDTMIG_v3.4", "pdf_page": 18, "pdf_parent_section": "§3.2.1 Dataset-level Metadata", "pdf_verbatim": "eg.xpt", "figure_ref": null, "candidates": [{"md_atom_id": "md_ch03_a082", "md_file": "knowledge_base/chapters/ch03_submitting_data.md", "md_atom_type": "TABLE_ROW", "md_parent_section": "§3.2.1 [Dataset-level Metadata]", "md_verbatim": "| TV | Trial Visits | Trial Design | One record per planned Visit per Arm | Tabulation | STUDYID, ARM, VISIT | tv.xpt |", "score": 0.1062, "match_basis": "verbatim_token+chapter_route:ch03"}, {"md_atom_id": "md_ch03_a078", "md_file": "knowledge_base/chapters/ch03_submitting_data.md", "md_atom_type": "TABLE_ROW", "md_parent_section": "§3.2.1 [Dataset-level Metadata]", "md_verbatim": "| TE | Trial Elements | Trial Design | One record per planned Element | Tabulation | STUDYID, ETCD | te.xpt |", "score": 0.105, "match_basis": "verbatim_token+chapter_route:ch03"}, {"md_atom_id": "md_ch03_a088", "md_file": "knowledge_base/chapters/ch03_submitting_data.md", "md_atom_type": "SENTENCE", "md_parent_section": "§3.2.1 [Dataset-level Metadata]", "md_verbatim": "Separate Supplemental Qualifier datasets of the form supp--.xpt are required.", "score": 0.105, "match_basis": "verbatim_token+chapter_route:ch03"}, {"md_atom_id": "md_ch03_a085", "md_file": "knowledge_base/chapters/ch03_submitting_data.md", "md_atom_type": "TABLE_ROW", "md_parent_section": "§3.2.1 [Dataset-level Metadata]", "md_verbatim": "| RELSUB | Related Subjects | Relationship | One record per relationship per related subject per subject | Tabulation | STUDYID, USUBJID, RSUBJID, SREL | relsub.xpt |", "score": 0.1046, "match_basis": "verbatim_token+chapter_route:ch03"}, {"md_atom_id": "md_ch03_a076", "md_file": "knowledge_base/chapters/ch03_submitting_data.md", "md_atom_type": "TABLE_ROW", "md_parent_section": "§3.2.1 [Dataset-level Metadata]", "md_verbatim": "| TA | Trial Arms | Trial Design | One record per planned Element per Arm | Tabulation | STUDYID, ARMCD, TAETORD | ta.xpt |", "score": 0.1033, "match_basis": "verbatim_token+chapter_route:ch03"}, {"md_atom_id": "md_ch03_a080", "md_file": "knowledge_base/chapters/ch03_submitting_data.md", "md_atom_type": "TABLE_ROW", "md_parent_section": "§3.2.1 [Dataset-level Metadata]", "md_verbatim": "| TM | Trial Disease Milestones | Trial Design | One record per Disease Milestone type | Tabulation | STUDYID, MIDSTYPE | tm.xpt |", "score": 0.1033, "match_basis": "verbatim_token+chapter_route:ch03"}, {"md_atom_id": "md_ch03_a037", "md_file": "knowledge_base/chapters/ch03_submitting_data.md", "md_atom_type": "TABLE_ROW", "md_parent_section": "§3.2.1 [Dataset-level Metadata]", "md_verbatim": "| AE | Adverse Events | Events | One record per adverse event per subject | Tabulation | STUDYID, USUBJID, AEDECOD, AESTDTC | ae.xpt |", "score": 0.103, "match_basis": "verbatim_token+chapter_route:ch03"}, {"md_atom_id": "md_ch03_a043", "md_file": "knowledge_base/chapters/ch03_submitting_data.md", "md_atom_type": "TABLE_ROW", "md_parent_section": "§3.2.1 [Dataset-level Metadata]", "md_verbatim": "| MH | Medical History | Events | One record per medical history event per subject | Tabulation | STUDYID, USUBJID, MHDECOD | mh.xpt |", "score": 0.103, "match_basis": "verbatim_token+chapter_route:ch03"}, {"md_atom_id": "md_ch03_a039", "md_file": "knowledge_base/chapters/ch03_submitting_data.md", "md_atom_type": "TABLE_ROW", "md_parent_section": "§3.2.1 [Dataset-level Metadata]", "md_verbatim": "| CE | Clinical Events | Events | One record per event per subject | Tabulation | STUDYID, USUBJID, CETERM, CESTDTC | ce.xpt |", "score": 0.1028, "match_basis": "verbatim_token+chapter_route:ch03"}, {"md_atom_id": "md_ch03_a079", "md_file": "knowledge_base/chapters/ch03_submitting_data.md", "md_atom_type": "TABLE_ROW", "md_parent_section": "§3.2.1 [Dataset-level Metadata]", "md_verbatim": "| TI | Trial Inclusion/Exclusion Criteria | Trial Design | One record per I/E criterion | Tabulation | STUDYID, IETESTCD | ti.xpt |", "score": 0.1028, "match_basis": "verbatim_token+chapter_route:ch03"}], "candidate_count": 10, "zero_candidate": false}
{"pdf_atom_id": "ig34_p0018_a036", "pdf_atom_type": "TABLE_ROW", "pdf_source": "SDTMIG_v3.4", "pdf_page": 18, "pdf_parent_section": "§3.2.1 Dataset-level Metadata", "pdf_verbatim": "FT | Functional Tests | Findings | One record per Functional Test finding per time point per visit per subject | Tabulation | STUDYID, USUBJID, TESTCD, VISITNUM, FTTPTREF, FTTPTNUM | ft.xpt", "figure_ref": null, "candidates": [{"md_atom_id": "md_ch03_a050", "md_file": "knowledge_base/chapters/ch03_submitting_data.md", "md_atom_type": "TABLE_ROW", "md_parent_section": "§3.2.1 [Dataset-level Metadata]", "md_verbatim": "| FT | Functional Tests | Findings | One record per Functional Test finding per time point per visit per subject | Tabulation | STUDYID, USUBJID, FTTESTCD, VISITNUM, FTTPTREF, FTTPTNUM | ft.xpt |", "score": 0.8906, "match_basis": "verbatim_token+chapter_route:ch03"}, {"md_atom_id": "md_ch03_a075", "md_file": "knowledge_base/chapters/ch03_submitting_data.md", "md_atom_type": "TABLE_ROW", "md_parent_section": "§3.2.1 [Dataset-level Metadata]", "md_verbatim": "| SR | Skin Response | Findings About | One record per finding, per object, per time point, per visit per subject | Tabulation | STUDYID, USUBJID, SRTESTCD, SROBJ, VISITNUM, SRTPTREF, SRTPTNUM | sr.xpt |", "score": 0.705, "match_basis": "verbatim_token+chapter_route:ch03"}, {"md_atom_id": "md_ch03_a055", "md_file": "knowledge_base/chapters/ch03_submitting_data.md", "md_atom_type": "TABLE_ROW", "md_parent_section": "§3.2.1 [Dataset-level Metadata]", "md_verbatim": "| MB | Microbiology Specimen | Findings | One record per microbiology specimen finding per time point per visit per subject | Tabulation | STUDYID, USUBJID, MBTESTCD, VISITNUM, MBTPTREF, MBTPTNUM | mb.xpt |", "score": 0.7, "match_basis": "verbatim_token+chapter_route:ch03"}, {"md_atom_id": "md_ch03_a073", "md_file": "knowledge_base/chapters/ch03_submitting_data.md", "md_atom_type": "TABLE_ROW", "md_parent_section": "§3.2.1 [Dataset-level Metadata]", "md_verbatim": "| VS | Vital Signs | Findings | One record per vital sign measurement per time point per visit per subject | Tabulation | STUDYID, USUBJID, VSTESTCD, VISITNUM, VSTPTREF, VSTPTNUM | vs.xpt |", "score": 0.7, "match_basis": "verbatim_token+chapter_route:ch03"}, {"md_atom_id": "md_ch03_a074", "md_file": "knowledge_base/chapters/ch03_submitting_data.md", "md_atom_type": "TABLE_ROW", "md_parent_section": "§3.2.1 [Dataset-level Metadata]", "md_verbatim": "| FA | Findings About Events or Interventions | Findings About | One record per finding, per object, per time point, per visit per subject | Tabulation | STUDYID, USUBJID, FATESTCD, FAOBJ, VISITNUM, FATPTREF, FATPTNUM | fa.xpt |", "score": 0.6951, "match_basis": "verbatim_token+chapter_route:ch03"}], "candidate_count": 5, "zero_candidate": false}
{"pdf_atom_id": "ig34_p0018_a037", "pdf_atom_type": "CODE_LITERAL", "pdf_source": "SDTMIG_v3.4", "pdf_page": 18, "pdf_parent_section": "§3.2.1 Dataset-level Metadata", "pdf_verbatim": "ft.xpt", "figure_ref": null, "candidates": [{"md_atom_id": "md_ch03_a082", "md_file": "knowledge_base/chapters/ch03_submitting_data.md", "md_atom_type": "TABLE_ROW", "md_parent_section": "§3.2.1 [Dataset-level Metadata]", "md_verbatim": "| TV | Trial Visits | Trial Design | One record per planned Visit per Arm | Tabulation | STUDYID, ARM, VISIT | tv.xpt |", "score": 0.1062, "match_basis": "verbatim_token+chapter_route:ch03"}, {"md_atom_id": "md_ch03_a078", "md_file": "knowledge_base/chapters/ch03_submitting_data.md", "md_atom_type": "TABLE_ROW", "md_parent_section": "§3.2.1 [Dataset-level Metadata]", "md_verbatim": "| TE | Trial Elements | Trial Design | One record per planned Element | Tabulation | STUDYID, ETCD | te.xpt |", "score": 0.105, "match_basis": "verbatim_token+chapter_route:ch03"}, {"md_atom_id": "md_ch03_a088", "md_file": "knowledge_base/chapters/ch03_submitting_data.md", "md_atom_type": "SENTENCE", "md_parent_section": "§3.2.1 [Dataset-level Metadata]", "md_verbatim": "Separate Supplemental Qualifier datasets of the form supp--.xpt are required.", "score": 0.105, "match_basis": "verbatim_token+chapter_route:ch03"}, {"md_atom_id": "md_ch03_a085", "md_file": "knowledge_base/chapters/ch03_submitting_data.md", "md_atom_type": "TABLE_ROW", "md_parent_section": "§3.2.1 [Dataset-level Metadata]", "md_verbatim": "| RELSUB | Related Subjects | Relationship | One record per relationship per related subject per subject | Tabulation | STUDYID, USUBJID, RSUBJID, SREL | relsub.xpt |", "score": 0.1046, "match_basis": "verbatim_token+chapter_route:ch03"}, {"md_atom_id": "md_ch03_a076", "md_file": "knowledge_base/chapters/ch03_submitting_data.md", "md_atom_type": "TABLE_ROW", "md_parent_section": "§3.2.1 [Dataset-level Metadata]", "md_verbatim": "| TA | Trial Arms | Trial Design | One record per planned Element per Arm | Tabulation | STUDYID, ARMCD, TAETORD | ta.xpt |", "score": 0.1033, "match_basis": "verbatim_token+chapter_route:ch03"}, {"md_atom_id": "md_ch03_a080", "md_file": "knowledge_base/chapters/ch03_submitting_data.md", "md_atom_type": "TABLE_ROW", "md_parent_section": "§3.2.1 [Dataset-level Metadata]", "md_verbatim": "| TM | Trial Disease Milestones | Trial Design | One record per Disease Milestone type | Tabulation | STUDYID, MIDSTYPE | tm.xpt |", "score": 0.1033, "match_basis": "verbatim_token+chapter_route:ch03"}, {"md_atom_id": "md_ch03_a037", "md_file": "knowledge_base/chapters/ch03_submitting_data.md", "md_atom_type": "TABLE_ROW", "md_parent_section": "§3.2.1 [Dataset-level Metadata]", "md_verbatim": "| AE | Adverse Events | Events | One record per adverse event per subject | Tabulation | STUDYID, USUBJID, AEDECOD, AESTDTC | ae.xpt |", "score": 0.103, "match_basis": "verbatim_token+chapter_route:ch03"}, {"md_atom_id": "md_ch03_a043", "md_file": "knowledge_base/chapters/ch03_submitting_data.md", "md_atom_type": "TABLE_ROW", "md_parent_section": "§3.2.1 [Dataset-level Metadata]", "md_verbatim": "| MH | Medical History | Events | One record per medical history event per subject | Tabulation | STUDYID, USUBJID, MHDECOD | mh.xpt |", "score": 0.103, "match_basis": "verbatim_token+chapter_route:ch03"}, {"md_atom_id": "md_ch03_a039", "md_file": "knowledge_base/chapters/ch03_submitting_data.md", "md_atom_type": "TABLE_ROW", "md_parent_section": "§3.2.1 [Dataset-level Metadata]", "md_verbatim": "| CE | Clinical Events | Events | One record per event per subject | Tabulation | STUDYID, USUBJID, CETERM, CESTDTC | ce.xpt |", "score": 0.1028, "match_basis": "verbatim_token+chapter_route:ch03"}, {"md_atom_id": "md_ch03_a079", "md_file": "knowledge_base/chapters/ch03_submitting_data.md", "md_atom_type": "TABLE_ROW", "md_parent_section": "§3.2.1 [Dataset-level Metadata]", "md_verbatim": "| TI | Trial Inclusion/Exclusion Criteria | Trial Design | One record per I/E criterion | Tabulation | STUDYID, IETESTCD | ti.xpt |", "score": 0.1028, "match_basis": "verbatim_token+chapter_route:ch03"}], "candidate_count": 10, "zero_candidate": false}
{"pdf_atom_id": "ig34_p0018_a038", "pdf_atom_type": "TABLE_ROW", "pdf_source": "SDTMIG_v3.4", "pdf_page": 18, "pdf_parent_section": "§3.2.1 Dataset-level Metadata", "pdf_verbatim": "GF | Genomics Findings | Findings | One record per finding per observation per biospecimen per subject | Tabulation | STUDYID, USUBJID, GFTESTCD, GFSPEC, VISITNUM, GFTPTREF, GFTPTNUM | gf.xpt", "figure_ref": null, "candidates": [{"md_atom_id": "md_ch03_a051", "md_file": "knowledge_base/chapters/ch03_submitting_data.md", "md_atom_type": "TABLE_ROW", "md_parent_section": "§3.2.1 [Dataset-level Metadata]", "md_verbatim": "| GF | Genomics Findings | Findings | One record per finding per observation per biospecimen per subject | Tabulation | STUDYID, USUBJID, GFTESTCD, GFSPEC, VISITNUM, GFTPTREF, GFTPTNUM | gf.xpt |", "score": 0.9, "match_basis": "verbatim_token+chapter_route:ch03"}, {"md_atom_id": "md_ch03_a055", "md_file": "knowledge_base/chapters/ch03_submitting_data.md", "md_atom_type": "TABLE_ROW", "md_parent_section": "§3.2.1 [Dataset-level Metadata]", "md_verbatim": "| MB | Microbiology Specimen | Findings | One record per microbiology specimen finding per time point per visit per subject | Tabulation | STUDYID, USUBJID, MBTESTCD, VISITNUM, MBTPTREF, MBTPTNUM | mb.xpt |", "score": 0.68, "match_basis": "verbatim_token+chapter_route:ch03"}, {"md_atom_id": "md_ch03_a045", "md_file": "knowledge_base/chapters/ch03_submitting_data.md", "md_atom_type": "TABLE_ROW", "md_parent_section": "§3.2.1 [Dataset-level Metadata]", "md_verbatim": "| CP | Cell Phenotype Findings | Findings | One record per test per specimen per timepoint per visit per subject | Tabulation | STUDYID, USUBJID, CPTESTCD, CPSPEC, VISITNUM, CPTPTREF, CPTPTNUM | cp.xpt |", "score": 0.6574, "match_basis": "verbatim_token+chapter_route:ch03"}, {"md_atom_id": "md_ch03_a050", "md_file": "knowledge_base/chapters/ch03_submitting_data.md", "md_atom_type": "TABLE_ROW", "md_parent_section": "§3.2.1 [Dataset-level Metadata]", "md_verbatim": "| FT | Functional Tests | Findings | One record per Functional Test finding per time point per visit per subject | Tabulation | STUDYID, USUBJID, FTTESTCD, VISITNUM, FTTPTREF, FTTPTNUM | ft.xpt |", "score": 0.6371, "match_basis": "verbatim_token+chapter_route:ch03"}, {"md_atom_id": "md_ch03_a049", "md_file": "knowledge_base/chapters/ch03_submitting_data.md", "md_atom_type": "TABLE_ROW", "md_parent_section": "§3.2.1 [Dataset-level Metadata]", "md_verbatim": "| EG | ECG Test Results | Findings | One record per ECG observation per replicate per time point or one record per ECG observation per beat per visit per subject | Tabulation | STUDYID, USUBJID, EGTESTCD, VISITNUM, EGTPTREF, EGTPTNUM, EGREPNUM | eg.xpt |", "score": 0.6327, "match_basis": "verbatim_token+chapter_route:ch03"}], "candidate_count": 5, "zero_candidate": false}
{"pdf_atom_id": "ig34_p0018_a039", "pdf_atom_type": "CODE_LITERAL", "pdf_source": "SDTMIG_v3.4", "pdf_page": 18, "pdf_parent_section": "§3.2.1 Dataset-level Metadata", "pdf_verbatim": "gf.xpt", "figure_ref": null, "candidates": [{"md_atom_id": "md_ch03_a082", "md_file": "knowledge_base/chapters/ch03_submitting_data.md", "md_atom_type": "TABLE_ROW", "md_parent_section": "§3.2.1 [Dataset-level Metadata]", "md_verbatim": "| TV | Trial Visits | Trial Design | One record per planned Visit per Arm | Tabulation | STUDYID, ARM, VISIT | tv.xpt |", "score": 0.1062, "match_basis": "verbatim_token+chapter_route:ch03"}, {"md_atom_id": "md_ch03_a078", "md_file": "knowledge_base/chapters/ch03_submitting_data.md", "md_atom_type": "TABLE_ROW", "md_parent_section": "§3.2.1 [Dataset-level Metadata]", "md_verbatim": "| TE | Trial Elements | Trial Design | One record per planned Element | Tabulation | STUDYID, ETCD | te.xpt |", "score": 0.105, "match_basis": "verbatim_token+chapter_route:ch03"}, {"md_atom_id": "md_ch03_a088", "md_file": "knowledge_base/chapters/ch03_submitting_data.md", "md_atom_type": "SENTENCE", "md_parent_section": "§3.2.1 [Dataset-level Metadata]", "md_verbatim": "Separate Supplemental Qualifier datasets of the form supp--.xpt are required.", "score": 0.105, "match_basis": "verbatim_token+chapter_route:ch03"}, {"md_atom_id": "md_ch03_a085", "md_file": "knowledge_base/chapters/ch03_submitting_data.md", "md_atom_type": "TABLE_ROW", "md_parent_section": "§3.2.1 [Dataset-level Metadata]", "md_verbatim": "| RELSUB | Related Subjects | Relationship | One record per relationship per related subject per subject | Tabulation | STUDYID, USUBJID, RSUBJID, SREL | relsub.xpt |", "score": 0.1046, "match_basis": "verbatim_token+chapter_route:ch03"}, {"md_atom_id": "md_ch03_a076", "md_file": "knowledge_base/chapters/ch03_submitting_data.md", "md_atom_type": "TABLE_ROW", "md_parent_section": "§3.2.1 [Dataset-level Metadata]", "md_verbatim": "| TA | Trial Arms | Trial Design | One record per planned Element per Arm | Tabulation | STUDYID, ARMCD, TAETORD | ta.xpt |", "score": 0.1033, "match_basis": "verbatim_token+chapter_route:ch03"}, {"md_atom_id": "md_ch03_a080", "md_file": "knowledge_base/chapters/ch03_submitting_data.md", "md_atom_type": "TABLE_ROW", "md_parent_section": "§3.2.1 [Dataset-level Metadata]", "md_verbatim": "| TM | Trial Disease Milestones | Trial Design | One record per Disease Milestone type | Tabulation | STUDYID, MIDSTYPE | tm.xpt |", "score": 0.1033, "match_basis": "verbatim_token+chapter_route:ch03"}, {"md_atom_id": "md_ch03_a037", "md_file": "knowledge_base/chapters/ch03_submitting_data.md", "md_atom_type": "TABLE_ROW", "md_parent_section": "§3.2.1 [Dataset-level Metadata]", "md_verbatim": "| AE | Adverse Events | Events | One record per adverse event per subject | Tabulation | STUDYID, USUBJID, AEDECOD, AESTDTC | ae.xpt |", "score": 0.103, "match_basis": "verbatim_token+chapter_route:ch03"}, {"md_atom_id": "md_ch03_a043", "md_file": "knowledge_base/chapters/ch03_submitting_data.md", "md_atom_type": "TABLE_ROW", "md_parent_section": "§3.2.1 [Dataset-level Metadata]", "md_verbatim": "| MH | Medical History | Events | One record per medical history event per subject | Tabulation | STUDYID, USUBJID, MHDECOD | mh.xpt |", "score": 0.103, "match_basis": "verbatim_token+chapter_route:ch03"}, {"md_atom_id": "md_ch03_a039", "md_file": "knowledge_base/chapters/ch03_submitting_data.md", "md_atom_type": "TABLE_ROW", "md_parent_section": "§3.2.1 [Dataset-level Metadata]", "md_verbatim": "| CE | Clinical Events | Events | One record per event per subject | Tabulation | STUDYID, USUBJID, CETERM, CESTDTC | ce.xpt |", "score": 0.1028, "match_basis": "verbatim_token+chapter_route:ch03"}, {"md_atom_id": "md_ch03_a079", "md_file": "knowledge_base/chapters/ch03_submitting_data.md", "md_atom_type": "TABLE_ROW", "md_parent_section": "§3.2.1 [Dataset-level Metadata]", "md_verbatim": "| TI | Trial Inclusion/Exclusion Criteria | Trial Design | One record per I/E criterion | Tabulation | STUDYID, IETESTCD | ti.xpt |", "score": 0.1028, "match_basis": "verbatim_token+chapter_route:ch03"}], "candidate_count": 10, "zero_candidate": false}
{"pdf_atom_id": "ig34_p0018_a040", "pdf_atom_type": "TABLE_ROW", "pdf_source": "SDTMIG_v3.4", "pdf_page": 18, "pdf_parent_section": "§3.2.1 Dataset-level Metadata", "pdf_verbatim": "IE | Inclusion/Exclusion Criteria Not Met | Findings | One record per inclusion/exclusion criterion not met per subject | Tabulation | STUDYID, USUBJID, IETESTCD | ie.xpt", "figure_ref": null, "candidates": [{"md_atom_id": "md_ch03_a052", "md_file": "knowledge_base/chapters/ch03_submitting_data.md", "md_atom_type": "TABLE_ROW", "md_parent_section": "§3.2.1 [Dataset-level Metadata]", "md_verbatim": "| IE | Inclusion/Exclusion Criteria Not Met | Findings | One record per inclusion/exclusion criterion not met per subject | Tabulation | STUDYID, USUBJID, IETESTCD | ie.xpt |", "score": 0.9, "match_basis": "verbatim_token+chapter_route:ch03"}, {"md_atom_id": "md_ch03_a079", "md_file": "knowledge_base/chapters/ch03_submitting_data.md", "md_atom_type": "TABLE_ROW", "md_parent_section": "§3.2.1 [Dataset-level Metadata]", "md_verbatim": "| TI | Trial Inclusion/Exclusion Criteria | Trial Design | One record per I/E criterion | Tabulation | STUDYID, IETESTCD | ti.xpt |", "score": 0.6905, "match_basis": "verbatim_token+chapter_route:ch03"}, {"md_atom_id": "md_ch03_a048", "md_file": "knowledge_base/chapters/ch03_submitting_data.md", "md_atom_type": "TABLE_ROW", "md_parent_section": "§3.2.1 [Dataset-level Metadata]", "md_verbatim": "| DD | Death Details | Findings | One record per finding per subject | Tabulation | STUDYID, USUBJID, DDTESTCD, DDDTC | dd.xpt |", "score": 0.6304, "match_basis": "verbatim_token+chapter_route:ch03"}, {"md_atom_id": "md_ch03_a069", "md_file": "knowledge_base/chapters/ch03_submitting_data.md", "md_atom_type": "TABLE_ROW", "md_parent_section": "§3.2.1 [Dataset-level Metadata]", "md_verbatim": "| SS | Subject Status | Findings | One record per status per visit per subject | Tabulation | STUDYID, USUBJID, SSTESTCD, VISITNUM | ss.xpt |", "score": 0.6304, "match_basis": "verbatim_token+chapter_route:ch03"}, {"md_atom_id": "md_ch03_a068", "md_file": "knowledge_base/chapters/ch03_submitting_data.md", "md_atom_type": "TABLE_ROW", "md_parent_section": "§3.2.1 [Dataset-level Metadata]", "md_verbatim": "| SC | Subject Characteristics | Findings | One record per characteristic per visit per subject. | Tabulation | STUDYID, USUBJID, SCTESTCD, VISITNUM | sc.xpt |", "score": 0.62, "match_basis": "verbatim_token+chapter_route:ch03"}], "candidate_count": 5, "zero_candidate": false}
{"pdf_atom_id": "ig34_p0018_a041", "pdf_atom_type": "CODE_LITERAL", "pdf_source": "SDTMIG_v3.4", "pdf_page": 18, "pdf_parent_section": "§3.2.1 Dataset-level Metadata", "pdf_verbatim": "ie.xpt", "figure_ref": null, "candidates": [{"md_atom_id": "md_ch03_a082", "md_file": "knowledge_base/chapters/ch03_submitting_data.md", "md_atom_type": "TABLE_ROW", "md_parent_section": "§3.2.1 [Dataset-level Metadata]", "md_verbatim": "| TV | Trial Visits | Trial Design | One record per planned Visit per Arm | Tabulation | STUDYID, ARM, VISIT | tv.xpt |", "score": 0.1062, "match_basis": "verbatim_token+chapter_route:ch03"}, {"md_atom_id": "md_ch03_a078", "md_file": "knowledge_base/chapters/ch03_submitting_data.md", "md_atom_type": "TABLE_ROW", "md_parent_section": "§3.2.1 [Dataset-level Metadata]", "md_verbatim": "| TE | Trial Elements | Trial Design | One record per planned Element | Tabulation | STUDYID, ETCD | te.xpt |", "score": 0.105, "match_basis": "verbatim_token+chapter_route:ch03"}, {"md_atom_id": "md_ch03_a088", "md_file": "knowledge_base/chapters/ch03_submitting_data.md", "md_atom_type": "SENTENCE", "md_parent_section": "§3.2.1 [Dataset-level Metadata]", "md_verbatim": "Separate Supplemental Qualifier datasets of the form supp--.xpt are required.", "score": 0.105, "match_basis": "verbatim_token+chapter_route:ch03"}, {"md_atom_id": "md_ch03_a085", "md_file": "knowledge_base/chapters/ch03_submitting_data.md", "md_atom_type": "TABLE_ROW", "md_parent_section": "§3.2.1 [Dataset-level Metadata]", "md_verbatim": "| RELSUB | Related Subjects | Relationship | One record per relationship per related subject per subject | Tabulation | STUDYID, USUBJID, RSUBJID, SREL | relsub.xpt |", "score": 0.1046, "match_basis": "verbatim_token+chapter_route:ch03"}, {"md_atom_id": "md_ch03_a076", "md_file": "knowledge_base/chapters/ch03_submitting_data.md", "md_atom_type": "TABLE_ROW", "md_parent_section": "§3.2.1 [Dataset-level Metadata]", "md_verbatim": "| TA | Trial Arms | Trial Design | One record per planned Element per Arm | Tabulation | STUDYID, ARMCD, TAETORD | ta.xpt |", "score": 0.1033, "match_basis": "verbatim_token+chapter_route:ch03"}, {"md_atom_id": "md_ch03_a080", "md_file": "knowledge_base/chapters/ch03_submitting_data.md", "md_atom_type": "TABLE_ROW", "md_parent_section": "§3.2.1 [Dataset-level Metadata]", "md_verbatim": "| TM | Trial Disease Milestones | Trial Design | One record per Disease Milestone type | Tabulation | STUDYID, MIDSTYPE | tm.xpt |", "score": 0.1033, "match_basis": "verbatim_token+chapter_route:ch03"}, {"md_atom_id": "md_ch03_a037", "md_file": "knowledge_base/chapters/ch03_submitting_data.md", "md_atom_type": "TABLE_ROW", "md_parent_section": "§3.2.1 [Dataset-level Metadata]", "md_verbatim": "| AE | Adverse Events | Events | One record per adverse event per subject | Tabulation | STUDYID, USUBJID, AEDECOD, AESTDTC | ae.xpt |", "score": 0.103, "match_basis": "verbatim_token+chapter_route:ch03"}, {"md_atom_id": "md_ch03_a043", "md_file": "knowledge_base/chapters/ch03_submitting_data.md", "md_atom_type": "TABLE_ROW", "md_parent_section": "§3.2.1 [Dataset-level Metadata]", "md_verbatim": "| MH | Medical History | Events | One record per medical history event per subject | Tabulation | STUDYID, USUBJID, MHDECOD | mh.xpt |", "score": 0.103, "match_basis": "verbatim_token+chapter_route:ch03"}, {"md_atom_id": "md_ch03_a039", "md_file": "knowledge_base/chapters/ch03_submitting_data.md", "md_atom_type": "TABLE_ROW", "md_parent_section": "§3.2.1 [Dataset-level Metadata]", "md_verbatim": "| CE | Clinical Events | Events | One record per event per subject | Tabulation | STUDYID, USUBJID, CETERM, CESTDTC | ce.xpt |", "score": 0.1028, "match_basis": "verbatim_token+chapter_route:ch03"}, {"md_atom_id": "md_ch03_a079", "md_file": "knowledge_base/chapters/ch03_submitting_data.md", "md_atom_type": "TABLE_ROW", "md_parent_section": "§3.2.1 [Dataset-level Metadata]", "md_verbatim": "| TI | Trial Inclusion/Exclusion Criteria | Trial Design | One record per I/E criterion | Tabulation | STUDYID, IETESTCD | ti.xpt |", "score": 0.1028, "match_basis": "verbatim_token+chapter_route:ch03"}], "candidate_count": 10, "zero_candidate": false}
{"pdf_atom_id": "ig34_p0018_a042", "pdf_atom_type": "TABLE_ROW", "pdf_source": "SDTMIG_v3.4", "pdf_page": 18, "pdf_parent_section": "§3.2.1 Dataset-level Metadata", "pdf_verbatim": "IS | Immunogenicity Specimen Assessments | Findings | One record per test per visit per subject | Tabulation | STUDYID, USUBJID, ISTESTCD, ISBDAGNT, ISSCMBCL, ISTSTOPO, VISITNUM | is.xpt", "figure_ref": null, "candidates": [{"md_atom_id": "md_ch03_a053", "md_file": "knowledge_base/chapters/ch03_submitting_data.md", "md_atom_type": "TABLE_ROW", "md_parent_section": "§3.2.1 [Dataset-level Metadata]", "md_verbatim": "| IS | Immunogenicity Specimen Assessments | Findings | One record per test per visit per subject | Tabulation | STUDYID, USUBJID, ISTESTCD, ISBDAGNT, ISSCMBDL, ISSTOPO, VISITNUM | is.xpt |", "score": 0.8543, "match_basis": "verbatim_token+chapter_route:ch03"}, {"md_atom_id": "md_ch03_a069", "md_file": "knowledge_base/chapters/ch03_submitting_data.md", "md_atom_type": "TABLE_ROW", "md_parent_section": "§3.2.1 [Dataset-level Metadata]", "md_verbatim": "| SS | Subject Status | Findings | One record per status per visit per subject | Tabulation | STUDYID, USUBJID, SSTESTCD, VISITNUM | ss.xpt |", "score": 0.5872, "match_basis": "verbatim_token+chapter_route:ch03"}, {"md_atom_id": "md_ch03_a057", "md_file": "knowledge_base/chapters/ch03_submitting_data.md", "md_atom_type": "TABLE_ROW", "md_parent_section": "§3.2.1 [Dataset-level Metadata]", "md_verbatim": "| MK | Musculoskeletal System Findings | Findings | One record per assessment per visit per subject | Tabulation | STUDYID, USUBJID, VISITNUM, MKTESTCD, MKLOC, MKLAT | mk.xpt |", "score": 0.5865, "match_basis": "verbatim_token+chapter_route:ch03"}, {"md_atom_id": "md_ch03_a051", "md_file": "knowledge_base/chapters/ch03_submitting_data.md", "md_atom_type": "TABLE_ROW", "md_parent_section": "§3.2.1 [Dataset-level Metadata]", "md_verbatim": "| GF | Genomics Findings | Findings | One record per finding per observation per biospecimen per subject | Tabulation | STUDYID, USUBJID, GFTESTCD, GFSPEC, VISITNUM, GFTPTREF, GFTPTNUM | gf.xpt |", "score": 0.5708, "match_basis": "verbatim_token+chapter_route:ch03"}, {"md_atom_id": "md_ch03_a055", "md_file": "knowledge_base/chapters/ch03_submitting_data.md", "md_atom_type": "TABLE_ROW", "md_parent_section": "§3.2.1 [Dataset-level Metadata]", "md_verbatim": "| MB | Microbiology Specimen | Findings | One record per microbiology specimen finding per time point per visit per subject | Tabulation | STUDYID, USUBJID, MBTESTCD, VISITNUM, MBTPTREF, MBTPTNUM | mb.xpt |", "score": 0.5703, "match_basis": "verbatim_token+chapter_route:ch03"}], "candidate_count": 5, "zero_candidate": false}
{"pdf_atom_id": "ig34_p0018_a043", "pdf_atom_type": "CODE_LITERAL", "pdf_source": "SDTMIG_v3.4", "pdf_page": 18, "pdf_parent_section": "§3.2.1 Dataset-level Metadata", "pdf_verbatim": "is.xpt", "figure_ref": null, "candidates": [{"md_atom_id": "md_ch03_a082", "md_file": "knowledge_base/chapters/ch03_submitting_data.md", "md_atom_type": "TABLE_ROW", "md_parent_section": "§3.2.1 [Dataset-level Metadata]", "md_verbatim": "| TV | Trial Visits | Trial Design | One record per planned Visit per Arm | Tabulation | STUDYID, ARM, VISIT | tv.xpt |", "score": 0.1062, "match_basis": "verbatim_token+chapter_route:ch03"}, {"md_atom_id": "md_ch03_a078", "md_file": "knowledge_base/chapters/ch03_submitting_data.md", "md_atom_type": "TABLE_ROW", "md_parent_section": "§3.2.1 [Dataset-level Metadata]", "md_verbatim": "| TE | Trial Elements | Trial Design | One record per planned Element | Tabulation | STUDYID, ETCD | te.xpt |", "score": 0.105, "match_basis": "verbatim_token+chapter_route:ch03"}, {"md_atom_id": "md_ch03_a088", "md_file": "knowledge_base/chapters/ch03_submitting_data.md", "md_atom_type": "SENTENCE", "md_parent_section": "§3.2.1 [Dataset-level Metadata]", "md_verbatim": "Separate Supplemental Qualifier datasets of the form supp--.xpt are required.", "score": 0.105, "match_basis": "verbatim_token+chapter_route:ch03"}, {"md_atom_id": "md_ch03_a085", "md_file": "knowledge_base/chapters/ch03_submitting_data.md", "md_atom_type": "TABLE_ROW", "md_parent_section": "§3.2.1 [Dataset-level Metadata]", "md_verbatim": "| RELSUB | Related Subjects | Relationship | One record per relationship per related subject per subject | Tabulation | STUDYID, USUBJID, RSUBJID, SREL | relsub.xpt |", "score": 0.1046, "match_basis": "verbatim_token+chapter_route:ch03"}, {"md_atom_id": "md_ch03_a076", "md_file": "knowledge_base/chapters/ch03_submitting_data.md", "md_atom_type": "TABLE_ROW", "md_parent_section": "§3.2.1 [Dataset-level Metadata]", "md_verbatim": "| TA | Trial Arms | Trial Design | One record per planned Element per Arm | Tabulation | STUDYID, ARMCD, TAETORD | ta.xpt |", "score": 0.1033, "match_basis": "verbatim_token+chapter_route:ch03"}, {"md_atom_id": "md_ch03_a080", "md_file": "knowledge_base/chapters/ch03_submitting_data.md", "md_atom_type": "TABLE_ROW", "md_parent_section": "§3.2.1 [Dataset-level Metadata]", "md_verbatim": "| TM | Trial Disease Milestones | Trial Design | One record per Disease Milestone type | Tabulation | STUDYID, MIDSTYPE | tm.xpt |", "score": 0.1033, "match_basis": "verbatim_token+chapter_route:ch03"}, {"md_atom_id": "md_ch03_a037", "md_file": "knowledge_base/chapters/ch03_submitting_data.md", "md_atom_type": "TABLE_ROW", "md_parent_section": "§3.2.1 [Dataset-level Metadata]", "md_verbatim": "| AE | Adverse Events | Events | One record per adverse event per subject | Tabulation | STUDYID, USUBJID, AEDECOD, AESTDTC | ae.xpt |", "score": 0.103, "match_basis": "verbatim_token+chapter_route:ch03"}, {"md_atom_id": "md_ch03_a043", "md_file": "knowledge_base/chapters/ch03_submitting_data.md", "md_atom_type": "TABLE_ROW", "md_parent_section": "§3.2.1 [Dataset-level Metadata]", "md_verbatim": "| MH | Medical History | Events | One record per medical history event per subject | Tabulation | STUDYID, USUBJID, MHDECOD | mh.xpt |", "score": 0.103, "match_basis": "verbatim_token+chapter_route:ch03"}, {"md_atom_id": "md_ch03_a039", "md_file": "knowledge_base/chapters/ch03_submitting_data.md", "md_atom_type": "TABLE_ROW", "md_parent_section": "§3.2.1 [Dataset-level Metadata]", "md_verbatim": "| CE | Clinical Events | Events | One record per event per subject | Tabulation | STUDYID, USUBJID, CETERM, CESTDTC | ce.xpt |", "score": 0.1028, "match_basis": "verbatim_token+chapter_route:ch03"}, {"md_atom_id": "md_ch03_a079", "md_file": "knowledge_base/chapters/ch03_submitting_data.md", "md_atom_type": "TABLE_ROW", "md_parent_section": "§3.2.1 [Dataset-level Metadata]", "md_verbatim": "| TI | Trial Inclusion/Exclusion Criteria | Trial Design | One record per I/E criterion | Tabulation | STUDYID, IETESTCD | ti.xpt |", "score": 0.1028, "match_basis": "verbatim_token+chapter_route:ch03"}], "candidate_count": 10, "zero_candidate": false}
{"pdf_atom_id": "ig34_p0018_a044", "pdf_atom_type": "TABLE_ROW", "pdf_source": "SDTMIG_v3.4", "pdf_page": 18, "pdf_parent_section": "§3.2.1 Dataset-level Metadata", "pdf_verbatim": "LB | Laboratory Test Results | Findings | One record per lab test per time point per visit per subject | Tabulation | STUDYID, USUBJID, LBTESTCD, LBSPEC, VISITNUM, LBTPTREF, LBTPTNUM | lb.xpt", "figure_ref": null, "candidates": [{"md_atom_id": "md_ch03_a054", "md_file": "knowledge_base/chapters/ch03_submitting_data.md", "md_atom_type": "TABLE_ROW", "md_parent_section": "§3.2.1 [Dataset-level Metadata]", "md_verbatim": "| LB | Laboratory Test Results | Findings | One record per lab test per time point per visit per subject | Tabulation | STUDYID, USUBJID, LBTESTCD, LBSPEC, VISITNUM, LBTPTREF, LBTPTNUM | lb.xpt |", "score": 0.9, "match_basis": "verbatim_token+chapter_route:ch03"}, {"md_atom_id": "md_ch03_a055", "md_file": "knowledge_base/chapters/ch03_submitting_data.md", "md_atom_type": "TABLE_ROW", "md_parent_section": "§3.2.1 [Dataset-level Metadata]", "md_verbatim": "| MB | Microbiology Specimen | Findings | One record per microbiology specimen finding per time point per visit per subject | Tabulation | STUDYID, USUBJID, MBTESTCD, VISITNUM, MBTPTREF, MBTPTNUM | mb.xpt |", "score": 0.6955, "match_basis": "verbatim_token+chapter_route:ch03"}, {"md_atom_id": "md_ch03_a065", "md_file": "knowledge_base/chapters/ch03_submitting_data.md", "md_atom_type": "TABLE_ROW", "md_parent_section": "§3.2.1 [Dataset-level Metadata]", "md_verbatim": "| RE | Respiratory System Findings | Findings | One record per finding or result per time point per visit per subject | Tabulation | STUDYID, USUBJID, VISITNUM, RETESTCD, RETPTNUM, REREPNUM | re.xpt |", "score": 0.6933, "match_basis": "verbatim_token+chapter_route:ch03"}, {"md_atom_id": "md_ch03_a050", "md_file": "knowledge_base/chapters/ch03_submitting_data.md", "md_atom_type": "TABLE_ROW", "md_parent_section": "§3.2.1 [Dataset-level Metadata]", "md_verbatim": "| FT | Functional Tests | Findings | One record per Functional Test finding per time point per visit per subject | Tabulation | STUDYID, USUBJID, FTTESTCD, VISITNUM, FTTPTREF, FTTPTNUM | ft.xpt |", "score": 0.6857, "match_basis": "verbatim_token+chapter_route:ch03"}, {"md_atom_id": "md_ch03_a046", "md_file": "knowledge_base/chapters/ch03_submitting_data.md", "md_atom_type": "TABLE_ROW", "md_parent_section": "§3.2.1 [Dataset-level Metadata]", "md_verbatim": "| CV | Cardiovascular System Findings | Findings | One record per finding or result per time point per visit per subject | Tabulation | STUDYID, USUBJID, VISITNUM, CVTESTCD, CVTPTREF, CVTPTNUM | cv.xpt |", "score": 0.6783, "match_basis": "verbatim_token+chapter_route:ch03"}], "candidate_count": 5, "zero_candidate": false}
{"pdf_atom_id": "ig34_p0018_a045", "pdf_atom_type": "CODE_LITERAL", "pdf_source": "SDTMIG_v3.4", "pdf_page": 18, "pdf_parent_section": "§3.2.1 Dataset-level Metadata", "pdf_verbatim": "lb.xpt", "figure_ref": null, "candidates": [{"md_atom_id": "md_ch03_a082", "md_file": "knowledge_base/chapters/ch03_submitting_data.md", "md_atom_type": "TABLE_ROW", "md_parent_section": "§3.2.1 [Dataset-level Metadata]", "md_verbatim": "| TV | Trial Visits | Trial Design | One record per planned Visit per Arm | Tabulation | STUDYID, ARM, VISIT | tv.xpt |", "score": 0.1062, "match_basis": "verbatim_token+chapter_route:ch03"}, {"md_atom_id": "md_ch03_a078", "md_file": "knowledge_base/chapters/ch03_submitting_data.md", "md_atom_type": "TABLE_ROW", "md_parent_section": "§3.2.1 [Dataset-level Metadata]", "md_verbatim": "| TE | Trial Elements | Trial Design | One record per planned Element | Tabulation | STUDYID, ETCD | te.xpt |", "score": 0.105, "match_basis": "verbatim_token+chapter_route:ch03"}, {"md_atom_id": "md_ch03_a088", "md_file": "knowledge_base/chapters/ch03_submitting_data.md", "md_atom_type": "SENTENCE", "md_parent_section": "§3.2.1 [Dataset-level Metadata]", "md_verbatim": "Separate Supplemental Qualifier datasets of the form supp--.xpt are required.", "score": 0.105, "match_basis": "verbatim_token+chapter_route:ch03"}, {"md_atom_id": "md_ch03_a085", "md_file": "knowledge_base/chapters/ch03_submitting_data.md", "md_atom_type": "TABLE_ROW", "md_parent_section": "§3.2.1 [Dataset-level Metadata]", "md_verbatim": "| RELSUB | Related Subjects | Relationship | One record per relationship per related subject per subject | Tabulation | STUDYID, USUBJID, RSUBJID, SREL | relsub.xpt |", "score": 0.1046, "match_basis": "verbatim_token+chapter_route:ch03"}, {"md_atom_id": "md_ch03_a076", "md_file": "knowledge_base/chapters/ch03_submitting_data.md", "md_atom_type": "TABLE_ROW", "md_parent_section": "§3.2.1 [Dataset-level Metadata]", "md_verbatim": "| TA | Trial Arms | Trial Design | One record per planned Element per Arm | Tabulation | STUDYID, ARMCD, TAETORD | ta.xpt |", "score": 0.1033, "match_basis": "verbatim_token+chapter_route:ch03"}, {"md_atom_id": "md_ch03_a080", "md_file": "knowledge_base/chapters/ch03_submitting_data.md", "md_atom_type": "TABLE_ROW", "md_parent_section": "§3.2.1 [Dataset-level Metadata]", "md_verbatim": "| TM | Trial Disease Milestones | Trial Design | One record per Disease Milestone type | Tabulation | STUDYID, MIDSTYPE | tm.xpt |", "score": 0.1033, "match_basis": "verbatim_token+chapter_route:ch03"}, {"md_atom_id": "md_ch03_a037", "md_file": "knowledge_base/chapters/ch03_submitting_data.md", "md_atom_type": "TABLE_ROW", "md_parent_section": "§3.2.1 [Dataset-level Metadata]", "md_verbatim": "| AE | Adverse Events | Events | One record per adverse event per subject | Tabulation | STUDYID, USUBJID, AEDECOD, AESTDTC | ae.xpt |", "score": 0.103, "match_basis": "verbatim_token+chapter_route:ch03"}, {"md_atom_id": "md_ch03_a043", "md_file": "knowledge_base/chapters/ch03_submitting_data.md", "md_atom_type": "TABLE_ROW", "md_parent_section": "§3.2.1 [Dataset-level Metadata]", "md_verbatim": "| MH | Medical History | Events | One record per medical history event per subject | Tabulation | STUDYID, USUBJID, MHDECOD | mh.xpt |", "score": 0.103, "match_basis": "verbatim_token+chapter_route:ch03"}, {"md_atom_id": "md_ch03_a039", "md_file": "knowledge_base/chapters/ch03_submitting_data.md", "md_atom_type": "TABLE_ROW", "md_parent_section": "§3.2.1 [Dataset-level Metadata]", "md_verbatim": "| CE | Clinical Events | Events | One record per event per subject | Tabulation | STUDYID, USUBJID, CETERM, CESTDTC | ce.xpt |", "score": 0.1028, "match_basis": "verbatim_token+chapter_route:ch03"}, {"md_atom_id": "md_ch03_a079", "md_file": "knowledge_base/chapters/ch03_submitting_data.md", "md_atom_type": "TABLE_ROW", "md_parent_section": "§3.2.1 [Dataset-level Metadata]", "md_verbatim": "| TI | Trial Inclusion/Exclusion Criteria | Trial Design | One record per I/E criterion | Tabulation | STUDYID, IETESTCD | ti.xpt |", "score": 0.1028, "match_basis": "verbatim_token+chapter_route:ch03"}], "candidate_count": 10, "zero_candidate": false}
{"pdf_atom_id": "ig34_p0018_a046", "pdf_atom_type": "TABLE_ROW", "pdf_source": "SDTMIG_v3.4", "pdf_page": 18, "pdf_parent_section": "§3.2.1 Dataset-level Metadata", "pdf_verbatim": "MB | Microbiology Specimen | Findings | One record per microbiology finding per time point per visit per subject | Tabulation | STUDYID, USUBJID, MBTESTCD, VISITNUM, MBTPTREF, MBTPTNUM | mb.xpt", "figure_ref": null, "candidates": [{"md_atom_id": "md_ch03_a055", "md_file": "knowledge_base/chapters/ch03_submitting_data.md", "md_atom_type": "TABLE_ROW", "md_parent_section": "§3.2.1 [Dataset-level Metadata]", "md_verbatim": "| MB | Microbiology Specimen | Findings | One record per microbiology specimen finding per time point per visit per subject | Tabulation | STUDYID, USUBJID, MBTESTCD, VISITNUM, MBTPTREF, MBTPTNUM | mb.xpt |", "score": 0.9, "match_basis": "verbatim_token+chapter_route:ch03"}, {"md_atom_id": "md_ch03_a045", "md_file": "knowledge_base/chapters/ch03_submitting_data.md", "md_atom_type": "TABLE_ROW", "md_parent_section": "§3.2.1 [Dataset-level Metadata]", "md_verbatim": "| CP | Cell Phenotype Findings | Findings | One record per test per specimen per timepoint per visit per subject | Tabulation | STUDYID, USUBJID, CPTESTCD, CPSPEC, VISITNUM, CPTPTREF, CPTPTNUM | cp.xpt |", "score": 0.7023, "match_basis": "verbatim_token+chapter_route:ch03"}, {"md_atom_id": "md_ch03_a054", "md_file": "knowledge_base/chapters/ch03_submitting_data.md", "md_atom_type": "TABLE_ROW", "md_parent_section": "§3.2.1 [Dataset-level Metadata]", "md_verbatim": "| LB | Laboratory Test Results | Findings | One record per lab test per time point per visit per subject | Tabulation | STUDYID, USUBJID, LBTESTCD, LBSPEC, VISITNUM, LBTPTREF, LBTPTNUM | lb.xpt |", "score": 0.6955, "match_basis": "verbatim_token+chapter_route:ch03"}, {"md_atom_id": "md_ch03_a050", "md_file": "knowledge_base/chapters/ch03_submitting_data.md", "md_atom_type": "TABLE_ROW", "md_parent_section": "§3.2.1 [Dataset-level Metadata]", "md_verbatim": "| FT | Functional Tests | Findings | One record per Functional Test finding per time point per visit per subject | Tabulation | STUDYID, USUBJID, FTTESTCD, VISITNUM, FTTPTREF, FTTPTNUM | ft.xpt |", "score": 0.6951, "match_basis": "verbatim_token+chapter_route:ch03"}, {"md_atom_id": "md_ch03_a051", "md_file": "knowledge_base/chapters/ch03_submitting_data.md", "md_atom_type": "TABLE_ROW", "md_parent_section": "§3.2.1 [Dataset-level Metadata]", "md_verbatim": "| GF | Genomics Findings | Findings | One record per finding per observation per biospecimen per subject | Tabulation | STUDYID, USUBJID, GFTESTCD, GFSPEC, VISITNUM, GFTPTREF, GFTPTNUM | gf.xpt |", "score": 0.68, "match_basis": "verbatim_token+chapter_route:ch03"}], "candidate_count": 5, "zero_candidate": false}
{"pdf_atom_id": "ig34_p0018_a047", "pdf_atom_type": "CODE_LITERAL", "pdf_source": "SDTMIG_v3.4", "pdf_page": 18, "pdf_parent_section": "§3.2.1 Dataset-level Metadata", "pdf_verbatim": "mb.xpt", "figure_ref": null, "candidates": [{"md_atom_id": "md_ch03_a082", "md_file": "knowledge_base/chapters/ch03_submitting_data.md", "md_atom_type": "TABLE_ROW", "md_parent_section": "§3.2.1 [Dataset-level Metadata]", "md_verbatim": "| TV | Trial Visits | Trial Design | One record per planned Visit per Arm | Tabulation | STUDYID, ARM, VISIT | tv.xpt |", "score": 0.1062, "match_basis": "verbatim_token+chapter_route:ch03"}, {"md_atom_id": "md_ch03_a078", "md_file": "knowledge_base/chapters/ch03_submitting_data.md", "md_atom_type": "TABLE_ROW", "md_parent_section": "§3.2.1 [Dataset-level Metadata]", "md_verbatim": "| TE | Trial Elements | Trial Design | One record per planned Element | Tabulation | STUDYID, ETCD | te.xpt |", "score": 0.105, "match_basis": "verbatim_token+chapter_route:ch03"}, {"md_atom_id": "md_ch03_a088", "md_file": "knowledge_base/chapters/ch03_submitting_data.md", "md_atom_type": "SENTENCE", "md_parent_section": "§3.2.1 [Dataset-level Metadata]", "md_verbatim": "Separate Supplemental Qualifier datasets of the form supp--.xpt are required.", "score": 0.105, "match_basis": "verbatim_token+chapter_route:ch03"}, {"md_atom_id": "md_ch03_a085", "md_file": "knowledge_base/chapters/ch03_submitting_data.md", "md_atom_type": "TABLE_ROW", "md_parent_section": "§3.2.1 [Dataset-level Metadata]", "md_verbatim": "| RELSUB | Related Subjects | Relationship | One record per relationship per related subject per subject | Tabulation | STUDYID, USUBJID, RSUBJID, SREL | relsub.xpt |", "score": 0.1046, "match_basis": "verbatim_token+chapter_route:ch03"}, {"md_atom_id": "md_ch03_a076", "md_file": "knowledge_base/chapters/ch03_submitting_data.md", "md_atom_type": "TABLE_ROW", "md_parent_section": "§3.2.1 [Dataset-level Metadata]", "md_verbatim": "| TA | Trial Arms | Trial Design | One record per planned Element per Arm | Tabulation | STUDYID, ARMCD, TAETORD | ta.xpt |", "score": 0.1033, "match_basis": "verbatim_token+chapter_route:ch03"}, {"md_atom_id": "md_ch03_a080", "md_file": "knowledge_base/chapters/ch03_submitting_data.md", "md_atom_type": "TABLE_ROW", "md_parent_section": "§3.2.1 [Dataset-level Metadata]", "md_verbatim": "| TM | Trial Disease Milestones | Trial Design | One record per Disease Milestone type | Tabulation | STUDYID, MIDSTYPE | tm.xpt |", "score": 0.1033, "match_basis": "verbatim_token+chapter_route:ch03"}, {"md_atom_id": "md_ch03_a037", "md_file": "knowledge_base/chapters/ch03_submitting_data.md", "md_atom_type": "TABLE_ROW", "md_parent_section": "§3.2.1 [Dataset-level Metadata]", "md_verbatim": "| AE | Adverse Events | Events | One record per adverse event per subject | Tabulation | STUDYID, USUBJID, AEDECOD, AESTDTC | ae.xpt |", "score": 0.103, "match_basis": "verbatim_token+chapter_route:ch03"}, {"md_atom_id": "md_ch03_a043", "md_file": "knowledge_base/chapters/ch03_submitting_data.md", "md_atom_type": "TABLE_ROW", "md_parent_section": "§3.2.1 [Dataset-level Metadata]", "md_verbatim": "| MH | Medical History | Events | One record per medical history event per subject | Tabulation | STUDYID, USUBJID, MHDECOD | mh.xpt |", "score": 0.103, "match_basis": "verbatim_token+chapter_route:ch03"}, {"md_atom_id": "md_ch03_a039", "md_file": "knowledge_base/chapters/ch03_submitting_data.md", "md_atom_type": "TABLE_ROW", "md_parent_section": "§3.2.1 [Dataset-level Metadata]", "md_verbatim": "| CE | Clinical Events | Events | One record per event per subject | Tabulation | STUDYID, USUBJID, CETERM, CESTDTC | ce.xpt |", "score": 0.1028, "match_basis": "verbatim_token+chapter_route:ch03"}, {"md_atom_id": "md_ch03_a079", "md_file": "knowledge_base/chapters/ch03_submitting_data.md", "md_atom_type": "TABLE_ROW", "md_parent_section": "§3.2.1 [Dataset-level Metadata]", "md_verbatim": "| TI | Trial Inclusion/Exclusion Criteria | Trial Design | One record per I/E criterion | Tabulation | STUDYID, IETESTCD | ti.xpt |", "score": 0.1028, "match_basis": "verbatim_token+chapter_route:ch03"}], "candidate_count": 10, "zero_candidate": false}
{"pdf_atom_id": "ig34_p0018_a048", "pdf_atom_type": "TABLE_ROW", "pdf_source": "SDTMIG_v3.4", "pdf_page": 18, "pdf_parent_section": "§3.2.1 Dataset-level Metadata", "pdf_verbatim": "MI | Microscopic Findings | Findings | One record per finding per specimen per subject | Tabulation | STUDYID, USUBJID, MISPEC, MITESTCD | mi.xpt", "figure_ref": null, "candidates": [{"md_atom_id": "md_ch03_a056", "md_file": "knowledge_base/chapters/ch03_submitting_data.md", "md_atom_type": "TABLE_ROW", "md_parent_section": "§3.2.1 [Dataset-level Metadata]", "md_verbatim": "| MI | Microscopic Findings | Findings | One record per finding per specimen per subject | Tabulation | STUDYID, USUBJID, MISPEC, MITESTCD | mi.xpt |", "score": 0.9, "match_basis": "verbatim_token+chapter_route:ch03"}, {"md_atom_id": "md_ch03_a055", "md_file": "knowledge_base/chapters/ch03_submitting_data.md", "md_atom_type": "TABLE_ROW", "md_parent_section": "§3.2.1 [Dataset-level Metadata]", "md_verbatim": "| MB | Microbiology Specimen | Findings | One record per microbiology specimen finding per time point per visit per subject | Tabulation | STUDYID, USUBJID, MBTESTCD, VISITNUM, MBTPTREF, MBTPTNUM | mb.xpt |", "score": 0.6439, "match_basis": "verbatim_token+chapter_route:ch03"}, {"md_atom_id": "md_ch03_a048", "md_file": "knowledge_base/chapters/ch03_submitting_data.md", "md_atom_type": "TABLE_ROW", "md_parent_section": "§3.2.1 [Dataset-level Metadata]", "md_verbatim": "| DD | Death Details | Findings | One record per finding per subject | Tabulation | STUDYID, USUBJID, DDTESTCD, DDDTC | dd.xpt |", "score": 0.6304, "match_basis": "verbatim_token+chapter_route:ch03"}, {"md_atom_id": "md_ch03_a069", "md_file": "knowledge_base/chapters/ch03_submitting_data.md", "md_atom_type": "TABLE_ROW", "md_parent_section": "§3.2.1 [Dataset-level Metadata]", "md_verbatim": "| SS | Subject Status | Findings | One record per status per visit per subject | Tabulation | STUDYID, USUBJID, SSTESTCD, VISITNUM | ss.xpt |", "score": 0.6304, "match_basis": "verbatim_token+chapter_route:ch03"}, {"md_atom_id": "md_ch03_a044", "md_file": "knowledge_base/chapters/ch03_submitting_data.md", "md_atom_type": "TABLE_ROW", "md_parent_section": "§3.2.1 [Dataset-level Metadata]", "md_verbatim": "| BS | Biospecimen Findings | Findings | One record per measurement per biospecimen identifier per subject | Tabulation | STUDYID, USUBJID, BSREFID, BSTESTCD | bs.xpt |", "score": 0.622, "match_basis": "verbatim_token+chapter_route:ch03"}], "candidate_count": 5, "zero_candidate": false}
{"pdf_atom_id": "ig34_p0018_a049", "pdf_atom_type": "CODE_LITERAL", "pdf_source": "SDTMIG_v3.4", "pdf_page": 18, "pdf_parent_section": "§3.2.1 Dataset-level Metadata", "pdf_verbatim": "mi.xpt", "figure_ref": null, "candidates": [{"md_atom_id": "md_ch03_a082", "md_file": "knowledge_base/chapters/ch03_submitting_data.md", "md_atom_type": "TABLE_ROW", "md_parent_section": "§3.2.1 [Dataset-level Metadata]", "md_verbatim": "| TV | Trial Visits | Trial Design | One record per planned Visit per Arm | Tabulation | STUDYID, ARM, VISIT | tv.xpt |", "score": 0.1062, "match_basis": "verbatim_token+chapter_route:ch03"}, {"md_atom_id": "md_ch03_a078", "md_file": "knowledge_base/chapters/ch03_submitting_data.md", "md_atom_type": "TABLE_ROW", "md_parent_section": "§3.2.1 [Dataset-level Metadata]", "md_verbatim": "| TE | Trial Elements | Trial Design | One record per planned Element | Tabulation | STUDYID, ETCD | te.xpt |", "score": 0.105, "match_basis": "verbatim_token+chapter_route:ch03"}, {"md_atom_id": "md_ch03_a088", "md_file": "knowledge_base/chapters/ch03_submitting_data.md", "md_atom_type": "SENTENCE", "md_parent_section": "§3.2.1 [Dataset-level Metadata]", "md_verbatim": "Separate Supplemental Qualifier datasets of the form supp--.xpt are required.", "score": 0.105, "match_basis": "verbatim_token+chapter_route:ch03"}, {"md_atom_id": "md_ch03_a085", "md_file": "knowledge_base/chapters/ch03_submitting_data.md", "md_atom_type": "TABLE_ROW", "md_parent_section": "§3.2.1 [Dataset-level Metadata]", "md_verbatim": "| RELSUB | Related Subjects | Relationship | One record per relationship per related subject per subject | Tabulation | STUDYID, USUBJID, RSUBJID, SREL | relsub.xpt |", "score": 0.1046, "match_basis": "verbatim_token+chapter_route:ch03"}, {"md_atom_id": "md_ch03_a076", "md_file": "knowledge_base/chapters/ch03_submitting_data.md", "md_atom_type": "TABLE_ROW", "md_parent_section": "§3.2.1 [Dataset-level Metadata]", "md_verbatim": "| TA | Trial Arms | Trial Design | One record per planned Element per Arm | Tabulation | STUDYID, ARMCD, TAETORD | ta.xpt |", "score": 0.1033, "match_basis": "verbatim_token+chapter_route:ch03"}, {"md_atom_id": "md_ch03_a080", "md_file": "knowledge_base/chapters/ch03_submitting_data.md", "md_atom_type": "TABLE_ROW", "md_parent_section": "§3.2.1 [Dataset-level Metadata]", "md_verbatim": "| TM | Trial Disease Milestones | Trial Design | One record per Disease Milestone type | Tabulation | STUDYID, MIDSTYPE | tm.xpt |", "score": 0.1033, "match_basis": "verbatim_token+chapter_route:ch03"}, {"md_atom_id": "md_ch03_a037", "md_file": "knowledge_base/chapters/ch03_submitting_data.md", "md_atom_type": "TABLE_ROW", "md_parent_section": "§3.2.1 [Dataset-level Metadata]", "md_verbatim": "| AE | Adverse Events | Events | One record per adverse event per subject | Tabulation | STUDYID, USUBJID, AEDECOD, AESTDTC | ae.xpt |", "score": 0.103, "match_basis": "verbatim_token+chapter_route:ch03"}, {"md_atom_id": "md_ch03_a043", "md_file": "knowledge_base/chapters/ch03_submitting_data.md", "md_atom_type": "TABLE_ROW", "md_parent_section": "§3.2.1 [Dataset-level Metadata]", "md_verbatim": "| MH | Medical History | Events | One record per medical history event per subject | Tabulation | STUDYID, USUBJID, MHDECOD | mh.xpt |", "score": 0.103, "match_basis": "verbatim_token+chapter_route:ch03"}, {"md_atom_id": "md_ch03_a039", "md_file": "knowledge_base/chapters/ch03_submitting_data.md", "md_atom_type": "TABLE_ROW", "md_parent_section": "§3.2.1 [Dataset-level Metadata]", "md_verbatim": "| CE | Clinical Events | Events | One record per event per subject | Tabulation | STUDYID, USUBJID, CETERM, CESTDTC | ce.xpt |", "score": 0.1028, "match_basis": "verbatim_token+chapter_route:ch03"}, {"md_atom_id": "md_ch03_a079", "md_file": "knowledge_base/chapters/ch03_submitting_data.md", "md_atom_type": "TABLE_ROW", "md_parent_section": "§3.2.1 [Dataset-level Metadata]", "md_verbatim": "| TI | Trial Inclusion/Exclusion Criteria | Trial Design | One record per I/E criterion | Tabulation | STUDYID, IETESTCD | ti.xpt |", "score": 0.1028, "match_basis": "verbatim_token+chapter_route:ch03"}], "candidate_count": 10, "zero_candidate": false}
{"pdf_atom_id": "ig34_p0018_a050", "pdf_atom_type": "TABLE_ROW", "pdf_source": "SDTMIG_v3.4", "pdf_page": 18, "pdf_parent_section": "§3.2.1 Dataset-level Metadata", "pdf_verbatim": "MK | Musculoskeletal System Findings | Findings | One record per assessment per visit per subject | Tabulation | STUDYID, USUBJID, VISITNUM, MKTESTCD, MKLOC, MKLAT | mk.xpt", "figure_ref": null, "candidates": [{"md_atom_id": "md_ch03_a057", "md_file": "knowledge_base/chapters/ch03_submitting_data.md", "md_atom_type": "TABLE_ROW", "md_parent_section": "§3.2.1 [Dataset-level Metadata]", "md_verbatim": "| MK | Musculoskeletal System Findings | Findings | One record per assessment per visit per subject | Tabulation | STUDYID, USUBJID, VISITNUM, MKTESTCD, MKLOC, MKLAT | mk.xpt |", "score": 0.9, "match_basis": "verbatim_token+chapter_route:ch03"}, {"md_atom_id": "md_ch03_a069", "md_file": "knowledge_base/chapters/ch03_submitting_data.md", "md_atom_type": "TABLE_ROW", "md_parent_section": "§3.2.1 [Dataset-level Metadata]", "md_verbatim": "| SS | Subject Status | Findings | One record per status per visit per subject | Tabulation | STUDYID, USUBJID, SSTESTCD, VISITNUM | ss.xpt |", "score": 0.6375, "match_basis": "verbatim_token+chapter_route:ch03"}, {"md_atom_id": "md_ch03_a072", "md_file": "knowledge_base/chapters/ch03_submitting_data.md", "md_atom_type": "TABLE_ROW", "md_parent_section": "§3.2.1 [Dataset-level Metadata]", "md_verbatim": "| UR | Urinary System Findings | Findings | One record per finding per location per visit per subject | Tabulation | STUDYID, USUBJID, VISITNUM, URTESTCD, URLOC, URLAT, URDIR | ur.xpt |", "score": 0.6267, "match_basis": "verbatim_token+chapter_route:ch03"}, {"md_atom_id": "md_ch03_a059", "md_file": "knowledge_base/chapters/ch03_submitting_data.md", "md_atom_type": "TABLE_ROW", "md_parent_section": "§3.2.1 [Dataset-level Metadata]", "md_verbatim": "| NV | Nervous System Findings | Findings | One record per finding per location per time point per visit per subject | Tabulation | STUDYID, USUBJID, VISITNUM, NVTPTNUM, NVLOC, NVTESTCD | nv.xpt |", "score": 0.6128, "match_basis": "verbatim_token+chapter_route:ch03"}, {"md_atom_id": "md_ch03_a070", "md_file": "knowledge_base/chapters/ch03_submitting_data.md", "md_atom_type": "TABLE_ROW", "md_parent_section": "§3.2.1 [Dataset-level Metadata]", "md_verbatim": "| TR | Tumor/Lesion Results | Findings | One record per tumor measurement/assessment per visit per subject per assessor | Tabulation | STUDYID, USUBJID, TRTESTCD, TREVALID, VISITNUM | tr.xpt |", "score": 0.6029, "match_basis": "verbatim_token+chapter_route:ch03"}], "candidate_count": 5, "zero_candidate": false}
{"pdf_atom_id": "ig34_p0018_a051", "pdf_atom_type": "CODE_LITERAL", "pdf_source": "SDTMIG_v3.4", "pdf_page": 18, "pdf_parent_section": "§3.2.1 Dataset-level Metadata", "pdf_verbatim": "mk.xpt", "figure_ref": null, "candidates": [{"md_atom_id": "md_ch03_a082", "md_file": "knowledge_base/chapters/ch03_submitting_data.md", "md_atom_type": "TABLE_ROW", "md_parent_section": "§3.2.1 [Dataset-level Metadata]", "md_verbatim": "| TV | Trial Visits | Trial Design | One record per planned Visit per Arm | Tabulation | STUDYID, ARM, VISIT | tv.xpt |", "score": 0.1062, "match_basis": "verbatim_token+chapter_route:ch03"}, {"md_atom_id": "md_ch03_a078", "md_file": "knowledge_base/chapters/ch03_submitting_data.md", "md_atom_type": "TABLE_ROW", "md_parent_section": "§3.2.1 [Dataset-level Metadata]", "md_verbatim": "| TE | Trial Elements | Trial Design | One record per planned Element | Tabulation | STUDYID, ETCD | te.xpt |", "score": 0.105, "match_basis": "verbatim_token+chapter_route:ch03"}, {"md_atom_id": "md_ch03_a088", "md_file": "knowledge_base/chapters/ch03_submitting_data.md", "md_atom_type": "SENTENCE", "md_parent_section": "§3.2.1 [Dataset-level Metadata]", "md_verbatim": "Separate Supplemental Qualifier datasets of the form supp--.xpt are required.", "score": 0.105, "match_basis": "verbatim_token+chapter_route:ch03"}, {"md_atom_id": "md_ch03_a085", "md_file": "knowledge_base/chapters/ch03_submitting_data.md", "md_atom_type": "TABLE_ROW", "md_parent_section": "§3.2.1 [Dataset-level Metadata]", "md_verbatim": "| RELSUB | Related Subjects | Relationship | One record per relationship per related subject per subject | Tabulation | STUDYID, USUBJID, RSUBJID, SREL | relsub.xpt |", "score": 0.1046, "match_basis": "verbatim_token+chapter_route:ch03"}, {"md_atom_id": "md_ch03_a076", "md_file": "knowledge_base/chapters/ch03_submitting_data.md", "md_atom_type": "TABLE_ROW", "md_parent_section": "§3.2.1 [Dataset-level Metadata]", "md_verbatim": "| TA | Trial Arms | Trial Design | One record per planned Element per Arm | Tabulation | STUDYID, ARMCD, TAETORD | ta.xpt |", "score": 0.1033, "match_basis": "verbatim_token+chapter_route:ch03"}, {"md_atom_id": "md_ch03_a080", "md_file": "knowledge_base/chapters/ch03_submitting_data.md", "md_atom_type": "TABLE_ROW", "md_parent_section": "§3.2.1 [Dataset-level Metadata]", "md_verbatim": "| TM | Trial Disease Milestones | Trial Design | One record per Disease Milestone type | Tabulation | STUDYID, MIDSTYPE | tm.xpt |", "score": 0.1033, "match_basis": "verbatim_token+chapter_route:ch03"}, {"md_atom_id": "md_ch03_a037", "md_file": "knowledge_base/chapters/ch03_submitting_data.md", "md_atom_type": "TABLE_ROW", "md_parent_section": "§3.2.1 [Dataset-level Metadata]", "md_verbatim": "| AE | Adverse Events | Events | One record per adverse event per subject | Tabulation | STUDYID, USUBJID, AEDECOD, AESTDTC | ae.xpt |", "score": 0.103, "match_basis": "verbatim_token+chapter_route:ch03"}, {"md_atom_id": "md_ch03_a043", "md_file": "knowledge_base/chapters/ch03_submitting_data.md", "md_atom_type": "TABLE_ROW", "md_parent_section": "§3.2.1 [Dataset-level Metadata]", "md_verbatim": "| MH | Medical History | Events | One record per medical history event per subject | Tabulation | STUDYID, USUBJID, MHDECOD | mh.xpt |", "score": 0.103, "match_basis": "verbatim_token+chapter_route:ch03"}, {"md_atom_id": "md_ch03_a039", "md_file": "knowledge_base/chapters/ch03_submitting_data.md", "md_atom_type": "TABLE_ROW", "md_parent_section": "§3.2.1 [Dataset-level Metadata]", "md_verbatim": "| CE | Clinical Events | Events | One record per event per subject | Tabulation | STUDYID, USUBJID, CETERM, CESTDTC | ce.xpt |", "score": 0.1028, "match_basis": "verbatim_token+chapter_route:ch03"}, {"md_atom_id": "md_ch03_a079", "md_file": "knowledge_base/chapters/ch03_submitting_data.md", "md_atom_type": "TABLE_ROW", "md_parent_section": "§3.2.1 [Dataset-level Metadata]", "md_verbatim": "| TI | Trial Inclusion/Exclusion Criteria | Trial Design | One record per I/E criterion | Tabulation | STUDYID, IETESTCD | ti.xpt |", "score": 0.1028, "match_basis": "verbatim_token+chapter_route:ch03"}], "candidate_count": 10, "zero_candidate": false}
