{"pdf_atom_id": "ig34_p0182_a012", "pdf_atom_type": "SENTENCE", "pdf_source": "SDTMIG_v3.4", "pdf_page": 182, "pdf_parent_section": "§6.3.1 Product Accountability (DA)", "pdf_verbatim": "Example 2", "figure_ref": null, "candidates": [{"md_atom_id": "md_dmDA_ex_a002", "md_file": "knowledge_base/domains/DA/examples.md", "md_atom_type": "HEADING", "md_parent_section": "§DA [DA — Examples]", "md_verbatim": "## Example 1", "score": 0.76, "match_basis": "verbatim_token+domain_route:DA"}, {"md_atom_id": "md_dmDA_ex_a012", "md_file": "knowledge_base/domains/DA/examples.md", "md_atom_type": "HEADING", "md_parent_section": "§DA [DA — Examples]", "md_verbatim": "## Example 2", "score": 0.76, "match_basis": "verbatim_token+domain_route:DA"}, {"md_atom_id": "md_dmDA_ex_a018", "md_file": "knowledge_base/domains/DA/examples.md", "md_atom_type": "HEADING", "md_parent_section": "§DA [DA — Examples]", "md_verbatim": "## Example 3", "score": 0.76, "match_basis": "verbatim_token+domain_route:DA"}, {"md_atom_id": "md_dmDA_ex_a001", "md_file": "knowledge_base/domains/DA/examples.md", "md_atom_type": "HEADING", "md_parent_section": "§DA [DA — Examples]", "md_verbatim": "# DA — Examples", "score": 0.66, "match_basis": "verbatim_token+domain_route:DA"}, {"md_atom_id": "md_dmDA_ex_a019", "md_file": "knowledge_base/domains/DA/examples.md", "md_atom_type": "SENTENCE", "md_parent_section": "§DA.3 [Example 3]", "md_verbatim": "This example shows, for a nutrition study, the volume of infant feeding formula prepared and the volume remaining after feeding.", "score": 0.4545, "match_basis": "verbatim_token+domain_route:DA"}, {"md_atom_id": "md_dmDA_ex_a003", "md_file": "knowledge_base/domains/DA/examples.md", "md_atom_type": "SENTENCE", "md_parent_section": "§DA.1 [Example 1]", "md_verbatim": "This example shows drug accounting for a study with 2 study medications and one rescue medication, all of which were measured in tablets. The sponsor chose to add EPOCH from the list of timing variables and to use DASPID and DAREFID for code numbers that appeared on the label.", "score": 0.4278, "match_basis": "verbatim_token+domain_route:DA"}, {"md_atom_id": "md_dmDA_ex_a004", "md_file": "knowledge_base/domains/DA/examples.md", "md_atom_type": "SENTENCE", "md_parent_section": "§DA.1 [Example 1]", "md_verbatim": "**da.xpt**", "score": 0.4, "match_basis": "verbatim_token+domain_route:DA"}, {"md_atom_id": "md_dmDA_ex_a013", "md_file": "knowledge_base/domains/DA/examples.md", "md_atom_type": "SENTENCE", "md_parent_section": "§DA.2 [Example 2]", "md_verbatim": "In this study, drug containers, rather than their contents, were being accounted for and the sponsor did not track returns. In this case, the purpose of accountability tracking is to verify that the containers dispensed were consistent with the randomization. The sponsor chose to use DASPID to record the identifying number of the container dispensed.", "score": 0.4, "match_basis": "verbatim_token+domain_route:DA"}, {"md_atom_id": "md_dmDA_ex_a014", "md_file": "knowledge_base/domains/DA/examples.md", "md_atom_type": "SENTENCE", "md_parent_section": "§DA.2 [Example 2]", "md_verbatim": "**da.xpt**", "score": 0.4, "match_basis": "verbatim_token+domain_route:DA"}, {"md_atom_id": "md_dmDA_ex_a020", "md_file": "knowledge_base/domains/DA/examples.md", "md_atom_type": "SENTENCE", "md_parent_section": "§DA.3 [Example 3]", "md_verbatim": "**Rows 1-2:** Show the volume of formula prepared and the volume of formula left after feeding for the first feed of the diary (day 1).", "score": 0.4, "match_basis": "verbatim_token+domain_route:DA"}], "candidate_count": 10, "zero_candidate": false}
{"pdf_atom_id": "ig34_p0182_a013", "pdf_atom_type": "SENTENCE", "pdf_source": "SDTMIG_v3.4", "pdf_page": 182, "pdf_parent_section": "§6.3.1 Product Accountability (DA)", "pdf_verbatim": "In this study, drug containers, rather than their contents, were being accounted for and the sponsor did not track returns. In this case, the purpose of the accountability tracking is to verify that the containers dispensed were consistent with the randomization. The sponsor chose to use DASPID to record the identifying number of the container dispensed.", "figure_ref": null, "candidates": [{"md_atom_id": "md_dmDA_ex_a013", "md_file": "knowledge_base/domains/DA/examples.md", "md_atom_type": "SENTENCE", "md_parent_section": "§DA.2 [Example 2]", "md_verbatim": "In this study, drug containers, rather than their contents, were being accounted for and the sponsor did not track returns. In this case, the purpose of accountability tracking is to verify that the containers dispensed were consistent with the randomization. The sponsor chose to use DASPID to record the identifying number of the container dispensed.", "score": 1.0, "match_basis": "verbatim_token+domain_route:DA"}, {"md_atom_id": "md_dmDA_ex_a003", "md_file": "knowledge_base/domains/DA/examples.md", "md_atom_type": "SENTENCE", "md_parent_section": "§DA.1 [Example 1]", "md_verbatim": "This example shows drug accounting for a study with 2 study medications and one rescue medication, all of which were measured in tablets. The sponsor chose to add EPOCH from the list of timing variables and to use DASPID and DAREFID for code numbers that appeared on the label.", "score": 0.5525, "match_basis": "verbatim_token+domain_route:DA"}, {"md_atom_id": "md_dmDA_ex_a019", "md_file": "knowledge_base/domains/DA/examples.md", "md_atom_type": "SENTENCE", "md_parent_section": "§DA.3 [Example 3]", "md_verbatim": "This example shows, for a nutrition study, the volume of infant feeding formula prepared and the volume remaining after feeding.", "score": 0.4444, "match_basis": "verbatim_token+domain_route:DA"}, {"md_atom_id": "md_dmDA_ex_a021", "md_file": "knowledge_base/domains/DA/examples.md", "md_atom_type": "SENTENCE", "md_parent_section": "§DA.3 [Example 3]", "md_verbatim": "**Rows 3-4:** Show the volume of formula prepared and the volume of formula left after feeding for the second feed of the diary (day 1).", "score": 0.4237, "match_basis": "verbatim_token+domain_route:DA"}, {"md_atom_id": "md_dmDA_assn_a004", "md_file": "knowledge_base/domains/DA/assumptions.md", "md_atom_type": "LIST_ITEM", "md_parent_section": "§DA [DA — Assumptions]", "md_verbatim": "   b. For drugs, transfers are usually recorded using the tests \"Dispensed Amount\" and \"Returned Amount\".", "score": 0.4206, "match_basis": "verbatim_token+domain_route:DA"}], "candidate_count": 5, "zero_candidate": false}
{"pdf_atom_id": "ig34_p0182_a014", "pdf_atom_type": "CODE_LITERAL", "pdf_source": "SDTMIG_v3.4", "pdf_page": 182, "pdf_parent_section": "§6.3.1 Product Accountability (DA)", "pdf_verbatim": "da.xpt", "figure_ref": null, "candidates": [{"md_atom_id": "md_dmDA_ex_a004", "md_file": "knowledge_base/domains/DA/examples.md", "md_atom_type": "SENTENCE", "md_parent_section": "§DA.1 [Example 1]", "md_verbatim": "**da.xpt**", "score": 0.79, "match_basis": "verbatim_token+domain_route:DA"}, {"md_atom_id": "md_dmDA_ex_a014", "md_file": "knowledge_base/domains/DA/examples.md", "md_atom_type": "SENTENCE", "md_parent_section": "§DA.2 [Example 2]", "md_verbatim": "**da.xpt**", "score": 0.79, "match_basis": "verbatim_token+domain_route:DA"}, {"md_atom_id": "md_dmDA_ex_a023", "md_file": "knowledge_base/domains/DA/examples.md", "md_atom_type": "SENTENCE", "md_parent_section": "§DA.3 [Example 3]", "md_verbatim": "**da.xpt**", "score": 0.79, "match_basis": "verbatim_token+domain_route:DA"}, {"md_atom_id": "md_dmDA_assn_a001", "md_file": "knowledge_base/domains/DA/assumptions.md", "md_atom_type": "HEADING", "md_parent_section": "§DA [DA — Assumptions]", "md_verbatim": "# DA — Assumptions", "score": 0.19, "match_basis": "verbatim_token+domain_route:DA"}, {"md_atom_id": "md_dmDA_assn_a002", "md_file": "knowledge_base/domains/DA/assumptions.md", "md_atom_type": "LIST_ITEM", "md_parent_section": "§DA [DA — Assumptions]", "md_verbatim": "1. This domain records the amount of study product transferred to or from the study subject.", "score": 0.19, "match_basis": "verbatim_token+domain_route:DA"}, {"md_atom_id": "md_dmDA_assn_a003", "md_file": "knowledge_base/domains/DA/assumptions.md", "md_atom_type": "LIST_ITEM", "md_parent_section": "§DA [DA — Assumptions]", "md_verbatim": "   a. Transfers of devices are not represented in this domain, but in the Device Tracking and Disposition (DT) domain. See the SDTMIG for Medical Devices (available at https://www.cdisc.org/standards/foundational/medical-devices-sdtmig/).", "score": 0.19, "match_basis": "verbatim_token+domain_route:DA"}, {"md_atom_id": "md_dmDA_assn_a004", "md_file": "knowledge_base/domains/DA/assumptions.md", "md_atom_type": "LIST_ITEM", "md_parent_section": "§DA [DA — Assumptions]", "md_verbatim": "   b. For drugs, transfers are usually recorded using the tests \"Dispensed Amount\" and \"Returned Amount\".", "score": 0.19, "match_basis": "verbatim_token+domain_route:DA"}, {"md_atom_id": "md_dmDA_assn_a005", "md_file": "knowledge_base/domains/DA/assumptions.md", "md_atom_type": "LIST_ITEM", "md_parent_section": "§DA [DA — Assumptions]", "md_verbatim": "   c. Test terminology for other products may be different; for example, for nutrition, the tests might be \"Prepared Amount\" and \"Unused Amount\".", "score": 0.19, "match_basis": "verbatim_token+domain_route:DA"}, {"md_atom_id": "md_dmDA_assn_a006", "md_file": "knowledge_base/domains/DA/assumptions.md", "md_atom_type": "LIST_ITEM", "md_parent_section": "§DA [DA — Assumptions]", "md_verbatim": "2. DACAT may be used to differentiate transfers of different groups of products (e.g., rescue medications vs. investigational medications).", "score": 0.19, "match_basis": "verbatim_token+domain_route:DA"}, {"md_atom_id": "md_dmDA_assn_a007", "md_file": "knowledge_base/domains/DA/assumptions.md", "md_atom_type": "LIST_ITEM", "md_parent_section": "§DA [DA — Assumptions]", "md_verbatim": "3. DAREFID and DASPID are both available for capturing label information.", "score": 0.19, "match_basis": "verbatim_token+domain_route:DA"}], "candidate_count": 10, "zero_candidate": false}
{"pdf_atom_id": "ig34_p0182_a015", "pdf_atom_type": "TABLE_HEADER", "pdf_source": "SDTMIG_v3.4", "pdf_page": 182, "pdf_parent_section": "§6.3.1 Product Accountability (DA)", "pdf_verbatim": "| Row | STUDYID | DOMAIN | USUBJID | DASEQ | DASPID | DATESTCD | DATEST | DACAT | DASCAT | DAORRES | DAORRESU | DASTRESC | DASTRESN | DASTRESU | VISITNUM | DADTC |", "figure_ref": null, "candidates": [{"md_atom_id": "md_dmDA_ex_a015", "md_file": "knowledge_base/domains/DA/examples.md", "md_atom_type": "TABLE_HEADER", "md_parent_section": "§DA.2 [Example 2]", "md_verbatim": "| Row | STUDYID | DOMAIN | USUBJID | DASEQ | DASPID | DATESTCD | DATEST | DACAT | DASCAT | DAORRES | DAORRESU | DASTRESC | DASTRESN | DASTRESU | VISITNUM | DADTC |\n|-----|---------|--------|---------|-------|--------|----------|--------|-------|--------|---------|----------|----------|----------|----------|----------|-------|", "score": 1.0, "match_basis": "verbatim_token+domain_route:DA"}, {"md_atom_id": "md_dmDA_ex_a005", "md_file": "knowledge_base/domains/DA/examples.md", "md_atom_type": "TABLE_HEADER", "md_parent_section": "§DA.1 [Example 1]", "md_verbatim": "| Row | STUDYID | DOMAIN | USUBJID | DASEQ | DAREFID | DASPID | DATESTCD | DATEST | DACAT | DASCAT | DAORRES | DAORRESU | DASTRESC | DASTRESN | DASTRESU | VISITNUM | EPOCH | DADTC |\n|-----|---------|--------|---------|-------|---------|--------|----------|--------|-------|--------|---------|----------|----------|----------|----------|----------|-------|-------|", "score": 0.92, "match_basis": "verbatim_token+domain_route:DA"}, {"md_atom_id": "md_dmDA_ex_a024", "md_file": "knowledge_base/domains/DA/examples.md", "md_atom_type": "TABLE_HEADER", "md_parent_section": "§DA.3 [Example 3]", "md_verbatim": "| Row | STUDYID | DOMAIN | USUBJID | DASEQ | DAGRPID | DASPID | DATESTCD | DATEST | DACAT | DAORRES | DAORRESU | DASTRESC | DASTRESN | DASTRESU | DADTC | DADY |\n|-----|---------|--------|---------|-------|---------|--------|----------|--------|-------|---------|----------|----------|----------|----------|-------|------|", "score": 0.8632, "match_basis": "verbatim_token+domain_route:DA"}, {"md_atom_id": "md_dmDA_ex_a026", "md_file": "knowledge_base/domains/DA/examples.md", "md_atom_type": "TABLE_ROW", "md_parent_section": "§DA.3 [Example 3]", "md_verbatim": "| 2 | ABC | DA | 101 | 2 | 1 | 1 | REMAMT | Remaining Amount | Study Product | 15 | mL | 15 | 15 | mL | 2017-05-19 | 1 |", "score": 0.3817, "match_basis": "verbatim_token+domain_route:DA"}, {"md_atom_id": "md_dmDA_ex_a028", "md_file": "knowledge_base/domains/DA/examples.md", "md_atom_type": "TABLE_ROW", "md_parent_section": "§DA.3 [Example 3]", "md_verbatim": "| 4 | ABC | DA | 101 | 4 | 2 | 2 | REMAMT | Remaining Amount | Study Product | 25 | mL | 25 | 25 | mL | 2017-05-19 | 1 |", "score": 0.3817, "match_basis": "verbatim_token+domain_route:DA"}], "candidate_count": 5, "zero_candidate": false}
{"pdf_atom_id": "ig34_p0182_a016", "pdf_atom_type": "TABLE_ROW", "pdf_source": "SDTMIG_v3.4", "pdf_page": 182, "pdf_parent_section": "§6.3.1 Product Accountability (DA)", "pdf_verbatim": "| 1 | ABC | DA | ABC-01001 | 1 | AB001 | DISPAMT | Dispensed Amount | Study Medication | Drug A | 1 | | CONTAINER | 1 | | | 1 | 2004-06-15 |", "figure_ref": null, "candidates": [{"md_atom_id": "md_dmDA_ex_a016", "md_file": "knowledge_base/domains/DA/examples.md", "md_atom_type": "TABLE_ROW", "md_parent_section": "§DA.2 [Example 2]", "md_verbatim": "| 1 | ABC | DA | ABC-01001 | 1 | AB001 | DISPAMT | Dispensed Amount | Study Medication | Drug A | 1 | CONTAINER | 1 | 1 | CONTAINER | 1 | 2004-06-15 |", "score": 1.0, "match_basis": "verbatim_token+domain_route:DA"}, {"md_atom_id": "md_dmDA_ex_a017", "md_file": "knowledge_base/domains/DA/examples.md", "md_atom_type": "TABLE_ROW", "md_parent_section": "§DA.2 [Example 2]", "md_verbatim": "| 2 | ABC | DA | ABC-01001 | 2 | AB002 | DISPAMT | Dispensed Amount | Study Medication | Drug B | 1 | CONTAINER | 1 | 1 | CONTAINER | 1 | 2004-06-15 |", "score": 0.986, "match_basis": "verbatim_token+domain_route:DA"}, {"md_atom_id": "md_dmDA_ex_a010", "md_file": "knowledge_base/domains/DA/examples.md", "md_atom_type": "TABLE_ROW", "md_parent_section": "§DA.1 [Example 1]", "md_verbatim": "| 5 | ABC | DA | ABC-01001 | 5 | | | DISPAMT | Dispensed Amount | Rescue Medication | | | 10 | TABLET | 10 | TABLET | 1 | | 2004-06-15 |", "score": 0.736, "match_basis": "verbatim_token+domain_route:DA"}, {"md_atom_id": "md_dmDA_ex_a006", "md_file": "knowledge_base/domains/DA/examples.md", "md_atom_type": "TABLE_ROW", "md_parent_section": "§DA.1 [Example 1]", "md_verbatim": "| 1 | ABC | DA | ABC-01001 | 1 | XBYCC-E990A | A375827 | DISPAMT | Dispensed Amount | Study Medication | Bottle A | 30 | TABLET | 30 | 30 | TABLET | 1 | Study Med Period 1 | 2004-06-15 |", "score": 0.6862, "match_basis": "verbatim_token+domain_route:DA"}, {"md_atom_id": "md_dmDA_ex_a008", "md_file": "knowledge_base/domains/DA/examples.md", "md_atom_type": "TABLE_ROW", "md_parent_section": "§DA.1 [Example 1]", "md_verbatim": "| 3 | ABC | DA | ABC-01001 | 3 | XBYCC-E990B | A227588 | DISPAMT | Dispensed Amount | Study Medication | Bottle B | 15 | TABLET | 15 | 15 | TABLET | 1 | Study Med Period 1 | 2004-06-15 |", "score": 0.6862, "match_basis": "verbatim_token+domain_route:DA"}], "candidate_count": 5, "zero_candidate": false}
{"pdf_atom_id": "ig34_p0182_a017", "pdf_atom_type": "TABLE_ROW", "pdf_source": "SDTMIG_v3.4", "pdf_page": 182, "pdf_parent_section": "§6.3.1 Product Accountability (DA)", "pdf_verbatim": "| 2 | ABC | DA | ABC-01001 | 2 | AB002 | DISPAMT | Dispensed Amount | Study Medication | Drug B | 1 | | CONTAINER | 1 | | | 1 | 2004-06-15 |", "figure_ref": null, "candidates": [{"md_atom_id": "md_dmDA_ex_a017", "md_file": "knowledge_base/domains/DA/examples.md", "md_atom_type": "TABLE_ROW", "md_parent_section": "§DA.2 [Example 2]", "md_verbatim": "| 2 | ABC | DA | ABC-01001 | 2 | AB002 | DISPAMT | Dispensed Amount | Study Medication | Drug B | 1 | CONTAINER | 1 | 1 | CONTAINER | 1 | 2004-06-15 |", "score": 1.0, "match_basis": "verbatim_token+domain_route:DA"}, {"md_atom_id": "md_dmDA_ex_a016", "md_file": "knowledge_base/domains/DA/examples.md", "md_atom_type": "TABLE_ROW", "md_parent_section": "§DA.2 [Example 2]", "md_verbatim": "| 1 | ABC | DA | ABC-01001 | 1 | AB001 | DISPAMT | Dispensed Amount | Study Medication | Drug A | 1 | CONTAINER | 1 | 1 | CONTAINER | 1 | 2004-06-15 |", "score": 0.986, "match_basis": "verbatim_token+domain_route:DA"}, {"md_atom_id": "md_dmDA_ex_a010", "md_file": "knowledge_base/domains/DA/examples.md", "md_atom_type": "TABLE_ROW", "md_parent_section": "§DA.1 [Example 1]", "md_verbatim": "| 5 | ABC | DA | ABC-01001 | 5 | | | DISPAMT | Dispensed Amount | Rescue Medication | | | 10 | TABLET | 10 | TABLET | 1 | | 2004-06-15 |", "score": 0.7294, "match_basis": "verbatim_token+domain_route:DA"}, {"md_atom_id": "md_dmDA_ex_a006", "md_file": "knowledge_base/domains/DA/examples.md", "md_atom_type": "TABLE_ROW", "md_parent_section": "§DA.1 [Example 1]", "md_verbatim": "| 1 | ABC | DA | ABC-01001 | 1 | XBYCC-E990A | A375827 | DISPAMT | Dispensed Amount | Study Medication | Bottle A | 30 | TABLET | 30 | 30 | TABLET | 1 | Study Med Period 1 | 2004-06-15 |", "score": 0.6818, "match_basis": "verbatim_token+domain_route:DA"}, {"md_atom_id": "md_dmDA_ex_a008", "md_file": "knowledge_base/domains/DA/examples.md", "md_atom_type": "TABLE_ROW", "md_parent_section": "§DA.1 [Example 1]", "md_verbatim": "| 3 | ABC | DA | ABC-01001 | 3 | XBYCC-E990B | A227588 | DISPAMT | Dispensed Amount | Study Medication | Bottle B | 15 | TABLET | 15 | 15 | TABLET | 1 | Study Med Period 1 | 2004-06-15 |", "score": 0.6818, "match_basis": "verbatim_token+domain_route:DA"}], "candidate_count": 5, "zero_candidate": false}
{"pdf_atom_id": "ig34_p0182_a018", "pdf_atom_type": "SENTENCE", "pdf_source": "SDTMIG_v3.4", "pdf_page": 182, "pdf_parent_section": "§6.3.1 Product Accountability (DA)", "pdf_verbatim": "Example 3", "figure_ref": null, "candidates": [{"md_atom_id": "md_dmDA_ex_a002", "md_file": "knowledge_base/domains/DA/examples.md", "md_atom_type": "HEADING", "md_parent_section": "§DA [DA — Examples]", "md_verbatim": "## Example 1", "score": 0.76, "match_basis": "verbatim_token+domain_route:DA"}, {"md_atom_id": "md_dmDA_ex_a012", "md_file": "knowledge_base/domains/DA/examples.md", "md_atom_type": "HEADING", "md_parent_section": "§DA [DA — Examples]", "md_verbatim": "## Example 2", "score": 0.76, "match_basis": "verbatim_token+domain_route:DA"}, {"md_atom_id": "md_dmDA_ex_a018", "md_file": "knowledge_base/domains/DA/examples.md", "md_atom_type": "HEADING", "md_parent_section": "§DA [DA — Examples]", "md_verbatim": "## Example 3", "score": 0.76, "match_basis": "verbatim_token+domain_route:DA"}, {"md_atom_id": "md_dmDA_ex_a001", "md_file": "knowledge_base/domains/DA/examples.md", "md_atom_type": "HEADING", "md_parent_section": "§DA [DA — Examples]", "md_verbatim": "# DA — Examples", "score": 0.66, "match_basis": "verbatim_token+domain_route:DA"}, {"md_atom_id": "md_dmDA_ex_a019", "md_file": "knowledge_base/domains/DA/examples.md", "md_atom_type": "SENTENCE", "md_parent_section": "§DA.3 [Example 3]", "md_verbatim": "This example shows, for a nutrition study, the volume of infant feeding formula prepared and the volume remaining after feeding.", "score": 0.4545, "match_basis": "verbatim_token+domain_route:DA"}, {"md_atom_id": "md_dmDA_ex_a003", "md_file": "knowledge_base/domains/DA/examples.md", "md_atom_type": "SENTENCE", "md_parent_section": "§DA.1 [Example 1]", "md_verbatim": "This example shows drug accounting for a study with 2 study medications and one rescue medication, all of which were measured in tablets. The sponsor chose to add EPOCH from the list of timing variables and to use DASPID and DAREFID for code numbers that appeared on the label.", "score": 0.4278, "match_basis": "verbatim_token+domain_route:DA"}, {"md_atom_id": "md_dmDA_ex_a004", "md_file": "knowledge_base/domains/DA/examples.md", "md_atom_type": "SENTENCE", "md_parent_section": "§DA.1 [Example 1]", "md_verbatim": "**da.xpt**", "score": 0.4, "match_basis": "verbatim_token+domain_route:DA"}, {"md_atom_id": "md_dmDA_ex_a013", "md_file": "knowledge_base/domains/DA/examples.md", "md_atom_type": "SENTENCE", "md_parent_section": "§DA.2 [Example 2]", "md_verbatim": "In this study, drug containers, rather than their contents, were being accounted for and the sponsor did not track returns. In this case, the purpose of accountability tracking is to verify that the containers dispensed were consistent with the randomization. The sponsor chose to use DASPID to record the identifying number of the container dispensed.", "score": 0.4, "match_basis": "verbatim_token+domain_route:DA"}, {"md_atom_id": "md_dmDA_ex_a014", "md_file": "knowledge_base/domains/DA/examples.md", "md_atom_type": "SENTENCE", "md_parent_section": "§DA.2 [Example 2]", "md_verbatim": "**da.xpt**", "score": 0.4, "match_basis": "verbatim_token+domain_route:DA"}, {"md_atom_id": "md_dmDA_ex_a020", "md_file": "knowledge_base/domains/DA/examples.md", "md_atom_type": "SENTENCE", "md_parent_section": "§DA.3 [Example 3]", "md_verbatim": "**Rows 1-2:** Show the volume of formula prepared and the volume of formula left after feeding for the first feed of the diary (day 1).", "score": 0.4, "match_basis": "verbatim_token+domain_route:DA"}], "candidate_count": 10, "zero_candidate": false}
{"pdf_atom_id": "ig34_p0182_a019", "pdf_atom_type": "SENTENCE", "pdf_source": "SDTMIG_v3.4", "pdf_page": 182, "pdf_parent_section": "§6.3.1 Product Accountability (DA)", "pdf_verbatim": "This example shows, for a nutrition study, the volume of infant feeding formula prepared and the volume remaining after feeding.", "figure_ref": null, "candidates": [{"md_atom_id": "md_dmDA_ex_a019", "md_file": "knowledge_base/domains/DA/examples.md", "md_atom_type": "SENTENCE", "md_parent_section": "§DA.3 [Example 3]", "md_verbatim": "This example shows, for a nutrition study, the volume of infant feeding formula prepared and the volume remaining after feeding.", "score": 1.0, "match_basis": "verbatim_token+domain_route:DA"}, {"md_atom_id": "md_dmDA_ex_a022", "md_file": "knowledge_base/domains/DA/examples.md", "md_atom_type": "SENTENCE", "md_parent_section": "§DA.3 [Example 3]", "md_verbatim": "**Rows 5-6:** Show the volume of formula prepared and the volume of formula left after feeding for the third feed of the diary (day 2).", "score": 0.6719, "match_basis": "verbatim_token+domain_route:DA"}, {"md_atom_id": "md_dmDA_ex_a020", "md_file": "knowledge_base/domains/DA/examples.md", "md_atom_type": "SENTENCE", "md_parent_section": "§DA.3 [Example 3]", "md_verbatim": "**Rows 1-2:** Show the volume of formula prepared and the volume of formula left after feeding for the first feed of the diary (day 1).", "score": 0.6585, "match_basis": "verbatim_token+domain_route:DA"}, {"md_atom_id": "md_dmDA_ex_a021", "md_file": "knowledge_base/domains/DA/examples.md", "md_atom_type": "SENTENCE", "md_parent_section": "§DA.3 [Example 3]", "md_verbatim": "**Rows 3-4:** Show the volume of formula prepared and the volume of formula left after feeding for the second feed of the diary (day 1).", "score": 0.6545, "match_basis": "verbatim_token+domain_route:DA"}, {"md_atom_id": "md_dmDA_ex_a003", "md_file": "knowledge_base/domains/DA/examples.md", "md_atom_type": "SENTENCE", "md_parent_section": "§DA.1 [Example 1]", "md_verbatim": "This example shows drug accounting for a study with 2 study medications and one rescue medication, all of which were measured in tablets. The sponsor chose to add EPOCH from the list of timing variables and to use DASPID and DAREFID for code numbers that appeared on the label.", "score": 0.4936, "match_basis": "verbatim_token+domain_route:DA"}], "candidate_count": 5, "zero_candidate": false}
{"pdf_atom_id": "ig34_p0182_a020", "pdf_atom_type": "SENTENCE", "pdf_source": "SDTMIG_v3.4", "pdf_page": 182, "pdf_parent_section": "§6.3.1 Product Accountability (DA)", "pdf_verbatim": "Rows 1-2:    Show the volume of formula prepared and the volume of formula left after feeding for the first feed of the diary (day 1).", "figure_ref": null, "candidates": [{"md_atom_id": "md_dmDA_ex_a020", "md_file": "knowledge_base/domains/DA/examples.md", "md_atom_type": "SENTENCE", "md_parent_section": "§DA.3 [Example 3]", "md_verbatim": "**Rows 1-2:** Show the volume of formula prepared and the volume of formula left after feeding for the first feed of the diary (day 1).", "score": 1.0, "match_basis": "verbatim_token+domain_route:DA"}, {"md_atom_id": "md_dmDA_ex_a022", "md_file": "knowledge_base/domains/DA/examples.md", "md_atom_type": "SENTENCE", "md_parent_section": "§DA.3 [Example 3]", "md_verbatim": "**Rows 5-6:** Show the volume of formula prepared and the volume of formula left after feeding for the third feed of the diary (day 2).", "score": 0.9122, "match_basis": "verbatim_token+domain_route:DA"}, {"md_atom_id": "md_dmDA_ex_a021", "md_file": "knowledge_base/domains/DA/examples.md", "md_atom_type": "SENTENCE", "md_parent_section": "§DA.3 [Example 3]", "md_verbatim": "**Rows 3-4:** Show the volume of formula prepared and the volume of formula left after feeding for the second feed of the diary (day 1).", "score": 0.9, "match_basis": "verbatim_token+domain_route:DA"}, {"md_atom_id": "md_dmDA_ex_a019", "md_file": "knowledge_base/domains/DA/examples.md", "md_atom_type": "SENTENCE", "md_parent_section": "§DA.3 [Example 3]", "md_verbatim": "This example shows, for a nutrition study, the volume of infant feeding formula prepared and the volume remaining after feeding.", "score": 0.6585, "match_basis": "verbatim_token+domain_route:DA"}, {"md_atom_id": "md_dmDA_ex_a003", "md_file": "knowledge_base/domains/DA/examples.md", "md_atom_type": "SENTENCE", "md_parent_section": "§DA.1 [Example 1]", "md_verbatim": "This example shows drug accounting for a study with 2 study medications and one rescue medication, all of which were measured in tablets. The sponsor chose to add EPOCH from the list of timing variables and to use DASPID and DAREFID for code numbers that appeared on the label.", "score": 0.4441, "match_basis": "verbatim_token+domain_route:DA"}], "candidate_count": 5, "zero_candidate": false}
{"pdf_atom_id": "ig34_p0182_a021", "pdf_atom_type": "SENTENCE", "pdf_source": "SDTMIG_v3.4", "pdf_page": 182, "pdf_parent_section": "§6.3.1 Product Accountability (DA)", "pdf_verbatim": "Rows 3-4:    Show the volume of formula prepared and the volume of formula left after feeding for the second feed of the diary (day 1).", "figure_ref": null, "candidates": [{"md_atom_id": "md_dmDA_ex_a021", "md_file": "knowledge_base/domains/DA/examples.md", "md_atom_type": "SENTENCE", "md_parent_section": "§DA.3 [Example 3]", "md_verbatim": "**Rows 3-4:** Show the volume of formula prepared and the volume of formula left after feeding for the second feed of the diary (day 1).", "score": 1.0, "match_basis": "verbatim_token+domain_route:DA"}, {"md_atom_id": "md_dmDA_ex_a020", "md_file": "knowledge_base/domains/DA/examples.md", "md_atom_type": "SENTENCE", "md_parent_section": "§DA.3 [Example 3]", "md_verbatim": "**Rows 1-2:** Show the volume of formula prepared and the volume of formula left after feeding for the first feed of the diary (day 1).", "score": 0.9, "match_basis": "verbatim_token+domain_route:DA"}, {"md_atom_id": "md_dmDA_ex_a022", "md_file": "knowledge_base/domains/DA/examples.md", "md_atom_type": "SENTENCE", "md_parent_section": "§DA.3 [Example 3]", "md_verbatim": "**Rows 5-6:** Show the volume of formula prepared and the volume of formula left after feeding for the third feed of the diary (day 2).", "score": 0.9, "match_basis": "verbatim_token+domain_route:DA"}, {"md_atom_id": "md_dmDA_ex_a019", "md_file": "knowledge_base/domains/DA/examples.md", "md_atom_type": "SENTENCE", "md_parent_section": "§DA.3 [Example 3]", "md_verbatim": "This example shows, for a nutrition study, the volume of infant feeding formula prepared and the volume remaining after feeding.", "score": 0.6545, "match_basis": "verbatim_token+domain_route:DA"}, {"md_atom_id": "md_dmDA_ex_a003", "md_file": "knowledge_base/domains/DA/examples.md", "md_atom_type": "SENTENCE", "md_parent_section": "§DA.1 [Example 1]", "md_verbatim": "This example shows drug accounting for a study with 2 study medications and one rescue medication, all of which were measured in tablets. The sponsor chose to add EPOCH from the list of timing variables and to use DASPID and DAREFID for code numbers that appeared on the label.", "score": 0.4438, "match_basis": "verbatim_token+domain_route:DA"}], "candidate_count": 5, "zero_candidate": false}
{"pdf_atom_id": "ig34_p0182_a022", "pdf_atom_type": "SENTENCE", "pdf_source": "SDTMIG_v3.4", "pdf_page": 182, "pdf_parent_section": "§6.3.1 Product Accountability (DA)", "pdf_verbatim": "Rows 5-6:    Show the volume of formula prepared and the volume of formula left after feeding for the third feed of the diary (day 2).", "figure_ref": null, "candidates": [{"md_atom_id": "md_dmDA_ex_a022", "md_file": "knowledge_base/domains/DA/examples.md", "md_atom_type": "SENTENCE", "md_parent_section": "§DA.3 [Example 3]", "md_verbatim": "**Rows 5-6:** Show the volume of formula prepared and the volume of formula left after feeding for the third feed of the diary (day 2).", "score": 1.0, "match_basis": "verbatim_token+domain_route:DA"}, {"md_atom_id": "md_dmDA_ex_a020", "md_file": "knowledge_base/domains/DA/examples.md", "md_atom_type": "SENTENCE", "md_parent_section": "§DA.3 [Example 3]", "md_verbatim": "**Rows 1-2:** Show the volume of formula prepared and the volume of formula left after feeding for the first feed of the diary (day 1).", "score": 0.9122, "match_basis": "verbatim_token+domain_route:DA"}, {"md_atom_id": "md_dmDA_ex_a021", "md_file": "knowledge_base/domains/DA/examples.md", "md_atom_type": "SENTENCE", "md_parent_section": "§DA.3 [Example 3]", "md_verbatim": "**Rows 3-4:** Show the volume of formula prepared and the volume of formula left after feeding for the second feed of the diary (day 1).", "score": 0.9, "match_basis": "verbatim_token+domain_route:DA"}, {"md_atom_id": "md_dmDA_ex_a019", "md_file": "knowledge_base/domains/DA/examples.md", "md_atom_type": "SENTENCE", "md_parent_section": "§DA.3 [Example 3]", "md_verbatim": "This example shows, for a nutrition study, the volume of infant feeding formula prepared and the volume remaining after feeding.", "score": 0.6719, "match_basis": "verbatim_token+domain_route:DA"}, {"md_atom_id": "md_dmDA_ex_a003", "md_file": "knowledge_base/domains/DA/examples.md", "md_atom_type": "SENTENCE", "md_parent_section": "§DA.1 [Example 1]", "md_verbatim": "This example shows drug accounting for a study with 2 study medications and one rescue medication, all of which were measured in tablets. The sponsor chose to add EPOCH from the list of timing variables and to use DASPID and DAREFID for code numbers that appeared on the label.", "score": 0.4489, "match_basis": "verbatim_token+domain_route:DA"}], "candidate_count": 5, "zero_candidate": false}
{"pdf_atom_id": "ig34_p0182_a023", "pdf_atom_type": "CODE_LITERAL", "pdf_source": "SDTMIG_v3.4", "pdf_page": 182, "pdf_parent_section": "§6.3.1 Product Accountability (DA)", "pdf_verbatim": "da.xpt", "figure_ref": null, "candidates": [{"md_atom_id": "md_dmDA_ex_a004", "md_file": "knowledge_base/domains/DA/examples.md", "md_atom_type": "SENTENCE", "md_parent_section": "§DA.1 [Example 1]", "md_verbatim": "**da.xpt**", "score": 0.79, "match_basis": "verbatim_token+domain_route:DA"}, {"md_atom_id": "md_dmDA_ex_a014", "md_file": "knowledge_base/domains/DA/examples.md", "md_atom_type": "SENTENCE", "md_parent_section": "§DA.2 [Example 2]", "md_verbatim": "**da.xpt**", "score": 0.79, "match_basis": "verbatim_token+domain_route:DA"}, {"md_atom_id": "md_dmDA_ex_a023", "md_file": "knowledge_base/domains/DA/examples.md", "md_atom_type": "SENTENCE", "md_parent_section": "§DA.3 [Example 3]", "md_verbatim": "**da.xpt**", "score": 0.79, "match_basis": "verbatim_token+domain_route:DA"}, {"md_atom_id": "md_dmDA_assn_a001", "md_file": "knowledge_base/domains/DA/assumptions.md", "md_atom_type": "HEADING", "md_parent_section": "§DA [DA — Assumptions]", "md_verbatim": "# DA — Assumptions", "score": 0.19, "match_basis": "verbatim_token+domain_route:DA"}, {"md_atom_id": "md_dmDA_assn_a002", "md_file": "knowledge_base/domains/DA/assumptions.md", "md_atom_type": "LIST_ITEM", "md_parent_section": "§DA [DA — Assumptions]", "md_verbatim": "1. This domain records the amount of study product transferred to or from the study subject.", "score": 0.19, "match_basis": "verbatim_token+domain_route:DA"}, {"md_atom_id": "md_dmDA_assn_a003", "md_file": "knowledge_base/domains/DA/assumptions.md", "md_atom_type": "LIST_ITEM", "md_parent_section": "§DA [DA — Assumptions]", "md_verbatim": "   a. Transfers of devices are not represented in this domain, but in the Device Tracking and Disposition (DT) domain. See the SDTMIG for Medical Devices (available at https://www.cdisc.org/standards/foundational/medical-devices-sdtmig/).", "score": 0.19, "match_basis": "verbatim_token+domain_route:DA"}, {"md_atom_id": "md_dmDA_assn_a004", "md_file": "knowledge_base/domains/DA/assumptions.md", "md_atom_type": "LIST_ITEM", "md_parent_section": "§DA [DA — Assumptions]", "md_verbatim": "   b. For drugs, transfers are usually recorded using the tests \"Dispensed Amount\" and \"Returned Amount\".", "score": 0.19, "match_basis": "verbatim_token+domain_route:DA"}, {"md_atom_id": "md_dmDA_assn_a005", "md_file": "knowledge_base/domains/DA/assumptions.md", "md_atom_type": "LIST_ITEM", "md_parent_section": "§DA [DA — Assumptions]", "md_verbatim": "   c. Test terminology for other products may be different; for example, for nutrition, the tests might be \"Prepared Amount\" and \"Unused Amount\".", "score": 0.19, "match_basis": "verbatim_token+domain_route:DA"}, {"md_atom_id": "md_dmDA_assn_a006", "md_file": "knowledge_base/domains/DA/assumptions.md", "md_atom_type": "LIST_ITEM", "md_parent_section": "§DA [DA — Assumptions]", "md_verbatim": "2. DACAT may be used to differentiate transfers of different groups of products (e.g., rescue medications vs. investigational medications).", "score": 0.19, "match_basis": "verbatim_token+domain_route:DA"}, {"md_atom_id": "md_dmDA_assn_a007", "md_file": "knowledge_base/domains/DA/assumptions.md", "md_atom_type": "LIST_ITEM", "md_parent_section": "§DA [DA — Assumptions]", "md_verbatim": "3. DAREFID and DASPID are both available for capturing label information.", "score": 0.19, "match_basis": "verbatim_token+domain_route:DA"}], "candidate_count": 10, "zero_candidate": false}
{"pdf_atom_id": "ig34_p0182_a024", "pdf_atom_type": "TABLE_HEADER", "pdf_source": "SDTMIG_v3.4", "pdf_page": 182, "pdf_parent_section": "§6.3.1 Product Accountability (DA)", "pdf_verbatim": "| Row | STUDYID | DOMAIN | USUBJID | DASEQ | DAGRPID | DASPID | DATESTCD | DATEST | DACAT | DAORRES | DAORRESU | DASTRESC | DASTRESN | DASTRESU | DADTC | DADY |", "figure_ref": null, "candidates": [{"md_atom_id": "md_dmDA_ex_a024", "md_file": "knowledge_base/domains/DA/examples.md", "md_atom_type": "TABLE_HEADER", "md_parent_section": "§DA.3 [Example 3]", "md_verbatim": "| Row | STUDYID | DOMAIN | USUBJID | DASEQ | DAGRPID | DASPID | DATESTCD | DATEST | DACAT | DAORRES | DAORRESU | DASTRESC | DASTRESN | DASTRESU | DADTC | DADY |\n|-----|---------|--------|---------|-------|---------|--------|----------|--------|-------|---------|----------|----------|----------|----------|-------|------|", "score": 1.0, "match_basis": "verbatim_token+domain_route:DA"}, {"md_atom_id": "md_dmDA_ex_a015", "md_file": "knowledge_base/domains/DA/examples.md", "md_atom_type": "TABLE_HEADER", "md_parent_section": "§DA.2 [Example 2]", "md_verbatim": "| Row | STUDYID | DOMAIN | USUBJID | DASEQ | DASPID | DATESTCD | DATEST | DACAT | DASCAT | DAORRES | DAORRESU | DASTRESC | DASTRESN | DASTRESU | VISITNUM | DADTC |\n|-----|---------|--------|---------|-------|--------|----------|--------|-------|--------|---------|----------|----------|----------|----------|----------|-------|", "score": 0.8632, "match_basis": "verbatim_token+domain_route:DA"}, {"md_atom_id": "md_dmDA_ex_a005", "md_file": "knowledge_base/domains/DA/examples.md", "md_atom_type": "TABLE_HEADER", "md_parent_section": "§DA.1 [Example 1]", "md_verbatim": "| Row | STUDYID | DOMAIN | USUBJID | DASEQ | DAREFID | DASPID | DATESTCD | DATEST | DACAT | DASCAT | DAORRES | DAORRESU | DASTRESC | DASTRESN | DASTRESU | VISITNUM | EPOCH | DADTC |\n|-----|---------|--------|---------|-------|---------|--------|----------|--------|-------|--------|---------|----------|----------|----------|----------|----------|-------|-------|", "score": 0.8062, "match_basis": "verbatim_token+domain_route:DA"}, {"md_atom_id": "md_dmDA_ex_a026", "md_file": "knowledge_base/domains/DA/examples.md", "md_atom_type": "TABLE_ROW", "md_parent_section": "§DA.3 [Example 3]", "md_verbatim": "| 2 | ABC | DA | 101 | 2 | 1 | 1 | REMAMT | Remaining Amount | Study Product | 15 | mL | 15 | 15 | mL | 2017-05-19 | 1 |", "score": 0.3835, "match_basis": "verbatim_token+domain_route:DA"}, {"md_atom_id": "md_dmDA_ex_a028", "md_file": "knowledge_base/domains/DA/examples.md", "md_atom_type": "TABLE_ROW", "md_parent_section": "§DA.3 [Example 3]", "md_verbatim": "| 4 | ABC | DA | 101 | 4 | 2 | 2 | REMAMT | Remaining Amount | Study Product | 25 | mL | 25 | 25 | mL | 2017-05-19 | 1 |", "score": 0.3835, "match_basis": "verbatim_token+domain_route:DA"}], "candidate_count": 5, "zero_candidate": false}
{"pdf_atom_id": "ig34_p0182_a025", "pdf_atom_type": "TABLE_ROW", "pdf_source": "SDTMIG_v3.4", "pdf_page": 182, "pdf_parent_section": "§6.3.1 Product Accountability (DA)", "pdf_verbatim": "| 1 | ABC | DA | 101 | 1 | | | PREPAMT | Prepared Amount | Study Product | 100 | mL | | 100 | mL | 2017-05-19 | 1 |", "figure_ref": null, "candidates": [{"md_atom_id": "md_dmDA_ex_a025", "md_file": "knowledge_base/domains/DA/examples.md", "md_atom_type": "TABLE_ROW", "md_parent_section": "§DA.3 [Example 3]", "md_verbatim": "| 1 | ABC | DA | 101 | 1 | 1 | 1 | PREPAMT | Prepared Amount | Study Product | 100 | mL | 100 | 100 | mL | 2017-05-19 | 1 |", "score": 1.0, "match_basis": "verbatim_token+domain_route:DA"}, {"md_atom_id": "md_dmDA_ex_a027", "md_file": "knowledge_base/domains/DA/examples.md", "md_atom_type": "TABLE_ROW", "md_parent_section": "§DA.3 [Example 3]", "md_verbatim": "| 3 | ABC | DA | 101 | 3 | 2 | 2 | PREPAMT | Prepared Amount | Study Product | 100 | mL | 100 | 100 | mL | 2017-05-19 | 1 |", "score": 1.0, "match_basis": "verbatim_token+domain_route:DA"}, {"md_atom_id": "md_dmDA_ex_a029", "md_file": "knowledge_base/domains/DA/examples.md", "md_atom_type": "TABLE_ROW", "md_parent_section": "§DA.3 [Example 3]", "md_verbatim": "| 5 | ABC | DA | 101 | 5 | 3 | 1 | PREPAMT | Prepared Amount | Study Product | 100 | mL | 100 | 100 | mL | 2017-05-20 | 2 |", "score": 1.0, "match_basis": "verbatim_token+domain_route:DA"}, {"md_atom_id": "md_dmDA_ex_a026", "md_file": "knowledge_base/domains/DA/examples.md", "md_atom_type": "TABLE_ROW", "md_parent_section": "§DA.3 [Example 3]", "md_verbatim": "| 2 | ABC | DA | 101 | 2 | 1 | 1 | REMAMT | Remaining Amount | Study Product | 15 | mL | 15 | 15 | mL | 2017-05-19 | 1 |", "score": 0.7091, "match_basis": "verbatim_token+domain_route:DA"}, {"md_atom_id": "md_dmDA_ex_a028", "md_file": "knowledge_base/domains/DA/examples.md", "md_atom_type": "TABLE_ROW", "md_parent_section": "§DA.3 [Example 3]", "md_verbatim": "| 4 | ABC | DA | 101 | 4 | 2 | 2 | REMAMT | Remaining Amount | Study Product | 25 | mL | 25 | 25 | mL | 2017-05-19 | 1 |", "score": 0.7091, "match_basis": "verbatim_token+domain_route:DA"}], "candidate_count": 5, "zero_candidate": false}
{"pdf_atom_id": "ig34_p0182_a026", "pdf_atom_type": "TABLE_ROW", "pdf_source": "SDTMIG_v3.4", "pdf_page": 182, "pdf_parent_section": "§6.3.1 Product Accountability (DA)", "pdf_verbatim": "| 2 | ABC | DA | 101 | 2 | | | REMAMT | Remaining Amount | Study Product | 15 | mL | | 15 | mL | 2017-05-19 | 1 |", "figure_ref": null, "candidates": [{"md_atom_id": "md_dmDA_ex_a026", "md_file": "knowledge_base/domains/DA/examples.md", "md_atom_type": "TABLE_ROW", "md_parent_section": "§DA.3 [Example 3]", "md_verbatim": "| 2 | ABC | DA | 101 | 2 | 1 | 1 | REMAMT | Remaining Amount | Study Product | 15 | mL | 15 | 15 | mL | 2017-05-19 | 1 |", "score": 1.0, "match_basis": "verbatim_token+domain_route:DA"}, {"md_atom_id": "md_dmDA_ex_a028", "md_file": "knowledge_base/domains/DA/examples.md", "md_atom_type": "TABLE_ROW", "md_parent_section": "§DA.3 [Example 3]", "md_verbatim": "| 4 | ABC | DA | 101 | 4 | 2 | 2 | REMAMT | Remaining Amount | Study Product | 25 | mL | 25 | 25 | mL | 2017-05-19 | 1 |", "score": 1.0, "match_basis": "verbatim_token+domain_route:DA"}, {"md_atom_id": "md_dmDA_ex_a030", "md_file": "knowledge_base/domains/DA/examples.md", "md_atom_type": "TABLE_ROW", "md_parent_section": "§DA.3 [Example 3]", "md_verbatim": "| 6 | ABC | DA | 101 | 6 | 3 | 1 | REMAMT | Remaining Amount | Study Product | 10 | mL | 10 | 10 | mL | 2017-05-20 | 2 |", "score": 1.0, "match_basis": "verbatim_token+domain_route:DA"}, {"md_atom_id": "md_dmDA_ex_a025", "md_file": "knowledge_base/domains/DA/examples.md", "md_atom_type": "TABLE_ROW", "md_parent_section": "§DA.3 [Example 3]", "md_verbatim": "| 1 | ABC | DA | 101 | 1 | 1 | 1 | PREPAMT | Prepared Amount | Study Product | 100 | mL | 100 | 100 | mL | 2017-05-19 | 1 |", "score": 0.7091, "match_basis": "verbatim_token+domain_route:DA"}, {"md_atom_id": "md_dmDA_ex_a027", "md_file": "knowledge_base/domains/DA/examples.md", "md_atom_type": "TABLE_ROW", "md_parent_section": "§DA.3 [Example 3]", "md_verbatim": "| 3 | ABC | DA | 101 | 3 | 2 | 2 | PREPAMT | Prepared Amount | Study Product | 100 | mL | 100 | 100 | mL | 2017-05-19 | 1 |", "score": 0.7091, "match_basis": "verbatim_token+domain_route:DA"}], "candidate_count": 5, "zero_candidate": false}
{"pdf_atom_id": "ig34_p0182_a027", "pdf_atom_type": "TABLE_ROW", "pdf_source": "SDTMIG_v3.4", "pdf_page": 182, "pdf_parent_section": "§6.3.1 Product Accountability (DA)", "pdf_verbatim": "| 3 | ABC | DA | 101 | 3 | 2 | 2 | PREPAMT | Prepared Amount | Study Product | 100 | mL | | 100 | 100 | mL | 2017-05-19 | 1 |", "figure_ref": null, "candidates": [{"md_atom_id": "md_dmDA_ex_a025", "md_file": "knowledge_base/domains/DA/examples.md", "md_atom_type": "TABLE_ROW", "md_parent_section": "§DA.3 [Example 3]", "md_verbatim": "| 1 | ABC | DA | 101 | 1 | 1 | 1 | PREPAMT | Prepared Amount | Study Product | 100 | mL | 100 | 100 | mL | 2017-05-19 | 1 |", "score": 1.0, "match_basis": "verbatim_token+domain_route:DA"}, {"md_atom_id": "md_dmDA_ex_a027", "md_file": "knowledge_base/domains/DA/examples.md", "md_atom_type": "TABLE_ROW", "md_parent_section": "§DA.3 [Example 3]", "md_verbatim": "| 3 | ABC | DA | 101 | 3 | 2 | 2 | PREPAMT | Prepared Amount | Study Product | 100 | mL | 100 | 100 | mL | 2017-05-19 | 1 |", "score": 1.0, "match_basis": "verbatim_token+domain_route:DA"}, {"md_atom_id": "md_dmDA_ex_a029", "md_file": "knowledge_base/domains/DA/examples.md", "md_atom_type": "TABLE_ROW", "md_parent_section": "§DA.3 [Example 3]", "md_verbatim": "| 5 | ABC | DA | 101 | 5 | 3 | 1 | PREPAMT | Prepared Amount | Study Product | 100 | mL | 100 | 100 | mL | 2017-05-20 | 2 |", "score": 1.0, "match_basis": "verbatim_token+domain_route:DA"}, {"md_atom_id": "md_dmDA_ex_a026", "md_file": "knowledge_base/domains/DA/examples.md", "md_atom_type": "TABLE_ROW", "md_parent_section": "§DA.3 [Example 3]", "md_verbatim": "| 2 | ABC | DA | 101 | 2 | 1 | 1 | REMAMT | Remaining Amount | Study Product | 15 | mL | 15 | 15 | mL | 2017-05-19 | 1 |", "score": 0.7091, "match_basis": "verbatim_token+domain_route:DA"}, {"md_atom_id": "md_dmDA_ex_a028", "md_file": "knowledge_base/domains/DA/examples.md", "md_atom_type": "TABLE_ROW", "md_parent_section": "§DA.3 [Example 3]", "md_verbatim": "| 4 | ABC | DA | 101 | 4 | 2 | 2 | REMAMT | Remaining Amount | Study Product | 25 | mL | 25 | 25 | mL | 2017-05-19 | 1 |", "score": 0.7091, "match_basis": "verbatim_token+domain_route:DA"}], "candidate_count": 5, "zero_candidate": false}
{"pdf_atom_id": "ig34_p0182_a028", "pdf_atom_type": "TABLE_ROW", "pdf_source": "SDTMIG_v3.4", "pdf_page": 182, "pdf_parent_section": "§6.3.1 Product Accountability (DA)", "pdf_verbatim": "| 4 | ABC | DA | 101 | 4 | 2 | | REMAMT | Remaining Amount | Study Product | 25 | mL | | 25 | 25 | mL | 2017-05-19 | 1 |", "figure_ref": null, "candidates": [{"md_atom_id": "md_dmDA_ex_a026", "md_file": "knowledge_base/domains/DA/examples.md", "md_atom_type": "TABLE_ROW", "md_parent_section": "§DA.3 [Example 3]", "md_verbatim": "| 2 | ABC | DA | 101 | 2 | 1 | 1 | REMAMT | Remaining Amount | Study Product | 15 | mL | 15 | 15 | mL | 2017-05-19 | 1 |", "score": 1.0, "match_basis": "verbatim_token+domain_route:DA"}, {"md_atom_id": "md_dmDA_ex_a028", "md_file": "knowledge_base/domains/DA/examples.md", "md_atom_type": "TABLE_ROW", "md_parent_section": "§DA.3 [Example 3]", "md_verbatim": "| 4 | ABC | DA | 101 | 4 | 2 | 2 | REMAMT | Remaining Amount | Study Product | 25 | mL | 25 | 25 | mL | 2017-05-19 | 1 |", "score": 1.0, "match_basis": "verbatim_token+domain_route:DA"}, {"md_atom_id": "md_dmDA_ex_a030", "md_file": "knowledge_base/domains/DA/examples.md", "md_atom_type": "TABLE_ROW", "md_parent_section": "§DA.3 [Example 3]", "md_verbatim": "| 6 | ABC | DA | 101 | 6 | 3 | 1 | REMAMT | Remaining Amount | Study Product | 10 | mL | 10 | 10 | mL | 2017-05-20 | 2 |", "score": 1.0, "match_basis": "verbatim_token+domain_route:DA"}, {"md_atom_id": "md_dmDA_ex_a025", "md_file": "knowledge_base/domains/DA/examples.md", "md_atom_type": "TABLE_ROW", "md_parent_section": "§DA.3 [Example 3]", "md_verbatim": "| 1 | ABC | DA | 101 | 1 | 1 | 1 | PREPAMT | Prepared Amount | Study Product | 100 | mL | 100 | 100 | mL | 2017-05-19 | 1 |", "score": 0.7091, "match_basis": "verbatim_token+domain_route:DA"}, {"md_atom_id": "md_dmDA_ex_a027", "md_file": "knowledge_base/domains/DA/examples.md", "md_atom_type": "TABLE_ROW", "md_parent_section": "§DA.3 [Example 3]", "md_verbatim": "| 3 | ABC | DA | 101 | 3 | 2 | 2 | PREPAMT | Prepared Amount | Study Product | 100 | mL | 100 | 100 | mL | 2017-05-19 | 1 |", "score": 0.7091, "match_basis": "verbatim_token+domain_route:DA"}], "candidate_count": 5, "zero_candidate": false}
{"pdf_atom_id": "ig34_p0182_a029", "pdf_atom_type": "TABLE_ROW", "pdf_source": "SDTMIG_v3.4", "pdf_page": 182, "pdf_parent_section": "§6.3.1 Product Accountability (DA)", "pdf_verbatim": "| 5 | ABC | DA | 101 | 5 | 3 | 1 | PREPAMT | Prepared Amount | Study Product | 100 | mL | | 100 | 100 | mL | 2017-05-20 | 2 |", "figure_ref": null, "candidates": [{"md_atom_id": "md_dmDA_ex_a025", "md_file": "knowledge_base/domains/DA/examples.md", "md_atom_type": "TABLE_ROW", "md_parent_section": "§DA.3 [Example 3]", "md_verbatim": "| 1 | ABC | DA | 101 | 1 | 1 | 1 | PREPAMT | Prepared Amount | Study Product | 100 | mL | 100 | 100 | mL | 2017-05-19 | 1 |", "score": 1.0, "match_basis": "verbatim_token+domain_route:DA"}, {"md_atom_id": "md_dmDA_ex_a027", "md_file": "knowledge_base/domains/DA/examples.md", "md_atom_type": "TABLE_ROW", "md_parent_section": "§DA.3 [Example 3]", "md_verbatim": "| 3 | ABC | DA | 101 | 3 | 2 | 2 | PREPAMT | Prepared Amount | Study Product | 100 | mL | 100 | 100 | mL | 2017-05-19 | 1 |", "score": 1.0, "match_basis": "verbatim_token+domain_route:DA"}, {"md_atom_id": "md_dmDA_ex_a029", "md_file": "knowledge_base/domains/DA/examples.md", "md_atom_type": "TABLE_ROW", "md_parent_section": "§DA.3 [Example 3]", "md_verbatim": "| 5 | ABC | DA | 101 | 5 | 3 | 1 | PREPAMT | Prepared Amount | Study Product | 100 | mL | 100 | 100 | mL | 2017-05-20 | 2 |", "score": 1.0, "match_basis": "verbatim_token+domain_route:DA"}, {"md_atom_id": "md_dmDA_ex_a026", "md_file": "knowledge_base/domains/DA/examples.md", "md_atom_type": "TABLE_ROW", "md_parent_section": "§DA.3 [Example 3]", "md_verbatim": "| 2 | ABC | DA | 101 | 2 | 1 | 1 | REMAMT | Remaining Amount | Study Product | 15 | mL | 15 | 15 | mL | 2017-05-19 | 1 |", "score": 0.7091, "match_basis": "verbatim_token+domain_route:DA"}, {"md_atom_id": "md_dmDA_ex_a028", "md_file": "knowledge_base/domains/DA/examples.md", "md_atom_type": "TABLE_ROW", "md_parent_section": "§DA.3 [Example 3]", "md_verbatim": "| 4 | ABC | DA | 101 | 4 | 2 | 2 | REMAMT | Remaining Amount | Study Product | 25 | mL | 25 | 25 | mL | 2017-05-19 | 1 |", "score": 0.7091, "match_basis": "verbatim_token+domain_route:DA"}], "candidate_count": 5, "zero_candidate": false}
{"pdf_atom_id": "ig34_p0182_a030", "pdf_atom_type": "TABLE_ROW", "pdf_source": "SDTMIG_v3.4", "pdf_page": 182, "pdf_parent_section": "§6.3.1 Product Accountability (DA)", "pdf_verbatim": "| 6 | ABC | DA | 101 | 6 | 3 | 1 | REMAMT | Remaining Amount | Study Product | 10 | mL | | 10 | 10 | mL | 2017-05-20 | 2 |", "figure_ref": null, "candidates": [{"md_atom_id": "md_dmDA_ex_a026", "md_file": "knowledge_base/domains/DA/examples.md", "md_atom_type": "TABLE_ROW", "md_parent_section": "§DA.3 [Example 3]", "md_verbatim": "| 2 | ABC | DA | 101 | 2 | 1 | 1 | REMAMT | Remaining Amount | Study Product | 15 | mL | 15 | 15 | mL | 2017-05-19 | 1 |", "score": 1.0, "match_basis": "verbatim_token+domain_route:DA"}, {"md_atom_id": "md_dmDA_ex_a028", "md_file": "knowledge_base/domains/DA/examples.md", "md_atom_type": "TABLE_ROW", "md_parent_section": "§DA.3 [Example 3]", "md_verbatim": "| 4 | ABC | DA | 101 | 4 | 2 | 2 | REMAMT | Remaining Amount | Study Product | 25 | mL | 25 | 25 | mL | 2017-05-19 | 1 |", "score": 1.0, "match_basis": "verbatim_token+domain_route:DA"}, {"md_atom_id": "md_dmDA_ex_a030", "md_file": "knowledge_base/domains/DA/examples.md", "md_atom_type": "TABLE_ROW", "md_parent_section": "§DA.3 [Example 3]", "md_verbatim": "| 6 | ABC | DA | 101 | 6 | 3 | 1 | REMAMT | Remaining Amount | Study Product | 10 | mL | 10 | 10 | mL | 2017-05-20 | 2 |", "score": 1.0, "match_basis": "verbatim_token+domain_route:DA"}, {"md_atom_id": "md_dmDA_ex_a025", "md_file": "knowledge_base/domains/DA/examples.md", "md_atom_type": "TABLE_ROW", "md_parent_section": "§DA.3 [Example 3]", "md_verbatim": "| 1 | ABC | DA | 101 | 1 | 1 | 1 | PREPAMT | Prepared Amount | Study Product | 100 | mL | 100 | 100 | mL | 2017-05-19 | 1 |", "score": 0.7091, "match_basis": "verbatim_token+domain_route:DA"}, {"md_atom_id": "md_dmDA_ex_a027", "md_file": "knowledge_base/domains/DA/examples.md", "md_atom_type": "TABLE_ROW", "md_parent_section": "§DA.3 [Example 3]", "md_verbatim": "| 3 | ABC | DA | 101 | 3 | 2 | 2 | PREPAMT | Prepared Amount | Study Product | 100 | mL | 100 | 100 | mL | 2017-05-19 | 1 |", "score": 0.7091, "match_basis": "verbatim_token+domain_route:DA"}], "candidate_count": 5, "zero_candidate": false}
{"pdf_atom_id": "ig34_p0183_a001", "pdf_atom_type": "HEADING", "pdf_source": "SDTMIG_v3.4", "pdf_page": 183, "pdf_parent_section": "§6.3 [MODELS FOR FINDINGS DOMAINS]", "pdf_verbatim": "6.3.2 Death Details (DD)", "figure_ref": null, "candidates": [{"md_atom_id": "md_varindex_a367", "md_file": "knowledge_base/VARIABLE_INDEX.md", "md_atom_type": "HEADING", "md_parent_section": "§ 二、领域专属变量（仅 1 个域，共 1499 个），按域分组", "md_verbatim": "### DD — Death Details (Findings)", "score": 0.6429, "match_basis": "verbatim_token+global_search"}, {"md_atom_id": "md_ch04_a123", "md_file": "knowledge_base/chapters/ch04_general_assumptions.md", "md_atom_type": "HEADING", "md_parent_section": "§4.1.8 [Origin Metadata]", "md_verbatim": "### 4.1.8 Origin Metadata", "score": 0.3353, "match_basis": "verbatim_token+global_search"}, {"md_atom_id": "md_ch02_a079", "md_file": "knowledge_base/chapters/ch02_fundamentals.md", "md_atom_type": "HEADING", "md_parent_section": "§2 [Fundamentals of the SDTM]", "md_verbatim": "## 2.6 Creating a New Domain", "score": 0.3333, "match_basis": "verbatim_token+global_search"}, {"md_atom_id": "md_ch03_a021", "md_file": "knowledge_base/chapters/ch03_submitting_data.md", "md_atom_type": "HEADING", "md_parent_section": "§3.2 [Using the CDISC Domain Models in Regulatory Submissions — Dataset Metadata]", "md_verbatim": "### 3.2.1 Dataset-level Metadata", "score": 0.3316, "match_basis": "verbatim_token+global_search"}, {"md_atom_id": "md_ch04_a130", "md_file": "knowledge_base/chapters/ch04_general_assumptions.md", "md_atom_type": "HEADING", "md_parent_section": "§4.1.8.2 [Origin Metadata for Records]", "md_verbatim": "#### 4.1.8.2 Origin Metadata for Records", "score": 0.3261, "match_basis": "verbatim_token+global_search"}], "candidate_count": 5, "zero_candidate": false}
{"pdf_atom_id": "ig34_p0183_a002", "pdf_atom_type": "HEADING", "pdf_source": "SDTMIG_v3.4", "pdf_page": 183, "pdf_parent_section": "§6.3.2 Death Details (DD)", "pdf_verbatim": "DD – Description/Overview", "figure_ref": null, "candidates": [{"md_atom_id": "md_dmDD_assn_a001", "md_file": "knowledge_base/domains/DD/assumptions.md", "md_atom_type": "HEADING", "md_parent_section": "§DD [DD — Assumptions]", "md_verbatim": "# DD — Assumptions", "score": 0.4857, "match_basis": "verbatim_token+domain_route:DD"}, {"md_atom_id": "md_dmDD_ex_a001", "md_file": "knowledge_base/domains/DD/examples.md", "md_atom_type": "HEADING", "md_parent_section": "§DD [DD — Examples]", "md_verbatim": "# DD — Examples", "score": 0.4, "match_basis": "verbatim_token+domain_route:DD"}, {"md_atom_id": "md_dmDD_ex_a002", "md_file": "knowledge_base/domains/DD/examples.md", "md_atom_type": "HEADING", "md_parent_section": "§DD [DD — Examples]", "md_verbatim": "## Example 1", "score": 0.4, "match_basis": "verbatim_token+domain_route:DD"}, {"md_atom_id": "md_dmDD_ex_a016", "md_file": "knowledge_base/domains/DD/examples.md", "md_atom_type": "HEADING", "md_parent_section": "§DD [DD — Examples]", "md_verbatim": "## Example 2", "score": 0.4, "match_basis": "verbatim_token+domain_route:DD"}], "candidate_count": 4, "zero_candidate": false}
{"pdf_atom_id": "ig34_p0183_a003", "pdf_atom_type": "SENTENCE", "pdf_source": "SDTMIG_v3.4", "pdf_page": 183, "pdf_parent_section": "§6.3.2 Death Details (DD)", "pdf_verbatim": "A findings domain that contains the diagnosis of the cause of death for a subject.", "figure_ref": null, "candidates": [{"md_atom_id": "md_dmDD_ex_a025", "md_file": "knowledge_base/domains/DD/examples.md", "md_atom_type": "SENTENCE", "md_parent_section": "§DD.2 [Example 2]", "md_verbatim": "The subject's death is also represented in the DS domain as the reason for withdrawal from the study.", "score": 0.5292, "match_basis": "verbatim_token+domain_route:DD"}, {"md_atom_id": "md_dmDD_ex_a006", "md_file": "knowledge_base/domains/DD/examples.md", "md_atom_type": "SENTENCE", "md_parent_section": "§DD.1 [Example 1]", "md_verbatim": "**Rows 5-7:** Show primary and secondary cause of death and location of death for a third subject.", "score": 0.5279, "match_basis": "verbatim_token+domain_route:DD"}, {"md_atom_id": "md_dmDD_ex_a004", "md_file": "knowledge_base/domains/DD/examples.md", "md_atom_type": "SENTENCE", "md_parent_section": "§DD.1 [Example 1]", "md_verbatim": "**Rows 1-2:** Show the primary cause of death and location of death for a subject. DDDTC is the date of assessment.", "score": 0.5182, "match_basis": "verbatim_token+domain_route:DD"}, {"md_atom_id": "md_dmDD_ex_a003", "md_file": "knowledge_base/domains/DD/examples.md", "md_atom_type": "SENTENCE", "md_parent_section": "§DD.1 [Example 1]", "md_verbatim": "This example shows the primary cause of death for 3 subjects. The CRF also collected the location of the subject's death and a secondary cause of death.", "score": 0.5135, "match_basis": "verbatim_token+domain_route:DD"}, {"md_atom_id": "md_dmDD_ex_a005", "md_file": "knowledge_base/domains/DD/examples.md", "md_atom_type": "SENTENCE", "md_parent_section": "§DD.1 [Example 1]", "md_verbatim": "**Rows 3-4:** Show records for primary cause of death and location of death for another subject for whom the information was not known.", "score": 0.5068, "match_basis": "verbatim_token+domain_route:DD"}], "candidate_count": 5, "zero_candidate": false}
{"pdf_atom_id": "ig34_p0183_a004", "pdf_atom_type": "SENTENCE", "pdf_source": "SDTMIG_v3.4", "pdf_page": 183, "pdf_parent_section": "§6.3.2 Death Details (DD)", "pdf_verbatim": "The domain is designed to hold supplemental data that are typically collected when a death occurs, such as the official cause of death. It does not replace existing data such as serious adverse event details in AE. Further, it does not introduce a new requirement to collect information that is not already indicated as good clinical practice or defined in regulatory guidelines. Instead, it provides a consistent place within the SDTM to hold information that previously did not have a clearly defined home.", "figure_ref": null, "candidates": [{"md_atom_id": "md_dmDD_ex_a017", "md_file": "knowledge_base/domains/DD/examples.md", "md_atom_type": "SENTENCE", "md_parent_section": "§DD.2 [Example 2]", "md_verbatim": "This example illustrates how the DD, Disposition (DS), and AE data for a subject were linked using RELREC. Note that each of these domains serves a different purpose, even though the information is related. This subject had a fatal adverse event, represented in the AE domain.", "score": 0.495, "match_basis": "verbatim_token+domain_route:DD"}, {"md_atom_id": "md_dmDD_ex_a003", "md_file": "knowledge_base/domains/DD/examples.md", "md_atom_type": "SENTENCE", "md_parent_section": "§DD.1 [Example 1]", "md_verbatim": "This example shows the primary cause of death for 3 subjects. The CRF also collected the location of the subject's death and a secondary cause of death.", "score": 0.4589, "match_basis": "verbatim_token+domain_route:DD"}, {"md_atom_id": "md_dmDD_ex_a005", "md_file": "knowledge_base/domains/DD/examples.md", "md_atom_type": "SENTENCE", "md_parent_section": "§DD.1 [Example 1]", "md_verbatim": "**Rows 3-4:** Show records for primary cause of death and location of death for another subject for whom the information was not known.", "score": 0.4565, "match_basis": "verbatim_token+domain_route:DD"}, {"md_atom_id": "md_dmDD_assn_a003", "md_file": "knowledge_base/domains/DD/assumptions.md", "md_atom_type": "LIST_ITEM", "md_parent_section": "§DD [DD — Assumptions]", "md_verbatim": "2. Death details are typically collected on designated CRF pages. The DD domain is not intended to collate data that are collected in standard variables in other domains, such as AE.AEOUT (Outcome of Adverse Event), AE.AESDTH (Results in Death) or DS.DSTERM (Reported Term for the Disposition Event). Data from other domains that relates to the death can be linked to DD using RELREC.", "score": 0.4548, "match_basis": "verbatim_token+domain_route:DD"}, {"md_atom_id": "md_dmDD_ex_a021", "md_file": "knowledge_base/domains/DD/examples.md", "md_atom_type": "SENTENCE", "md_parent_section": "§DD.2 [Example 2]", "md_verbatim": "The primary cause of death was collected and is represented in DD. In this case, the result for primary cause of death is the same as the term in the AE record.", "score": 0.4516, "match_basis": "verbatim_token+domain_route:DD"}], "candidate_count": 5, "zero_candidate": false}
{"pdf_atom_id": "ig34_p0183_a005", "pdf_atom_type": "HEADING", "pdf_source": "SDTMIG_v3.4", "pdf_page": 183, "pdf_parent_section": "§6.3.2 Death Details (DD)", "pdf_verbatim": "DD – Specification", "figure_ref": null, "candidates": [{"md_atom_id": "md_dmDD_assn_a001", "md_file": "knowledge_base/domains/DD/assumptions.md", "md_atom_type": "HEADING", "md_parent_section": "§DD [DD — Assumptions]", "md_verbatim": "# DD — Assumptions", "score": 0.4667, "match_basis": "verbatim_token+domain_route:DD"}, {"md_atom_id": "md_dmDD_ex_a001", "md_file": "knowledge_base/domains/DD/examples.md", "md_atom_type": "HEADING", "md_parent_section": "§DD [DD — Examples]", "md_verbatim": "# DD — Examples", "score": 0.4, "match_basis": "verbatim_token+domain_route:DD"}, {"md_atom_id": "md_dmDD_ex_a002", "md_file": "knowledge_base/domains/DD/examples.md", "md_atom_type": "HEADING", "md_parent_section": "§DD [DD — Examples]", "md_verbatim": "## Example 1", "score": 0.4, "match_basis": "verbatim_token+domain_route:DD"}, {"md_atom_id": "md_dmDD_ex_a016", "md_file": "knowledge_base/domains/DD/examples.md", "md_atom_type": "HEADING", "md_parent_section": "§DD [DD — Examples]", "md_verbatim": "## Example 2", "score": 0.4, "match_basis": "verbatim_token+domain_route:DD"}], "candidate_count": 4, "zero_candidate": false}
{"pdf_atom_id": "ig34_p0183_a006", "pdf_atom_type": "SENTENCE", "pdf_source": "SDTMIG_v3.4", "pdf_page": 183, "pdf_parent_section": "§6.3.2 Death Details (DD)", "pdf_verbatim": "dd.xpt, Death Details — Findings. One record per finding per subject, Tabulation.", "figure_ref": null, "candidates": [{"md_atom_id": "md_dmDD_ex_a033", "md_file": "knowledge_base/domains/DD/examples.md", "md_atom_type": "SENTENCE", "md_parent_section": "§DD.2 [Example 2]", "md_verbatim": "The relationship between the DS, AE, and DD records that reflect the subject's death is represented in RELREC.", "score": 0.5477, "match_basis": "verbatim_token+domain_route:DD"}, {"md_atom_id": "md_dmDD_ex_a005", "md_file": "knowledge_base/domains/DD/examples.md", "md_atom_type": "SENTENCE", "md_parent_section": "§DD.1 [Example 1]", "md_verbatim": "**Rows 3-4:** Show records for primary cause of death and location of death for another subject for whom the information was not known.", "score": 0.5324, "match_basis": "verbatim_token+domain_route:DD"}, {"md_atom_id": "md_dmDD_ex_a006", "md_file": "knowledge_base/domains/DD/examples.md", "md_atom_type": "SENTENCE", "md_parent_section": "§DD.1 [Example 1]", "md_verbatim": "**Rows 5-7:** Show primary and secondary cause of death and location of death for a third subject.", "score": 0.522, "match_basis": "verbatim_token+domain_route:DD"}, {"md_atom_id": "md_dmDD_ex_a004", "md_file": "knowledge_base/domains/DD/examples.md", "md_atom_type": "SENTENCE", "md_parent_section": "§DD.1 [Example 1]", "md_verbatim": "**Rows 1-2:** Show the primary cause of death and location of death for a subject. DDDTC is the date of assessment.", "score": 0.5015, "match_basis": "verbatim_token+domain_route:DD"}, {"md_atom_id": "md_dmDD_ex_a003", "md_file": "knowledge_base/domains/DD/examples.md", "md_atom_type": "SENTENCE", "md_parent_section": "§DD.1 [Example 1]", "md_verbatim": "This example shows the primary cause of death for 3 subjects. The CRF also collected the location of the subject's death and a secondary cause of death.", "score": 0.4986, "match_basis": "verbatim_token+domain_route:DD"}], "candidate_count": 5, "zero_candidate": false}
{"pdf_atom_id": "ig34_p0183_a007", "pdf_atom_type": "TABLE_HEADER", "pdf_source": "SDTMIG_v3.4", "pdf_page": 183, "pdf_parent_section": "§6.3.2 Death Details (DD)", "pdf_verbatim": "| Variable Name | Variable Label | Type | Controlled Terms, Codelist or Format1 | Role | CDISC Notes | Core |", "figure_ref": null, "candidates": [{"md_atom_id": "md_dmDD_ex_a035", "md_file": "knowledge_base/domains/DD/examples.md", "md_atom_type": "TABLE_HEADER", "md_parent_section": "§DD.2 [Example 2]", "md_verbatim": "| Row | STUDYID | RDOMAIN | USUBJID | IDVAR | IDVARVAL | RELTYPE | RELID |\n|-----|---------|---------|---------|-------|----------|---------|-------|", "score": 0.4348, "match_basis": "verbatim_token+domain_route:DD"}, {"md_atom_id": "md_dmDD_ex_a029", "md_file": "knowledge_base/domains/DD/examples.md", "md_atom_type": "TABLE_HEADER", "md_parent_section": "§DD.2 [Example 2]", "md_verbatim": "| Row | STUDYID | DOMAIN | USUBJID | DSSEQ | DSTERM | DSDECOD | DSCAT | DSDTC | DSSTDTC |\n|-----|---------|--------|---------|-------|--------|---------|-------|-------|---------|", "score": 0.4237, "match_basis": "verbatim_token+domain_route:DD"}, {"md_atom_id": "md_dmDD_ex_a019", "md_file": "knowledge_base/domains/DD/examples.md", "md_atom_type": "TABLE_HEADER", "md_parent_section": "§DD.2 [Example 2]", "md_verbatim": "| Row | STUDYID | DOMAIN | USUBJID | AESEQ | AETERM | AESTDTC | AEENDTC | AEDECOD | AEBODSYS | AEOUT | AESER | AESDTH |\n|-----|---------|--------|---------|-------|--------|---------|---------|---------|----------|-------|-------|--------|", "score": 0.4202, "match_basis": "verbatim_token+domain_route:DD"}, {"md_atom_id": "md_dmDD_ex_a008", "md_file": "knowledge_base/domains/DD/examples.md", "md_atom_type": "TABLE_HEADER", "md_parent_section": "§DD.1 [Example 1]", "md_verbatim": "| Row | STUDYID | DOMAIN | USUBJID | DDSEQ | DDTESTCD | DDTEST | DDORRES | DDSTRESC | DDDTC |\n|-----|---------|--------|---------|-------|----------|--------|---------|----------|-------|", "score": 0.4077, "match_basis": "verbatim_token+domain_route:DD"}, {"md_atom_id": "md_dmDD_ex_a023", "md_file": "knowledge_base/domains/DD/examples.md", "md_atom_type": "TABLE_HEADER", "md_parent_section": "§DD.2 [Example 2]", "md_verbatim": "| Row | STUDYID | DOMAIN | USUBJID | DDSEQ | DDTESTCD | DDTEST | DDORRES | DDSTRESC | DDDTC |\n|-----|---------|--------|---------|-------|----------|--------|---------|----------|-------|", "score": 0.4077, "match_basis": "verbatim_token+domain_route:DD"}], "candidate_count": 5, "zero_candidate": false}
{"pdf_atom_id": "ig34_p0183_a008", "pdf_atom_type": "TABLE_ROW", "pdf_source": "SDTMIG_v3.4", "pdf_page": 183, "pdf_parent_section": "§6.3.2 Death Details (DD)", "pdf_verbatim": "| STUDYID | Study Identifier | Char | | Identifier | Unique identifier for a study. | Req |", "figure_ref": null, "candidates": [{"md_atom_id": "md_dmDD_ex_a032", "md_file": "knowledge_base/domains/DD/examples.md", "md_atom_type": "TABLE_ROW", "md_parent_section": "§DD.2 [Example 2]", "md_verbatim": "| 3 | ABC123 | DS | ABC12301001 | 3 | SUDDEN CARDIAC DEATH | DEATH | DISPOSITION EVENT | 2011-01-10 | 2011-01-10 |", "score": 0.4222, "match_basis": "verbatim_token+domain_route:DD"}, {"md_atom_id": "md_dmDD_ex_a030", "md_file": "knowledge_base/domains/DD/examples.md", "md_atom_type": "TABLE_ROW", "md_parent_section": "§DD.2 [Example 2]", "md_verbatim": "| 1 | ABC123 | DS | ABC12301001 | 1 | INFORMED CONSENT OBTAINED | INFORMED CONSENT OBTAINED | PROTOCOL MILESTONE | 2011-01-02 | 2011-01-02 |", "score": 0.42, "match_basis": "verbatim_token+domain_route:DD"}, {"md_atom_id": "md_dmDD_ex_a009", "md_file": "knowledge_base/domains/DD/examples.md", "md_atom_type": "TABLE_ROW", "md_parent_section": "§DD.1 [Example 1]", "md_verbatim": "| 1 | ABC123 | DD | ABC12301001 | 1 | PRCDTH | Primary Cause of Death | SUDDEN CARDIAC DEATH | SUDDEN CARDIAC DEATH | 2011-01-12 |", "score": 0.4109, "match_basis": "verbatim_token+domain_route:DD"}, {"md_atom_id": "md_dmDD_ex_a024", "md_file": "knowledge_base/domains/DD/examples.md", "md_atom_type": "TABLE_ROW", "md_parent_section": "§DD.2 [Example 2]", "md_verbatim": "| 1 | ABC123 | DD | ABC12301001 | 1 | PRCDTH | Primary Cause of Death | SUDDEN CARDIAC DEATH | SUDDEN CARDIAC DEATH | 2011-01-12 |", "score": 0.4109, "match_basis": "verbatim_token+domain_route:DD"}, {"md_atom_id": "md_dmDD_ex_a020", "md_file": "knowledge_base/domains/DD/examples.md", "md_atom_type": "TABLE_ROW", "md_parent_section": "§DD.2 [Example 2]", "md_verbatim": "| 1 | ABC123 | AE | ABC12301001 | 6 | SUDDEN CARDIAC DEATH | 2011-01-10 | 2011-01-10 | SUDDEN CARDIAC DEATH | CARDIOVASCULAR SYSTEM | FATAL | Y | Y |", "score": 0.4102, "match_basis": "verbatim_token+domain_route:DD"}], "candidate_count": 5, "zero_candidate": false}
{"pdf_atom_id": "ig34_p0183_a009", "pdf_atom_type": "TABLE_ROW", "pdf_source": "SDTMIG_v3.4", "pdf_page": 183, "pdf_parent_section": "§6.3.2 Death Details (DD)", "pdf_verbatim": "| DOMAIN | Domain Abbreviation | Char | DD | Identifier | Two-character abbreviation for the domain. | Req |", "figure_ref": null, "candidates": [{"md_atom_id": "md_dmDD_ex_a032", "md_file": "knowledge_base/domains/DD/examples.md", "md_atom_type": "TABLE_ROW", "md_parent_section": "§DD.2 [Example 2]", "md_verbatim": "| 3 | ABC123 | DS | ABC12301001 | 3 | SUDDEN CARDIAC DEATH | DEATH | DISPOSITION EVENT | 2011-01-10 | 2011-01-10 |", "score": 0.4375, "match_basis": "verbatim_token+domain_route:DD"}, {"md_atom_id": "md_dmDD_ex_a010", "md_file": "knowledge_base/domains/DD/examples.md", "md_atom_type": "TABLE_ROW", "md_parent_section": "§DD.1 [Example 1]", "md_verbatim": "| 2 | ABC123 | DD | ABC12301001 | 2 | LOCDTH | Location of Death | HOME | HOME | 2011-01-12 |", "score": 0.4327, "match_basis": "verbatim_token+domain_route:DD"}, {"md_atom_id": "md_dmDD_ex_a012", "md_file": "knowledge_base/domains/DD/examples.md", "md_atom_type": "TABLE_ROW", "md_parent_section": "§DD.1 [Example 1]", "md_verbatim": "| 4 | ABC123 | DD | ABC12301002 | 2 | LOCDTH | Location of Death | UNKNOWN | UNKNOWN | 2011-03-15 |", "score": 0.431, "match_basis": "verbatim_token+domain_route:DD"}, {"md_atom_id": "md_dmDD_ex_a015", "md_file": "knowledge_base/domains/DD/examples.md", "md_atom_type": "TABLE_ROW", "md_parent_section": "§DD.1 [Example 1]", "md_verbatim": "| 7 | ABC123 | DD | ABC12301023 | 3 | LOCDTH | Location of Death | MEMORIAL HOSPITAL | HOSPITAL | 2011-09-09 |", "score": 0.4277, "match_basis": "verbatim_token+domain_route:DD"}, {"md_atom_id": "md_dmDD_ex_a030", "md_file": "knowledge_base/domains/DD/examples.md", "md_atom_type": "TABLE_ROW", "md_parent_section": "§DD.2 [Example 2]", "md_verbatim": "| 1 | ABC123 | DS | ABC12301001 | 1 | INFORMED CONSENT OBTAINED | INFORMED CONSENT OBTAINED | PROTOCOL MILESTONE | 2011-01-02 | 2011-01-02 |", "score": 0.4254, "match_basis": "verbatim_token+domain_route:DD"}], "candidate_count": 5, "zero_candidate": false}
{"pdf_atom_id": "ig34_p0183_a010", "pdf_atom_type": "TABLE_ROW", "pdf_source": "SDTMIG_v3.4", "pdf_page": 183, "pdf_parent_section": "§6.3.2 Death Details (DD)", "pdf_verbatim": "| USUBJID | Unique Subject Identifier | Char | | Identifier | Identifier used to uniquely identify a subject across all studies for all applications or submissions involving the product. | Req |", "figure_ref": null, "candidates": [{"md_atom_id": "md_dmDD_ex_a010", "md_file": "knowledge_base/domains/DD/examples.md", "md_atom_type": "TABLE_ROW", "md_parent_section": "§DD.1 [Example 1]", "md_verbatim": "| 2 | ABC123 | DD | ABC12301001 | 2 | LOCDTH | Location of Death | HOME | HOME | 2011-01-12 |", "score": 0.427, "match_basis": "verbatim_token+domain_route:DD"}, {"md_atom_id": "md_dmDD_ex_a012", "md_file": "knowledge_base/domains/DD/examples.md", "md_atom_type": "TABLE_ROW", "md_parent_section": "§DD.1 [Example 1]", "md_verbatim": "| 4 | ABC123 | DD | ABC12301002 | 2 | LOCDTH | Location of Death | UNKNOWN | UNKNOWN | 2011-03-15 |", "score": 0.4261, "match_basis": "verbatim_token+domain_route:DD"}, {"md_atom_id": "md_dmDD_ex_a015", "md_file": "knowledge_base/domains/DD/examples.md", "md_atom_type": "TABLE_ROW", "md_parent_section": "§DD.1 [Example 1]", "md_verbatim": "| 7 | ABC123 | DD | ABC12301023 | 3 | LOCDTH | Location of Death | MEMORIAL HOSPITAL | HOSPITAL | 2011-09-09 |", "score": 0.4242, "match_basis": "verbatim_token+domain_route:DD"}, {"md_atom_id": "md_dmDD_ex_a032", "md_file": "knowledge_base/domains/DD/examples.md", "md_atom_type": "TABLE_ROW", "md_parent_section": "§DD.2 [Example 2]", "md_verbatim": "| 3 | ABC123 | DS | ABC12301001 | 3 | SUDDEN CARDIAC DEATH | DEATH | DISPOSITION EVENT | 2011-01-10 | 2011-01-10 |", "score": 0.4242, "match_basis": "verbatim_token+domain_route:DD"}, {"md_atom_id": "md_dmDD_ex_a030", "md_file": "knowledge_base/domains/DD/examples.md", "md_atom_type": "TABLE_ROW", "md_parent_section": "§DD.2 [Example 2]", "md_verbatim": "| 1 | ABC123 | DS | ABC12301001 | 1 | INFORMED CONSENT OBTAINED | INFORMED CONSENT OBTAINED | PROTOCOL MILESTONE | 2011-01-02 | 2011-01-02 |", "score": 0.4229, "match_basis": "verbatim_token+domain_route:DD"}], "candidate_count": 5, "zero_candidate": false}
{"pdf_atom_id": "ig34_p0183_a011", "pdf_atom_type": "TABLE_ROW", "pdf_source": "SDTMIG_v3.4", "pdf_page": 183, "pdf_parent_section": "§6.3.2 Death Details (DD)", "pdf_verbatim": "| DDSEQ | Sequence Number | Num | | Identifier | Sequence number given to ensure uniqueness of subject records within a domain. May be any valid number. | Req |", "figure_ref": null, "candidates": [{"md_atom_id": "md_dmDD_ex_a038", "md_file": "knowledge_base/domains/DD/examples.md", "md_atom_type": "TABLE_ROW", "md_parent_section": "§DD.2 [Example 2]", "md_verbatim": "| 3 | ABC123 | DD | ABC12301001 | DDSEQ | 1 | | 1 |", "score": 0.4273, "match_basis": "verbatim_token+domain_route:DD"}, {"md_atom_id": "md_dmDD_ex_a032", "md_file": "knowledge_base/domains/DD/examples.md", "md_atom_type": "TABLE_ROW", "md_parent_section": "§DD.2 [Example 2]", "md_verbatim": "| 3 | ABC123 | DS | ABC12301001 | 3 | SUDDEN CARDIAC DEATH | DEATH | DISPOSITION EVENT | 2011-01-10 | 2011-01-10 |", "score": 0.4202, "match_basis": "verbatim_token+domain_route:DD"}, {"md_atom_id": "md_dmDD_ex_a014", "md_file": "knowledge_base/domains/DD/examples.md", "md_atom_type": "TABLE_ROW", "md_parent_section": "§DD.1 [Example 1]", "md_verbatim": "| 6 | ABC123 | DD | ABC12301023 | 2 | SECDTH | Secondary Cause of Death | CHF | CONGESTIVE HEART FAILURE | 2011-09-09 |", "score": 0.4186, "match_basis": "verbatim_token+domain_route:DD"}, {"md_atom_id": "md_dmDD_ex_a030", "md_file": "knowledge_base/domains/DD/examples.md", "md_atom_type": "TABLE_ROW", "md_parent_section": "§DD.2 [Example 2]", "md_verbatim": "| 1 | ABC123 | DS | ABC12301001 | 1 | INFORMED CONSENT OBTAINED | INFORMED CONSENT OBTAINED | PROTOCOL MILESTONE | 2011-01-02 | 2011-01-02 |", "score": 0.4125, "match_basis": "verbatim_token+domain_route:DD"}, {"md_atom_id": "md_dmDD_ex_a036", "md_file": "knowledge_base/domains/DD/examples.md", "md_atom_type": "TABLE_ROW", "md_parent_section": "§DD.2 [Example 2]", "md_verbatim": "| 1 | ABC123 | DS | ABC12301001 | DSSEQ | 3 | | 1 |", "score": 0.4088, "match_basis": "verbatim_token+domain_route:DD"}], "candidate_count": 5, "zero_candidate": false}
{"pdf_atom_id": "ig34_p0183_a012", "pdf_atom_type": "TABLE_ROW", "pdf_source": "SDTMIG_v3.4", "pdf_page": 183, "pdf_parent_section": "§6.3.2 Death Details (DD)", "pdf_verbatim": "| DDTESTCD | Death Detail Assessment Short Name | Char | (DTHDXCD) | Topic | Short name of the measurement, test, or examination described in DDTEST. It can be used as a column name when converting a dataset from a vertical to a horizontal format. The value in DDTESTCD cannot be longer than 8 characters, nor can it start with a number (e.g., \"1TEST\" is not valid). DDTESTCD cannot contain characters other than letters, numbers, or underscores. Examples: \"PRCDTH\", \"SECDTH\". | Req |", "figure_ref": null, "candidates": [{"md_atom_id": "md_dmDD_ex_a014", "md_file": "knowledge_base/domains/DD/examples.md", "md_atom_type": "TABLE_ROW", "md_parent_section": "§DD.1 [Example 1]", "md_verbatim": "| 6 | ABC123 | DD | ABC12301023 | 2 | SECDTH | Secondary Cause of Death | CHF | CONGESTIVE HEART FAILURE | 2011-09-09 |", "score": 0.4497, "match_basis": "verbatim_token+domain_route:DD"}, {"md_atom_id": "md_dmDD_ex_a015", "md_file": "knowledge_base/domains/DD/examples.md", "md_atom_type": "TABLE_ROW", "md_parent_section": "§DD.1 [Example 1]", "md_verbatim": "| 7 | ABC123 | DD | ABC12301023 | 3 | LOCDTH | Location of Death | MEMORIAL HOSPITAL | HOSPITAL | 2011-09-09 |", "score": 0.4337, "match_basis": "verbatim_token+domain_route:DD"}, {"md_atom_id": "md_dmDD_ex_a030", "md_file": "knowledge_base/domains/DD/examples.md", "md_atom_type": "TABLE_ROW", "md_parent_section": "§DD.2 [Example 2]", "md_verbatim": "| 1 | ABC123 | DS | ABC12301001 | 1 | INFORMED CONSENT OBTAINED | INFORMED CONSENT OBTAINED | PROTOCOL MILESTONE | 2011-01-02 | 2011-01-02 |", "score": 0.4292, "match_basis": "verbatim_token+domain_route:DD"}, {"md_atom_id": "md_dmDD_ex_a010", "md_file": "knowledge_base/domains/DD/examples.md", "md_atom_type": "TABLE_ROW", "md_parent_section": "§DD.1 [Example 1]", "md_verbatim": "| 2 | ABC123 | DD | ABC12301001 | 2 | LOCDTH | Location of Death | HOME | HOME | 2011-01-12 |", "score": 0.4282, "match_basis": "verbatim_token+domain_route:DD"}, {"md_atom_id": "md_dmDD_ex_a012", "md_file": "knowledge_base/domains/DD/examples.md", "md_atom_type": "TABLE_ROW", "md_parent_section": "§DD.1 [Example 1]", "md_verbatim": "| 4 | ABC123 | DD | ABC12301002 | 2 | LOCDTH | Location of Death | UNKNOWN | UNKNOWN | 2011-03-15 |", "score": 0.4277, "match_basis": "verbatim_token+domain_route:DD"}], "candidate_count": 5, "zero_candidate": false}
{"pdf_atom_id": "ig34_p0183_a013", "pdf_atom_type": "TABLE_ROW", "pdf_source": "SDTMIG_v3.4", "pdf_page": 183, "pdf_parent_section": "§6.3.2 Death Details (DD)", "pdf_verbatim": "| DDTEST | Death Detail Assessment Name | Char | (DTHDX) | Synonym Qualifier | Long name for DDTESTCD. The value in DDTEST cannot be longer than 40 characters. Examples: \"Primary Cause of Death\", \"Secondary Cause of Death\". | Req |", "figure_ref": null, "candidates": [{"md_atom_id": "md_dmDD_ex_a014", "md_file": "knowledge_base/domains/DD/examples.md", "md_atom_type": "TABLE_ROW", "md_parent_section": "§DD.1 [Example 1]", "md_verbatim": "| 6 | ABC123 | DD | ABC12301023 | 2 | SECDTH | Secondary Cause of Death | CHF | CONGESTIVE HEART FAILURE | 2011-09-09 |", "score": 0.5009, "match_basis": "verbatim_token+domain_route:DD"}, {"md_atom_id": "md_dmDD_ex_a011", "md_file": "knowledge_base/domains/DD/examples.md", "md_atom_type": "TABLE_ROW", "md_parent_section": "§DD.1 [Example 1]", "md_verbatim": "| 3 | ABC123 | DD | ABC12301002 | 1 | PRCDTH | Primary Cause of Death | UNKNOWN | UNKNOWN | 2011-03-15 |", "score": 0.4713, "match_basis": "verbatim_token+domain_route:DD"}, {"md_atom_id": "md_dmDD_ex_a009", "md_file": "knowledge_base/domains/DD/examples.md", "md_atom_type": "TABLE_ROW", "md_parent_section": "§DD.1 [Example 1]", "md_verbatim": "| 1 | ABC123 | DD | ABC12301001 | 1 | PRCDTH | Primary Cause of Death | SUDDEN CARDIAC DEATH | SUDDEN CARDIAC DEATH | 2011-01-12 |", "score": 0.4686, "match_basis": "verbatim_token+domain_route:DD"}, {"md_atom_id": "md_dmDD_ex_a024", "md_file": "knowledge_base/domains/DD/examples.md", "md_atom_type": "TABLE_ROW", "md_parent_section": "§DD.2 [Example 2]", "md_verbatim": "| 1 | ABC123 | DD | ABC12301001 | 1 | PRCDTH | Primary Cause of Death | SUDDEN CARDIAC DEATH | SUDDEN CARDIAC DEATH | 2011-01-12 |", "score": 0.4686, "match_basis": "verbatim_token+domain_route:DD"}, {"md_atom_id": "md_dmDD_ex_a013", "md_file": "knowledge_base/domains/DD/examples.md", "md_atom_type": "TABLE_ROW", "md_parent_section": "§DD.1 [Example 1]", "md_verbatim": "| 5 | ABC123 | DD | ABC12301023 | 1 | PRCDTH | Primary Cause of Death | CARDIAC ARRHYTHMIA | CARDIAC ARRHYTHMIA | 2011-09-09 |", "score": 0.4661, "match_basis": "verbatim_token+domain_route:DD"}], "candidate_count": 5, "zero_candidate": false}
{"pdf_atom_id": "ig34_p0183_a014", "pdf_atom_type": "TABLE_ROW", "pdf_source": "SDTMIG_v3.4", "pdf_page": 183, "pdf_parent_section": "§6.3.2 Death Details (DD)", "pdf_verbatim": "| DDORRES | Result or Finding as Collected | Char | | Result Qualifier | Result of the test defined in DDTEST, as originally received or collected. | Exp |", "figure_ref": null, "candidates": [{"md_atom_id": "md_dmDD_ex_a030", "md_file": "knowledge_base/domains/DD/examples.md", "md_atom_type": "TABLE_ROW", "md_parent_section": "§DD.2 [Example 2]", "md_verbatim": "| 1 | ABC123 | DS | ABC12301001 | 1 | INFORMED CONSENT OBTAINED | INFORMED CONSENT OBTAINED | PROTOCOL MILESTONE | 2011-01-02 | 2011-01-02 |", "score": 0.4267, "match_basis": "verbatim_token+domain_route:DD"}, {"md_atom_id": "md_dmDD_ex_a031", "md_file": "knowledge_base/domains/DD/examples.md", "md_atom_type": "TABLE_ROW", "md_parent_section": "§DD.2 [Example 2]", "md_verbatim": "| 2 | ABC123 | DS | ABC12301001 | 2 | RANDOMIZED | RANDOMIZED | PROTOCOL MILESTONE | 2011-01-03 | 2011-01-03 |", "score": 0.4145, "match_basis": "verbatim_token+domain_route:DD"}, {"md_atom_id": "md_dmDD_ex_a014", "md_file": "knowledge_base/domains/DD/examples.md", "md_atom_type": "TABLE_ROW", "md_parent_section": "§DD.1 [Example 1]", "md_verbatim": "| 6 | ABC123 | DD | ABC12301023 | 2 | SECDTH | Secondary Cause of Death | CHF | CONGESTIVE HEART FAILURE | 2011-09-09 |", "score": 0.4128, "match_basis": "verbatim_token+domain_route:DD"}, {"md_atom_id": "md_dmDD_ex_a008", "md_file": "knowledge_base/domains/DD/examples.md", "md_atom_type": "TABLE_HEADER", "md_parent_section": "§DD.1 [Example 1]", "md_verbatim": "| Row | STUDYID | DOMAIN | USUBJID | DDSEQ | DDTESTCD | DDTEST | DDORRES | DDSTRESC | DDDTC |\n|-----|---------|--------|---------|-------|----------|--------|---------|----------|-------|", "score": 0.4084, "match_basis": "verbatim_token+domain_route:DD"}, {"md_atom_id": "md_dmDD_ex_a023", "md_file": "knowledge_base/domains/DD/examples.md", "md_atom_type": "TABLE_HEADER", "md_parent_section": "§DD.2 [Example 2]", "md_verbatim": "| Row | STUDYID | DOMAIN | USUBJID | DDSEQ | DDTESTCD | DDTEST | DDORRES | DDSTRESC | DDDTC |\n|-----|---------|--------|---------|-------|----------|--------|---------|----------|-------|", "score": 0.4084, "match_basis": "verbatim_token+domain_route:DD"}], "candidate_count": 5, "zero_candidate": false}
{"pdf_atom_id": "ig34_p0183_a015", "pdf_atom_type": "TABLE_ROW", "pdf_source": "SDTMIG_v3.4", "pdf_page": 183, "pdf_parent_section": "§6.3.2 Death Details (DD)", "pdf_verbatim": "| DDSTRESC | Character Result/Finding in Std Format | Char | | Result Qualifier | Contains the result or finding copied or derived from DDORRES in a standard format. | Exp |", "figure_ref": null, "candidates": [{"md_atom_id": "md_dmDD_ex_a030", "md_file": "knowledge_base/domains/DD/examples.md", "md_atom_type": "TABLE_ROW", "md_parent_section": "§DD.2 [Example 2]", "md_verbatim": "| 1 | ABC123 | DS | ABC12301001 | 1 | INFORMED CONSENT OBTAINED | INFORMED CONSENT OBTAINED | PROTOCOL MILESTONE | 2011-01-02 | 2011-01-02 |", "score": 0.4306, "match_basis": "verbatim_token+domain_route:DD"}, {"md_atom_id": "md_dmDD_ex_a014", "md_file": "knowledge_base/domains/DD/examples.md", "md_atom_type": "TABLE_ROW", "md_parent_section": "§DD.1 [Example 1]", "md_verbatim": "| 6 | ABC123 | DD | ABC12301023 | 2 | SECDTH | Secondary Cause of Death | CHF | CONGESTIVE HEART FAILURE | 2011-09-09 |", "score": 0.4238, "match_basis": "verbatim_token+domain_route:DD"}, {"md_atom_id": "md_dmDD_ex_a008", "md_file": "knowledge_base/domains/DD/examples.md", "md_atom_type": "TABLE_HEADER", "md_parent_section": "§DD.1 [Example 1]", "md_verbatim": "| Row | STUDYID | DOMAIN | USUBJID | DDSEQ | DDTESTCD | DDTEST | DDORRES | DDSTRESC | DDDTC |\n|-----|---------|--------|---------|-------|----------|--------|---------|----------|-------|", "score": 0.4167, "match_basis": "verbatim_token+domain_route:DD"}, {"md_atom_id": "md_dmDD_ex_a023", "md_file": "knowledge_base/domains/DD/examples.md", "md_atom_type": "TABLE_HEADER", "md_parent_section": "§DD.2 [Example 2]", "md_verbatim": "| Row | STUDYID | DOMAIN | USUBJID | DDSEQ | DDTESTCD | DDTEST | DDORRES | DDSTRESC | DDDTC |\n|-----|---------|--------|---------|-------|----------|--------|---------|----------|-------|", "score": 0.4167, "match_basis": "verbatim_token+domain_route:DD"}, {"md_atom_id": "md_dmDD_ex_a038", "md_file": "knowledge_base/domains/DD/examples.md", "md_atom_type": "TABLE_ROW", "md_parent_section": "§DD.2 [Example 2]", "md_verbatim": "| 3 | ABC123 | DD | ABC12301001 | DDSEQ | 1 | | 1 |", "score": 0.4082, "match_basis": "verbatim_token+domain_route:DD"}], "candidate_count": 5, "zero_candidate": false}
{"pdf_atom_id": "ig34_p0183_a016", "pdf_atom_type": "TABLE_ROW", "pdf_source": "SDTMIG_v3.4", "pdf_page": 183, "pdf_parent_section": "§6.3.2 Death Details (DD)", "pdf_verbatim": "| DDRESCAT | Result Category | Char | * | Variable Qualifier | Used to categorize the result of a finding. Examples: \"TREATMENT RELATED\", \"NONTREATMENT RELATED\", \"UNDETERMINED\", \"ACCIDENTAL\". | Perm |", "figure_ref": null, "candidates": [{"md_atom_id": "md_dmDD_ex_a015", "md_file": "knowledge_base/domains/DD/examples.md", "md_atom_type": "TABLE_ROW", "md_parent_section": "§DD.1 [Example 1]", "md_verbatim": "| 7 | ABC123 | DD | ABC12301023 | 3 | LOCDTH | Location of Death | MEMORIAL HOSPITAL | HOSPITAL | 2011-09-09 |", "score": 0.4278, "match_basis": "verbatim_token+domain_route:DD"}, {"md_atom_id": "md_dmDD_ex_a030", "md_file": "knowledge_base/domains/DD/examples.md", "md_atom_type": "TABLE_ROW", "md_parent_section": "§DD.2 [Example 2]", "md_verbatim": "| 1 | ABC123 | DS | ABC12301001 | 1 | INFORMED CONSENT OBTAINED | INFORMED CONSENT OBTAINED | PROTOCOL MILESTONE | 2011-01-02 | 2011-01-02 |", "score": 0.4209, "match_basis": "verbatim_token+domain_route:DD"}, {"md_atom_id": "md_dmDD_ex_a009", "md_file": "knowledge_base/domains/DD/examples.md", "md_atom_type": "TABLE_ROW", "md_parent_section": "§DD.1 [Example 1]", "md_verbatim": "| 1 | ABC123 | DD | ABC12301001 | 1 | PRCDTH | Primary Cause of Death | SUDDEN CARDIAC DEATH | SUDDEN CARDIAC DEATH | 2011-01-12 |", "score": 0.4164, "match_basis": "verbatim_token+domain_route:DD"}, {"md_atom_id": "md_dmDD_ex_a024", "md_file": "knowledge_base/domains/DD/examples.md", "md_atom_type": "TABLE_ROW", "md_parent_section": "§DD.2 [Example 2]", "md_verbatim": "| 1 | ABC123 | DD | ABC12301001 | 1 | PRCDTH | Primary Cause of Death | SUDDEN CARDIAC DEATH | SUDDEN CARDIAC DEATH | 2011-01-12 |", "score": 0.4164, "match_basis": "verbatim_token+domain_route:DD"}, {"md_atom_id": "md_dmDD_ex_a032", "md_file": "knowledge_base/domains/DD/examples.md", "md_atom_type": "TABLE_ROW", "md_parent_section": "§DD.2 [Example 2]", "md_verbatim": "| 3 | ABC123 | DS | ABC12301001 | 3 | SUDDEN CARDIAC DEATH | DEATH | DISPOSITION EVENT | 2011-01-10 | 2011-01-10 |", "score": 0.4164, "match_basis": "verbatim_token+domain_route:DD"}], "candidate_count": 5, "zero_candidate": false}
{"pdf_atom_id": "ig34_p0183_a017", "pdf_atom_type": "TABLE_ROW", "pdf_source": "SDTMIG_v3.4", "pdf_page": 183, "pdf_parent_section": "§6.3.2 Death Details (DD)", "pdf_verbatim": "| DDEVAL | Evaluator | Char | (EVAL) | Record Qualifier | Role of the person who provided the evaluation. | Perm |", "figure_ref": null, "candidates": [{"md_atom_id": "md_dmDD_ex_a010", "md_file": "knowledge_base/domains/DD/examples.md", "md_atom_type": "TABLE_ROW", "md_parent_section": "§DD.1 [Example 1]", "md_verbatim": "| 2 | ABC123 | DD | ABC12301001 | 2 | LOCDTH | Location of Death | HOME | HOME | 2011-01-12 |", "score": 0.429, "match_basis": "verbatim_token+domain_route:DD"}, {"md_atom_id": "md_dmDD_ex_a012", "md_file": "knowledge_base/domains/DD/examples.md", "md_atom_type": "TABLE_ROW", "md_parent_section": "§DD.1 [Example 1]", "md_verbatim": "| 4 | ABC123 | DD | ABC12301002 | 2 | LOCDTH | Location of Death | UNKNOWN | UNKNOWN | 2011-03-15 |", "score": 0.4277, "match_basis": "verbatim_token+domain_route:DD"}, {"md_atom_id": "md_dmDD_ex_a015", "md_file": "knowledge_base/domains/DD/examples.md", "md_atom_type": "TABLE_ROW", "md_parent_section": "§DD.1 [Example 1]", "md_verbatim": "| 7 | ABC123 | DD | ABC12301023 | 3 | LOCDTH | Location of Death | MEMORIAL HOSPITAL | HOSPITAL | 2011-09-09 |", "score": 0.425, "match_basis": "verbatim_token+domain_route:DD"}, {"md_atom_id": "md_dmDD_ex_a032", "md_file": "knowledge_base/domains/DD/examples.md", "md_atom_type": "TABLE_ROW", "md_parent_section": "§DD.2 [Example 2]", "md_verbatim": "| 3 | ABC123 | DS | ABC12301001 | 3 | SUDDEN CARDIAC DEATH | DEATH | DISPOSITION EVENT | 2011-01-10 | 2011-01-10 |", "score": 0.425, "match_basis": "verbatim_token+domain_route:DD"}, {"md_atom_id": "md_dmDD_ex_a031", "md_file": "knowledge_base/domains/DD/examples.md", "md_atom_type": "TABLE_ROW", "md_parent_section": "§DD.2 [Example 2]", "md_verbatim": "| 2 | ABC123 | DS | ABC12301001 | 2 | RANDOMIZED | RANDOMIZED | PROTOCOL MILESTONE | 2011-01-03 | 2011-01-03 |", "score": 0.4085, "match_basis": "verbatim_token+domain_route:DD"}], "candidate_count": 5, "zero_candidate": false}
{"pdf_atom_id": "ig34_p0183_a018", "pdf_atom_type": "TABLE_ROW", "pdf_source": "SDTMIG_v3.4", "pdf_page": 183, "pdf_parent_section": "§6.3.2 Death Details (DD)", "pdf_verbatim": "| DDDTC | Date/Time of Collection | Char | ISO 8601 datetime or interval | Timing | Date/time of collection of the diagnosis or other death assessment data in ISO 8601 format. This is not necessarily the date of death. | Exp |", "figure_ref": null, "candidates": [{"md_atom_id": "md_dmDD_ex_a032", "md_file": "knowledge_base/domains/DD/examples.md", "md_atom_type": "TABLE_ROW", "md_parent_section": "§DD.2 [Example 2]", "md_verbatim": "| 3 | ABC123 | DS | ABC12301001 | 3 | SUDDEN CARDIAC DEATH | DEATH | DISPOSITION EVENT | 2011-01-10 | 2011-01-10 |", "score": 0.45, "match_basis": "verbatim_token+domain_route:DD"}, {"md_atom_id": "md_dmDD_ex_a010", "md_file": "knowledge_base/domains/DD/examples.md", "md_atom_type": "TABLE_ROW", "md_parent_section": "§DD.1 [Example 1]", "md_verbatim": "| 2 | ABC123 | DD | ABC12301001 | 2 | LOCDTH | Location of Death | HOME | HOME | 2011-01-12 |", "score": 0.4337, "match_basis": "verbatim_token+domain_route:DD"}, {"md_atom_id": "md_dmDD_ex_a012", "md_file": "knowledge_base/domains/DD/examples.md", "md_atom_type": "TABLE_ROW", "md_parent_section": "§DD.1 [Example 1]", "md_verbatim": "| 4 | ABC123 | DD | ABC12301002 | 2 | LOCDTH | Location of Death | UNKNOWN | UNKNOWN | 2011-03-15 |", "score": 0.4326, "match_basis": "verbatim_token+domain_route:DD"}, {"md_atom_id": "md_dmDD_ex_a015", "md_file": "knowledge_base/domains/DD/examples.md", "md_atom_type": "TABLE_ROW", "md_parent_section": "§DD.1 [Example 1]", "md_verbatim": "| 7 | ABC123 | DD | ABC12301023 | 3 | LOCDTH | Location of Death | MEMORIAL HOSPITAL | HOSPITAL | 2011-09-09 |", "score": 0.4303, "match_basis": "verbatim_token+domain_route:DD"}, {"md_atom_id": "md_dmDD_ex_a020", "md_file": "knowledge_base/domains/DD/examples.md", "md_atom_type": "TABLE_ROW", "md_parent_section": "§DD.2 [Example 2]", "md_verbatim": "| 1 | ABC123 | AE | ABC12301001 | 6 | SUDDEN CARDIAC DEATH | 2011-01-10 | 2011-01-10 | SUDDEN CARDIAC DEATH | CARDIOVASCULAR SYSTEM | FATAL | Y | Y |", "score": 0.4291, "match_basis": "verbatim_token+domain_route:DD"}], "candidate_count": 5, "zero_candidate": false}
{"pdf_atom_id": "ig34_p0183_a019", "pdf_atom_type": "TABLE_ROW", "pdf_source": "SDTMIG_v3.4", "pdf_page": 183, "pdf_parent_section": "§6.3.2 Death Details (DD)", "pdf_verbatim": "| DDDY | Study Day of Collection | Num | | Timing | Study day of the collection, in integer days. The algorithm for calculations must be relative to the sponsor-defined RFSTDTC variable in the Demographics (DM) domain. | Perm |", "figure_ref": null, "candidates": [{"md_atom_id": "md_dmDD_ex_a015", "md_file": "knowledge_base/domains/DD/examples.md", "md_atom_type": "TABLE_ROW", "md_parent_section": "§DD.1 [Example 1]", "md_verbatim": "| 7 | ABC123 | DD | ABC12301023 | 3 | LOCDTH | Location of Death | MEMORIAL HOSPITAL | HOSPITAL | 2011-09-09 |", "score": 0.4319, "match_basis": "verbatim_token+domain_route:DD"}, {"md_atom_id": "md_dmDD_ex_a030", "md_file": "knowledge_base/domains/DD/examples.md", "md_atom_type": "TABLE_ROW", "md_parent_section": "§DD.2 [Example 2]", "md_verbatim": "| 1 | ABC123 | DS | ABC12301001 | 1 | INFORMED CONSENT OBTAINED | INFORMED CONSENT OBTAINED | PROTOCOL MILESTONE | 2011-01-02 | 2011-01-02 |", "score": 0.4303, "match_basis": "verbatim_token+domain_route:DD"}, {"md_atom_id": "md_dmDD_ex_a010", "md_file": "knowledge_base/domains/DD/examples.md", "md_atom_type": "TABLE_ROW", "md_parent_section": "§DD.1 [Example 1]", "md_verbatim": "| 2 | ABC123 | DD | ABC12301001 | 2 | LOCDTH | Location of Death | HOME | HOME | 2011-01-12 |", "score": 0.417, "match_basis": "verbatim_token+domain_route:DD"}, {"md_atom_id": "md_dmDD_ex_a012", "md_file": "knowledge_base/domains/DD/examples.md", "md_atom_type": "TABLE_ROW", "md_parent_section": "§DD.1 [Example 1]", "md_verbatim": "| 4 | ABC123 | DD | ABC12301002 | 2 | LOCDTH | Location of Death | UNKNOWN | UNKNOWN | 2011-03-15 |", "score": 0.4165, "match_basis": "verbatim_token+domain_route:DD"}, {"md_atom_id": "md_dmDD_ex_a032", "md_file": "knowledge_base/domains/DD/examples.md", "md_atom_type": "TABLE_ROW", "md_parent_section": "§DD.2 [Example 2]", "md_verbatim": "| 3 | ABC123 | DS | ABC12301001 | 3 | SUDDEN CARDIAC DEATH | DEATH | DISPOSITION EVENT | 2011-01-10 | 2011-01-10 |", "score": 0.4155, "match_basis": "verbatim_token+domain_route:DD"}], "candidate_count": 5, "zero_candidate": false}
{"pdf_atom_id": "ig34_p0183_a020", "pdf_atom_type": "NOTE", "pdf_source": "SDTMIG_v3.4", "pdf_page": 183, "pdf_parent_section": "§6.3.2 Death Details (DD)", "pdf_verbatim": "1In this column, an asterisk (*) indicates that the variable may be subject to controlled terminology. CDISC/NCI codelist values are enclosed in parentheses.", "figure_ref": null, "candidates": [{"md_atom_id": "md_dmDD_assn_a005", "md_file": "knowledge_base/domains/DD/assumptions.md", "md_atom_type": "LIST_ITEM", "md_parent_section": "§DD [DD — Assumptions]", "md_verbatim": "4. There are separate codelists for DD tests and responses. Associations between the DD tests and response codelists are described in the DD codeable (available at https://www.cdisc.org/standards/terminology/controlled-terminology).", "score": 0.4022, "match_basis": "verbatim_token+domain_route:DD"}, {"md_atom_id": "md_dmDD_ex_a003", "md_file": "knowledge_base/domains/DD/examples.md", "md_atom_type": "SENTENCE", "md_parent_section": "§DD.1 [Example 1]", "md_verbatim": "This example shows the primary cause of death for 3 subjects. The CRF also collected the location of the subject's death and a secondary cause of death.", "score": 0.3767, "match_basis": "verbatim_token+domain_route:DD"}, {"md_atom_id": "md_dmDD_ex_a017", "md_file": "knowledge_base/domains/DD/examples.md", "md_atom_type": "SENTENCE", "md_parent_section": "§DD.2 [Example 2]", "md_verbatim": "This example illustrates how the DD, Disposition (DS), and AE data for a subject were linked using RELREC. Note that each of these domains serves a different purpose, even though the information is related. This subject had a fatal adverse event, represented in the AE domain.", "score": 0.3751, "match_basis": "verbatim_token+domain_route:DD"}, {"md_atom_id": "md_dmDD_ex_a021", "md_file": "knowledge_base/domains/DD/examples.md", "md_atom_type": "SENTENCE", "md_parent_section": "§DD.2 [Example 2]", "md_verbatim": "The primary cause of death was collected and is represented in DD. In this case, the result for primary cause of death is the same as the term in the AE record.", "score": 0.3684, "match_basis": "verbatim_token+domain_route:DD"}, {"md_atom_id": "md_dmDD_ex_a004", "md_file": "knowledge_base/domains/DD/examples.md", "md_atom_type": "SENTENCE", "md_parent_section": "§DD.1 [Example 1]", "md_verbatim": "**Rows 1-2:** Show the primary cause of death and location of death for a subject. DDDTC is the date of assessment.", "score": 0.3641, "match_basis": "verbatim_token+domain_route:DD"}], "candidate_count": 5, "zero_candidate": false}
{"pdf_atom_id": "ig34_p0184_a001", "pdf_atom_type": "HEADING", "pdf_source": "SDTMIG_v3.4", "pdf_page": 184, "pdf_parent_section": "§6.3.2 Death Details (DD)", "pdf_verbatim": "DD – Assumptions", "figure_ref": null, "candidates": [{"md_atom_id": "md_dmDD_assn_a001", "md_file": "knowledge_base/domains/DD/assumptions.md", "md_atom_type": "HEADING", "md_parent_section": "§DD [DD — Assumptions]", "md_verbatim": "# DD — Assumptions", "score": 1.0, "match_basis": "verbatim_token+domain_route:DD"}, {"md_atom_id": "md_dmDD_ex_a001", "md_file": "knowledge_base/domains/DD/examples.md", "md_atom_type": "HEADING", "md_parent_section": "§DD [DD — Examples]", "md_verbatim": "# DD — Examples", "score": 0.4, "match_basis": "verbatim_token+domain_route:DD"}, {"md_atom_id": "md_dmDD_ex_a002", "md_file": "knowledge_base/domains/DD/examples.md", "md_atom_type": "HEADING", "md_parent_section": "§DD [DD — Examples]", "md_verbatim": "## Example 1", "score": 0.4, "match_basis": "verbatim_token+domain_route:DD"}, {"md_atom_id": "md_dmDD_ex_a016", "md_file": "knowledge_base/domains/DD/examples.md", "md_atom_type": "HEADING", "md_parent_section": "§DD [DD — Examples]", "md_verbatim": "## Example 2", "score": 0.4, "match_basis": "verbatim_token+domain_route:DD"}], "candidate_count": 4, "zero_candidate": false}
{"pdf_atom_id": "ig34_p0184_a002", "pdf_atom_type": "LIST_ITEM", "pdf_source": "SDTMIG_v3.4", "pdf_page": 184, "pdf_parent_section": "§6.3.2 Death Details (DD)", "pdf_verbatim": "1. There may be more than 1 cause of death. If so, these may be separated into primary and secondary causes and/or other appropriate designations. DD may also include other details about the death, such as where the death occurred and whether it was witnessed.", "figure_ref": null, "candidates": [{"md_atom_id": "md_dmDD_assn_a002", "md_file": "knowledge_base/domains/DD/assumptions.md", "md_atom_type": "LIST_ITEM", "md_parent_section": "§DD [DD — Assumptions]", "md_verbatim": "1. There may be more than 1 cause of death. If so, these may be separated into primary and secondary causes and/or other appropriate designations. DD may also include other details about the death, such as where the death occurred and whether it was witnessed.", "score": 1.0, "match_basis": "verbatim_token+domain_route:DD"}, {"md_atom_id": "md_dmDD_assn_a003", "md_file": "knowledge_base/domains/DD/assumptions.md", "md_atom_type": "LIST_ITEM", "md_parent_section": "§DD [DD — Assumptions]", "md_verbatim": "2. Death details are typically collected on designated CRF pages. The DD domain is not intended to collate data that are collected in standard variables in other domains, such as AE.AEOUT (Outcome of Adverse Event), AE.AESDTH (Results in Death) or DS.DSTERM (Reported Term for the Disposition Event). Data from other domains that relates to the death can be linked to DD using RELREC.", "score": 0.4952, "match_basis": "verbatim_token+domain_route:DD"}, {"md_atom_id": "md_dmDD_assn_a005", "md_file": "knowledge_base/domains/DD/assumptions.md", "md_atom_type": "LIST_ITEM", "md_parent_section": "§DD [DD — Assumptions]", "md_verbatim": "4. There are separate codelists for DD tests and responses. Associations between the DD tests and response codelists are described in the DD codeable (available at https://www.cdisc.org/standards/terminology/controlled-terminology).", "score": 0.4841, "match_basis": "verbatim_token+domain_route:DD"}, {"md_atom_id": "md_dmDD_assn_a004", "md_file": "knowledge_base/domains/DD/assumptions.md", "md_atom_type": "LIST_ITEM", "md_parent_section": "§DD [DD — Assumptions]", "md_verbatim": "3. This domain is not intended to include data obtained from autopsy. An autopsy is a procedure from which there will usually be findings. Autopsy information should be handled as per recommendations in the Procedures (PR) domain.", "score": 0.4726, "match_basis": "verbatim_token+domain_route:DD"}, {"md_atom_id": "md_dmDD_ex_a003", "md_file": "knowledge_base/domains/DD/examples.md", "md_atom_type": "SENTENCE", "md_parent_section": "§DD.1 [Example 1]", "md_verbatim": "This example shows the primary cause of death for 3 subjects. The CRF also collected the location of the subject's death and a secondary cause of death.", "score": 0.4393, "match_basis": "verbatim_token+domain_route:DD"}], "candidate_count": 5, "zero_candidate": false}
{"pdf_atom_id": "ig34_p0184_a003", "pdf_atom_type": "LIST_ITEM", "pdf_source": "SDTMIG_v3.4", "pdf_page": 184, "pdf_parent_section": "§6.3.2 Death Details (DD)", "pdf_verbatim": "2. Death details are typically collected on designated CRF pages. The DD domain is not intended to collate data that are collected in standard variables in other domains, such as AE.AEOUT (Outcome of Adverse Event), AE.AESDTH (Results in Death) or DS.DSTERM (Reported Term for the Disposition Event). Data from other domains that relates to the death can be linked to DD using RELREC.", "figure_ref": null, "candidates": [{"md_atom_id": "md_dmDD_assn_a003", "md_file": "knowledge_base/domains/DD/assumptions.md", "md_atom_type": "LIST_ITEM", "md_parent_section": "§DD [DD — Assumptions]", "md_verbatim": "2. Death details are typically collected on designated CRF pages. The DD domain is not intended to collate data that are collected in standard variables in other domains, such as AE.AEOUT (Outcome of Adverse Event), AE.AESDTH (Results in Death) or DS.DSTERM (Reported Term for the Disposition Event). Data from other domains that relates to the death can be linked to DD using RELREC.", "score": 1.0, "match_basis": "verbatim_token+domain_route:DD"}, {"md_atom_id": "md_dmDD_assn_a002", "md_file": "knowledge_base/domains/DD/assumptions.md", "md_atom_type": "LIST_ITEM", "md_parent_section": "§DD [DD — Assumptions]", "md_verbatim": "1. There may be more than 1 cause of death. If so, these may be separated into primary and secondary causes and/or other appropriate designations. DD may also include other details about the death, such as where the death occurred and whether it was witnessed.", "score": 0.4952, "match_basis": "verbatim_token+domain_route:DD"}, {"md_atom_id": "md_dmDD_assn_a004", "md_file": "knowledge_base/domains/DD/assumptions.md", "md_atom_type": "LIST_ITEM", "md_parent_section": "§DD [DD — Assumptions]", "md_verbatim": "3. This domain is not intended to include data obtained from autopsy. An autopsy is a procedure from which there will usually be findings. Autopsy information should be handled as per recommendations in the Procedures (PR) domain.", "score": 0.4935, "match_basis": "verbatim_token+domain_route:DD"}, {"md_atom_id": "md_dmDD_assn_a005", "md_file": "knowledge_base/domains/DD/assumptions.md", "md_atom_type": "LIST_ITEM", "md_parent_section": "§DD [DD — Assumptions]", "md_verbatim": "4. There are separate codelists for DD tests and responses. Associations between the DD tests and response codelists are described in the DD codeable (available at https://www.cdisc.org/standards/terminology/controlled-terminology).", "score": 0.4812, "match_basis": "verbatim_token+domain_route:DD"}, {"md_atom_id": "md_dmDD_ex_a017", "md_file": "knowledge_base/domains/DD/examples.md", "md_atom_type": "SENTENCE", "md_parent_section": "§DD.2 [Example 2]", "md_verbatim": "This example illustrates how the DD, Disposition (DS), and AE data for a subject were linked using RELREC. Note that each of these domains serves a different purpose, even though the information is related. This subject had a fatal adverse event, represented in the AE domain.", "score": 0.473, "match_basis": "verbatim_token+domain_route:DD"}], "candidate_count": 5, "zero_candidate": false}
{"pdf_atom_id": "ig34_p0184_a004", "pdf_atom_type": "LIST_ITEM", "pdf_source": "SDTMIG_v3.4", "pdf_page": 184, "pdf_parent_section": "§6.3.2 Death Details (DD)", "pdf_verbatim": "3. This domain is not intended to include data obtained from autopsy. An autopsy is a procedure from which there will usually be findings. Autopsy information should be handled as per recommendations in the Procedures (PR) domain.", "figure_ref": null, "candidates": [{"md_atom_id": "md_dmDD_assn_a004", "md_file": "knowledge_base/domains/DD/assumptions.md", "md_atom_type": "LIST_ITEM", "md_parent_section": "§DD [DD — Assumptions]", "md_verbatim": "3. This domain is not intended to include data obtained from autopsy. An autopsy is a procedure from which there will usually be findings. Autopsy information should be handled as per recommendations in the Procedures (PR) domain.", "score": 1.0, "match_basis": "verbatim_token+domain_route:DD"}, {"md_atom_id": "md_dmDD_assn_a003", "md_file": "knowledge_base/domains/DD/assumptions.md", "md_atom_type": "LIST_ITEM", "md_parent_section": "§DD [DD — Assumptions]", "md_verbatim": "2. Death details are typically collected on designated CRF pages. The DD domain is not intended to collate data that are collected in standard variables in other domains, such as AE.AEOUT (Outcome of Adverse Event), AE.AESDTH (Results in Death) or DS.DSTERM (Reported Term for the Disposition Event). Data from other domains that relates to the death can be linked to DD using RELREC.", "score": 0.4935, "match_basis": "verbatim_token+domain_route:DD"}, {"md_atom_id": "md_dmDD_assn_a006", "md_file": "knowledge_base/domains/DD/assumptions.md", "md_atom_type": "LIST_ITEM", "md_parent_section": "§DD [DD — Assumptions]", "md_verbatim": "5. Any identifiers, timing variables, or findings general observation-class qualifiers may be added to the DD domain, but the following qualifiers would not generally be used: --MODIFY, --POS, --BODSYS, --ORNRLO, --ORNRHI, --STNRLO, --STNRHI, --STNRC, --NRIND, --NAM, --LOINC, --SPEC, --SPCCND, --LOBXFL, --BLFL, --FAST, --DRVFL, --TOX, --TOXGR, --SEV.", "score": 0.4733, "match_basis": "verbatim_token+domain_route:DD"}, {"md_atom_id": "md_dmDD_assn_a002", "md_file": "knowledge_base/domains/DD/assumptions.md", "md_atom_type": "LIST_ITEM", "md_parent_section": "§DD [DD — Assumptions]", "md_verbatim": "1. There may be more than 1 cause of death. If so, these may be separated into primary and secondary causes and/or other appropriate designations. DD may also include other details about the death, such as where the death occurred and whether it was witnessed.", "score": 0.4726, "match_basis": "verbatim_token+domain_route:DD"}, {"md_atom_id": "md_dmDD_assn_a005", "md_file": "knowledge_base/domains/DD/assumptions.md", "md_atom_type": "LIST_ITEM", "md_parent_section": "§DD [DD — Assumptions]", "md_verbatim": "4. There are separate codelists for DD tests and responses. Associations between the DD tests and response codelists are described in the DD codeable (available at https://www.cdisc.org/standards/terminology/controlled-terminology).", "score": 0.4442, "match_basis": "verbatim_token+domain_route:DD"}], "candidate_count": 5, "zero_candidate": false}
{"pdf_atom_id": "ig34_p0184_a005", "pdf_atom_type": "LIST_ITEM", "pdf_source": "SDTMIG_v3.4", "pdf_page": 184, "pdf_parent_section": "§6.3.2 Death Details (DD)", "pdf_verbatim": "4. There are separate codelists for DD tests and responses. Associations between the DD tests and response codelists are described in the DD codetable (available at https://www.cdisc.org/standards/terminology/controlled-terminology).", "figure_ref": null, "candidates": [{"md_atom_id": "md_dmDD_assn_a005", "md_file": "knowledge_base/domains/DD/assumptions.md", "md_atom_type": "LIST_ITEM", "md_parent_section": "§DD [DD — Assumptions]", "md_verbatim": "4. There are separate codelists for DD tests and responses. Associations between the DD tests and response codelists are described in the DD codeable (available at https://www.cdisc.org/standards/terminology/controlled-terminology).", "score": 0.9674, "match_basis": "verbatim_token+domain_route:DD"}, {"md_atom_id": "md_dmDD_assn_a002", "md_file": "knowledge_base/domains/DD/assumptions.md", "md_atom_type": "LIST_ITEM", "md_parent_section": "§DD [DD — Assumptions]", "md_verbatim": "1. There may be more than 1 cause of death. If so, these may be separated into primary and secondary causes and/or other appropriate designations. DD may also include other details about the death, such as where the death occurred and whether it was witnessed.", "score": 0.4879, "match_basis": "verbatim_token+domain_route:DD"}, {"md_atom_id": "md_dmDD_assn_a003", "md_file": "knowledge_base/domains/DD/assumptions.md", "md_atom_type": "LIST_ITEM", "md_parent_section": "§DD [DD — Assumptions]", "md_verbatim": "2. Death details are typically collected on designated CRF pages. The DD domain is not intended to collate data that are collected in standard variables in other domains, such as AE.AEOUT (Outcome of Adverse Event), AE.AESDTH (Results in Death) or DS.DSTERM (Reported Term for the Disposition Event). Data from other domains that relates to the death can be linked to DD using RELREC.", "score": 0.4844, "match_basis": "verbatim_token+domain_route:DD"}, {"md_atom_id": "md_dmDD_assn_a004", "md_file": "knowledge_base/domains/DD/assumptions.md", "md_atom_type": "LIST_ITEM", "md_parent_section": "§DD [DD — Assumptions]", "md_verbatim": "3. This domain is not intended to include data obtained from autopsy. An autopsy is a procedure from which there will usually be findings. Autopsy information should be handled as per recommendations in the Procedures (PR) domain.", "score": 0.4439, "match_basis": "verbatim_token+domain_route:DD"}, {"md_atom_id": "md_dmDD_assn_a006", "md_file": "knowledge_base/domains/DD/assumptions.md", "md_atom_type": "LIST_ITEM", "md_parent_section": "§DD [DD — Assumptions]", "md_verbatim": "5. Any identifiers, timing variables, or findings general observation-class qualifiers may be added to the DD domain, but the following qualifiers would not generally be used: --MODIFY, --POS, --BODSYS, --ORNRLO, --ORNRHI, --STNRLO, --STNRHI, --STNRC, --NRIND, --NAM, --LOINC, --SPEC, --SPCCND, --LOBXFL, --BLFL, --FAST, --DRVFL, --TOX, --TOXGR, --SEV.", "score": 0.4274, "match_basis": "verbatim_token+domain_route:DD"}], "candidate_count": 5, "zero_candidate": false}
{"pdf_atom_id": "ig34_p0184_a006", "pdf_atom_type": "LIST_ITEM", "pdf_source": "SDTMIG_v3.4", "pdf_page": 184, "pdf_parent_section": "§6.3.2 Death Details (DD)", "pdf_verbatim": "5. Any identifiers, timing variables, or findings general observation-class qualifiers may be added to the DD domain, but the following qualifiers would not generally be used: --MODIFY, --POS, --BODSYS, --ORNRLO, --ORNRHI, --STNRLO, --STNRHI, --STNRC, --NRIND, --NAM, --LOINC, --SPEC, --SPCCND, --LOBXFL, --BLFL, --FAST, --DRVFL, --TOX, --TOXGR, --SEV.", "figure_ref": null, "candidates": [{"md_atom_id": "md_dmDD_assn_a006", "md_file": "knowledge_base/domains/DD/assumptions.md", "md_atom_type": "LIST_ITEM", "md_parent_section": "§DD [DD — Assumptions]", "md_verbatim": "5. Any identifiers, timing variables, or findings general observation-class qualifiers may be added to the DD domain, but the following qualifiers would not generally be used: --MODIFY, --POS, --BODSYS, --ORNRLO, --ORNRHI, --STNRLO, --STNRHI, --STNRC, --NRIND, --NAM, --LOINC, --SPEC, --SPCCND, --LOBXFL, --BLFL, --FAST, --DRVFL, --TOX, --TOXGR, --SEV.", "score": 1.0, "match_basis": "verbatim_token+domain_route:DD"}, {"md_atom_id": "md_dmDD_assn_a004", "md_file": "knowledge_base/domains/DD/assumptions.md", "md_atom_type": "LIST_ITEM", "md_parent_section": "§DD [DD — Assumptions]", "md_verbatim": "3. This domain is not intended to include data obtained from autopsy. An autopsy is a procedure from which there will usually be findings. Autopsy information should be handled as per recommendations in the Procedures (PR) domain.", "score": 0.4733, "match_basis": "verbatim_token+domain_route:DD"}, {"md_atom_id": "md_dmDD_assn_a003", "md_file": "knowledge_base/domains/DD/assumptions.md", "md_atom_type": "LIST_ITEM", "md_parent_section": "§DD [DD — Assumptions]", "md_verbatim": "2. Death details are typically collected on designated CRF pages. The DD domain is not intended to collate data that are collected in standard variables in other domains, such as AE.AEOUT (Outcome of Adverse Event), AE.AESDTH (Results in Death) or DS.DSTERM (Reported Term for the Disposition Event). Data from other domains that relates to the death can be linked to DD using RELREC.", "score": 0.4622, "match_basis": "verbatim_token+domain_route:DD"}, {"md_atom_id": "md_dmDD_assn_a005", "md_file": "knowledge_base/domains/DD/assumptions.md", "md_atom_type": "LIST_ITEM", "md_parent_section": "§DD [DD — Assumptions]", "md_verbatim": "4. There are separate codelists for DD tests and responses. Associations between the DD tests and response codelists are described in the DD codeable (available at https://www.cdisc.org/standards/terminology/controlled-terminology).", "score": 0.4276, "match_basis": "verbatim_token+domain_route:DD"}, {"md_atom_id": "md_dmDD_assn_a002", "md_file": "knowledge_base/domains/DD/assumptions.md", "md_atom_type": "LIST_ITEM", "md_parent_section": "§DD [DD — Assumptions]", "md_verbatim": "1. There may be more than 1 cause of death. If so, these may be separated into primary and secondary causes and/or other appropriate designations. DD may also include other details about the death, such as where the death occurred and whether it was witnessed.", "score": 0.4274, "match_basis": "verbatim_token+domain_route:DD"}], "candidate_count": 5, "zero_candidate": false}
{"pdf_atom_id": "ig34_p0184_a007", "pdf_atom_type": "HEADING", "pdf_source": "SDTMIG_v3.4", "pdf_page": 184, "pdf_parent_section": "§6.3.2 Death Details (DD)", "pdf_verbatim": "DD – Examples", "figure_ref": null, "candidates": [{"md_atom_id": "md_dmDD_ex_a001", "md_file": "knowledge_base/domains/DD/examples.md", "md_atom_type": "HEADING", "md_parent_section": "§DD [DD — Examples]", "md_verbatim": "# DD — Examples", "score": 1.0, "match_basis": "verbatim_token+domain_route:DD"}, {"md_atom_id": "md_dmDD_ex_a002", "md_file": "knowledge_base/domains/DD/examples.md", "md_atom_type": "HEADING", "md_parent_section": "§DD [DD — Examples]", "md_verbatim": "## Example 1", "score": 0.9, "match_basis": "verbatim_token+domain_route:DD"}, {"md_atom_id": "md_dmDD_ex_a016", "md_file": "knowledge_base/domains/DD/examples.md", "md_atom_type": "HEADING", "md_parent_section": "§DD [DD — Examples]", "md_verbatim": "## Example 2", "score": 0.9, "match_basis": "verbatim_token+domain_route:DD"}, {"md_atom_id": "md_dmDD_assn_a001", "md_file": "knowledge_base/domains/DD/assumptions.md", "md_atom_type": "HEADING", "md_parent_section": "§DD [DD — Assumptions]", "md_verbatim": "# DD — Assumptions", "score": 0.4, "match_basis": "verbatim_token+domain_route:DD"}], "candidate_count": 4, "zero_candidate": false}
{"pdf_atom_id": "ig34_p0184_a008", "pdf_atom_type": "SENTENCE", "pdf_source": "SDTMIG_v3.4", "pdf_page": 184, "pdf_parent_section": "§6.3.2 Death Details (DD)", "pdf_verbatim": "Example 1", "figure_ref": null, "candidates": [{"md_atom_id": "md_dmDD_ex_a002", "md_file": "knowledge_base/domains/DD/examples.md", "md_atom_type": "HEADING", "md_parent_section": "§DD [DD — Examples]", "md_verbatim": "## Example 1", "score": 0.76, "match_basis": "verbatim_token+domain_route:DD"}, {"md_atom_id": "md_dmDD_ex_a016", "md_file": "knowledge_base/domains/DD/examples.md", "md_atom_type": "HEADING", "md_parent_section": "§DD [DD — Examples]", "md_verbatim": "## Example 2", "score": 0.76, "match_basis": "verbatim_token+domain_route:DD"}, {"md_atom_id": "md_dmDD_ex_a001", "md_file": "knowledge_base/domains/DD/examples.md", "md_atom_type": "HEADING", "md_parent_section": "§DD [DD — Examples]", "md_verbatim": "# DD — Examples", "score": 0.66, "match_basis": "verbatim_token+domain_route:DD"}, {"md_atom_id": "md_dmDD_ex_a003", "md_file": "knowledge_base/domains/DD/examples.md", "md_atom_type": "SENTENCE", "md_parent_section": "§DD.1 [Example 1]", "md_verbatim": "This example shows the primary cause of death for 3 subjects. The CRF also collected the location of the subject's death and a secondary cause of death.", "score": 0.4588, "match_basis": "verbatim_token+domain_route:DD"}, {"md_atom_id": "md_dmDD_ex_a017", "md_file": "knowledge_base/domains/DD/examples.md", "md_atom_type": "SENTENCE", "md_parent_section": "§DD.2 [Example 2]", "md_verbatim": "This example illustrates how the DD, Disposition (DS), and AE data for a subject were linked using RELREC. Note that each of these domains serves a different purpose, even though the information is related. This subject had a fatal adverse event, represented in the AE domain.", "score": 0.4286, "match_basis": "verbatim_token+domain_route:DD"}, {"md_atom_id": "md_dmDD_ex_a004", "md_file": "knowledge_base/domains/DD/examples.md", "md_atom_type": "SENTENCE", "md_parent_section": "§DD.1 [Example 1]", "md_verbatim": "**Rows 1-2:** Show the primary cause of death and location of death for a subject. DDDTC is the date of assessment.", "score": 0.4, "match_basis": "verbatim_token+domain_route:DD"}, {"md_atom_id": "md_dmDD_ex_a005", "md_file": "knowledge_base/domains/DD/examples.md", "md_atom_type": "SENTENCE", "md_parent_section": "§DD.1 [Example 1]", "md_verbatim": "**Rows 3-4:** Show records for primary cause of death and location of death for another subject for whom the information was not known.", "score": 0.4, "match_basis": "verbatim_token+domain_route:DD"}, {"md_atom_id": "md_dmDD_ex_a006", "md_file": "knowledge_base/domains/DD/examples.md", "md_atom_type": "SENTENCE", "md_parent_section": "§DD.1 [Example 1]", "md_verbatim": "**Rows 5-7:** Show primary and secondary cause of death and location of death for a third subject.", "score": 0.4, "match_basis": "verbatim_token+domain_route:DD"}, {"md_atom_id": "md_dmDD_ex_a007", "md_file": "knowledge_base/domains/DD/examples.md", "md_atom_type": "SENTENCE", "md_parent_section": "§DD.1 [Example 1]", "md_verbatim": "**dd.xpt**", "score": 0.4, "match_basis": "verbatim_token+domain_route:DD"}, {"md_atom_id": "md_dmDD_ex_a018", "md_file": "knowledge_base/domains/DD/examples.md", "md_atom_type": "SENTENCE", "md_parent_section": "§DD.2 [Example 2]", "md_verbatim": "**ae.xpt**", "score": 0.4, "match_basis": "verbatim_token+domain_route:DD"}], "candidate_count": 10, "zero_candidate": false}
{"pdf_atom_id": "ig34_p0184_a009", "pdf_atom_type": "SENTENCE", "pdf_source": "SDTMIG_v3.4", "pdf_page": 184, "pdf_parent_section": "§6.3.2 Death Details (DD)", "pdf_verbatim": "This example shows the primary cause of death for 3 subjects. The CRF also collected the location of the subject's death and a secondary cause of death.", "figure_ref": null, "candidates": [{"md_atom_id": "md_dmDD_ex_a003", "md_file": "knowledge_base/domains/DD/examples.md", "md_atom_type": "SENTENCE", "md_parent_section": "§DD.1 [Example 1]", "md_verbatim": "This example shows the primary cause of death for 3 subjects. The CRF also collected the location of the subject's death and a secondary cause of death.", "score": 1.0, "match_basis": "verbatim_token+domain_route:DD"}, {"md_atom_id": "md_dmDD_ex_a006", "md_file": "knowledge_base/domains/DD/examples.md", "md_atom_type": "SENTENCE", "md_parent_section": "§DD.1 [Example 1]", "md_verbatim": "**Rows 5-7:** Show primary and secondary cause of death and location of death for a third subject.", "score": 0.7778, "match_basis": "verbatim_token+domain_route:DD"}, {"md_atom_id": "md_dmDD_ex_a004", "md_file": "knowledge_base/domains/DD/examples.md", "md_atom_type": "SENTENCE", "md_parent_section": "§DD.1 [Example 1]", "md_verbatim": "**Rows 1-2:** Show the primary cause of death and location of death for a subject. DDDTC is the date of assessment.", "score": 0.6585, "match_basis": "verbatim_token+domain_route:DD"}, {"md_atom_id": "md_dmDD_ex_a005", "md_file": "knowledge_base/domains/DD/examples.md", "md_atom_type": "SENTENCE", "md_parent_section": "§DD.1 [Example 1]", "md_verbatim": "**Rows 3-4:** Show records for primary cause of death and location of death for another subject for whom the information was not known.", "score": 0.6451, "match_basis": "verbatim_token+domain_route:DD"}, {"md_atom_id": "md_dmDD_ex_a021", "md_file": "knowledge_base/domains/DD/examples.md", "md_atom_type": "SENTENCE", "md_parent_section": "§DD.2 [Example 2]", "md_verbatim": "The primary cause of death was collected and is represented in DD. In this case, the result for primary cause of death is the same as the term in the AE record.", "score": 0.6, "match_basis": "verbatim_token+domain_route:DD"}], "candidate_count": 5, "zero_candidate": false}
{"pdf_atom_id": "ig34_p0184_a010", "pdf_atom_type": "SENTENCE", "pdf_source": "SDTMIG_v3.4", "pdf_page": 184, "pdf_parent_section": "§6.3.2 Death Details (DD)", "pdf_verbatim": "Rows 1-2:    Show the primary cause of death and location of death for a subject. DDDTC is the date of assessment.", "figure_ref": null, "candidates": [{"md_atom_id": "md_dmDD_ex_a004", "md_file": "knowledge_base/domains/DD/examples.md", "md_atom_type": "SENTENCE", "md_parent_section": "§DD.1 [Example 1]", "md_verbatim": "**Rows 1-2:** Show the primary cause of death and location of death for a subject. DDDTC is the date of assessment.", "score": 1.0, "match_basis": "verbatim_token+domain_route:DD"}, {"md_atom_id": "md_dmDD_ex_a006", "md_file": "knowledge_base/domains/DD/examples.md", "md_atom_type": "SENTENCE", "md_parent_section": "§DD.1 [Example 1]", "md_verbatim": "**Rows 5-7:** Show primary and secondary cause of death and location of death for a third subject.", "score": 0.7294, "match_basis": "verbatim_token+domain_route:DD"}, {"md_atom_id": "md_dmDD_ex_a005", "md_file": "knowledge_base/domains/DD/examples.md", "md_atom_type": "SENTENCE", "md_parent_section": "§DD.1 [Example 1]", "md_verbatim": "**Rows 3-4:** Show records for primary cause of death and location of death for another subject for whom the information was not known.", "score": 0.6806, "match_basis": "verbatim_token+domain_route:DD"}, {"md_atom_id": "md_dmDD_ex_a003", "md_file": "knowledge_base/domains/DD/examples.md", "md_atom_type": "SENTENCE", "md_parent_section": "§DD.1 [Example 1]", "md_verbatim": "This example shows the primary cause of death for 3 subjects. The CRF also collected the location of the subject's death and a secondary cause of death.", "score": 0.6585, "match_basis": "verbatim_token+domain_route:DD"}, {"md_atom_id": "md_dmDD_ex_a021", "md_file": "knowledge_base/domains/DD/examples.md", "md_atom_type": "SENTENCE", "md_parent_section": "§DD.2 [Example 2]", "md_verbatim": "The primary cause of death was collected and is represented in DD. In this case, the result for primary cause of death is the same as the term in the AE record.", "score": 0.5352, "match_basis": "verbatim_token+domain_route:DD"}], "candidate_count": 5, "zero_candidate": false}
{"pdf_atom_id": "ig34_p0184_a011", "pdf_atom_type": "SENTENCE", "pdf_source": "SDTMIG_v3.4", "pdf_page": 184, "pdf_parent_section": "§6.3.2 Death Details (DD)", "pdf_verbatim": "Rows 3-4:    Show records for primary cause of death and location of death for another subject for whom the information was not known.", "figure_ref": null, "candidates": [{"md_atom_id": "md_dmDD_ex_a005", "md_file": "knowledge_base/domains/DD/examples.md", "md_atom_type": "SENTENCE", "md_parent_section": "§DD.1 [Example 1]", "md_verbatim": "**Rows 3-4:** Show records for primary cause of death and location of death for another subject for whom the information was not known.", "score": 1.0, "match_basis": "verbatim_token+domain_route:DD"}, {"md_atom_id": "md_dmDD_ex_a006", "md_file": "knowledge_base/domains/DD/examples.md", "md_atom_type": "SENTENCE", "md_parent_section": "§DD.1 [Example 1]", "md_verbatim": "**Rows 5-7:** Show primary and secondary cause of death and location of death for a third subject.", "score": 0.7053, "match_basis": "verbatim_token+domain_route:DD"}, {"md_atom_id": "md_dmDD_ex_a004", "md_file": "knowledge_base/domains/DD/examples.md", "md_atom_type": "SENTENCE", "md_parent_section": "§DD.1 [Example 1]", "md_verbatim": "**Rows 1-2:** Show the primary cause of death and location of death for a subject. DDDTC is the date of assessment.", "score": 0.6806, "match_basis": "verbatim_token+domain_route:DD"}, {"md_atom_id": "md_dmDD_ex_a003", "md_file": "knowledge_base/domains/DD/examples.md", "md_atom_type": "SENTENCE", "md_parent_section": "§DD.1 [Example 1]", "md_verbatim": "This example shows the primary cause of death for 3 subjects. The CRF also collected the location of the subject's death and a secondary cause of death.", "score": 0.6451, "match_basis": "verbatim_token+domain_route:DD"}, {"md_atom_id": "md_dmDD_ex_a021", "md_file": "knowledge_base/domains/DD/examples.md", "md_atom_type": "SENTENCE", "md_parent_section": "§DD.2 [Example 2]", "md_verbatim": "The primary cause of death was collected and is represented in DD. In this case, the result for primary cause of death is the same as the term in the AE record.", "score": 0.5622, "match_basis": "verbatim_token+domain_route:DD"}], "candidate_count": 5, "zero_candidate": false}
{"pdf_atom_id": "ig34_p0184_a012", "pdf_atom_type": "SENTENCE", "pdf_source": "SDTMIG_v3.4", "pdf_page": 184, "pdf_parent_section": "§6.3.2 Death Details (DD)", "pdf_verbatim": "Rows 5-7:    Show primary and secondary cause of death and location of death for a third subject.", "figure_ref": null, "candidates": [{"md_atom_id": "md_dmDD_ex_a006", "md_file": "knowledge_base/domains/DD/examples.md", "md_atom_type": "SENTENCE", "md_parent_section": "§DD.1 [Example 1]", "md_verbatim": "**Rows 5-7:** Show primary and secondary cause of death and location of death for a third subject.", "score": 1.0, "match_basis": "verbatim_token+domain_route:DD"}, {"md_atom_id": "md_dmDD_ex_a003", "md_file": "knowledge_base/domains/DD/examples.md", "md_atom_type": "SENTENCE", "md_parent_section": "§DD.1 [Example 1]", "md_verbatim": "This example shows the primary cause of death for 3 subjects. The CRF also collected the location of the subject's death and a secondary cause of death.", "score": 0.7778, "match_basis": "verbatim_token+domain_route:DD"}, {"md_atom_id": "md_dmDD_ex_a004", "md_file": "knowledge_base/domains/DD/examples.md", "md_atom_type": "SENTENCE", "md_parent_section": "§DD.1 [Example 1]", "md_verbatim": "**Rows 1-2:** Show the primary cause of death and location of death for a subject. DDDTC is the date of assessment.", "score": 0.7294, "match_basis": "verbatim_token+domain_route:DD"}, {"md_atom_id": "md_dmDD_ex_a005", "md_file": "knowledge_base/domains/DD/examples.md", "md_atom_type": "SENTENCE", "md_parent_section": "§DD.1 [Example 1]", "md_verbatim": "**Rows 3-4:** Show records for primary cause of death and location of death for another subject for whom the information was not known.", "score": 0.7053, "match_basis": "verbatim_token+domain_route:DD"}, {"md_atom_id": "md_dmDD_ex_a021", "md_file": "knowledge_base/domains/DD/examples.md", "md_atom_type": "SENTENCE", "md_parent_section": "§DD.2 [Example 2]", "md_verbatim": "The primary cause of death was collected and is represented in DD. In this case, the result for primary cause of death is the same as the term in the AE record.", "score": 0.5455, "match_basis": "verbatim_token+domain_route:DD"}], "candidate_count": 5, "zero_candidate": false}
{"pdf_atom_id": "ig34_p0184_a013", "pdf_atom_type": "CODE_LITERAL", "pdf_source": "SDTMIG_v3.4", "pdf_page": 184, "pdf_parent_section": "§6.3.2 Death Details (DD)", "pdf_verbatim": "dd.xpt", "figure_ref": null, "candidates": [{"md_atom_id": "md_dmDD_ex_a007", "md_file": "knowledge_base/domains/DD/examples.md", "md_atom_type": "SENTENCE", "md_parent_section": "§DD.1 [Example 1]", "md_verbatim": "**dd.xpt**", "score": 0.79, "match_basis": "verbatim_token+domain_route:DD"}, {"md_atom_id": "md_dmDD_ex_a018", "md_file": "knowledge_base/domains/DD/examples.md", "md_atom_type": "SENTENCE", "md_parent_section": "§DD.2 [Example 2]", "md_verbatim": "**ae.xpt**", "score": 0.79, "match_basis": "verbatim_token+domain_route:DD"}, {"md_atom_id": "md_dmDD_ex_a022", "md_file": "knowledge_base/domains/DD/examples.md", "md_atom_type": "SENTENCE", "md_parent_section": "§DD.2 [Example 2]", "md_verbatim": "**dd.xpt**", "score": 0.79, "match_basis": "verbatim_token+domain_route:DD"}, {"md_atom_id": "md_dmDD_ex_a028", "md_file": "knowledge_base/domains/DD/examples.md", "md_atom_type": "SENTENCE", "md_parent_section": "§DD.2 [Example 2]", "md_verbatim": "**ds.xpt**", "score": 0.79, "match_basis": "verbatim_token+domain_route:DD"}, {"md_atom_id": "md_dmDD_ex_a034", "md_file": "knowledge_base/domains/DD/examples.md", "md_atom_type": "SENTENCE", "md_parent_section": "§DD.2 [Example 2]", "md_verbatim": "**relrec.xpt**", "score": 0.31, "match_basis": "verbatim_token+domain_route:DD"}, {"md_atom_id": "md_dmDD_assn_a001", "md_file": "knowledge_base/domains/DD/assumptions.md", "md_atom_type": "HEADING", "md_parent_section": "§DD [DD — Assumptions]", "md_verbatim": "# DD — Assumptions", "score": 0.19, "match_basis": "verbatim_token+domain_route:DD"}, {"md_atom_id": "md_dmDD_assn_a002", "md_file": "knowledge_base/domains/DD/assumptions.md", "md_atom_type": "LIST_ITEM", "md_parent_section": "§DD [DD — Assumptions]", "md_verbatim": "1. There may be more than 1 cause of death. If so, these may be separated into primary and secondary causes and/or other appropriate designations. DD may also include other details about the death, such as where the death occurred and whether it was witnessed.", "score": 0.19, "match_basis": "verbatim_token+domain_route:DD"}, {"md_atom_id": "md_dmDD_assn_a003", "md_file": "knowledge_base/domains/DD/assumptions.md", "md_atom_type": "LIST_ITEM", "md_parent_section": "§DD [DD — Assumptions]", "md_verbatim": "2. Death details are typically collected on designated CRF pages. The DD domain is not intended to collate data that are collected in standard variables in other domains, such as AE.AEOUT (Outcome of Adverse Event), AE.AESDTH (Results in Death) or DS.DSTERM (Reported Term for the Disposition Event). Data from other domains that relates to the death can be linked to DD using RELREC.", "score": 0.19, "match_basis": "verbatim_token+domain_route:DD"}, {"md_atom_id": "md_dmDD_assn_a004", "md_file": "knowledge_base/domains/DD/assumptions.md", "md_atom_type": "LIST_ITEM", "md_parent_section": "§DD [DD — Assumptions]", "md_verbatim": "3. This domain is not intended to include data obtained from autopsy. An autopsy is a procedure from which there will usually be findings. Autopsy information should be handled as per recommendations in the Procedures (PR) domain.", "score": 0.19, "match_basis": "verbatim_token+domain_route:DD"}, {"md_atom_id": "md_dmDD_assn_a005", "md_file": "knowledge_base/domains/DD/assumptions.md", "md_atom_type": "LIST_ITEM", "md_parent_section": "§DD [DD — Assumptions]", "md_verbatim": "4. There are separate codelists for DD tests and responses. Associations between the DD tests and response codelists are described in the DD codeable (available at https://www.cdisc.org/standards/terminology/controlled-terminology).", "score": 0.19, "match_basis": "verbatim_token+domain_route:DD"}], "candidate_count": 10, "zero_candidate": false}
{"pdf_atom_id": "ig34_p0184_a014", "pdf_atom_type": "TABLE_HEADER", "pdf_source": "SDTMIG_v3.4", "pdf_page": 184, "pdf_parent_section": "§6.3.2 Death Details (DD)", "pdf_verbatim": "| Row | STUDYID | DOMAIN | USUBJID | DDSEQ | DDTESTCD | DDTEST | DDORRES | DDSTRESC | DDDTC |", "figure_ref": null, "candidates": [{"md_atom_id": "md_dmDD_ex_a008", "md_file": "knowledge_base/domains/DD/examples.md", "md_atom_type": "TABLE_HEADER", "md_parent_section": "§DD.1 [Example 1]", "md_verbatim": "| Row | STUDYID | DOMAIN | USUBJID | DDSEQ | DDTESTCD | DDTEST | DDORRES | DDSTRESC | DDDTC |\n|-----|---------|--------|---------|-------|----------|--------|---------|----------|-------|", "score": 1.0, "match_basis": "verbatim_token+domain_route:DD"}, {"md_atom_id": "md_dmDD_ex_a023", "md_file": "knowledge_base/domains/DD/examples.md", "md_atom_type": "TABLE_HEADER", "md_parent_section": "§DD.2 [Example 2]", "md_verbatim": "| Row | STUDYID | DOMAIN | USUBJID | DDSEQ | DDTESTCD | DDTEST | DDORRES | DDSTRESC | DDDTC |\n|-----|---------|--------|---------|-------|----------|--------|---------|----------|-------|", "score": 1.0, "match_basis": "verbatim_token+domain_route:DD"}, {"md_atom_id": "md_dmDD_ex_a029", "md_file": "knowledge_base/domains/DD/examples.md", "md_atom_type": "TABLE_HEADER", "md_parent_section": "§DD.2 [Example 2]", "md_verbatim": "| Row | STUDYID | DOMAIN | USUBJID | DSSEQ | DSTERM | DSDECOD | DSCAT | DSDTC | DSSTDTC |\n|-----|---------|--------|---------|-------|--------|---------|-------|-------|---------|", "score": 0.6077, "match_basis": "verbatim_token+domain_route:DD"}, {"md_atom_id": "md_dmDD_ex_a035", "md_file": "knowledge_base/domains/DD/examples.md", "md_atom_type": "TABLE_HEADER", "md_parent_section": "§DD.2 [Example 2]", "md_verbatim": "| Row | STUDYID | RDOMAIN | USUBJID | IDVAR | IDVARVAL | RELTYPE | RELID |\n|-----|---------|---------|---------|-------|----------|---------|-------|", "score": 0.5837, "match_basis": "verbatim_token+domain_route:DD"}, {"md_atom_id": "md_dmDD_ex_a019", "md_file": "knowledge_base/domains/DD/examples.md", "md_atom_type": "TABLE_HEADER", "md_parent_section": "§DD.2 [Example 2]", "md_verbatim": "| Row | STUDYID | DOMAIN | USUBJID | AESEQ | AETERM | AESTDTC | AEENDTC | AEDECOD | AEBODSYS | AEOUT | AESER | AESDTH |\n|-----|---------|--------|---------|-------|--------|---------|---------|---------|----------|-------|-------|--------|", "score": 0.5662, "match_basis": "verbatim_token+domain_route:DD"}], "candidate_count": 5, "zero_candidate": false}
{"pdf_atom_id": "ig34_p0184_a015", "pdf_atom_type": "TABLE_ROW", "pdf_source": "SDTMIG_v3.4", "pdf_page": 184, "pdf_parent_section": "§6.3.2 Death Details (DD)", "pdf_verbatim": "| 1 | ABC123 | DD | ABC12301001 | 1 | PRCDTH | Primary Cause of Death | SUDDEN CARDIAC DEATH | SUDDEN CARDIAC DEATH | 2011-01-12 |", "figure_ref": null, "candidates": [{"md_atom_id": "md_dmDD_ex_a009", "md_file": "knowledge_base/domains/DD/examples.md", "md_atom_type": "TABLE_ROW", "md_parent_section": "§DD.1 [Example 1]", "md_verbatim": "| 1 | ABC123 | DD | ABC12301001 | 1 | PRCDTH | Primary Cause of Death | SUDDEN CARDIAC DEATH | SUDDEN CARDIAC DEATH | 2011-01-12 |", "score": 1.0, "match_basis": "verbatim_token+domain_route:DD"}, {"md_atom_id": "md_dmDD_ex_a024", "md_file": "knowledge_base/domains/DD/examples.md", "md_atom_type": "TABLE_ROW", "md_parent_section": "§DD.2 [Example 2]", "md_verbatim": "| 1 | ABC123 | DD | ABC12301001 | 1 | PRCDTH | Primary Cause of Death | SUDDEN CARDIAC DEATH | SUDDEN CARDIAC DEATH | 2011-01-12 |", "score": 1.0, "match_basis": "verbatim_token+domain_route:DD"}, {"md_atom_id": "md_dmDD_ex_a013", "md_file": "knowledge_base/domains/DD/examples.md", "md_atom_type": "TABLE_ROW", "md_parent_section": "§DD.1 [Example 1]", "md_verbatim": "| 5 | ABC123 | DD | ABC12301023 | 1 | PRCDTH | Primary Cause of Death | CARDIAC ARRHYTHMIA | CARDIAC ARRHYTHMIA | 2011-09-09 |", "score": 0.7867, "match_basis": "verbatim_token+domain_route:DD"}, {"md_atom_id": "md_dmDD_ex_a011", "md_file": "knowledge_base/domains/DD/examples.md", "md_atom_type": "TABLE_ROW", "md_parent_section": "§DD.1 [Example 1]", "md_verbatim": "| 3 | ABC123 | DD | ABC12301002 | 1 | PRCDTH | Primary Cause of Death | UNKNOWN | UNKNOWN | 2011-03-15 |", "score": 0.7659, "match_basis": "verbatim_token+domain_route:DD"}, {"md_atom_id": "md_dmDD_ex_a032", "md_file": "knowledge_base/domains/DD/examples.md", "md_atom_type": "TABLE_ROW", "md_parent_section": "§DD.2 [Example 2]", "md_verbatim": "| 3 | ABC123 | DS | ABC12301001 | 3 | SUDDEN CARDIAC DEATH | DEATH | DISPOSITION EVENT | 2011-01-10 | 2011-01-10 |", "score": 0.6936, "match_basis": "verbatim_token+domain_route:DD"}], "candidate_count": 5, "zero_candidate": false}
{"pdf_atom_id": "ig34_p0184_a016", "pdf_atom_type": "TABLE_ROW", "pdf_source": "SDTMIG_v3.4", "pdf_page": 184, "pdf_parent_section": "§6.3.2 Death Details (DD)", "pdf_verbatim": "| 2 | ABC123 | DD | ABC12301001 | 2 | LOCDTH | Location of Death | HOME | HOME | 2011-01-12 |", "figure_ref": null, "candidates": [{"md_atom_id": "md_dmDD_ex_a010", "md_file": "knowledge_base/domains/DD/examples.md", "md_atom_type": "TABLE_ROW", "md_parent_section": "§DD.1 [Example 1]", "md_verbatim": "| 2 | ABC123 | DD | ABC12301001 | 2 | LOCDTH | Location of Death | HOME | HOME | 2011-01-12 |", "score": 1.0, "match_basis": "verbatim_token+domain_route:DD"}, {"md_atom_id": "md_dmDD_ex_a012", "md_file": "knowledge_base/domains/DD/examples.md", "md_atom_type": "TABLE_ROW", "md_parent_section": "§DD.1 [Example 1]", "md_verbatim": "| 4 | ABC123 | DD | ABC12301002 | 2 | LOCDTH | Location of Death | UNKNOWN | UNKNOWN | 2011-03-15 |", "score": 0.8258, "match_basis": "verbatim_token+domain_route:DD"}, {"md_atom_id": "md_dmDD_ex_a015", "md_file": "knowledge_base/domains/DD/examples.md", "md_atom_type": "TABLE_ROW", "md_parent_section": "§DD.1 [Example 1]", "md_verbatim": "| 7 | ABC123 | DD | ABC12301023 | 3 | LOCDTH | Location of Death | MEMORIAL HOSPITAL | HOSPITAL | 2011-09-09 |", "score": 0.7231, "match_basis": "verbatim_token+domain_route:DD"}, {"md_atom_id": "md_dmDD_ex_a011", "md_file": "knowledge_base/domains/DD/examples.md", "md_atom_type": "TABLE_ROW", "md_parent_section": "§DD.1 [Example 1]", "md_verbatim": "| 3 | ABC123 | DD | ABC12301002 | 1 | PRCDTH | Primary Cause of Death | UNKNOWN | UNKNOWN | 2011-03-15 |", "score": 0.6195, "match_basis": "verbatim_token+domain_route:DD"}, {"md_atom_id": "md_dmDD_ex_a009", "md_file": "knowledge_base/domains/DD/examples.md", "md_atom_type": "TABLE_ROW", "md_parent_section": "§DD.1 [Example 1]", "md_verbatim": "| 1 | ABC123 | DD | ABC12301001 | 1 | PRCDTH | Primary Cause of Death | SUDDEN CARDIAC DEATH | SUDDEN CARDIAC DEATH | 2011-01-12 |", "score": 0.6182, "match_basis": "verbatim_token+domain_route:DD"}], "candidate_count": 5, "zero_candidate": false}
{"pdf_atom_id": "ig34_p0184_a017", "pdf_atom_type": "TABLE_ROW", "pdf_source": "SDTMIG_v3.4", "pdf_page": 184, "pdf_parent_section": "§6.3.2 Death Details (DD)", "pdf_verbatim": "| 3 | ABC123 | DD | ABC12301002 | 1 | PRCDTH | Primary Cause of Death | UNKNOWN | UNKNOWN | 2011-03-15 |", "figure_ref": null, "candidates": [{"md_atom_id": "md_dmDD_ex_a011", "md_file": "knowledge_base/domains/DD/examples.md", "md_atom_type": "TABLE_ROW", "md_parent_section": "§DD.1 [Example 1]", "md_verbatim": "| 3 | ABC123 | DD | ABC12301002 | 1 | PRCDTH | Primary Cause of Death | UNKNOWN | UNKNOWN | 2011-03-15 |", "score": 1.0, "match_basis": "verbatim_token+domain_route:DD"}, {"md_atom_id": "md_dmDD_ex_a009", "md_file": "knowledge_base/domains/DD/examples.md", "md_atom_type": "TABLE_ROW", "md_parent_section": "§DD.1 [Example 1]", "md_verbatim": "| 1 | ABC123 | DD | ABC12301001 | 1 | PRCDTH | Primary Cause of Death | SUDDEN CARDIAC DEATH | SUDDEN CARDIAC DEATH | 2011-01-12 |", "score": 0.7659, "match_basis": "verbatim_token+domain_route:DD"}, {"md_atom_id": "md_dmDD_ex_a024", "md_file": "knowledge_base/domains/DD/examples.md", "md_atom_type": "TABLE_ROW", "md_parent_section": "§DD.2 [Example 2]", "md_verbatim": "| 1 | ABC123 | DD | ABC12301001 | 1 | PRCDTH | Primary Cause of Death | SUDDEN CARDIAC DEATH | SUDDEN CARDIAC DEATH | 2011-01-12 |", "score": 0.7659, "match_basis": "verbatim_token+domain_route:DD"}, {"md_atom_id": "md_dmDD_ex_a012", "md_file": "knowledge_base/domains/DD/examples.md", "md_atom_type": "TABLE_ROW", "md_parent_section": "§DD.1 [Example 1]", "md_verbatim": "| 4 | ABC123 | DD | ABC12301002 | 2 | LOCDTH | Location of Death | UNKNOWN | UNKNOWN | 2011-03-15 |", "score": 0.7316, "match_basis": "verbatim_token+domain_route:DD"}, {"md_atom_id": "md_dmDD_ex_a013", "md_file": "knowledge_base/domains/DD/examples.md", "md_atom_type": "TABLE_ROW", "md_parent_section": "§DD.1 [Example 1]", "md_verbatim": "| 5 | ABC123 | DD | ABC12301023 | 1 | PRCDTH | Primary Cause of Death | CARDIAC ARRHYTHMIA | CARDIAC ARRHYTHMIA | 2011-09-09 |", "score": 0.713, "match_basis": "verbatim_token+domain_route:DD"}], "candidate_count": 5, "zero_candidate": false}
{"pdf_atom_id": "ig34_p0184_a018", "pdf_atom_type": "TABLE_ROW", "pdf_source": "SDTMIG_v3.4", "pdf_page": 184, "pdf_parent_section": "§6.3.2 Death Details (DD)", "pdf_verbatim": "| 4 | ABC123 | DD | ABC12301002 | 2 | LOCDTH | Location of Death | UNKNOWN | UNKNOWN | 2011-03-15 |", "figure_ref": null, "candidates": [{"md_atom_id": "md_dmDD_ex_a012", "md_file": "knowledge_base/domains/DD/examples.md", "md_atom_type": "TABLE_ROW", "md_parent_section": "§DD.1 [Example 1]", "md_verbatim": "| 4 | ABC123 | DD | ABC12301002 | 2 | LOCDTH | Location of Death | UNKNOWN | UNKNOWN | 2011-03-15 |", "score": 1.0, "match_basis": "verbatim_token+domain_route:DD"}, {"md_atom_id": "md_dmDD_ex_a010", "md_file": "knowledge_base/domains/DD/examples.md", "md_atom_type": "TABLE_ROW", "md_parent_section": "§DD.1 [Example 1]", "md_verbatim": "| 2 | ABC123 | DD | ABC12301001 | 2 | LOCDTH | Location of Death | HOME | HOME | 2011-01-12 |", "score": 0.8258, "match_basis": "verbatim_token+domain_route:DD"}, {"md_atom_id": "md_dmDD_ex_a011", "md_file": "knowledge_base/domains/DD/examples.md", "md_atom_type": "TABLE_ROW", "md_parent_section": "§DD.1 [Example 1]", "md_verbatim": "| 3 | ABC123 | DD | ABC12301002 | 1 | PRCDTH | Primary Cause of Death | UNKNOWN | UNKNOWN | 2011-03-15 |", "score": 0.7316, "match_basis": "verbatim_token+domain_route:DD"}, {"md_atom_id": "md_dmDD_ex_a015", "md_file": "knowledge_base/domains/DD/examples.md", "md_atom_type": "TABLE_ROW", "md_parent_section": "§DD.1 [Example 1]", "md_verbatim": "| 7 | ABC123 | DD | ABC12301023 | 3 | LOCDTH | Location of Death | MEMORIAL HOSPITAL | HOSPITAL | 2011-09-09 |", "score": 0.7, "match_basis": "verbatim_token+domain_route:DD"}, {"md_atom_id": "md_dmDD_ex_a009", "md_file": "knowledge_base/domains/DD/examples.md", "md_atom_type": "TABLE_ROW", "md_parent_section": "§DD.1 [Example 1]", "md_verbatim": "| 1 | ABC123 | DD | ABC12301001 | 1 | PRCDTH | Primary Cause of Death | SUDDEN CARDIAC DEATH | SUDDEN CARDIAC DEATH | 2011-01-12 |", "score": 0.5875, "match_basis": "verbatim_token+domain_route:DD"}], "candidate_count": 5, "zero_candidate": false}
{"pdf_atom_id": "ig34_p0184_a019", "pdf_atom_type": "TABLE_ROW", "pdf_source": "SDTMIG_v3.4", "pdf_page": 184, "pdf_parent_section": "§6.3.2 Death Details (DD)", "pdf_verbatim": "| 5 | ABC123 | DD | ABC12301023 | 1 | PRCDTH | Primary Cause of Death | CARDIAC ARRHYTHMIA | CARDIAC ARRHYTHMIA | 2011-09-09 |", "figure_ref": null, "candidates": [{"md_atom_id": "md_dmDD_ex_a013", "md_file": "knowledge_base/domains/DD/examples.md", "md_atom_type": "TABLE_ROW", "md_parent_section": "§DD.1 [Example 1]", "md_verbatim": "| 5 | ABC123 | DD | ABC12301023 | 1 | PRCDTH | Primary Cause of Death | CARDIAC ARRHYTHMIA | CARDIAC ARRHYTHMIA | 2011-09-09 |", "score": 1.0, "match_basis": "verbatim_token+domain_route:DD"}, {"md_atom_id": "md_dmDD_ex_a009", "md_file": "knowledge_base/domains/DD/examples.md", "md_atom_type": "TABLE_ROW", "md_parent_section": "§DD.1 [Example 1]", "md_verbatim": "| 1 | ABC123 | DD | ABC12301001 | 1 | PRCDTH | Primary Cause of Death | SUDDEN CARDIAC DEATH | SUDDEN CARDIAC DEATH | 2011-01-12 |", "score": 0.7867, "match_basis": "verbatim_token+domain_route:DD"}, {"md_atom_id": "md_dmDD_ex_a024", "md_file": "knowledge_base/domains/DD/examples.md", "md_atom_type": "TABLE_ROW", "md_parent_section": "§DD.2 [Example 2]", "md_verbatim": "| 1 | ABC123 | DD | ABC12301001 | 1 | PRCDTH | Primary Cause of Death | SUDDEN CARDIAC DEATH | SUDDEN CARDIAC DEATH | 2011-01-12 |", "score": 0.7867, "match_basis": "verbatim_token+domain_route:DD"}, {"md_atom_id": "md_dmDD_ex_a011", "md_file": "knowledge_base/domains/DD/examples.md", "md_atom_type": "TABLE_ROW", "md_parent_section": "§DD.1 [Example 1]", "md_verbatim": "| 3 | ABC123 | DD | ABC12301002 | 1 | PRCDTH | Primary Cause of Death | UNKNOWN | UNKNOWN | 2011-03-15 |", "score": 0.713, "match_basis": "verbatim_token+domain_route:DD"}, {"md_atom_id": "md_dmDD_ex_a014", "md_file": "knowledge_base/domains/DD/examples.md", "md_atom_type": "TABLE_ROW", "md_parent_section": "§DD.1 [Example 1]", "md_verbatim": "| 6 | ABC123 | DD | ABC12301023 | 2 | SECDTH | Secondary Cause of Death | CHF | CONGESTIVE HEART FAILURE | 2011-09-09 |", "score": 0.5935, "match_basis": "verbatim_token+domain_route:DD"}], "candidate_count": 5, "zero_candidate": false}
{"pdf_atom_id": "ig34_p0184_a020", "pdf_atom_type": "TABLE_ROW", "pdf_source": "SDTMIG_v3.4", "pdf_page": 184, "pdf_parent_section": "§6.3.2 Death Details (DD)", "pdf_verbatim": "| 6 | ABC123 | DD | ABC12301023 | 2 | SECDTH | Secondary Cause of Death | CHF | CONGESTIVE HEART FAILURE | 2011-09-09 |", "figure_ref": null, "candidates": [{"md_atom_id": "md_dmDD_ex_a014", "md_file": "knowledge_base/domains/DD/examples.md", "md_atom_type": "TABLE_ROW", "md_parent_section": "§DD.1 [Example 1]", "md_verbatim": "| 6 | ABC123 | DD | ABC12301023 | 2 | SECDTH | Secondary Cause of Death | CHF | CONGESTIVE HEART FAILURE | 2011-09-09 |", "score": 1.0, "match_basis": "verbatim_token+domain_route:DD"}, {"md_atom_id": "md_dmDD_ex_a013", "md_file": "knowledge_base/domains/DD/examples.md", "md_atom_type": "TABLE_ROW", "md_parent_section": "§DD.1 [Example 1]", "md_verbatim": "| 5 | ABC123 | DD | ABC12301023 | 1 | PRCDTH | Primary Cause of Death | CARDIAC ARRHYTHMIA | CARDIAC ARRHYTHMIA | 2011-09-09 |", "score": 0.5935, "match_basis": "verbatim_token+domain_route:DD"}, {"md_atom_id": "md_dmDD_ex_a011", "md_file": "knowledge_base/domains/DD/examples.md", "md_atom_type": "TABLE_ROW", "md_parent_section": "§DD.1 [Example 1]", "md_verbatim": "| 3 | ABC123 | DD | ABC12301002 | 1 | PRCDTH | Primary Cause of Death | UNKNOWN | UNKNOWN | 2011-03-15 |", "score": 0.5929, "match_basis": "verbatim_token+domain_route:DD"}, {"md_atom_id": "md_dmDD_ex_a009", "md_file": "knowledge_base/domains/DD/examples.md", "md_atom_type": "TABLE_ROW", "md_parent_section": "§DD.1 [Example 1]", "md_verbatim": "| 1 | ABC123 | DD | ABC12301001 | 1 | PRCDTH | Primary Cause of Death | SUDDEN CARDIAC DEATH | SUDDEN CARDIAC DEATH | 2011-01-12 |", "score": 0.58, "match_basis": "verbatim_token+domain_route:DD"}, {"md_atom_id": "md_dmDD_ex_a024", "md_file": "knowledge_base/domains/DD/examples.md", "md_atom_type": "TABLE_ROW", "md_parent_section": "§DD.2 [Example 2]", "md_verbatim": "| 1 | ABC123 | DD | ABC12301001 | 1 | PRCDTH | Primary Cause of Death | SUDDEN CARDIAC DEATH | SUDDEN CARDIAC DEATH | 2011-01-12 |", "score": 0.58, "match_basis": "verbatim_token+domain_route:DD"}], "candidate_count": 5, "zero_candidate": false}
{"pdf_atom_id": "ig34_p0184_a021", "pdf_atom_type": "TABLE_ROW", "pdf_source": "SDTMIG_v3.4", "pdf_page": 184, "pdf_parent_section": "§6.3.2 Death Details (DD)", "pdf_verbatim": "| 7 | ABC123 | DD | ABC12301023 | 3 | LOCDTH | Location of Death | MEMORIAL HOSPITAL | HOSPITAL | 2011-09-09 |", "figure_ref": null, "candidates": [{"md_atom_id": "md_dmDD_ex_a015", "md_file": "knowledge_base/domains/DD/examples.md", "md_atom_type": "TABLE_ROW", "md_parent_section": "§DD.1 [Example 1]", "md_verbatim": "| 7 | ABC123 | DD | ABC12301023 | 3 | LOCDTH | Location of Death | MEMORIAL HOSPITAL | HOSPITAL | 2011-09-09 |", "score": 1.0, "match_basis": "verbatim_token+domain_route:DD"}, {"md_atom_id": "md_dmDD_ex_a010", "md_file": "knowledge_base/domains/DD/examples.md", "md_atom_type": "TABLE_ROW", "md_parent_section": "§DD.1 [Example 1]", "md_verbatim": "| 2 | ABC123 | DD | ABC12301001 | 2 | LOCDTH | Location of Death | HOME | HOME | 2011-01-12 |", "score": 0.7231, "match_basis": "verbatim_token+domain_route:DD"}, {"md_atom_id": "md_dmDD_ex_a012", "md_file": "knowledge_base/domains/DD/examples.md", "md_atom_type": "TABLE_ROW", "md_parent_section": "§DD.1 [Example 1]", "md_verbatim": "| 4 | ABC123 | DD | ABC12301002 | 2 | LOCDTH | Location of Death | UNKNOWN | UNKNOWN | 2011-03-15 |", "score": 0.7, "match_basis": "verbatim_token+domain_route:DD"}, {"md_atom_id": "md_dmDD_ex_a013", "md_file": "knowledge_base/domains/DD/examples.md", "md_atom_type": "TABLE_ROW", "md_parent_section": "§DD.1 [Example 1]", "md_verbatim": "| 5 | ABC123 | DD | ABC12301023 | 1 | PRCDTH | Primary Cause of Death | CARDIAC ARRHYTHMIA | CARDIAC ARRHYTHMIA | 2011-09-09 |", "score": 0.5655, "match_basis": "verbatim_token+domain_route:DD"}, {"md_atom_id": "md_dmDD_ex_a011", "md_file": "knowledge_base/domains/DD/examples.md", "md_atom_type": "TABLE_ROW", "md_parent_section": "§DD.1 [Example 1]", "md_verbatim": "| 3 | ABC123 | DD | ABC12301002 | 1 | PRCDTH | Primary Cause of Death | UNKNOWN | UNKNOWN | 2011-03-15 |", "score": 0.5615, "match_basis": "verbatim_token+domain_route:DD"}], "candidate_count": 5, "zero_candidate": false}
{"pdf_atom_id": "ig34_p0184_a022", "pdf_atom_type": "SENTENCE", "pdf_source": "SDTMIG_v3.4", "pdf_page": 184, "pdf_parent_section": "§6.3.2 Death Details (DD)", "pdf_verbatim": "Example 2", "figure_ref": null, "candidates": [{"md_atom_id": "md_dmDD_ex_a002", "md_file": "knowledge_base/domains/DD/examples.md", "md_atom_type": "HEADING", "md_parent_section": "§DD [DD — Examples]", "md_verbatim": "## Example 1", "score": 0.76, "match_basis": "verbatim_token+domain_route:DD"}, {"md_atom_id": "md_dmDD_ex_a016", "md_file": "knowledge_base/domains/DD/examples.md", "md_atom_type": "HEADING", "md_parent_section": "§DD [DD — Examples]", "md_verbatim": "## Example 2", "score": 0.76, "match_basis": "verbatim_token+domain_route:DD"}, {"md_atom_id": "md_dmDD_ex_a001", "md_file": "knowledge_base/domains/DD/examples.md", "md_atom_type": "HEADING", "md_parent_section": "§DD [DD — Examples]", "md_verbatim": "# DD — Examples", "score": 0.66, "match_basis": "verbatim_token+domain_route:DD"}, {"md_atom_id": "md_dmDD_ex_a003", "md_file": "knowledge_base/domains/DD/examples.md", "md_atom_type": "SENTENCE", "md_parent_section": "§DD.1 [Example 1]", "md_verbatim": "This example shows the primary cause of death for 3 subjects. The CRF also collected the location of the subject's death and a secondary cause of death.", "score": 0.4588, "match_basis": "verbatim_token+domain_route:DD"}, {"md_atom_id": "md_dmDD_ex_a017", "md_file": "knowledge_base/domains/DD/examples.md", "md_atom_type": "SENTENCE", "md_parent_section": "§DD.2 [Example 2]", "md_verbatim": "This example illustrates how the DD, Disposition (DS), and AE data for a subject were linked using RELREC. Note that each of these domains serves a different purpose, even though the information is related. This subject had a fatal adverse event, represented in the AE domain.", "score": 0.4286, "match_basis": "verbatim_token+domain_route:DD"}, {"md_atom_id": "md_dmDD_ex_a004", "md_file": "knowledge_base/domains/DD/examples.md", "md_atom_type": "SENTENCE", "md_parent_section": "§DD.1 [Example 1]", "md_verbatim": "**Rows 1-2:** Show the primary cause of death and location of death for a subject. DDDTC is the date of assessment.", "score": 0.4, "match_basis": "verbatim_token+domain_route:DD"}, {"md_atom_id": "md_dmDD_ex_a005", "md_file": "knowledge_base/domains/DD/examples.md", "md_atom_type": "SENTENCE", "md_parent_section": "§DD.1 [Example 1]", "md_verbatim": "**Rows 3-4:** Show records for primary cause of death and location of death for another subject for whom the information was not known.", "score": 0.4, "match_basis": "verbatim_token+domain_route:DD"}, {"md_atom_id": "md_dmDD_ex_a006", "md_file": "knowledge_base/domains/DD/examples.md", "md_atom_type": "SENTENCE", "md_parent_section": "§DD.1 [Example 1]", "md_verbatim": "**Rows 5-7:** Show primary and secondary cause of death and location of death for a third subject.", "score": 0.4, "match_basis": "verbatim_token+domain_route:DD"}, {"md_atom_id": "md_dmDD_ex_a007", "md_file": "knowledge_base/domains/DD/examples.md", "md_atom_type": "SENTENCE", "md_parent_section": "§DD.1 [Example 1]", "md_verbatim": "**dd.xpt**", "score": 0.4, "match_basis": "verbatim_token+domain_route:DD"}, {"md_atom_id": "md_dmDD_ex_a018", "md_file": "knowledge_base/domains/DD/examples.md", "md_atom_type": "SENTENCE", "md_parent_section": "§DD.2 [Example 2]", "md_verbatim": "**ae.xpt**", "score": 0.4, "match_basis": "verbatim_token+domain_route:DD"}], "candidate_count": 10, "zero_candidate": false}
{"pdf_atom_id": "ig34_p0184_a023", "pdf_atom_type": "SENTENCE", "pdf_source": "SDTMIG_v3.4", "pdf_page": 184, "pdf_parent_section": "§6.3.2 Death Details (DD)", "pdf_verbatim": "This example illustrates how the DD, Disposition (DS), and AE data for a subject were linked using RELREC. Note that each of these domains serves a different purpose, even though the information is related. This subject had a fatal adverse event, represented in the AE domain.", "figure_ref": null, "candidates": [{"md_atom_id": "md_dmDD_ex_a017", "md_file": "knowledge_base/domains/DD/examples.md", "md_atom_type": "SENTENCE", "md_parent_section": "§DD.2 [Example 2]", "md_verbatim": "This example illustrates how the DD, Disposition (DS), and AE data for a subject were linked using RELREC. Note that each of these domains serves a different purpose, even though the information is related. This subject had a fatal adverse event, represented in the AE domain.", "score": 1.0, "match_basis": "verbatim_token+domain_route:DD"}, {"md_atom_id": "md_dmDD_ex_a033", "md_file": "knowledge_base/domains/DD/examples.md", "md_atom_type": "SENTENCE", "md_parent_section": "§DD.2 [Example 2]", "md_verbatim": "The relationship between the DS, AE, and DD records that reflect the subject's death is represented in RELREC.", "score": 0.5296, "match_basis": "verbatim_token+domain_route:DD"}, {"md_atom_id": "md_dmDD_ex_a025", "md_file": "knowledge_base/domains/DD/examples.md", "md_atom_type": "SENTENCE", "md_parent_section": "§DD.2 [Example 2]", "md_verbatim": "The subject's death is also represented in the DS domain as the reason for withdrawal from the study.", "score": 0.4945, "match_basis": "verbatim_token+domain_route:DD"}, {"md_atom_id": "md_dmDD_ex_a003", "md_file": "knowledge_base/domains/DD/examples.md", "md_atom_type": "SENTENCE", "md_parent_section": "§DD.1 [Example 1]", "md_verbatim": "This example shows the primary cause of death for 3 subjects. The CRF also collected the location of the subject's death and a secondary cause of death.", "score": 0.4882, "match_basis": "verbatim_token+domain_route:DD"}, {"md_atom_id": "md_dmDD_ex_a005", "md_file": "knowledge_base/domains/DD/examples.md", "md_atom_type": "SENTENCE", "md_parent_section": "§DD.1 [Example 1]", "md_verbatim": "**Rows 3-4:** Show records for primary cause of death and location of death for another subject for whom the information was not known.", "score": 0.4844, "match_basis": "verbatim_token+domain_route:DD"}], "candidate_count": 5, "zero_candidate": false}
{"pdf_atom_id": "ig34_p0184_a024", "pdf_atom_type": "CODE_LITERAL", "pdf_source": "SDTMIG_v3.4", "pdf_page": 184, "pdf_parent_section": "§6.3.2 Death Details (DD)", "pdf_verbatim": "ae.xpt", "figure_ref": null, "candidates": [{"md_atom_id": "md_dmDD_ex_a007", "md_file": "knowledge_base/domains/DD/examples.md", "md_atom_type": "SENTENCE", "md_parent_section": "§DD.1 [Example 1]", "md_verbatim": "**dd.xpt**", "score": 0.79, "match_basis": "verbatim_token+domain_route:DD"}, {"md_atom_id": "md_dmDD_ex_a018", "md_file": "knowledge_base/domains/DD/examples.md", "md_atom_type": "SENTENCE", "md_parent_section": "§DD.2 [Example 2]", "md_verbatim": "**ae.xpt**", "score": 0.79, "match_basis": "verbatim_token+domain_route:DD"}, {"md_atom_id": "md_dmDD_ex_a022", "md_file": "knowledge_base/domains/DD/examples.md", "md_atom_type": "SENTENCE", "md_parent_section": "§DD.2 [Example 2]", "md_verbatim": "**dd.xpt**", "score": 0.79, "match_basis": "verbatim_token+domain_route:DD"}, {"md_atom_id": "md_dmDD_ex_a028", "md_file": "knowledge_base/domains/DD/examples.md", "md_atom_type": "SENTENCE", "md_parent_section": "§DD.2 [Example 2]", "md_verbatim": "**ds.xpt**", "score": 0.79, "match_basis": "verbatim_token+domain_route:DD"}, {"md_atom_id": "md_dmDD_ex_a034", "md_file": "knowledge_base/domains/DD/examples.md", "md_atom_type": "SENTENCE", "md_parent_section": "§DD.2 [Example 2]", "md_verbatim": "**relrec.xpt**", "score": 0.31, "match_basis": "verbatim_token+domain_route:DD"}, {"md_atom_id": "md_dmDD_assn_a001", "md_file": "knowledge_base/domains/DD/assumptions.md", "md_atom_type": "HEADING", "md_parent_section": "§DD [DD — Assumptions]", "md_verbatim": "# DD — Assumptions", "score": 0.19, "match_basis": "verbatim_token+domain_route:DD"}, {"md_atom_id": "md_dmDD_assn_a002", "md_file": "knowledge_base/domains/DD/assumptions.md", "md_atom_type": "LIST_ITEM", "md_parent_section": "§DD [DD — Assumptions]", "md_verbatim": "1. There may be more than 1 cause of death. If so, these may be separated into primary and secondary causes and/or other appropriate designations. DD may also include other details about the death, such as where the death occurred and whether it was witnessed.", "score": 0.19, "match_basis": "verbatim_token+domain_route:DD"}, {"md_atom_id": "md_dmDD_assn_a003", "md_file": "knowledge_base/domains/DD/assumptions.md", "md_atom_type": "LIST_ITEM", "md_parent_section": "§DD [DD — Assumptions]", "md_verbatim": "2. Death details are typically collected on designated CRF pages. The DD domain is not intended to collate data that are collected in standard variables in other domains, such as AE.AEOUT (Outcome of Adverse Event), AE.AESDTH (Results in Death) or DS.DSTERM (Reported Term for the Disposition Event). Data from other domains that relates to the death can be linked to DD using RELREC.", "score": 0.19, "match_basis": "verbatim_token+domain_route:DD"}, {"md_atom_id": "md_dmDD_assn_a004", "md_file": "knowledge_base/domains/DD/assumptions.md", "md_atom_type": "LIST_ITEM", "md_parent_section": "§DD [DD — Assumptions]", "md_verbatim": "3. This domain is not intended to include data obtained from autopsy. An autopsy is a procedure from which there will usually be findings. Autopsy information should be handled as per recommendations in the Procedures (PR) domain.", "score": 0.19, "match_basis": "verbatim_token+domain_route:DD"}, {"md_atom_id": "md_dmDD_assn_a005", "md_file": "knowledge_base/domains/DD/assumptions.md", "md_atom_type": "LIST_ITEM", "md_parent_section": "§DD [DD — Assumptions]", "md_verbatim": "4. There are separate codelists for DD tests and responses. Associations between the DD tests and response codelists are described in the DD codeable (available at https://www.cdisc.org/standards/terminology/controlled-terminology).", "score": 0.19, "match_basis": "verbatim_token+domain_route:DD"}], "candidate_count": 10, "zero_candidate": false}
{"pdf_atom_id": "ig34_p0184_a025", "pdf_atom_type": "TABLE_HEADER", "pdf_source": "SDTMIG_v3.4", "pdf_page": 184, "pdf_parent_section": "§6.3.2 Death Details (DD)", "pdf_verbatim": "| Row | STUDYID | DOMAIN | USUBJID | AESEQ | AETERM | AESTDTC | AEENDTC | AEDECOD | AEBODSYS | AEOUT | AESER | AESDTH |", "figure_ref": null, "candidates": [{"md_atom_id": "md_dmDD_ex_a019", "md_file": "knowledge_base/domains/DD/examples.md", "md_atom_type": "TABLE_HEADER", "md_parent_section": "§DD.2 [Example 2]", "md_verbatim": "| Row | STUDYID | DOMAIN | USUBJID | AESEQ | AETERM | AESTDTC | AEENDTC | AEDECOD | AEBODSYS | AEOUT | AESER | AESDTH |\n|-----|---------|--------|---------|-------|--------|---------|---------|---------|----------|-------|-------|--------|", "score": 1.0, "match_basis": "verbatim_token+domain_route:DD"}, {"md_atom_id": "md_dmDD_ex_a029", "md_file": "knowledge_base/domains/DD/examples.md", "md_atom_type": "TABLE_HEADER", "md_parent_section": "§DD.2 [Example 2]", "md_verbatim": "| Row | STUDYID | DOMAIN | USUBJID | DSSEQ | DSTERM | DSDECOD | DSCAT | DSDTC | DSSTDTC |\n|-----|---------|--------|---------|-------|--------|---------|-------|-------|---------|", "score": 0.6586, "match_basis": "verbatim_token+domain_route:DD"}, {"md_atom_id": "md_dmDD_ex_a008", "md_file": "knowledge_base/domains/DD/examples.md", "md_atom_type": "TABLE_HEADER", "md_parent_section": "§DD.1 [Example 1]", "md_verbatim": "| Row | STUDYID | DOMAIN | USUBJID | DDSEQ | DDTESTCD | DDTEST | DDORRES | DDSTRESC | DDDTC |\n|-----|---------|--------|---------|-------|----------|--------|---------|----------|-------|", "score": 0.5662, "match_basis": "verbatim_token+domain_route:DD"}, {"md_atom_id": "md_dmDD_ex_a023", "md_file": "knowledge_base/domains/DD/examples.md", "md_atom_type": "TABLE_HEADER", "md_parent_section": "§DD.2 [Example 2]", "md_verbatim": "| Row | STUDYID | DOMAIN | USUBJID | DDSEQ | DDTESTCD | DDTEST | DDORRES | DDSTRESC | DDDTC |\n|-----|---------|--------|---------|-------|----------|--------|---------|----------|-------|", "score": 0.5662, "match_basis": "verbatim_token+domain_route:DD"}, {"md_atom_id": "md_dmDD_ex_a035", "md_file": "knowledge_base/domains/DD/examples.md", "md_atom_type": "TABLE_HEADER", "md_parent_section": "§DD.2 [Example 2]", "md_verbatim": "| Row | STUDYID | RDOMAIN | USUBJID | IDVAR | IDVARVAL | RELTYPE | RELID |\n|-----|---------|---------|---------|-------|----------|---------|-------|", "score": 0.5452, "match_basis": "verbatim_token+domain_route:DD"}], "candidate_count": 5, "zero_candidate": false}
{"pdf_atom_id": "ig34_p0184_a026", "pdf_atom_type": "TABLE_ROW", "pdf_source": "SDTMIG_v3.4", "pdf_page": 184, "pdf_parent_section": "§6.3.2 Death Details (DD)", "pdf_verbatim": "| 1 | ABC123 | AE | ABC12301001 | 6 | SUDDEN CARDIAC DEATH | 2011-01-10 | 2011-01-10 | SUDDEN CARDIAC DEATH | CARDIOVASCULAR SYSTEM | FATAL | Y | Y |", "figure_ref": null, "candidates": [{"md_atom_id": "md_dmDD_ex_a020", "md_file": "knowledge_base/domains/DD/examples.md", "md_atom_type": "TABLE_ROW", "md_parent_section": "§DD.2 [Example 2]", "md_verbatim": "| 1 | ABC123 | AE | ABC12301001 | 6 | SUDDEN CARDIAC DEATH | 2011-01-10 | 2011-01-10 | SUDDEN CARDIAC DEATH | CARDIOVASCULAR SYSTEM | FATAL | Y | Y |", "score": 1.0, "match_basis": "verbatim_token+domain_route:DD"}, {"md_atom_id": "md_dmDD_ex_a009", "md_file": "knowledge_base/domains/DD/examples.md", "md_atom_type": "TABLE_ROW", "md_parent_section": "§DD.1 [Example 1]", "md_verbatim": "| 1 | ABC123 | DD | ABC12301001 | 1 | PRCDTH | Primary Cause of Death | SUDDEN CARDIAC DEATH | SUDDEN CARDIAC DEATH | 2011-01-12 |", "score": 0.6706, "match_basis": "verbatim_token+domain_route:DD"}, {"md_atom_id": "md_dmDD_ex_a024", "md_file": "knowledge_base/domains/DD/examples.md", "md_atom_type": "TABLE_ROW", "md_parent_section": "§DD.2 [Example 2]", "md_verbatim": "| 1 | ABC123 | DD | ABC12301001 | 1 | PRCDTH | Primary Cause of Death | SUDDEN CARDIAC DEATH | SUDDEN CARDIAC DEATH | 2011-01-12 |", "score": 0.6706, "match_basis": "verbatim_token+domain_route:DD"}, {"md_atom_id": "md_dmDD_ex_a032", "md_file": "knowledge_base/domains/DD/examples.md", "md_atom_type": "TABLE_ROW", "md_parent_section": "§DD.2 [Example 2]", "md_verbatim": "| 3 | ABC123 | DS | ABC12301001 | 3 | SUDDEN CARDIAC DEATH | DEATH | DISPOSITION EVENT | 2011-01-10 | 2011-01-10 |", "score": 0.6706, "match_basis": "verbatim_token+domain_route:DD"}, {"md_atom_id": "md_dmDD_ex_a010", "md_file": "knowledge_base/domains/DD/examples.md", "md_atom_type": "TABLE_ROW", "md_parent_section": "§DD.1 [Example 1]", "md_verbatim": "| 2 | ABC123 | DD | ABC12301001 | 2 | LOCDTH | Location of Death | HOME | HOME | 2011-01-12 |", "score": 0.568, "match_basis": "verbatim_token+domain_route:DD"}], "candidate_count": 5, "zero_candidate": false}
{"pdf_atom_id": "ig34_p0184_a027", "pdf_atom_type": "SENTENCE", "pdf_source": "SDTMIG_v3.4", "pdf_page": 184, "pdf_parent_section": "§6.3.2 Death Details (DD)", "pdf_verbatim": "The primary cause of death was collected and is represented in DD. In this case, the result for primary cause of death is the same as the term in the AE record.", "figure_ref": null, "candidates": [{"md_atom_id": "md_dmDD_ex_a021", "md_file": "knowledge_base/domains/DD/examples.md", "md_atom_type": "SENTENCE", "md_parent_section": "§DD.2 [Example 2]", "md_verbatim": "The primary cause of death was collected and is represented in DD. In this case, the result for primary cause of death is the same as the term in the AE record.", "score": 1.0, "match_basis": "verbatim_token+domain_route:DD"}, {"md_atom_id": "md_dmDD_ex_a003", "md_file": "knowledge_base/domains/DD/examples.md", "md_atom_type": "SENTENCE", "md_parent_section": "§DD.1 [Example 1]", "md_verbatim": "This example shows the primary cause of death for 3 subjects. The CRF also collected the location of the subject's death and a secondary cause of death.", "score": 0.6, "match_basis": "verbatim_token+domain_route:DD"}, {"md_atom_id": "md_dmDD_ex_a033", "md_file": "knowledge_base/domains/DD/examples.md", "md_atom_type": "SENTENCE", "md_parent_section": "§DD.2 [Example 2]", "md_verbatim": "The relationship between the DS, AE, and DD records that reflect the subject's death is represented in RELREC.", "score": 0.5667, "match_basis": "verbatim_token+domain_route:DD"}, {"md_atom_id": "md_dmDD_ex_a005", "md_file": "knowledge_base/domains/DD/examples.md", "md_atom_type": "SENTENCE", "md_parent_section": "§DD.1 [Example 1]", "md_verbatim": "**Rows 3-4:** Show records for primary cause of death and location of death for another subject for whom the information was not known.", "score": 0.5622, "match_basis": "verbatim_token+domain_route:DD"}, {"md_atom_id": "md_dmDD_ex_a006", "md_file": "knowledge_base/domains/DD/examples.md", "md_atom_type": "SENTENCE", "md_parent_section": "§DD.1 [Example 1]", "md_verbatim": "**Rows 5-7:** Show primary and secondary cause of death and location of death for a third subject.", "score": 0.5455, "match_basis": "verbatim_token+domain_route:DD"}], "candidate_count": 5, "zero_candidate": false}
{"pdf_atom_id": "ig34_p0185_a001", "pdf_atom_type": "CODE_LITERAL", "pdf_source": "SDTMIG_v3.4", "pdf_page": 185, "pdf_parent_section": "§6.3.2 Death Details (DD)", "pdf_verbatim": "dd.xpt", "figure_ref": null, "candidates": [{"md_atom_id": "md_dmDD_ex_a007", "md_file": "knowledge_base/domains/DD/examples.md", "md_atom_type": "SENTENCE", "md_parent_section": "§DD.1 [Example 1]", "md_verbatim": "**dd.xpt**", "score": 0.79, "match_basis": "verbatim_token+domain_route:DD"}, {"md_atom_id": "md_dmDD_ex_a018", "md_file": "knowledge_base/domains/DD/examples.md", "md_atom_type": "SENTENCE", "md_parent_section": "§DD.2 [Example 2]", "md_verbatim": "**ae.xpt**", "score": 0.79, "match_basis": "verbatim_token+domain_route:DD"}, {"md_atom_id": "md_dmDD_ex_a022", "md_file": "knowledge_base/domains/DD/examples.md", "md_atom_type": "SENTENCE", "md_parent_section": "§DD.2 [Example 2]", "md_verbatim": "**dd.xpt**", "score": 0.79, "match_basis": "verbatim_token+domain_route:DD"}, {"md_atom_id": "md_dmDD_ex_a028", "md_file": "knowledge_base/domains/DD/examples.md", "md_atom_type": "SENTENCE", "md_parent_section": "§DD.2 [Example 2]", "md_verbatim": "**ds.xpt**", "score": 0.79, "match_basis": "verbatim_token+domain_route:DD"}, {"md_atom_id": "md_dmDD_ex_a034", "md_file": "knowledge_base/domains/DD/examples.md", "md_atom_type": "SENTENCE", "md_parent_section": "§DD.2 [Example 2]", "md_verbatim": "**relrec.xpt**", "score": 0.31, "match_basis": "verbatim_token+domain_route:DD"}, {"md_atom_id": "md_dmDD_assn_a001", "md_file": "knowledge_base/domains/DD/assumptions.md", "md_atom_type": "HEADING", "md_parent_section": "§DD [DD — Assumptions]", "md_verbatim": "# DD — Assumptions", "score": 0.19, "match_basis": "verbatim_token+domain_route:DD"}, {"md_atom_id": "md_dmDD_assn_a002", "md_file": "knowledge_base/domains/DD/assumptions.md", "md_atom_type": "LIST_ITEM", "md_parent_section": "§DD [DD — Assumptions]", "md_verbatim": "1. There may be more than 1 cause of death. If so, these may be separated into primary and secondary causes and/or other appropriate designations. DD may also include other details about the death, such as where the death occurred and whether it was witnessed.", "score": 0.19, "match_basis": "verbatim_token+domain_route:DD"}, {"md_atom_id": "md_dmDD_assn_a003", "md_file": "knowledge_base/domains/DD/assumptions.md", "md_atom_type": "LIST_ITEM", "md_parent_section": "§DD [DD — Assumptions]", "md_verbatim": "2. Death details are typically collected on designated CRF pages. The DD domain is not intended to collate data that are collected in standard variables in other domains, such as AE.AEOUT (Outcome of Adverse Event), AE.AESDTH (Results in Death) or DS.DSTERM (Reported Term for the Disposition Event). Data from other domains that relates to the death can be linked to DD using RELREC.", "score": 0.19, "match_basis": "verbatim_token+domain_route:DD"}, {"md_atom_id": "md_dmDD_assn_a004", "md_file": "knowledge_base/domains/DD/assumptions.md", "md_atom_type": "LIST_ITEM", "md_parent_section": "§DD [DD — Assumptions]", "md_verbatim": "3. This domain is not intended to include data obtained from autopsy. An autopsy is a procedure from which there will usually be findings. Autopsy information should be handled as per recommendations in the Procedures (PR) domain.", "score": 0.19, "match_basis": "verbatim_token+domain_route:DD"}, {"md_atom_id": "md_dmDD_assn_a005", "md_file": "knowledge_base/domains/DD/assumptions.md", "md_atom_type": "LIST_ITEM", "md_parent_section": "§DD [DD — Assumptions]", "md_verbatim": "4. There are separate codelists for DD tests and responses. Associations between the DD tests and response codelists are described in the DD codeable (available at https://www.cdisc.org/standards/terminology/controlled-terminology).", "score": 0.19, "match_basis": "verbatim_token+domain_route:DD"}], "candidate_count": 10, "zero_candidate": false}
{"pdf_atom_id": "ig34_p0185_a002", "pdf_atom_type": "TABLE_HEADER", "pdf_source": "SDTMIG_v3.4", "pdf_page": 185, "pdf_parent_section": "§6.3.2 Death Details (DD)", "pdf_verbatim": "| Row | STUDYID | DOMAIN | USUBJID | DDSEQ | DDTESTCD | DDTEST | DDORRES | DDSTRESC | DDDTC |", "figure_ref": null, "candidates": [{"md_atom_id": "md_dmDD_ex_a008", "md_file": "knowledge_base/domains/DD/examples.md", "md_atom_type": "TABLE_HEADER", "md_parent_section": "§DD.1 [Example 1]", "md_verbatim": "| Row | STUDYID | DOMAIN | USUBJID | DDSEQ | DDTESTCD | DDTEST | DDORRES | DDSTRESC | DDDTC |\n|-----|---------|--------|---------|-------|----------|--------|---------|----------|-------|", "score": 1.0, "match_basis": "verbatim_token+domain_route:DD"}, {"md_atom_id": "md_dmDD_ex_a023", "md_file": "knowledge_base/domains/DD/examples.md", "md_atom_type": "TABLE_HEADER", "md_parent_section": "§DD.2 [Example 2]", "md_verbatim": "| Row | STUDYID | DOMAIN | USUBJID | DDSEQ | DDTESTCD | DDTEST | DDORRES | DDSTRESC | DDDTC |\n|-----|---------|--------|---------|-------|----------|--------|---------|----------|-------|", "score": 1.0, "match_basis": "verbatim_token+domain_route:DD"}, {"md_atom_id": "md_dmDD_ex_a029", "md_file": "knowledge_base/domains/DD/examples.md", "md_atom_type": "TABLE_HEADER", "md_parent_section": "§DD.2 [Example 2]", "md_verbatim": "| Row | STUDYID | DOMAIN | USUBJID | DSSEQ | DSTERM | DSDECOD | DSCAT | DSDTC | DSSTDTC |\n|-----|---------|--------|---------|-------|--------|---------|-------|-------|---------|", "score": 0.6077, "match_basis": "verbatim_token+domain_route:DD"}, {"md_atom_id": "md_dmDD_ex_a035", "md_file": "knowledge_base/domains/DD/examples.md", "md_atom_type": "TABLE_HEADER", "md_parent_section": "§DD.2 [Example 2]", "md_verbatim": "| Row | STUDYID | RDOMAIN | USUBJID | IDVAR | IDVARVAL | RELTYPE | RELID |\n|-----|---------|---------|---------|-------|----------|---------|-------|", "score": 0.5837, "match_basis": "verbatim_token+domain_route:DD"}, {"md_atom_id": "md_dmDD_ex_a019", "md_file": "knowledge_base/domains/DD/examples.md", "md_atom_type": "TABLE_HEADER", "md_parent_section": "§DD.2 [Example 2]", "md_verbatim": "| Row | STUDYID | DOMAIN | USUBJID | AESEQ | AETERM | AESTDTC | AEENDTC | AEDECOD | AEBODSYS | AEOUT | AESER | AESDTH |\n|-----|---------|--------|---------|-------|--------|---------|---------|---------|----------|-------|-------|--------|", "score": 0.5662, "match_basis": "verbatim_token+domain_route:DD"}], "candidate_count": 5, "zero_candidate": false}
{"pdf_atom_id": "ig34_p0185_a003", "pdf_atom_type": "TABLE_ROW", "pdf_source": "SDTMIG_v3.4", "pdf_page": 185, "pdf_parent_section": "§6.3.2 Death Details (DD)", "pdf_verbatim": "| 1 | ABC123 | DD | ABC12301001 | 1 | PRCDTH | Primary Cause of Death | SUDDEN CARDIAC DEATH | SUDDEN CARDIAC DEATH | 2011-01-12 |", "figure_ref": null, "candidates": [{"md_atom_id": "md_dmDD_ex_a009", "md_file": "knowledge_base/domains/DD/examples.md", "md_atom_type": "TABLE_ROW", "md_parent_section": "§DD.1 [Example 1]", "md_verbatim": "| 1 | ABC123 | DD | ABC12301001 | 1 | PRCDTH | Primary Cause of Death | SUDDEN CARDIAC DEATH | SUDDEN CARDIAC DEATH | 2011-01-12 |", "score": 1.0, "match_basis": "verbatim_token+domain_route:DD"}, {"md_atom_id": "md_dmDD_ex_a024", "md_file": "knowledge_base/domains/DD/examples.md", "md_atom_type": "TABLE_ROW", "md_parent_section": "§DD.2 [Example 2]", "md_verbatim": "| 1 | ABC123 | DD | ABC12301001 | 1 | PRCDTH | Primary Cause of Death | SUDDEN CARDIAC DEATH | SUDDEN CARDIAC DEATH | 2011-01-12 |", "score": 1.0, "match_basis": "verbatim_token+domain_route:DD"}, {"md_atom_id": "md_dmDD_ex_a013", "md_file": "knowledge_base/domains/DD/examples.md", "md_atom_type": "TABLE_ROW", "md_parent_section": "§DD.1 [Example 1]", "md_verbatim": "| 5 | ABC123 | DD | ABC12301023 | 1 | PRCDTH | Primary Cause of Death | CARDIAC ARRHYTHMIA | CARDIAC ARRHYTHMIA | 2011-09-09 |", "score": 0.7867, "match_basis": "verbatim_token+domain_route:DD"}, {"md_atom_id": "md_dmDD_ex_a011", "md_file": "knowledge_base/domains/DD/examples.md", "md_atom_type": "TABLE_ROW", "md_parent_section": "§DD.1 [Example 1]", "md_verbatim": "| 3 | ABC123 | DD | ABC12301002 | 1 | PRCDTH | Primary Cause of Death | UNKNOWN | UNKNOWN | 2011-03-15 |", "score": 0.7659, "match_basis": "verbatim_token+domain_route:DD"}, {"md_atom_id": "md_dmDD_ex_a032", "md_file": "knowledge_base/domains/DD/examples.md", "md_atom_type": "TABLE_ROW", "md_parent_section": "§DD.2 [Example 2]", "md_verbatim": "| 3 | ABC123 | DS | ABC12301001 | 3 | SUDDEN CARDIAC DEATH | DEATH | DISPOSITION EVENT | 2011-01-10 | 2011-01-10 |", "score": 0.6936, "match_basis": "verbatim_token+domain_route:DD"}], "candidate_count": 5, "zero_candidate": false}
{"pdf_atom_id": "ig34_p0185_a004", "pdf_atom_type": "SENTENCE", "pdf_source": "SDTMIG_v3.4", "pdf_page": 185, "pdf_parent_section": "§6.3.2 Death Details (DD)", "pdf_verbatim": "The subject's death is also represented in the DS domain as the reason for withdrawal from the study.", "figure_ref": null, "candidates": [{"md_atom_id": "md_dmDD_ex_a025", "md_file": "knowledge_base/domains/DD/examples.md", "md_atom_type": "SENTENCE", "md_parent_section": "§DD.2 [Example 2]", "md_verbatim": "The subject's death is also represented in the DS domain as the reason for withdrawal from the study.", "score": 1.0, "match_basis": "verbatim_token+domain_route:DD"}, {"md_atom_id": "md_dmDD_ex_a033", "md_file": "knowledge_base/domains/DD/examples.md", "md_atom_type": "SENTENCE", "md_parent_section": "§DD.2 [Example 2]", "md_verbatim": "The relationship between the DS, AE, and DD records that reflect the subject's death is represented in RELREC.", "score": 0.5521, "match_basis": "verbatim_token+domain_route:DD"}, {"md_atom_id": "md_dmDD_ex_a021", "md_file": "knowledge_base/domains/DD/examples.md", "md_atom_type": "SENTENCE", "md_parent_section": "§DD.2 [Example 2]", "md_verbatim": "The primary cause of death was collected and is represented in DD. In this case, the result for primary cause of death is the same as the term in the AE record.", "score": 0.525, "match_basis": "verbatim_token+domain_route:DD"}, {"md_atom_id": "md_dmDD_ex_a003", "md_file": "knowledge_base/domains/DD/examples.md", "md_atom_type": "SENTENCE", "md_parent_section": "§DD.1 [Example 1]", "md_verbatim": "This example shows the primary cause of death for 3 subjects. The CRF also collected the location of the subject's death and a secondary cause of death.", "score": 0.4975, "match_basis": "verbatim_token+domain_route:DD"}, {"md_atom_id": "md_dmDD_ex_a017", "md_file": "knowledge_base/domains/DD/examples.md", "md_atom_type": "SENTENCE", "md_parent_section": "§DD.2 [Example 2]", "md_verbatim": "This example illustrates how the DD, Disposition (DS), and AE data for a subject were linked using RELREC. Note that each of these domains serves a different purpose, even though the information is related. This subject had a fatal adverse event, represented in the AE domain.", "score": 0.4945, "match_basis": "verbatim_token+domain_route:DD"}], "candidate_count": 5, "zero_candidate": false}
{"pdf_atom_id": "ig34_p0185_a005", "pdf_atom_type": "SENTENCE", "pdf_source": "SDTMIG_v3.4", "pdf_page": 185, "pdf_parent_section": "§6.3.2 Death Details (DD)", "pdf_verbatim": "Rows 1-2:    Show typical protocol milestones and disposition events.", "figure_ref": null, "candidates": [{"md_atom_id": "md_dmDD_ex_a026", "md_file": "knowledge_base/domains/DD/examples.md", "md_atom_type": "SENTENCE", "md_parent_section": "§DD.2 [Example 2]", "md_verbatim": "**Rows 1-2:** Show typical protocol milestones and disposition events.", "score": 1.0, "match_basis": "verbatim_token+domain_route:DD"}, {"md_atom_id": "md_dmDD_ex_a027", "md_file": "knowledge_base/domains/DD/examples.md", "md_atom_type": "SENTENCE", "md_parent_section": "§DD.2 [Example 2]", "md_verbatim": "**Row 3:** Shows the date the death event occurred (DSSTDTC) and was recorded (DSDTC).", "score": 0.4762, "match_basis": "verbatim_token+domain_route:DD"}, {"md_atom_id": "md_dmDD_ex_a004", "md_file": "knowledge_base/domains/DD/examples.md", "md_atom_type": "SENTENCE", "md_parent_section": "§DD.1 [Example 1]", "md_verbatim": "**Rows 1-2:** Show the primary cause of death and location of death for a subject. DDDTC is the date of assessment.", "score": 0.4676, "match_basis": "verbatim_token+domain_route:DD"}, {"md_atom_id": "md_dmDD_ex_a017", "md_file": "knowledge_base/domains/DD/examples.md", "md_atom_type": "SENTENCE", "md_parent_section": "§DD.2 [Example 2]", "md_verbatim": "This example illustrates how the DD, Disposition (DS), and AE data for a subject were linked using RELREC. Note that each of these domains serves a different purpose, even though the information is related. This subject had a fatal adverse event, represented in the AE domain.", "score": 0.4656, "match_basis": "verbatim_token+domain_route:DD"}, {"md_atom_id": "md_dmDD_ex_a006", "md_file": "knowledge_base/domains/DD/examples.md", "md_atom_type": "SENTENCE", "md_parent_section": "§DD.1 [Example 1]", "md_verbatim": "**Rows 5-7:** Show primary and secondary cause of death and location of death for a third subject.", "score": 0.4627, "match_basis": "verbatim_token+domain_route:DD"}], "candidate_count": 5, "zero_candidate": false}
{"pdf_atom_id": "ig34_p0185_a006", "pdf_atom_type": "SENTENCE", "pdf_source": "SDTMIG_v3.4", "pdf_page": 185, "pdf_parent_section": "§6.3.2 Death Details (DD)", "pdf_verbatim": "Row 3:       Shows the date the death event occurred (DSSTDTC) and was recorded (DSDTC).", "figure_ref": null, "candidates": [{"md_atom_id": "md_dmDD_ex_a027", "md_file": "knowledge_base/domains/DD/examples.md", "md_atom_type": "SENTENCE", "md_parent_section": "§DD.2 [Example 2]", "md_verbatim": "**Row 3:** Shows the date the death event occurred (DSSTDTC) and was recorded (DSDTC).", "score": 1.0, "match_basis": "verbatim_token+domain_route:DD"}, {"md_atom_id": "md_dmDD_ex_a004", "md_file": "knowledge_base/domains/DD/examples.md", "md_atom_type": "SENTENCE", "md_parent_section": "§DD.1 [Example 1]", "md_verbatim": "**Rows 1-2:** Show the primary cause of death and location of death for a subject. DDDTC is the date of assessment.", "score": 0.5238, "match_basis": "verbatim_token+domain_route:DD"}, {"md_atom_id": "md_dmDD_ex_a005", "md_file": "knowledge_base/domains/DD/examples.md", "md_atom_type": "SENTENCE", "md_parent_section": "§DD.1 [Example 1]", "md_verbatim": "**Rows 3-4:** Show records for primary cause of death and location of death for another subject for whom the information was not known.", "score": 0.5217, "match_basis": "verbatim_token+domain_route:DD"}, {"md_atom_id": "md_dmDD_ex_a021", "md_file": "knowledge_base/domains/DD/examples.md", "md_atom_type": "SENTENCE", "md_parent_section": "§DD.2 [Example 2]", "md_verbatim": "The primary cause of death was collected and is represented in DD. In this case, the result for primary cause of death is the same as the term in the AE record.", "score": 0.4971, "match_basis": "verbatim_token+domain_route:DD"}, {"md_atom_id": "md_dmDD_ex_a006", "md_file": "knowledge_base/domains/DD/examples.md", "md_atom_type": "SENTENCE", "md_parent_section": "§DD.1 [Example 1]", "md_verbatim": "**Rows 5-7:** Show primary and secondary cause of death and location of death for a third subject.", "score": 0.4871, "match_basis": "verbatim_token+domain_route:DD"}], "candidate_count": 5, "zero_candidate": false}
{"pdf_atom_id": "ig34_p0185_a007", "pdf_atom_type": "CODE_LITERAL", "pdf_source": "SDTMIG_v3.4", "pdf_page": 185, "pdf_parent_section": "§6.3.2 Death Details (DD)", "pdf_verbatim": "ds.xpt", "figure_ref": null, "candidates": [{"md_atom_id": "md_dmDD_ex_a007", "md_file": "knowledge_base/domains/DD/examples.md", "md_atom_type": "SENTENCE", "md_parent_section": "§DD.1 [Example 1]", "md_verbatim": "**dd.xpt**", "score": 0.79, "match_basis": "verbatim_token+domain_route:DD"}, {"md_atom_id": "md_dmDD_ex_a018", "md_file": "knowledge_base/domains/DD/examples.md", "md_atom_type": "SENTENCE", "md_parent_section": "§DD.2 [Example 2]", "md_verbatim": "**ae.xpt**", "score": 0.79, "match_basis": "verbatim_token+domain_route:DD"}, {"md_atom_id": "md_dmDD_ex_a022", "md_file": "knowledge_base/domains/DD/examples.md", "md_atom_type": "SENTENCE", "md_parent_section": "§DD.2 [Example 2]", "md_verbatim": "**dd.xpt**", "score": 0.79, "match_basis": "verbatim_token+domain_route:DD"}, {"md_atom_id": "md_dmDD_ex_a028", "md_file": "knowledge_base/domains/DD/examples.md", "md_atom_type": "SENTENCE", "md_parent_section": "§DD.2 [Example 2]", "md_verbatim": "**ds.xpt**", "score": 0.79, "match_basis": "verbatim_token+domain_route:DD"}, {"md_atom_id": "md_dmDD_ex_a034", "md_file": "knowledge_base/domains/DD/examples.md", "md_atom_type": "SENTENCE", "md_parent_section": "§DD.2 [Example 2]", "md_verbatim": "**relrec.xpt**", "score": 0.31, "match_basis": "verbatim_token+domain_route:DD"}, {"md_atom_id": "md_dmDD_assn_a001", "md_file": "knowledge_base/domains/DD/assumptions.md", "md_atom_type": "HEADING", "md_parent_section": "§DD [DD — Assumptions]", "md_verbatim": "# DD — Assumptions", "score": 0.19, "match_basis": "verbatim_token+domain_route:DD"}, {"md_atom_id": "md_dmDD_assn_a002", "md_file": "knowledge_base/domains/DD/assumptions.md", "md_atom_type": "LIST_ITEM", "md_parent_section": "§DD [DD — Assumptions]", "md_verbatim": "1. There may be more than 1 cause of death. If so, these may be separated into primary and secondary causes and/or other appropriate designations. DD may also include other details about the death, such as where the death occurred and whether it was witnessed.", "score": 0.19, "match_basis": "verbatim_token+domain_route:DD"}, {"md_atom_id": "md_dmDD_assn_a003", "md_file": "knowledge_base/domains/DD/assumptions.md", "md_atom_type": "LIST_ITEM", "md_parent_section": "§DD [DD — Assumptions]", "md_verbatim": "2. Death details are typically collected on designated CRF pages. The DD domain is not intended to collate data that are collected in standard variables in other domains, such as AE.AEOUT (Outcome of Adverse Event), AE.AESDTH (Results in Death) or DS.DSTERM (Reported Term for the Disposition Event). Data from other domains that relates to the death can be linked to DD using RELREC.", "score": 0.19, "match_basis": "verbatim_token+domain_route:DD"}, {"md_atom_id": "md_dmDD_assn_a004", "md_file": "knowledge_base/domains/DD/assumptions.md", "md_atom_type": "LIST_ITEM", "md_parent_section": "§DD [DD — Assumptions]", "md_verbatim": "3. This domain is not intended to include data obtained from autopsy. An autopsy is a procedure from which there will usually be findings. Autopsy information should be handled as per recommendations in the Procedures (PR) domain.", "score": 0.19, "match_basis": "verbatim_token+domain_route:DD"}, {"md_atom_id": "md_dmDD_assn_a005", "md_file": "knowledge_base/domains/DD/assumptions.md", "md_atom_type": "LIST_ITEM", "md_parent_section": "§DD [DD — Assumptions]", "md_verbatim": "4. There are separate codelists for DD tests and responses. Associations between the DD tests and response codelists are described in the DD codeable (available at https://www.cdisc.org/standards/terminology/controlled-terminology).", "score": 0.19, "match_basis": "verbatim_token+domain_route:DD"}], "candidate_count": 10, "zero_candidate": false}
{"pdf_atom_id": "ig34_p0185_a008", "pdf_atom_type": "TABLE_HEADER", "pdf_source": "SDTMIG_v3.4", "pdf_page": 185, "pdf_parent_section": "§6.3.2 Death Details (DD)", "pdf_verbatim": "| Row | STUDYID | DOMAIN | USUBJID | DSSEQ | DSTERM | DSDECOD | DSCAT | DSDTC | DSSTDTC |", "figure_ref": null, "candidates": [{"md_atom_id": "md_dmDD_ex_a029", "md_file": "knowledge_base/domains/DD/examples.md", "md_atom_type": "TABLE_HEADER", "md_parent_section": "§DD.2 [Example 2]", "md_verbatim": "| Row | STUDYID | DOMAIN | USUBJID | DSSEQ | DSTERM | DSDECOD | DSCAT | DSDTC | DSSTDTC |\n|-----|---------|--------|---------|-------|--------|---------|-------|-------|---------|", "score": 1.0, "match_basis": "verbatim_token+domain_route:DD"}, {"md_atom_id": "md_dmDD_ex_a019", "md_file": "knowledge_base/domains/DD/examples.md", "md_atom_type": "TABLE_HEADER", "md_parent_section": "§DD.2 [Example 2]", "md_verbatim": "| Row | STUDYID | DOMAIN | USUBJID | AESEQ | AETERM | AESTDTC | AEENDTC | AEDECOD | AEBODSYS | AEOUT | AESER | AESDTH |\n|-----|---------|--------|---------|-------|--------|---------|---------|---------|----------|-------|-------|--------|", "score": 0.6586, "match_basis": "verbatim_token+domain_route:DD"}, {"md_atom_id": "md_dmDD_ex_a008", "md_file": "knowledge_base/domains/DD/examples.md", "md_atom_type": "TABLE_HEADER", "md_parent_section": "§DD.1 [Example 1]", "md_verbatim": "| Row | STUDYID | DOMAIN | USUBJID | DDSEQ | DDTESTCD | DDTEST | DDORRES | DDSTRESC | DDDTC |\n|-----|---------|--------|---------|-------|----------|--------|---------|----------|-------|", "score": 0.6077, "match_basis": "verbatim_token+domain_route:DD"}, {"md_atom_id": "md_dmDD_ex_a023", "md_file": "knowledge_base/domains/DD/examples.md", "md_atom_type": "TABLE_HEADER", "md_parent_section": "§DD.2 [Example 2]", "md_verbatim": "| Row | STUDYID | DOMAIN | USUBJID | DDSEQ | DDTESTCD | DDTEST | DDORRES | DDSTRESC | DDDTC |\n|-----|---------|--------|---------|-------|----------|--------|---------|----------|-------|", "score": 0.6077, "match_basis": "verbatim_token+domain_route:DD"}, {"md_atom_id": "md_dmDD_ex_a035", "md_file": "knowledge_base/domains/DD/examples.md", "md_atom_type": "TABLE_HEADER", "md_parent_section": "§DD.2 [Example 2]", "md_verbatim": "| Row | STUDYID | RDOMAIN | USUBJID | IDVAR | IDVARVAL | RELTYPE | RELID |\n|-----|---------|---------|---------|-------|----------|---------|-------|", "score": 0.5837, "match_basis": "verbatim_token+domain_route:DD"}], "candidate_count": 5, "zero_candidate": false}
{"pdf_atom_id": "ig34_p0185_a009", "pdf_atom_type": "TABLE_ROW", "pdf_source": "SDTMIG_v3.4", "pdf_page": 185, "pdf_parent_section": "§6.3.2 Death Details (DD)", "pdf_verbatim": "| 1 | ABC123 | DS | ABC12301001 | 1 | INFORMED CONSENT OBTAINED | INFORMED CONSENT OBTAINED | PROTOCOL MILESTONE | 2011-01-02 | 2011-01-02 |", "figure_ref": null, "candidates": [{"md_atom_id": "md_dmDD_ex_a030", "md_file": "knowledge_base/domains/DD/examples.md", "md_atom_type": "TABLE_ROW", "md_parent_section": "§DD.2 [Example 2]", "md_verbatim": "| 1 | ABC123 | DS | ABC12301001 | 1 | INFORMED CONSENT OBTAINED | INFORMED CONSENT OBTAINED | PROTOCOL MILESTONE | 2011-01-02 | 2011-01-02 |", "score": 1.0, "match_basis": "verbatim_token+domain_route:DD"}, {"md_atom_id": "md_dmDD_ex_a031", "md_file": "knowledge_base/domains/DD/examples.md", "md_atom_type": "TABLE_ROW", "md_parent_section": "§DD.2 [Example 2]", "md_verbatim": "| 2 | ABC123 | DS | ABC12301001 | 2 | RANDOMIZED | RANDOMIZED | PROTOCOL MILESTONE | 2011-01-03 | 2011-01-03 |", "score": 0.6939, "match_basis": "verbatim_token+domain_route:DD"}, {"md_atom_id": "md_dmDD_ex_a036", "md_file": "knowledge_base/domains/DD/examples.md", "md_atom_type": "TABLE_ROW", "md_parent_section": "§DD.2 [Example 2]", "md_verbatim": "| 1 | ABC123 | DS | ABC12301001 | DSSEQ | 3 | | 1 |", "score": 0.5227, "match_basis": "verbatim_token+domain_route:DD"}, {"md_atom_id": "md_dmDD_ex_a037", "md_file": "knowledge_base/domains/DD/examples.md", "md_atom_type": "TABLE_ROW", "md_parent_section": "§DD.2 [Example 2]", "md_verbatim": "| 2 | ABC123 | AE | ABC12301001 | AESEQ | 6 | | 1 |", "score": 0.5227, "match_basis": "verbatim_token+domain_route:DD"}, {"md_atom_id": "md_dmDD_ex_a038", "md_file": "knowledge_base/domains/DD/examples.md", "md_atom_type": "TABLE_ROW", "md_parent_section": "§DD.2 [Example 2]", "md_verbatim": "| 3 | ABC123 | DD | ABC12301001 | DDSEQ | 1 | | 1 |", "score": 0.5227, "match_basis": "verbatim_token+domain_route:DD"}], "candidate_count": 5, "zero_candidate": false}
{"pdf_atom_id": "ig34_p0185_a010", "pdf_atom_type": "TABLE_ROW", "pdf_source": "SDTMIG_v3.4", "pdf_page": 185, "pdf_parent_section": "§6.3.2 Death Details (DD)", "pdf_verbatim": "| 2 | ABC123 | DS | ABC12301001 | 2 | RANDOMIZED | RANDOMIZED | PROTOCOL MILESTONE | 2011-01-03 | 2011-01-03 |", "figure_ref": null, "candidates": [{"md_atom_id": "md_dmDD_ex_a031", "md_file": "knowledge_base/domains/DD/examples.md", "md_atom_type": "TABLE_ROW", "md_parent_section": "§DD.2 [Example 2]", "md_verbatim": "| 2 | ABC123 | DS | ABC12301001 | 2 | RANDOMIZED | RANDOMIZED | PROTOCOL MILESTONE | 2011-01-03 | 2011-01-03 |", "score": 1.0, "match_basis": "verbatim_token+domain_route:DD"}, {"md_atom_id": "md_dmDD_ex_a030", "md_file": "knowledge_base/domains/DD/examples.md", "md_atom_type": "TABLE_ROW", "md_parent_section": "§DD.2 [Example 2]", "md_verbatim": "| 1 | ABC123 | DS | ABC12301001 | 1 | INFORMED CONSENT OBTAINED | INFORMED CONSENT OBTAINED | PROTOCOL MILESTONE | 2011-01-02 | 2011-01-02 |", "score": 0.6939, "match_basis": "verbatim_token+domain_route:DD"}, {"md_atom_id": "md_dmDD_ex_a036", "md_file": "knowledge_base/domains/DD/examples.md", "md_atom_type": "TABLE_ROW", "md_parent_section": "§DD.2 [Example 2]", "md_verbatim": "| 1 | ABC123 | DS | ABC12301001 | DSSEQ | 3 | | 1 |", "score": 0.5543, "match_basis": "verbatim_token+domain_route:DD"}, {"md_atom_id": "md_dmDD_ex_a037", "md_file": "knowledge_base/domains/DD/examples.md", "md_atom_type": "TABLE_ROW", "md_parent_section": "§DD.2 [Example 2]", "md_verbatim": "| 2 | ABC123 | AE | ABC12301001 | AESEQ | 6 | | 1 |", "score": 0.5543, "match_basis": "verbatim_token+domain_route:DD"}, {"md_atom_id": "md_dmDD_ex_a038", "md_file": "knowledge_base/domains/DD/examples.md", "md_atom_type": "TABLE_ROW", "md_parent_section": "§DD.2 [Example 2]", "md_verbatim": "| 3 | ABC123 | DD | ABC12301001 | DDSEQ | 1 | | 1 |", "score": 0.5543, "match_basis": "verbatim_token+domain_route:DD"}], "candidate_count": 5, "zero_candidate": false}
{"pdf_atom_id": "ig34_p0185_a011", "pdf_atom_type": "TABLE_ROW", "pdf_source": "SDTMIG_v3.4", "pdf_page": 185, "pdf_parent_section": "§6.3.2 Death Details (DD)", "pdf_verbatim": "| 3 | ABC123 | DS | ABC12301001 | 3 | SUDDEN CARDIAC DEATH | DEATH | DISPOSITION EVENT | 2011-01-10 | 2011-01-10 |", "figure_ref": null, "candidates": [{"md_atom_id": "md_dmDD_ex_a032", "md_file": "knowledge_base/domains/DD/examples.md", "md_atom_type": "TABLE_ROW", "md_parent_section": "§DD.2 [Example 2]", "md_verbatim": "| 3 | ABC123 | DS | ABC12301001 | 3 | SUDDEN CARDIAC DEATH | DEATH | DISPOSITION EVENT | 2011-01-10 | 2011-01-10 |", "score": 1.0, "match_basis": "verbatim_token+domain_route:DD"}, {"md_atom_id": "md_dmDD_ex_a009", "md_file": "knowledge_base/domains/DD/examples.md", "md_atom_type": "TABLE_ROW", "md_parent_section": "§DD.1 [Example 1]", "md_verbatim": "| 1 | ABC123 | DD | ABC12301001 | 1 | PRCDTH | Primary Cause of Death | SUDDEN CARDIAC DEATH | SUDDEN CARDIAC DEATH | 2011-01-12 |", "score": 0.6936, "match_basis": "verbatim_token+domain_route:DD"}, {"md_atom_id": "md_dmDD_ex_a024", "md_file": "knowledge_base/domains/DD/examples.md", "md_atom_type": "TABLE_ROW", "md_parent_section": "§DD.2 [Example 2]", "md_verbatim": "| 1 | ABC123 | DD | ABC12301001 | 1 | PRCDTH | Primary Cause of Death | SUDDEN CARDIAC DEATH | SUDDEN CARDIAC DEATH | 2011-01-12 |", "score": 0.6936, "match_basis": "verbatim_token+domain_route:DD"}, {"md_atom_id": "md_dmDD_ex_a020", "md_file": "knowledge_base/domains/DD/examples.md", "md_atom_type": "TABLE_ROW", "md_parent_section": "§DD.2 [Example 2]", "md_verbatim": "| 1 | ABC123 | AE | ABC12301001 | 6 | SUDDEN CARDIAC DEATH | 2011-01-10 | 2011-01-10 | SUDDEN CARDIAC DEATH | CARDIOVASCULAR SYSTEM | FATAL | Y | Y |", "score": 0.6706, "match_basis": "verbatim_token+domain_route:DD"}, {"md_atom_id": "md_dmDD_ex_a010", "md_file": "knowledge_base/domains/DD/examples.md", "md_atom_type": "TABLE_ROW", "md_parent_section": "§DD.1 [Example 1]", "md_verbatim": "| 2 | ABC123 | DD | ABC12301001 | 2 | LOCDTH | Location of Death | HOME | HOME | 2011-01-12 |", "score": 0.6182, "match_basis": "verbatim_token+domain_route:DD"}], "candidate_count": 5, "zero_candidate": false}
{"pdf_atom_id": "ig34_p0185_a012", "pdf_atom_type": "SENTENCE", "pdf_source": "SDTMIG_v3.4", "pdf_page": 185, "pdf_parent_section": "§6.3.2 Death Details (DD)", "pdf_verbatim": "The relationship between the DS, AE, and DD records that reflect the subject's death is represented in RELREC.", "figure_ref": null, "candidates": [{"md_atom_id": "md_dmDD_ex_a033", "md_file": "knowledge_base/domains/DD/examples.md", "md_atom_type": "SENTENCE", "md_parent_section": "§DD.2 [Example 2]", "md_verbatim": "The relationship between the DS, AE, and DD records that reflect the subject's death is represented in RELREC.", "score": 1.0, "match_basis": "verbatim_token+domain_route:DD"}, {"md_atom_id": "md_dmDD_ex_a021", "md_file": "knowledge_base/domains/DD/examples.md", "md_atom_type": "SENTENCE", "md_parent_section": "§DD.2 [Example 2]", "md_verbatim": "The primary cause of death was collected and is represented in DD. In this case, the result for primary cause of death is the same as the term in the AE record.", "score": 0.5667, "match_basis": "verbatim_token+domain_route:DD"}, {"md_atom_id": "md_dmDD_ex_a025", "md_file": "knowledge_base/domains/DD/examples.md", "md_atom_type": "SENTENCE", "md_parent_section": "§DD.2 [Example 2]", "md_verbatim": "The subject's death is also represented in the DS domain as the reason for withdrawal from the study.", "score": 0.5521, "match_basis": "verbatim_token+domain_route:DD"}, {"md_atom_id": "md_dmDD_ex_a005", "md_file": "knowledge_base/domains/DD/examples.md", "md_atom_type": "SENTENCE", "md_parent_section": "§DD.1 [Example 1]", "md_verbatim": "**Rows 3-4:** Show records for primary cause of death and location of death for another subject for whom the information was not known.", "score": 0.5385, "match_basis": "verbatim_token+domain_route:DD"}, {"md_atom_id": "md_dmDD_ex_a017", "md_file": "knowledge_base/domains/DD/examples.md", "md_atom_type": "SENTENCE", "md_parent_section": "§DD.2 [Example 2]", "md_verbatim": "This example illustrates how the DD, Disposition (DS), and AE data for a subject were linked using RELREC. Note that each of these domains serves a different purpose, even though the information is related. This subject had a fatal adverse event, represented in the AE domain.", "score": 0.5296, "match_basis": "verbatim_token+domain_route:DD"}], "candidate_count": 5, "zero_candidate": false}
{"pdf_atom_id": "ig34_p0185_a013", "pdf_atom_type": "CODE_LITERAL", "pdf_source": "SDTMIG_v3.4", "pdf_page": 185, "pdf_parent_section": "§6.3.2 Death Details (DD)", "pdf_verbatim": "relrec.xpt", "figure_ref": null, "candidates": [{"md_atom_id": "md_dmDD_ex_a034", "md_file": "knowledge_base/domains/DD/examples.md", "md_atom_type": "SENTENCE", "md_parent_section": "§DD.2 [Example 2]", "md_verbatim": "**relrec.xpt**", "score": 0.79, "match_basis": "verbatim_token+domain_route:DD"}, {"md_atom_id": "md_dmDD_ex_a007", "md_file": "knowledge_base/domains/DD/examples.md", "md_atom_type": "SENTENCE", "md_parent_section": "§DD.1 [Example 1]", "md_verbatim": "**dd.xpt**", "score": 0.31, "match_basis": "verbatim_token+domain_route:DD"}, {"md_atom_id": "md_dmDD_ex_a018", "md_file": "knowledge_base/domains/DD/examples.md", "md_atom_type": "SENTENCE", "md_parent_section": "§DD.2 [Example 2]", "md_verbatim": "**ae.xpt**", "score": 0.31, "match_basis": "verbatim_token+domain_route:DD"}, {"md_atom_id": "md_dmDD_ex_a022", "md_file": "knowledge_base/domains/DD/examples.md", "md_atom_type": "SENTENCE", "md_parent_section": "§DD.2 [Example 2]", "md_verbatim": "**dd.xpt**", "score": 0.31, "match_basis": "verbatim_token+domain_route:DD"}, {"md_atom_id": "md_dmDD_ex_a028", "md_file": "knowledge_base/domains/DD/examples.md", "md_atom_type": "SENTENCE", "md_parent_section": "§DD.2 [Example 2]", "md_verbatim": "**ds.xpt**", "score": 0.31, "match_basis": "verbatim_token+domain_route:DD"}, {"md_atom_id": "md_dmDD_ex_a033", "md_file": "knowledge_base/domains/DD/examples.md", "md_atom_type": "SENTENCE", "md_parent_section": "§DD.2 [Example 2]", "md_verbatim": "The relationship between the DS, AE, and DD records that reflect the subject's death is represented in RELREC.", "score": 0.24, "match_basis": "verbatim_token+domain_route:DD"}, {"md_atom_id": "md_dmDD_ex_a017", "md_file": "knowledge_base/domains/DD/examples.md", "md_atom_type": "SENTENCE", "md_parent_section": "§DD.2 [Example 2]", "md_verbatim": "This example illustrates how the DD, Disposition (DS), and AE data for a subject were linked using RELREC. Note that each of these domains serves a different purpose, even though the information is related. This subject had a fatal adverse event, represented in the AE domain.", "score": 0.2126, "match_basis": "verbatim_token+domain_route:DD"}, {"md_atom_id": "md_dmDD_assn_a003", "md_file": "knowledge_base/domains/DD/assumptions.md", "md_atom_type": "LIST_ITEM", "md_parent_section": "§DD [DD — Assumptions]", "md_verbatim": "2. Death details are typically collected on designated CRF pages. The DD domain is not intended to collate data that are collected in standard variables in other domains, such as AE.AEOUT (Outcome of Adverse Event), AE.AESDTH (Results in Death) or DS.DSTERM (Reported Term for the Disposition Event). Data from other domains that relates to the death can be linked to DD using RELREC.", "score": 0.2085, "match_basis": "verbatim_token+domain_route:DD"}, {"md_atom_id": "md_dmDD_ex_a035", "md_file": "knowledge_base/domains/DD/examples.md", "md_atom_type": "TABLE_HEADER", "md_parent_section": "§DD.2 [Example 2]", "md_verbatim": "| Row | STUDYID | RDOMAIN | USUBJID | IDVAR | IDVARVAL | RELTYPE | RELID |\n|-----|---------|---------|---------|-------|----------|---------|-------|", "score": 0.2082, "match_basis": "verbatim_token+domain_route:DD"}, {"md_atom_id": "md_dmDD_ex_a027", "md_file": "knowledge_base/domains/DD/examples.md", "md_atom_type": "SENTENCE", "md_parent_section": "§DD.2 [Example 2]", "md_verbatim": "**Row 3:** Shows the date the death event occurred (DSSTDTC) and was recorded (DSDTC).", "score": 0.2058, "match_basis": "verbatim_token+domain_route:DD"}], "candidate_count": 10, "zero_candidate": false}
