{"pdf_atom_id": "ig34_p0042_a008", "pdf_atom_type": "CODE_LITERAL", "pdf_source": "SDTMIG_v3.4", "pdf_page": 42, "pdf_parent_section": "§4.4.4 [Use of the Study Day Variables]", "pdf_verbatim": "--DY = (date portion of --DTC) - (date portion of RFSTDTC) + 1 if --DTC is on or after RFSTDTC\n--DY = (date portion of --DTC) - (date portion of RFSTDTC) if --DTC precedes RFSTDTC", "figure_ref": null, "candidates": [{"md_atom_id": "md_ch04_a601", "md_file": "knowledge_base/chapters/ch04_general_assumptions.md", "md_atom_type": "LIST_ITEM", "md_parent_section": "§4.4.4 [Study Day Variables]", "md_verbatim": "- If --DTC is on or after RFSTDTC: DY = date portion of --DTC − date portion of RFSTDTC + 1", "score": 0.5186, "match_basis": "verbatim_token+chapter_route:ch04"}, {"md_atom_id": "md_ch04_a602", "md_file": "knowledge_base/chapters/ch04_general_assumptions.md", "md_atom_type": "LIST_ITEM", "md_parent_section": "§4.4.4 [Study Day Variables]", "md_verbatim": "- If --DTC is before RFSTDTC: DY = date portion of --DTC − date portion of RFSTDTC", "score": 0.378, "match_basis": "verbatim_token+chapter_route:ch04"}, {"md_atom_id": "md_ch04_a600", "md_file": "knowledge_base/chapters/ch04_general_assumptions.md", "md_atom_type": "LIST_ITEM", "md_parent_section": "§4.4.4 [Study Day Variables]", "md_verbatim": "- --DY is calculated as: `--DTC - RFSTDTC` (with no day 0)", "score": 0.2061, "match_basis": "verbatim_token+chapter_route:ch04"}, {"md_atom_id": "md_ch04_a509", "md_file": "knowledge_base/chapters/ch04_general_assumptions.md", "md_atom_type": "HEADING", "md_parent_section": "§4.4 [Actual and Relative Time Assumptions]", "md_verbatim": "### 4.4.2 Date/Time Precision", "score": 0.2011, "match_basis": "verbatim_token+chapter_route:ch04"}, {"md_atom_id": "md_ch04_a676", "md_file": "knowledge_base/chapters/ch04_general_assumptions.md", "md_atom_type": "LIST_ITEM", "md_parent_section": "§4.4.7 [Use of Relative Timing Variables]", "md_verbatim": "- AESTDTC = start date (e.g., \"2006-10-01\")", "score": 0.1971, "match_basis": "verbatim_token+chapter_route:ch04"}], "candidate_count": 5, "zero_candidate": false}
{"pdf_atom_id": "ig34_p0042_a009", "pdf_atom_type": "SENTENCE", "pdf_source": "SDTMIG_v3.4", "pdf_page": 42, "pdf_parent_section": "§4.4.4 [Use of the Study Day Variables]", "pdf_verbatim": "This method should be used across all domains.", "figure_ref": null, "candidates": [{"md_atom_id": "md_ch04_a102", "md_file": "knowledge_base/chapters/ch04_general_assumptions.md", "md_atom_type": "SENTENCE", "md_parent_section": "§4.1.7.1 [Example of Splitting Questionnaires]", "md_verbatim": "**SUPP-- Domains**", "score": 0.425, "match_basis": "verbatim_token+chapter_route:ch04"}, {"md_atom_id": "md_ch04_a1012", "md_file": "knowledge_base/chapters/ch04_general_assumptions.md", "md_atom_type": "SENTENCE", "md_parent_section": "§4.5.8 [Accounting for Long-term Follow-up]", "md_verbatim": "Regardless of the method of contact, the information should be stored in the appropriate topic-based domain.", "score": 0.4238, "match_basis": "verbatim_token+chapter_route:ch04"}, {"md_atom_id": "md_ch04_a239", "md_file": "knowledge_base/chapters/ch04_general_assumptions.md", "md_atom_type": "SENTENCE", "md_parent_section": "§4.2.6 [Grouping Variables and Categorization]", "md_verbatim": "Although --SPID and --REFID are Identifier variables, they may sometimes be used as grouping variables and may also have meaning across domains.", "score": 0.4183, "match_basis": "verbatim_token+chapter_route:ch04"}, {"md_atom_id": "md_ch04_a476", "md_file": "knowledge_base/chapters/ch04_general_assumptions.md", "md_atom_type": "SENTENCE", "md_parent_section": "§4.4 [Actual and Relative Time Assumptions]", "md_verbatim": "In general, all domains based on the 3 general observation classes should have at least 1 timing variable.", "score": 0.4119, "match_basis": "verbatim_token+chapter_route:ch04"}, {"md_atom_id": "md_ch04_a606", "md_file": "knowledge_base/chapters/ch04_general_assumptions.md", "md_atom_type": "SENTENCE", "md_parent_section": "§4.4.5 [Clinical Encounters and Visits]", "md_verbatim": "All domains based on the 3 general observation classes should have at least 1 timing variable.", "score": 0.4119, "match_basis": "verbatim_token+chapter_route:ch04"}], "candidate_count": 5, "zero_candidate": false}
{"pdf_atom_id": "ig34_p0042_a010", "pdf_atom_type": "HEADING", "pdf_source": "SDTMIG_v3.4", "pdf_page": 42, "pdf_parent_section": "§4.4.5 [Clinical Encounters and Visits]", "pdf_verbatim": "4.4.5 Clinical Encounters and Visits", "figure_ref": null, "candidates": [{"md_atom_id": "md_ch04_a605", "md_file": "knowledge_base/chapters/ch04_general_assumptions.md", "md_atom_type": "HEADING", "md_parent_section": "§4.4 [Actual and Relative Time Assumptions]", "md_verbatim": "### 4.4.5 Clinical Encounters and Visits", "score": 0.9, "match_basis": "verbatim_token+chapter_route:ch04"}, {"md_atom_id": "md_ch04_a1008", "md_file": "knowledge_base/chapters/ch04_general_assumptions.md", "md_atom_type": "HEADING", "md_parent_section": "§4.5 [Other Assumptions]", "md_verbatim": "### 4.5.8 Accounting for Long-term Follow-up", "score": 0.375, "match_basis": "verbatim_token+chapter_route:ch04"}, {"md_atom_id": "md_ch04_a968", "md_file": "knowledge_base/chapters/ch04_general_assumptions.md", "md_atom_type": "HEADING", "md_parent_section": "§4.5 [Other Assumptions]", "md_verbatim": "### 4.5.5 Clinical Significance for Findings Observation Class Data", "score": 0.3735, "match_basis": "verbatim_token+chapter_route:ch04"}, {"md_atom_id": "md_ch04_a547", "md_file": "knowledge_base/chapters/ch04_general_assumptions.md", "md_atom_type": "HEADING", "md_parent_section": "§4.4.3 [Intervals of Time and Use of Duration for --DUR Variables]", "md_verbatim": "#### 4.4.3.1 Intervals of Time and Use of Duration", "score": 0.3545, "match_basis": "verbatim_token+chapter_route:ch04"}, {"md_atom_id": "md_ch04_a987", "md_file": "knowledge_base/chapters/ch04_general_assumptions.md", "md_atom_type": "HEADING", "md_parent_section": "§4.5 [Other Assumptions]", "md_verbatim": "### 4.5.7 Presence or Absence of Prespecified Interventions and Events", "score": 0.3533, "match_basis": "verbatim_token+chapter_route:ch04"}], "candidate_count": 5, "zero_candidate": false}
{"pdf_atom_id": "ig34_p0042_a011", "pdf_atom_type": "SENTENCE", "pdf_source": "SDTMIG_v3.4", "pdf_page": 42, "pdf_parent_section": "§4.4.5 [Clinical Encounters and Visits]", "pdf_verbatim": "All domains based on the 3 general observation classes should have at least 1 timing variable.", "figure_ref": null, "candidates": [{"md_atom_id": "md_ch04_a476", "md_file": "knowledge_base/chapters/ch04_general_assumptions.md", "md_atom_type": "SENTENCE", "md_parent_section": "§4.4 [Actual and Relative Time Assumptions]", "md_verbatim": "In general, all domains based on the 3 general observation classes should have at least 1 timing variable.", "score": 0.9, "match_basis": "verbatim_token+chapter_route:ch04"}, {"md_atom_id": "md_ch04_a606", "md_file": "knowledge_base/chapters/ch04_general_assumptions.md", "md_atom_type": "SENTENCE", "md_parent_section": "§4.4.5 [Clinical Encounters and Visits]", "md_verbatim": "All domains based on the 3 general observation classes should have at least 1 timing variable.", "score": 0.9, "match_basis": "verbatim_token+chapter_route:ch04"}, {"md_atom_id": "md_ch04_a255", "md_file": "knowledge_base/chapters/ch04_general_assumptions.md", "md_atom_type": "SENTENCE", "md_parent_section": "§4.2.6 [Grouping Variables and Categorization]", "md_verbatim": "In domains based on the Findings general observation class, the --RESCAT variable can be used to categorize results after the fact.", "score": 0.564, "match_basis": "verbatim_token+chapter_route:ch04"}, {"md_atom_id": "md_ch04_a018", "md_file": "knowledge_base/chapters/ch04_general_assumptions.md", "md_atom_type": "SENTENCE", "md_parent_section": "§4.1.3.1 [EPOCH Variable Guidance]", "md_verbatim": "For observations in Interventions or Events class domains, EPOCH should be based on the --STDTC variable, since this is the start of the intervention or event.", "score": 0.5548, "match_basis": "verbatim_token+chapter_route:ch04"}, {"md_atom_id": "md_ch04_a013", "md_file": "knowledge_base/chapters/ch04_general_assumptions.md", "md_atom_type": "SENTENCE", "md_parent_section": "§4.1.3 [Additional Timing Variables]", "md_verbatim": "Additional Timing variables can be added as needed to a standard domain model based on the 3 general observation classes, except for the cases specified in Assumption 4.4.8, Date and Time Reported in a Domain Based on Findings.", "score": 0.5176, "match_basis": "verbatim_token+chapter_route:ch04"}], "candidate_count": 5, "zero_candidate": false}
{"pdf_atom_id": "ig34_p0042_a012", "pdf_atom_type": "SENTENCE", "pdf_source": "SDTMIG_v3.4", "pdf_page": 42, "pdf_parent_section": "§4.4.5 [Clinical Encounters and Visits]", "pdf_verbatim": "For domains in the Events or Interventions observation classes, and for domains in the Findings observation class, for which data are collected only once during the study, the most appropriate timing variable may be a date (e.g., --DTC, --STDTC) or some other timing variable.", "figure_ref": null, "candidates": [{"md_atom_id": "md_ch04_a018", "md_file": "knowledge_base/chapters/ch04_general_assumptions.md", "md_atom_type": "SENTENCE", "md_parent_section": "§4.1.3.1 [EPOCH Variable Guidance]", "md_verbatim": "For observations in Interventions or Events class domains, EPOCH should be based on the --STDTC variable, since this is the start of the intervention or event.", "score": 0.5229, "match_basis": "verbatim_token+chapter_route:ch04"}, {"md_atom_id": "md_ch04_a031", "md_file": "knowledge_base/chapters/ch04_general_assumptions.md", "md_atom_type": "SENTENCE", "md_parent_section": "§4.1.4 [Order of the Variables]", "md_verbatim": "Within each role, variables must be ordered as shown in SDTM Sections 3.1.1, The Interventions Observation Class; 3.1.2, The Events Observation Class; 3.1.3, The Findings Observation Class; 3.1.3.1, Findings About Events or Interventions; 3.1.4, Identifiers for All Classes; and 3.1.5, Timing Variables for All Classes.", "score": 0.5115, "match_basis": "verbatim_token+chapter_route:ch04"}, {"md_atom_id": "md_ch04_a478", "md_file": "knowledge_base/chapters/ch04_general_assumptions.md", "md_atom_type": "SENTENCE", "md_parent_section": "§4.4 [Actual and Relative Time Assumptions]", "md_verbatim": "In the Findings observation class, where data are usually collected at multiple visits, at least 1 timing variable must be used.", "score": 0.5089, "match_basis": "verbatim_token+chapter_route:ch04"}, {"md_atom_id": "md_ch04_a608", "md_file": "knowledge_base/chapters/ch04_general_assumptions.md", "md_atom_type": "SENTENCE", "md_parent_section": "§4.4.5 [Clinical Encounters and Visits]", "md_verbatim": "In the Findings observation class, where data are usually collected at multiple visits, at least 1 timing variable must be used.", "score": 0.5089, "match_basis": "verbatim_token+chapter_route:ch04"}, {"md_atom_id": "md_ch04_a953", "md_file": "knowledge_base/chapters/ch04_general_assumptions.md", "md_atom_type": "SENTENCE", "md_parent_section": "§4.5.4 [Evaluators in the Interventions and Events Observation Classes]", "md_verbatim": "For the Interventions and Events observation classes, which do not include the --EVAL variable, all data are assumed to be attributed to the principal investigator.", "score": 0.5066, "match_basis": "verbatim_token+chapter_route:ch04"}], "candidate_count": 5, "zero_candidate": false}
{"pdf_atom_id": "ig34_p0042_a013", "pdf_atom_type": "SENTENCE", "pdf_source": "SDTMIG_v3.4", "pdf_page": 42, "pdf_parent_section": "§4.4.5 [Clinical Encounters and Visits]", "pdf_verbatim": "For studies that are designed with a prospectively defined schedule of visit-based activities, domains for data that are to be collected more than once per subject (e.g., labs, ECG, vital signs) are expected to include VISITNUM as a timing variable.", "figure_ref": null, "candidates": [{"md_atom_id": "md_ch04_a803", "md_file": "knowledge_base/chapters/ch04_general_assumptions.md", "md_atom_type": "SENTENCE", "md_parent_section": "§4.4.11 [Disease Milestones and Disease Milestone Timing Variables]", "md_verbatim": "Their use does not preclude the use of variables that collect actual date/times or timing relative to the study schedule:", "score": 0.46, "match_basis": "verbatim_token+chapter_route:ch04"}, {"md_atom_id": "md_ch04_a017", "md_file": "knowledge_base/chapters/ch04_general_assumptions.md", "md_atom_type": "SENTENCE", "md_parent_section": "§4.1.3.1 [EPOCH Variable Guidance]", "md_verbatim": "When EPOCH is included in a Findings class domain, it should be based on the --DTC variable, since this is the date/time of the test or, for tests performed on specimens, the date/time of specimen collection.", "score": 0.4456, "match_basis": "verbatim_token+chapter_route:ch04"}, {"md_atom_id": "md_ch04_a434", "md_file": "knowledge_base/chapters/ch04_general_assumptions.md", "md_atom_type": "SENTENCE", "md_parent_section": "§4.3.3 [Controlled Terminology Values]", "md_verbatim": "When a domain or dataset specification includes a codelist for a variable, not every value in that codelist may have been part of planned data collection; only values that were part of planned data collection should be included in the Define-XML document.", "score": 0.4373, "match_basis": "verbatim_token+chapter_route:ch04"}, {"md_atom_id": "md_ch04_a810", "md_file": "knowledge_base/chapters/ch04_general_assumptions.md", "md_atom_type": "SENTENCE", "md_parent_section": "§4.4.11 [Disease Milestones and Disease Milestone Timing Variables]", "md_verbatim": "When disease milestones have been defined for a study, the MIDS variable serves to link observations associated with a disease milestone in a way similar to how VISITNUM links observations collected at a visit.", "score": 0.4265, "match_basis": "verbatim_token+chapter_route:ch04"}, {"md_atom_id": "md_ch04_a475", "md_file": "knowledge_base/chapters/ch04_general_assumptions.md", "md_atom_type": "SENTENCE", "md_parent_section": "§4.4 [Actual and Relative Time Assumptions]", "md_verbatim": "Timing variables (SDTM Section 3.1.5, Timing Variables for All Classes) are an essential component of all SDTM subject-level domain datasets.", "score": 0.4228, "match_basis": "verbatim_token+chapter_route:ch04"}], "candidate_count": 5, "zero_candidate": false}
{"pdf_atom_id": "ig34_p0042_a014", "pdf_atom_type": "SENTENCE", "pdf_source": "SDTMIG_v3.4", "pdf_page": 42, "pdf_parent_section": "§4.4.5 [Clinical Encounters and Visits]", "pdf_verbatim": "Clinical encounters are described by the CDISC visit variables.", "figure_ref": null, "candidates": [{"md_atom_id": "md_ch04_a134", "md_file": "knowledge_base/chapters/ch04_general_assumptions.md", "md_atom_type": "SENTENCE", "md_parent_section": "§4.1.8.2 [Origin Metadata for Records]", "md_verbatim": "When both derived and collected values are reported in a variable, the origin is to be described using value-level metadata in the Define-XML document.", "score": 0.4011, "match_basis": "verbatim_token+chapter_route:ch04"}, {"md_atom_id": "md_ch04_a455", "md_file": "knowledge_base/chapters/ch04_general_assumptions.md", "md_atom_type": "SENTENCE", "md_parent_section": "§4.3.6 [Storing Topic Variables for General Domain Models]", "md_verbatim": "For an Interventions domain, the topic variable is --TRT.", "score": 0.4, "match_basis": "verbatim_token+chapter_route:ch04"}, {"md_atom_id": "md_ch04_a155", "md_file": "knowledge_base/chapters/ch04_general_assumptions.md", "md_atom_type": "SENTENCE", "md_parent_section": "§4.1.9 [Assigning Natural Keys in the Metadata]", "md_verbatim": "This approach becomes very useful in a Findings domain when --TESTCD values are \"generic\" and rely on other variables to completely describe the test.", "score": 0.3989, "match_basis": "verbatim_token+chapter_route:ch04"}, {"md_atom_id": "md_ch04_a727", "md_file": "knowledge_base/chapters/ch04_general_assumptions.md", "md_atom_type": "SENTENCE", "md_parent_section": "§4.4.10 [Representing Time Points]", "md_verbatim": "**Scenarios where not all 3 uniqueness variables (VISITNUM, --TPTREF, --TPTNUM) are needed:**", "score": 0.3985, "match_basis": "verbatim_token+chapter_route:ch04"}, {"md_atom_id": "md_ch04_a454", "md_file": "knowledge_base/chapters/ch04_general_assumptions.md", "md_atom_type": "SENTENCE", "md_parent_section": "§4.3.6 [Storing Topic Variables for General Domain Models]", "md_verbatim": "For an Events domain, the topic variable is --TERM.", "score": 0.398, "match_basis": "verbatim_token+chapter_route:ch04"}], "candidate_count": 5, "zero_candidate": false}
{"pdf_atom_id": "ig34_p0042_a015", "pdf_atom_type": "SENTENCE", "pdf_source": "SDTMIG_v3.4", "pdf_page": 42, "pdf_parent_section": "§4.4.5 [Clinical Encounters and Visits]", "pdf_verbatim": "For planned visits, values of VISIT, VISITNUM, and VISITDY must be those defined in the Trial Visits (TV) dataset (see Section 7.3.1, Trial Visits).", "figure_ref": null, "candidates": [{"md_atom_id": "md_ch04_a609", "md_file": "knowledge_base/chapters/ch04_general_assumptions.md", "md_atom_type": "SENTENCE", "md_parent_section": "§4.4.5 [Clinical Encounters and Visits]", "md_verbatim": "For planned visits, values of VISIT, VISITNUM, and VISITDY must be those defined in the Trial Visits (TV) dataset.", "score": 0.8182, "match_basis": "verbatim_token+chapter_route:ch04"}, {"md_atom_id": "md_ch04_a434", "md_file": "knowledge_base/chapters/ch04_general_assumptions.md", "md_atom_type": "SENTENCE", "md_parent_section": "§4.3.3 [Controlled Terminology Values]", "md_verbatim": "When a domain or dataset specification includes a codelist for a variable, not every value in that codelist may have been part of planned data collection; only values that were part of planned data collection should be included in the Define-XML document.", "score": 0.4376, "match_basis": "verbatim_token+chapter_route:ch04"}, {"md_atom_id": "md_ch04_a610", "md_file": "knowledge_base/chapters/ch04_general_assumptions.md", "md_atom_type": "SENTENCE", "md_parent_section": "§4.4.5 [Clinical Encounters and Visits]", "md_verbatim": "For planned visits:", "score": 0.4364, "match_basis": "verbatim_token+chapter_route:ch04"}, {"md_atom_id": "md_ch04_a028", "md_file": "knowledge_base/chapters/ch04_general_assumptions.md", "md_atom_type": "SENTENCE", "md_parent_section": "§4.1.4 [Order of the Variables]", "md_verbatim": "The order of variables in the Define-XML document must reflect the order of variables in the dataset.", "score": 0.4313, "match_basis": "verbatim_token+chapter_route:ch04"}, {"md_atom_id": "md_ch04_a961", "md_file": "knowledge_base/chapters/ch04_general_assumptions.md", "md_atom_type": "SENTENCE", "md_parent_section": "§4.5.4 [Evaluators in the Interventions and Events Observation Classes]", "md_verbatim": "See Section 8.4, Relating Non-standard Variable Values to a Parent Domain.", "score": 0.4043, "match_basis": "verbatim_token+chapter_route:ch04"}], "candidate_count": 5, "zero_candidate": false}
{"pdf_atom_id": "ig34_p0042_a016", "pdf_atom_type": "CROSS_REF", "pdf_source": "SDTMIG_v3.4", "pdf_page": 42, "pdf_parent_section": "§4.4.5 [Clinical Encounters and Visits]", "pdf_verbatim": "see Section 7.3.1, Trial Visits", "figure_ref": null, "candidates": [{"md_atom_id": "md_ch04_a428", "md_file": "knowledge_base/chapters/ch04_general_assumptions.md", "md_atom_type": "SENTENCE", "md_parent_section": "§4.3.2 [Controlled Terminology Text Case]", "md_verbatim": "See Section 4.2.4, Text Case in Submitted Data.", "score": 0.2285, "match_basis": "verbatim_token+chapter_route:ch04"}, {"md_atom_id": "md_ch04_a610", "md_file": "knowledge_base/chapters/ch04_general_assumptions.md", "md_atom_type": "SENTENCE", "md_parent_section": "§4.4.5 [Clinical Encounters and Visits]", "md_verbatim": "For planned visits:", "score": 0.2163, "match_basis": "verbatim_token+chapter_route:ch04"}, {"md_atom_id": "md_ch04_a002", "md_file": "knowledge_base/chapters/ch04_general_assumptions.md", "md_atom_type": "SENTENCE", "md_parent_section": "§4 [Assumptions for Domain Models]", "md_verbatim": "Source: SDTMIG v3.4, Section 4 (Pages 22-59)", "score": 0.215, "match_basis": "verbatim_token+chapter_route:ch04"}, {"md_atom_id": "md_ch04_a411", "md_file": "knowledge_base/chapters/ch04_general_assumptions.md", "md_atom_type": "SENTENCE", "md_parent_section": "§4.2.9 [Variable Lengths]", "md_verbatim": "To help rectify this situation:", "score": 0.215, "match_basis": "verbatim_token+chapter_route:ch04"}, {"md_atom_id": "md_ch04_a343", "md_file": "knowledge_base/chapters/ch04_general_assumptions.md", "md_atom_type": "SENTENCE", "md_parent_section": "§4.2.7.4 [\"Specify\" Values for --OBJ]", "md_verbatim": "See also Section 6.4.3, Variables Unique to Findings About.", "score": 0.2135, "match_basis": "verbatim_token+chapter_route:ch04"}], "candidate_count": 5, "zero_candidate": false}
{"pdf_atom_id": "ig34_p0042_a017", "pdf_atom_type": "SENTENCE", "pdf_source": "SDTMIG_v3.4", "pdf_page": 42, "pdf_parent_section": "§4.4.5 [Clinical Encounters and Visits]", "pdf_verbatim": "For planned visits:", "figure_ref": null, "candidates": [{"md_atom_id": "md_ch04_a610", "md_file": "knowledge_base/chapters/ch04_general_assumptions.md", "md_atom_type": "SENTENCE", "md_parent_section": "§4.4.5 [Clinical Encounters and Visits]", "md_verbatim": "For planned visits:", "score": 0.9, "match_basis": "verbatim_token+chapter_route:ch04"}, {"md_atom_id": "md_ch04_a609", "md_file": "knowledge_base/chapters/ch04_general_assumptions.md", "md_atom_type": "SENTENCE", "md_parent_section": "§4.4.5 [Clinical Encounters and Visits]", "md_verbatim": "For planned visits, values of VISIT, VISITNUM, and VISITDY must be those defined in the Trial Visits (TV) dataset.", "score": 0.4579, "match_basis": "verbatim_token+chapter_route:ch04"}, {"md_atom_id": "md_ch04_a615", "md_file": "knowledge_base/chapters/ch04_general_assumptions.md", "md_atom_type": "SENTENCE", "md_parent_section": "§4.4.5 [Clinical Encounters and Visits]", "md_verbatim": "Sponsor practices for populating visit variables for **unplanned visits** may vary:", "score": 0.4463, "match_basis": "verbatim_token+chapter_route:ch04"}, {"md_atom_id": "md_ch04_a674", "md_file": "knowledge_base/chapters/ch04_general_assumptions.md", "md_atom_type": "SENTENCE", "md_parent_section": "§4.4.7 [Use of Relative Timing Variables]", "md_verbatim": "No assessment date or visit information was collected.", "score": 0.3667, "match_basis": "verbatim_token+chapter_route:ch04"}, {"md_atom_id": "md_ch04_a619", "md_file": "knowledge_base/chapters/ch04_general_assumptions.md", "md_atom_type": "SENTENCE", "md_parent_section": "§4.4.5 [Clinical Encounters and Visits]", "md_verbatim": "**Example** (lb.xpt sample rows showing how visit identifiers might be used for lab data):", "score": 0.3585, "match_basis": "verbatim_token+chapter_route:ch04"}], "candidate_count": 5, "zero_candidate": false}
{"pdf_atom_id": "ig34_p0042_a018", "pdf_atom_type": "LIST_ITEM", "pdf_source": "SDTMIG_v3.4", "pdf_page": 42, "pdf_parent_section": "§4.4.5 [Clinical Encounters and Visits]", "pdf_verbatim": "Values of VISITNUM are used for sorting and should, wherever possible, match the planned chronological order of visits. Occasionally, a protocol will define a planned visit whose timing is unpredictable (e.g., planned in response to an adverse event, a threshold test value, or a disease event), and completely chronological values of VISITNUM may not be possible in such cases.", "figure_ref": null, "candidates": [{"md_atom_id": "md_ch04_a611", "md_file": "knowledge_base/chapters/ch04_general_assumptions.md", "md_atom_type": "LIST_ITEM", "md_parent_section": "§4.4.5 [Clinical Encounters and Visits]", "md_verbatim": "- **VISITNUM**: numeric, used for sorting; values should wherever possible match the planned chronological order of visits. Occasionally, a protocol will define a planned visit whose timing is unpredictable (e.g., planned in response to an adverse event, a threshold test value, or a disease event), and completely chronological values of VISITNUM may not be possible in such cases.", "score": 0.8784, "match_basis": "verbatim_token+chapter_route:ch04"}, {"md_atom_id": "md_ch04_a616", "md_file": "knowledge_base/chapters/ch04_general_assumptions.md", "md_atom_type": "LIST_ITEM", "md_parent_section": "§4.4.5 [Clinical Encounters and Visits]", "md_verbatim": "- VISITNUM should generally be populated, even for unplanned visits, as it is expected in many Findings domains. The easiest method of populating VISITNUM for unplanned visits is to assign the **same value (e.g., 99)** to all unplanned visits, although this method provides no differentiation between the unplanned visits and does not provide chronological sorting. Methods that provide a one-to-one relationship between values of VISITNUM, that are consistent across domains, and that assign VISITNUM values that sort chronologically require more work and must be applied after all of a subject's unplanned visits are known.", "score": 0.4385, "match_basis": "verbatim_token+chapter_route:ch04"}, {"md_atom_id": "md_ch04_a229", "md_file": "knowledge_base/chapters/ch04_general_assumptions.md", "md_atom_type": "LIST_ITEM", "md_parent_section": "§4.2.6 [Grouping Variables and Categorization]", "md_verbatim": "   b. Cases where multiple datasets are necessary to capture data about the same topic. Following the oncology example, the existence and start and stop date of paresthesia of the left arm may be reported as an adverse event (AE domain), whereas the severity of the event is captured at multiple visits and recorded as Findings About (FA dataset). In both cases the --CAT variable could have a value of \"NEUROTOXICITY\".", "score": 0.4139, "match_basis": "verbatim_token+chapter_route:ch04"}, {"md_atom_id": "md_ch04_a915", "md_file": "knowledge_base/chapters/ch04_general_assumptions.md", "md_atom_type": "LIST_ITEM", "md_parent_section": "§4.5.3.2 [Text Strings Greater than 200 Characters in Other Variables]", "md_verbatim": "  - In cases where the standard domain variable name is already 8 characters in length, sponsors should **replace the last character with a digit** when creating values for QNAM; for example, for Other Action Taken in Adverse Events (AEACNOTH), values for QNAM for the SUPPAE records would have the values AEACNOT1, AEACNOT2, and so on", "score": 0.4109, "match_basis": "verbatim_token+chapter_route:ch04"}, {"md_atom_id": "md_ch04_a444", "md_file": "knowledge_base/chapters/ch04_general_assumptions.md", "md_atom_type": "LIST_ITEM", "md_parent_section": "§4.3.5 [Storing Controlled Terminology for Synonym Qualifier Variables (MedDRA and WHODrug)]", "md_verbatim": "- If a dictionary is multi-axial, the value in **--BODSYS** should represent the system organ class (SOC) used for the sponsor's analysis and summary tables, which may not necessarily be the primary SOC; populate **--SOC** with the dictionary-derived primary SOC; in cases where the primary SOC was used for analysis, --BODSYS and --SOC are the same", "score": 0.4088, "match_basis": "verbatim_token+chapter_route:ch04"}], "candidate_count": 5, "zero_candidate": false}
{"pdf_atom_id": "ig34_p0042_a019", "pdf_atom_type": "LIST_ITEM", "pdf_source": "SDTMIG_v3.4", "pdf_page": 42, "pdf_parent_section": "§4.4.5 [Clinical Encounters and Visits]", "pdf_verbatim": "There should be a one-to-one relationship between values of VISIT and VISITNUM.", "figure_ref": null, "candidates": [{"md_atom_id": "md_ch04_a614", "md_file": "knowledge_base/chapters/ch04_general_assumptions.md", "md_atom_type": "LIST_ITEM", "md_parent_section": "§4.4.5 [Clinical Encounters and Visits]", "md_verbatim": "- There must be a **one-to-one relationship** between VISIT and VISITNUM", "score": 0.7333, "match_basis": "verbatim_token+chapter_route:ch04"}, {"md_atom_id": "md_ch04_a812", "md_file": "knowledge_base/chapters/ch04_general_assumptions.md", "md_atom_type": "LIST_ITEM", "md_parent_section": "§4.4.11 [Disease Milestones and Disease Milestone Timing Variables]", "md_verbatim": "- RELREC indicates that there is a relationship between records or datasets, but not the nature of the relationship; records with the same MIDS value are related to the same disease milestone", "score": 0.465, "match_basis": "verbatim_token+chapter_route:ch04"}, {"md_atom_id": "md_ch04_a616", "md_file": "knowledge_base/chapters/ch04_general_assumptions.md", "md_atom_type": "LIST_ITEM", "md_parent_section": "§4.4.5 [Clinical Encounters and Visits]", "md_verbatim": "- VISITNUM should generally be populated, even for unplanned visits, as it is expected in many Findings domains. The easiest method of populating VISITNUM for unplanned visits is to assign the **same value (e.g., 99)** to all unplanned visits, although this method provides no differentiation between the unplanned visits and does not provide chronological sorting. Methods that provide a one-to-one relationship between values of VISITNUM, that are consistent across domains, and that assign VISITNUM values that sort chronologically require more work and must be applied after all of a subject's unplanned visits are known.", "score": 0.4165, "match_basis": "verbatim_token+chapter_route:ch04"}, {"md_atom_id": "md_ch04_a813", "md_file": "knowledge_base/chapters/ch04_general_assumptions.md", "md_atom_type": "LIST_ITEM", "md_parent_section": "§4.4.11 [Disease Milestones and Disease Milestone Timing Variables]", "md_verbatim": "- When disease milestones are defined, it is not necessary to create RELREC records to establish relationships between observations associated with a disease milestone", "score": 0.4011, "match_basis": "verbatim_token+chapter_route:ch04"}, {"md_atom_id": "md_ch04_a908", "md_file": "knowledge_base/chapters/ch04_general_assumptions.md", "md_atom_type": "LIST_ITEM", "md_parent_section": "§4.5.3.2 [Text Strings Greater than 200 Characters in Other Variables]", "md_verbatim": "- The **first 200 characters** of text should be stored in the parent domain variable and each additional 200 characters of text should be stored in a record in the SUPP-- dataset (see Section 8.4, Relating Non-standard Variable Values to a Parent Domain)", "score": 0.399, "match_basis": "verbatim_token+chapter_route:ch04"}], "candidate_count": 5, "zero_candidate": false}
{"pdf_atom_id": "ig34_p0042_a020", "pdf_atom_type": "LIST_ITEM", "pdf_source": "SDTMIG_v3.4", "pdf_page": 42, "pdf_parent_section": "§4.4.5 [Clinical Encounters and Visits]", "pdf_verbatim": "For visits that may last more than 1 calendar day, VISITDY should be the planned day of the start of the visit.", "figure_ref": null, "candidates": [{"md_atom_id": "md_ch04_a613", "md_file": "knowledge_base/chapters/ch04_general_assumptions.md", "md_atom_type": "LIST_ITEM", "md_parent_section": "§4.4.5 [Clinical Encounters and Visits]", "md_verbatim": "- **VISITDY**: the planned study day **of the start of the visit** (not the actual study day; do not use --DY); for visits that may last more than 1 calendar day, VISITDY should be the planned day of the start of the visit", "score": 0.7773, "match_basis": "verbatim_token+chapter_route:ch04"}, {"md_atom_id": "md_ch04_a618", "md_file": "knowledge_base/chapters/ch04_general_assumptions.md", "md_atom_type": "LIST_ITEM", "md_parent_section": "§4.4.5 [Clinical Encounters and Visits]", "md_verbatim": "- VISITDY must **not** be populated for unplanned visits; VISITDY is, by definition, the planned study day of visit. The actual study day of an unplanned visit belongs in a --DY variable.", "score": 0.4151, "match_basis": "verbatim_token+chapter_route:ch04"}, {"md_atom_id": "md_ch04_a610", "md_file": "knowledge_base/chapters/ch04_general_assumptions.md", "md_atom_type": "SENTENCE", "md_parent_section": "§4.4.5 [Clinical Encounters and Visits]", "md_verbatim": "For planned visits:", "score": 0.3814, "match_basis": "verbatim_token+chapter_route:ch04"}, {"md_atom_id": "md_ch04_a1023", "md_file": "knowledge_base/chapters/ch04_general_assumptions.md", "md_atom_type": "LIST_ITEM", "md_parent_section": "§4.5.8 [Accounting for Long-term Follow-up]", "md_verbatim": "2. The subject's survival status should be stored in the Subject Status (SS) domain.", "score": 0.375, "match_basis": "verbatim_token+chapter_route:ch04"}, {"md_atom_id": "md_ch04_a617", "md_file": "knowledge_base/chapters/ch04_general_assumptions.md", "md_atom_type": "LIST_ITEM", "md_parent_section": "§4.4.5 [Clinical Encounters and Visits]", "md_verbatim": "- VISIT may be left null or may be populated with a generic value (e.g., \"Unscheduled\") for all unplanned visits, or individual values may be assigned to different unplanned visits.", "score": 0.3742, "match_basis": "verbatim_token+chapter_route:ch04"}], "candidate_count": 5, "zero_candidate": false}
{"pdf_atom_id": "ig34_p0042_a021", "pdf_atom_type": "SENTENCE", "pdf_source": "SDTMIG_v3.4", "pdf_page": 42, "pdf_parent_section": "§4.4.5 [Clinical Encounters and Visits]", "pdf_verbatim": "Sponsor practices for populating visit variables for unplanned visits may vary.", "figure_ref": null, "candidates": [{"md_atom_id": "md_ch04_a615", "md_file": "knowledge_base/chapters/ch04_general_assumptions.md", "md_atom_type": "SENTENCE", "md_parent_section": "§4.4.5 [Clinical Encounters and Visits]", "md_verbatim": "Sponsor practices for populating visit variables for **unplanned visits** may vary:", "score": 0.9, "match_basis": "verbatim_token+chapter_route:ch04"}, {"md_atom_id": "md_ch04_a468", "md_file": "knowledge_base/chapters/ch04_general_assumptions.md", "md_atom_type": "SENTENCE", "md_parent_section": "§4.3.7 [Use of \"Yes\" and \"No\" Values]", "md_verbatim": "Variables where the response is \"Yes\" or \"No\" (\"Y\" or \"N\") should normally be populated for both \"Y\" and \"N\" responses.", "score": 0.4477, "match_basis": "verbatim_token+chapter_route:ch04"}, {"md_atom_id": "md_ch04_a610", "md_file": "knowledge_base/chapters/ch04_general_assumptions.md", "md_atom_type": "SENTENCE", "md_parent_section": "§4.4.5 [Clinical Encounters and Visits]", "md_verbatim": "For planned visits:", "score": 0.4463, "match_basis": "verbatim_token+chapter_route:ch04"}, {"md_atom_id": "md_ch04_a904", "md_file": "knowledge_base/chapters/ch04_general_assumptions.md", "md_atom_type": "SENTENCE", "md_parent_section": "§4.5.3.2 [Text Strings Greater than 200 Characters in Other Variables]", "md_verbatim": "Some sponsors may collect data values longer than 200 characters for some variables.", "score": 0.4412, "match_basis": "verbatim_token+chapter_route:ch04"}, {"md_atom_id": "md_ch04_a618", "md_file": "knowledge_base/chapters/ch04_general_assumptions.md", "md_atom_type": "LIST_ITEM", "md_parent_section": "§4.4.5 [Clinical Encounters and Visits]", "md_verbatim": "- VISITDY must **not** be populated for unplanned visits; VISITDY is, by definition, the planned study day of visit. The actual study day of an unplanned visit belongs in a --DY variable.", "score": 0.4187, "match_basis": "verbatim_token+chapter_route:ch04"}], "candidate_count": 5, "zero_candidate": false}
{"pdf_atom_id": "ig34_p0042_a022", "pdf_atom_type": "LIST_ITEM", "pdf_source": "SDTMIG_v3.4", "pdf_page": 42, "pdf_parent_section": "§4.4.5 [Clinical Encounters and Visits]", "pdf_verbatim": "VISITNUM should generally be populated, even for unplanned visits, as it is expected in many Findings domains, as described above. The easiest method of populating VISITNUM for unplanned visits is to assign the same value (e.g., 99) to all unplanned visits, although this method provides no differentiation between the unplanned visits and does not provide chronological sorting. Methods that provide a one-to-one relationship between visits and values of VISITNUM, that are consistent across domains, and that assign VISITNUM values that sort chronologically require more work and must be applied after all of a subject's unplanned visits are known.", "figure_ref": null, "candidates": [{"md_atom_id": "md_ch04_a616", "md_file": "knowledge_base/chapters/ch04_general_assumptions.md", "md_atom_type": "LIST_ITEM", "md_parent_section": "§4.4.5 [Clinical Encounters and Visits]", "md_verbatim": "- VISITNUM should generally be populated, even for unplanned visits, as it is expected in many Findings domains. The easiest method of populating VISITNUM for unplanned visits is to assign the **same value (e.g., 99)** to all unplanned visits, although this method provides no differentiation between the unplanned visits and does not provide chronological sorting. Methods that provide a one-to-one relationship between values of VISITNUM, that are consistent across domains, and that assign VISITNUM values that sort chronologically require more work and must be applied after all of a subject's unplanned visits are known.", "score": 0.8697, "match_basis": "verbatim_token+chapter_route:ch04"}, {"md_atom_id": "md_ch04_a611", "md_file": "knowledge_base/chapters/ch04_general_assumptions.md", "md_atom_type": "LIST_ITEM", "md_parent_section": "§4.4.5 [Clinical Encounters and Visits]", "md_verbatim": "- **VISITNUM**: numeric, used for sorting; values should wherever possible match the planned chronological order of visits. Occasionally, a protocol will define a planned visit whose timing is unpredictable (e.g., planned in response to an adverse event, a threshold test value, or a disease event), and completely chronological values of VISITNUM may not be possible in such cases.", "score": 0.4292, "match_basis": "verbatim_token+chapter_route:ch04"}, {"md_atom_id": "md_ch04_a617", "md_file": "knowledge_base/chapters/ch04_general_assumptions.md", "md_atom_type": "LIST_ITEM", "md_parent_section": "§4.4.5 [Clinical Encounters and Visits]", "md_verbatim": "- VISIT may be left null or may be populated with a generic value (e.g., \"Unscheduled\") for all unplanned visits, or individual values may be assigned to different unplanned visits.", "score": 0.4218, "match_basis": "verbatim_token+chapter_route:ch04"}, {"md_atom_id": "md_ch04_a228", "md_file": "knowledge_base/chapters/ch04_general_assumptions.md", "md_atom_type": "LIST_ITEM", "md_parent_section": "§4.2.6 [Grouping Variables and Categorization]", "md_verbatim": "   a. Cases where different domains in the same general observation class contain similar conceptual information. Adverse Events (AE), Medical History (MH), and Clinical Events (CE), for example, are conceptually the same data, the only differences being when the event started relative to the study start and whether the event is considered a regulatory-reportable adverse event in the study. Neurotoxicities collected in oncology trials both as separate Medical History CRFs (MH domain) and Adverse Event CRFs (AE domain) could both identify/collect \"Paresthesia of the left arm\". In both domains, the --CAT variable could have the value of \"NEUROTOXICITY\".", "score": 0.4143, "match_basis": "verbatim_token+chapter_route:ch04"}, {"md_atom_id": "md_ch04_a807", "md_file": "knowledge_base/chapters/ch04_general_assumptions.md", "md_atom_type": "LIST_ITEM", "md_parent_section": "§4.4.11 [Disease Milestones and Disease Milestone Timing Variables]", "md_verbatim": "- Visit variables are expected in many Findings domains, but findings triggered by a disease milestone may not occur at a scheduled visit; practices for populating VISITNUM for an unscheduled visit should be followed", "score": 0.4142, "match_basis": "verbatim_token+chapter_route:ch04"}], "candidate_count": 5, "zero_candidate": false}
{"pdf_atom_id": "ig34_p0042_a023", "pdf_atom_type": "LIST_ITEM", "pdf_source": "SDTMIG_v3.4", "pdf_page": 42, "pdf_parent_section": "§4.4.5 [Clinical Encounters and Visits]", "pdf_verbatim": "VISIT may be left null or may be populated with a generic value (e.g., \"Unscheduled\") for all unplanned visits, or individual values may be assigned to different unplanned visits.", "figure_ref": null, "candidates": [{"md_atom_id": "md_ch04_a617", "md_file": "knowledge_base/chapters/ch04_general_assumptions.md", "md_atom_type": "LIST_ITEM", "md_parent_section": "§4.4.5 [Clinical Encounters and Visits]", "md_verbatim": "- VISIT may be left null or may be populated with a generic value (e.g., \"Unscheduled\") for all unplanned visits, or individual values may be assigned to different unplanned visits.", "score": 0.9, "match_basis": "verbatim_token+chapter_route:ch04"}, {"md_atom_id": "md_ch04_a616", "md_file": "knowledge_base/chapters/ch04_general_assumptions.md", "md_atom_type": "LIST_ITEM", "md_parent_section": "§4.4.5 [Clinical Encounters and Visits]", "md_verbatim": "- VISITNUM should generally be populated, even for unplanned visits, as it is expected in many Findings domains. The easiest method of populating VISITNUM for unplanned visits is to assign the **same value (e.g., 99)** to all unplanned visits, although this method provides no differentiation between the unplanned visits and does not provide chronological sorting. Methods that provide a one-to-one relationship between values of VISITNUM, that are consistent across domains, and that assign VISITNUM values that sort chronologically require more work and must be applied after all of a subject's unplanned visits are known.", "score": 0.4275, "match_basis": "verbatim_token+chapter_route:ch04"}, {"md_atom_id": "md_ch04_a618", "md_file": "knowledge_base/chapters/ch04_general_assumptions.md", "md_atom_type": "LIST_ITEM", "md_parent_section": "§4.4.5 [Clinical Encounters and Visits]", "md_verbatim": "- VISITDY must **not** be populated for unplanned visits; VISITDY is, by definition, the planned study day of visit. The actual study day of an unplanned visit belongs in a --DY variable.", "score": 0.4237, "match_basis": "verbatim_token+chapter_route:ch04"}, {"md_atom_id": "md_ch04_a807", "md_file": "knowledge_base/chapters/ch04_general_assumptions.md", "md_atom_type": "LIST_ITEM", "md_parent_section": "§4.4.11 [Disease Milestones and Disease Milestone Timing Variables]", "md_verbatim": "- Visit variables are expected in many Findings domains, but findings triggered by a disease milestone may not occur at a scheduled visit; practices for populating VISITNUM for an unscheduled visit should be followed", "score": 0.4038, "match_basis": "verbatim_token+chapter_route:ch04"}, {"md_atom_id": "md_ch04_a732", "md_file": "knowledge_base/chapters/ch04_general_assumptions.md", "md_atom_type": "LIST_ITEM", "md_parent_section": "§4.4.10 [Representing Time Points]", "md_verbatim": "3. A trial may have only 1 reference time point per visit, and all reference time points may be similar, so that only 1 value of --TPTREF (e.g., \"DOSE\") is needed. (--TPTREF would be populated, but would not contribute to uniqueness.)", "score": 0.3966, "match_basis": "verbatim_token+chapter_route:ch04"}], "candidate_count": 5, "zero_candidate": false}
{"pdf_atom_id": "ig34_p0042_a024", "pdf_atom_type": "LIST_ITEM", "pdf_source": "SDTMIG_v3.4", "pdf_page": 42, "pdf_parent_section": "§4.4.5 [Clinical Encounters and Visits]", "pdf_verbatim": "VISITDY must not be populated for unplanned visits; VISITDY is, by definition, the planned study day of visit. The actual study day of an unplanned visit belongs in a --DY variable.", "figure_ref": null, "candidates": [{"md_atom_id": "md_ch04_a618", "md_file": "knowledge_base/chapters/ch04_general_assumptions.md", "md_atom_type": "LIST_ITEM", "md_parent_section": "§4.4.5 [Clinical Encounters and Visits]", "md_verbatim": "- VISITDY must **not** be populated for unplanned visits; VISITDY is, by definition, the planned study day of visit. The actual study day of an unplanned visit belongs in a --DY variable.", "score": 0.9, "match_basis": "verbatim_token+chapter_route:ch04"}, {"md_atom_id": "md_ch04_a613", "md_file": "knowledge_base/chapters/ch04_general_assumptions.md", "md_atom_type": "LIST_ITEM", "md_parent_section": "§4.4.5 [Clinical Encounters and Visits]", "md_verbatim": "- **VISITDY**: the planned study day **of the start of the visit** (not the actual study day; do not use --DY); for visits that may last more than 1 calendar day, VISITDY should be the planned day of the start of the visit", "score": 0.4784, "match_basis": "verbatim_token+chapter_route:ch04"}, {"md_atom_id": "md_ch04_a805", "md_file": "knowledge_base/chapters/ch04_general_assumptions.md", "md_atom_type": "LIST_ITEM", "md_parent_section": "§4.4.11 [Disease Milestones and Disease Milestone Timing Variables]", "md_verbatim": "- Study-day variables should be populated wherever complete actual date/times are populated, including negative study days for pre-study observations", "score": 0.45, "match_basis": "verbatim_token+chapter_route:ch04"}, {"md_atom_id": "md_ch04_a617", "md_file": "knowledge_base/chapters/ch04_general_assumptions.md", "md_atom_type": "LIST_ITEM", "md_parent_section": "§4.4.5 [Clinical Encounters and Visits]", "md_verbatim": "- VISIT may be left null or may be populated with a generic value (e.g., \"Unscheduled\") for all unplanned visits, or individual values may be assigned to different unplanned visits.", "score": 0.4237, "match_basis": "verbatim_token+chapter_route:ch04"}, {"md_atom_id": "md_ch04_a806", "md_file": "knowledge_base/chapters/ch04_general_assumptions.md", "md_atom_type": "LIST_ITEM", "md_parent_section": "§4.4.11 [Disease Milestones and Disease Milestone Timing Variables]", "md_verbatim": "- The timing variables EPOCH and TAETORD may be populated for on-study observations associated with disease milestones; however, pre-study disease milestones do not have an associated EPOCH or TAETORD", "score": 0.4223, "match_basis": "verbatim_token+chapter_route:ch04"}], "candidate_count": 5, "zero_candidate": false}
{"pdf_atom_id": "ig34_p0042_a025", "pdf_atom_type": "SENTENCE", "pdf_source": "SDTMIG_v3.4", "pdf_page": 42, "pdf_parent_section": "§4.4.5 [Clinical Encounters and Visits]", "pdf_verbatim": "The following lb.xpt sample rows show how visit identifiers might be used for lab data.", "figure_ref": null, "candidates": [{"md_atom_id": "md_ch04_a619", "md_file": "knowledge_base/chapters/ch04_general_assumptions.md", "md_atom_type": "SENTENCE", "md_parent_section": "§4.4.5 [Clinical Encounters and Visits]", "md_verbatim": "**Example** (lb.xpt sample rows showing how visit identifiers might be used for lab data):", "score": 0.795, "match_basis": "verbatim_token+chapter_route:ch04"}, {"md_atom_id": "md_ch04_a195", "md_file": "knowledge_base/chapters/ch04_general_assumptions.md", "md_atom_type": "SENTENCE", "md_parent_section": "§4.2.2 [Two-character Domain Identifier]", "md_verbatim": "The following variables are exceptions to the philosophy that all variable names are prefixed with the domain identifier:", "score": 0.42, "match_basis": "verbatim_token+chapter_route:ch04"}, {"md_atom_id": "md_ch04_a697", "md_file": "knowledge_base/chapters/ch04_general_assumptions.md", "md_atom_type": "SENTENCE", "md_parent_section": "§4.4.9 [Use of Dates as Result Variables]", "md_verbatim": "Consider the following cases:", "score": 0.4174, "match_basis": "verbatim_token+chapter_route:ch04"}, {"md_atom_id": "md_ch04_a1015", "md_file": "knowledge_base/chapters/ch04_general_assumptions.md", "md_atom_type": "SENTENCE", "md_parent_section": "§4.5.8 [Accounting for Long-term Follow-up]", "md_verbatim": "The following example illustrates the recommended SDTM approach to storing these data.", "score": 0.4083, "match_basis": "verbatim_token+chapter_route:ch04"}, {"md_atom_id": "md_ch04_a030", "md_file": "knowledge_base/chapters/ch04_general_assumptions.md", "md_atom_type": "SENTENCE", "md_parent_section": "§4.1.4 [Order of the Variables]", "md_verbatim": "Variables for the 3 general observation classes must be ordered with Identifiers variables first, followed by Topic, Qualifier, and Timing variables.", "score": 0.4079, "match_basis": "verbatim_token+chapter_route:ch04"}], "candidate_count": 5, "zero_candidate": false}
{"pdf_atom_id": "ig34_p0042_a026", "pdf_atom_type": "CODE_LITERAL", "pdf_source": "SDTMIG_v3.4", "pdf_page": 42, "pdf_parent_section": "§4.4.5 [Clinical Encounters and Visits]", "pdf_verbatim": "lb.xpt", "figure_ref": null, "candidates": [{"md_atom_id": "md_ch04_a207", "md_file": "knowledge_base/chapters/ch04_general_assumptions.md", "md_atom_type": "CODE_LITERAL", "md_parent_section": "§4.2.3 [Use of \"Subject\" and USUBJID]", "md_verbatim": "dm.xpt:", "score": 0.69, "match_basis": "verbatim_token+chapter_route:ch04"}, {"md_atom_id": "md_ch04_a210", "md_file": "knowledge_base/chapters/ch04_general_assumptions.md", "md_atom_type": "CODE_LITERAL", "md_parent_section": "§4.2.3 [Use of \"Subject\" and USUBJID]", "md_verbatim": "dm.xpt:", "score": 0.69, "match_basis": "verbatim_token+chapter_route:ch04"}, {"md_atom_id": "md_ch04_a368", "md_file": "knowledge_base/chapters/ch04_general_assumptions.md", "md_atom_type": "CODE_LITERAL", "md_parent_section": "§4.2.8.3 [Multiple Values for a Non-result Qualifier Variable]", "md_verbatim": "ae.xpt:", "score": 0.69, "match_basis": "verbatim_token+chapter_route:ch04"}, {"md_atom_id": "md_ch04_a378", "md_file": "knowledge_base/chapters/ch04_general_assumptions.md", "md_atom_type": "CODE_LITERAL", "md_parent_section": "§4.2.8.3 [Multiple Values for a Non-result Qualifier Variable]", "md_verbatim": "ae.xpt:", "score": 0.69, "match_basis": "verbatim_token+chapter_route:ch04"}, {"md_atom_id": "md_ch04_a391", "md_file": "knowledge_base/chapters/ch04_general_assumptions.md", "md_atom_type": "CODE_LITERAL", "md_parent_section": "§4.2.8.3 [Multiple Values for a Non-result Qualifier Variable]", "md_verbatim": "ae.xpt:", "score": 0.69, "match_basis": "verbatim_token+chapter_route:ch04"}, {"md_atom_id": "md_ch04_a835", "md_file": "knowledge_base/chapters/ch04_general_assumptions.md", "md_atom_type": "CODE_LITERAL", "md_parent_section": "§4.5.1.3 [Examples of Original and Standard Units and Test Not Done]", "md_verbatim": "lb.xpt", "score": 0.69, "match_basis": "verbatim_token+chapter_route:ch04"}, {"md_atom_id": "md_ch04_a861", "md_file": "knowledge_base/chapters/ch04_general_assumptions.md", "md_atom_type": "CODE_LITERAL", "md_parent_section": "§4.5.1.3 [Examples of Original and Standard Units and Test Not Done]", "md_verbatim": "eg.xpt", "score": 0.69, "match_basis": "verbatim_token+chapter_route:ch04"}, {"md_atom_id": "md_ch04_a877", "md_file": "knowledge_base/chapters/ch04_general_assumptions.md", "md_atom_type": "CODE_LITERAL", "md_parent_section": "§4.5.1.3 [Examples of Original and Standard Units and Test Not Done]", "md_verbatim": "vs.xpt", "score": 0.69, "match_basis": "verbatim_token+chapter_route:ch04"}, {"md_atom_id": "md_ch04_a917", "md_file": "knowledge_base/chapters/ch04_general_assumptions.md", "md_atom_type": "CODE_LITERAL", "md_parent_section": "§4.5.3.2 [Text Strings Greater than 200 Characters in Other Variables]", "md_verbatim": "mh.xpt", "score": 0.69, "match_basis": "verbatim_token+chapter_route:ch04"}, {"md_atom_id": "md_ch04_a919", "md_file": "knowledge_base/chapters/ch04_general_assumptions.md", "md_atom_type": "SENTENCE", "md_parent_section": "§4.5.3.2 [Text Strings Greater than 200 Characters in Other Variables]", "md_verbatim": "mh.xpt:", "score": 0.69, "match_basis": "verbatim_token+chapter_route:ch04"}], "candidate_count": 10, "zero_candidate": false}
{"pdf_atom_id": "ig34_p0042_a027", "pdf_atom_type": "TABLE_HEADER", "pdf_source": "SDTMIG_v3.4", "pdf_page": 42, "pdf_parent_section": "§4.4.5 [Clinical Encounters and Visits]", "pdf_verbatim": "USUBJID | VISIT | VISITNUM | VISITDY | LBDY", "figure_ref": null, "candidates": [{"md_atom_id": "md_ch04_a620", "md_file": "knowledge_base/chapters/ch04_general_assumptions.md", "md_atom_type": "TABLE_HEADER", "md_parent_section": "§4.4.5 [Clinical Encounters and Visits]", "md_verbatim": "| USUBJID | VISIT | VISITNUM | VISITDY | LBDY |\n|---------|-------|----------|---------|------|", "score": 0.9, "match_basis": "verbatim_token+chapter_route:ch04"}, {"md_atom_id": "md_ch04_a736", "md_file": "knowledge_base/chapters/ch04_general_assumptions.md", "md_atom_type": "TABLE_HEADER", "md_parent_section": "§4.4.10 [Representing Time Points]", "md_verbatim": "| VISIT | VISITNUM | --TPT | --TPTNUM | --TPTREF |\n|-------|----------|-------|----------|----------|", "score": 0.48, "match_basis": "verbatim_token+chapter_route:ch04"}, {"md_atom_id": "md_ch04_a756", "md_file": "knowledge_base/chapters/ch04_general_assumptions.md", "md_atom_type": "TABLE_HEADER", "md_parent_section": "§4.4.10 [Representing Time Points]", "md_verbatim": "| VISIT | VISITNUM | --TPT | --TPTNUM | --TPTREF |\n|-------|----------|-------|----------|----------|", "score": 0.48, "match_basis": "verbatim_token+chapter_route:ch04"}, {"md_atom_id": "md_ch04_a074", "md_file": "knowledge_base/chapters/ch04_general_assumptions.md", "md_atom_type": "TABLE_HEADER", "md_parent_section": "§4.1.7.1 [Example of Splitting Questionnaires]", "md_verbatim": "| Row | STUDYID | DOMAIN | USUBJID | QSSEQ | QSTESTCD | QSTEST | QSCAT | QSORRES | QSSTRESC | QSSTRESN | QSLOBXFL | VISITNUM | VISIT | VISITDY | QSDTC | QSDY |\n|-----|---------|--------|---------|-------|----------|--------|-------|---------|----------|----------|----------|----------|-------|---------|-------|------|", "score": 0.4368, "match_basis": "verbatim_token+chapter_route:ch04"}, {"md_atom_id": "md_ch04_a091", "md_file": "knowledge_base/chapters/ch04_general_assumptions.md", "md_atom_type": "TABLE_HEADER", "md_parent_section": "§4.1.7.1 [Example of Splitting Questionnaires]", "md_verbatim": "| Row | STUDYID | DOMAIN | USUBJID | QSSEQ | QSTESTCD | QSTEST | QSCAT | QSORRES | QSSTRESC | QSSTRESN | QSLOBXFL | VISITNUM | QSDTC | QSDY |", "score": 0.4158, "match_basis": "verbatim_token+chapter_route:ch04"}], "candidate_count": 5, "zero_candidate": false}
{"pdf_atom_id": "ig34_p0042_a028", "pdf_atom_type": "TABLE_ROW", "pdf_source": "SDTMIG_v3.4", "pdf_page": 42, "pdf_parent_section": "§4.4.5 [Clinical Encounters and Visits]", "pdf_verbatim": "001 | Week 1 | 2 | 7 | 7", "figure_ref": null, "candidates": [{"md_atom_id": "md_ch04_a621", "md_file": "knowledge_base/chapters/ch04_general_assumptions.md", "md_atom_type": "TABLE_ROW", "md_parent_section": "§4.4.5 [Clinical Encounters and Visits]", "md_verbatim": "| 001 | Week 1 | 2 | | |", "score": 0.9, "match_basis": "verbatim_token+chapter_route:ch04"}, {"md_atom_id": "md_ch04_a622", "md_file": "knowledge_base/chapters/ch04_general_assumptions.md", "md_atom_type": "TABLE_ROW", "md_parent_section": "§4.4.5 [Clinical Encounters and Visits]", "md_verbatim": "| 001 | Week 2 | 3 | 14 | 13 |", "score": 0.9, "match_basis": "verbatim_token+chapter_route:ch04"}, {"md_atom_id": "md_ch04_a589", "md_file": "knowledge_base/chapters/ch04_general_assumptions.md", "md_atom_type": "TABLE_ROW", "md_parent_section": "§4.4.3.1 [Intervals of Time and Use of Duration]", "md_verbatim": "| 4 1/2 weeks | P4.5W |", "score": 0.6, "match_basis": "verbatim_token+chapter_route:ch04"}, {"md_atom_id": "md_ch04_a581", "md_file": "knowledge_base/chapters/ch04_general_assumptions.md", "md_atom_type": "TABLE_ROW", "md_parent_section": "§4.4.3.1 [Intervals of Time and Use of Duration]", "md_verbatim": "| 10 weeks | P10W |", "score": 0.5, "match_basis": "verbatim_token+chapter_route:ch04"}, {"md_atom_id": "md_ch04_a623", "md_file": "knowledge_base/chapters/ch04_general_assumptions.md", "md_atom_type": "TABLE_ROW", "md_parent_section": "§4.4.5 [Clinical Encounters and Visits]", "md_verbatim": "| 001 | Week 2 Unscheduled | 3.1 | | 17 |", "score": 0.45, "match_basis": "verbatim_token+chapter_route:ch04"}, {"md_atom_id": "md_ch04_a080", "md_file": "knowledge_base/chapters/ch04_general_assumptions.md", "md_atom_type": "TABLE_ROW", "md_parent_section": "§4.1.7.1 [Example of Splitting Questionnaires]", "md_verbatim": "| 6 | CDISC01 | QS | CDISC01.100014 | 2 | CGI0201 | CGI02-Severity | CGI | Mild | 3 | 3 | | 2 | WEEK 2 | 7 | 2003-04-21 | 7 |", "score": 0.3692, "match_basis": "verbatim_token+chapter_route:ch04"}, {"md_atom_id": "md_ch04_a079", "md_file": "knowledge_base/chapters/ch04_general_assumptions.md", "md_atom_type": "TABLE_ROW", "md_parent_section": "§4.1.7.1 [Example of Splitting Questionnaires]", "md_verbatim": "| 5 | CDISC01 | QS | CDISC01.100014 | 1 | CGI0201 | CGI02-Severity | CGI | Moderate | 4 | 4 | | 1 | WEEK 1 | 7 | 2003-04-15 | 1 |", "score": 0.36, "match_basis": "verbatim_token+chapter_route:ch04"}, {"md_atom_id": "md_ch04_a209", "md_file": "knowledge_base/chapters/ch04_general_assumptions.md", "md_atom_type": "TABLE_ROW", "md_parent_section": "§4.2.3 [Use of \"Subject\" and USUBJID]", "md_verbatim": "| 1 | ACME01 | DM | ACME01-05-001 | 001 | 05 | John Doe |", "score": 0.36, "match_basis": "verbatim_token+chapter_route:ch04"}, {"md_atom_id": "md_ch04_a081", "md_file": "knowledge_base/chapters/ch04_general_assumptions.md", "md_atom_type": "TABLE_ROW", "md_parent_section": "§4.1.7.1 [Example of Splitting Questionnaires]", "md_verbatim": "| 8 | CDISC01 | QS | CDISC01.100014 | 4 | CGI0203 | CGI02-Improvement | CGI | A little better | 3 | 3 | | 2 | WEEK 2 | 7 | 2003-04-21 | 7 |", "score": 0.3514, "match_basis": "verbatim_token+chapter_route:ch04"}, {"md_atom_id": "md_ch04_a076", "md_file": "knowledge_base/chapters/ch04_general_assumptions.md", "md_atom_type": "TABLE_ROW", "md_parent_section": "§4.1.7.1 [Example of Splitting Questionnaires]", "md_verbatim": "| 2 | CDISC01 | QS | CDISC01.100008 | 2 | CGI0201 | CGI02-Severity | CGI | Mild | 3 | 3 | | 2 | WEEK 2 | 7 | 2003-04-21 | 7 |", "score": 0.3462, "match_basis": "verbatim_token+chapter_route:ch04"}], "candidate_count": 10, "zero_candidate": false}
{"pdf_atom_id": "ig34_p0042_a029", "pdf_atom_type": "TABLE_ROW", "pdf_source": "SDTMIG_v3.4", "pdf_page": 42, "pdf_parent_section": "§4.4.5 [Clinical Encounters and Visits]", "pdf_verbatim": "001 | Week 2 | 3 | 14 | 13", "figure_ref": null, "candidates": [{"md_atom_id": "md_ch04_a621", "md_file": "knowledge_base/chapters/ch04_general_assumptions.md", "md_atom_type": "TABLE_ROW", "md_parent_section": "§4.4.5 [Clinical Encounters and Visits]", "md_verbatim": "| 001 | Week 1 | 2 | | |", "score": 0.9, "match_basis": "verbatim_token+chapter_route:ch04"}, {"md_atom_id": "md_ch04_a622", "md_file": "knowledge_base/chapters/ch04_general_assumptions.md", "md_atom_type": "TABLE_ROW", "md_parent_section": "§4.4.5 [Clinical Encounters and Visits]", "md_verbatim": "| 001 | Week 2 | 3 | 14 | 13 |", "score": 0.9, "match_basis": "verbatim_token+chapter_route:ch04"}, {"md_atom_id": "md_ch04_a589", "md_file": "knowledge_base/chapters/ch04_general_assumptions.md", "md_atom_type": "TABLE_ROW", "md_parent_section": "§4.4.3.1 [Intervals of Time and Use of Duration]", "md_verbatim": "| 4 1/2 weeks | P4.5W |", "score": 0.6, "match_basis": "verbatim_token+chapter_route:ch04"}, {"md_atom_id": "md_ch04_a581", "md_file": "knowledge_base/chapters/ch04_general_assumptions.md", "md_atom_type": "TABLE_ROW", "md_parent_section": "§4.4.3.1 [Intervals of Time and Use of Duration]", "md_verbatim": "| 10 weeks | P10W |", "score": 0.5, "match_basis": "verbatim_token+chapter_route:ch04"}, {"md_atom_id": "md_ch04_a623", "md_file": "knowledge_base/chapters/ch04_general_assumptions.md", "md_atom_type": "TABLE_ROW", "md_parent_section": "§4.4.5 [Clinical Encounters and Visits]", "md_verbatim": "| 001 | Week 2 Unscheduled | 3.1 | | 17 |", "score": 0.45, "match_basis": "verbatim_token+chapter_route:ch04"}, {"md_atom_id": "md_ch04_a080", "md_file": "knowledge_base/chapters/ch04_general_assumptions.md", "md_atom_type": "TABLE_ROW", "md_parent_section": "§4.1.7.1 [Example of Splitting Questionnaires]", "md_verbatim": "| 6 | CDISC01 | QS | CDISC01.100014 | 2 | CGI0201 | CGI02-Severity | CGI | Mild | 3 | 3 | | 2 | WEEK 2 | 7 | 2003-04-21 | 7 |", "score": 0.3692, "match_basis": "verbatim_token+chapter_route:ch04"}, {"md_atom_id": "md_ch04_a079", "md_file": "knowledge_base/chapters/ch04_general_assumptions.md", "md_atom_type": "TABLE_ROW", "md_parent_section": "§4.1.7.1 [Example of Splitting Questionnaires]", "md_verbatim": "| 5 | CDISC01 | QS | CDISC01.100014 | 1 | CGI0201 | CGI02-Severity | CGI | Moderate | 4 | 4 | | 1 | WEEK 1 | 7 | 2003-04-15 | 1 |", "score": 0.36, "match_basis": "verbatim_token+chapter_route:ch04"}, {"md_atom_id": "md_ch04_a209", "md_file": "knowledge_base/chapters/ch04_general_assumptions.md", "md_atom_type": "TABLE_ROW", "md_parent_section": "§4.2.3 [Use of \"Subject\" and USUBJID]", "md_verbatim": "| 1 | ACME01 | DM | ACME01-05-001 | 001 | 05 | John Doe |", "score": 0.36, "match_basis": "verbatim_token+chapter_route:ch04"}, {"md_atom_id": "md_ch04_a081", "md_file": "knowledge_base/chapters/ch04_general_assumptions.md", "md_atom_type": "TABLE_ROW", "md_parent_section": "§4.1.7.1 [Example of Splitting Questionnaires]", "md_verbatim": "| 8 | CDISC01 | QS | CDISC01.100014 | 4 | CGI0203 | CGI02-Improvement | CGI | A little better | 3 | 3 | | 2 | WEEK 2 | 7 | 2003-04-21 | 7 |", "score": 0.3514, "match_basis": "verbatim_token+chapter_route:ch04"}, {"md_atom_id": "md_ch04_a076", "md_file": "knowledge_base/chapters/ch04_general_assumptions.md", "md_atom_type": "TABLE_ROW", "md_parent_section": "§4.1.7.1 [Example of Splitting Questionnaires]", "md_verbatim": "| 2 | CDISC01 | QS | CDISC01.100008 | 2 | CGI0201 | CGI02-Severity | CGI | Mild | 3 | 3 | | 2 | WEEK 2 | 7 | 2003-04-21 | 7 |", "score": 0.3462, "match_basis": "verbatim_token+chapter_route:ch04"}], "candidate_count": 10, "zero_candidate": false}
{"pdf_atom_id": "ig34_p0042_a030", "pdf_atom_type": "TABLE_ROW", "pdf_source": "SDTMIG_v3.4", "pdf_page": 42, "pdf_parent_section": "§4.4.5 [Clinical Encounters and Visits]", "pdf_verbatim": "001 | Week 2 Unscheduled | 3.1 |  | 17", "figure_ref": null, "candidates": [{"md_atom_id": "md_ch04_a623", "md_file": "knowledge_base/chapters/ch04_general_assumptions.md", "md_atom_type": "TABLE_ROW", "md_parent_section": "§4.4.5 [Clinical Encounters and Visits]", "md_verbatim": "| 001 | Week 2 Unscheduled | 3.1 | | 17 |", "score": 0.9, "match_basis": "verbatim_token+chapter_route:ch04"}, {"md_atom_id": "md_ch04_a621", "md_file": "knowledge_base/chapters/ch04_general_assumptions.md", "md_atom_type": "TABLE_ROW", "md_parent_section": "§4.4.5 [Clinical Encounters and Visits]", "md_verbatim": "| 001 | Week 1 | 2 | | |", "score": 0.45, "match_basis": "verbatim_token+chapter_route:ch04"}, {"md_atom_id": "md_ch04_a622", "md_file": "knowledge_base/chapters/ch04_general_assumptions.md", "md_atom_type": "TABLE_ROW", "md_parent_section": "§4.4.5 [Clinical Encounters and Visits]", "md_verbatim": "| 001 | Week 2 | 3 | 14 | 13 |", "score": 0.45, "match_basis": "verbatim_token+chapter_route:ch04"}, {"md_atom_id": "md_ch04_a589", "md_file": "knowledge_base/chapters/ch04_general_assumptions.md", "md_atom_type": "TABLE_ROW", "md_parent_section": "§4.4.3.1 [Intervals of Time and Use of Duration]", "md_verbatim": "| 4 1/2 weeks | P4.5W |", "score": 0.3923, "match_basis": "verbatim_token+chapter_route:ch04"}, {"md_atom_id": "md_ch04_a581", "md_file": "knowledge_base/chapters/ch04_general_assumptions.md", "md_atom_type": "TABLE_ROW", "md_parent_section": "§4.4.3.1 [Intervals of Time and Use of Duration]", "md_verbatim": "| 10 weeks | P10W |", "score": 0.38, "match_basis": "verbatim_token+chapter_route:ch04"}], "candidate_count": 5, "zero_candidate": false}
{"pdf_atom_id": "ig34_p0043_a001", "pdf_atom_type": "HEADING", "pdf_source": "SDTMIG_v3.4", "pdf_page": 43, "pdf_parent_section": "§4.4.6 [Representing Additional Study Days]", "pdf_verbatim": "4.4.6 Representing Additional Study Days", "figure_ref": null, "candidates": [{"md_atom_id": "md_ch04_a624", "md_file": "knowledge_base/chapters/ch04_general_assumptions.md", "md_atom_type": "HEADING", "md_parent_section": "§4.4 [Actual and Relative Time Assumptions]", "md_verbatim": "### 4.4.6 Representing Additional Study Days", "score": 0.9, "match_basis": "verbatim_token+chapter_route:ch04"}, {"md_atom_id": "md_ch04_a704", "md_file": "knowledge_base/chapters/ch04_general_assumptions.md", "md_atom_type": "HEADING", "md_parent_section": "§4.4 [Use of Timing Variables]", "md_verbatim": "### 4.4.10 Representing Time Points", "score": 0.5069, "match_basis": "verbatim_token+chapter_route:ch04"}, {"md_atom_id": "md_ch04_a012", "md_file": "knowledge_base/chapters/ch04_general_assumptions.md", "md_atom_type": "HEADING", "md_parent_section": "§4.1 [General Domain Assumptions]", "md_verbatim": "### 4.1.3 Additional Timing Variables", "score": 0.4636, "match_basis": "verbatim_token+chapter_route:ch04"}, {"md_atom_id": "md_ch04_a041", "md_file": "knowledge_base/chapters/ch04_general_assumptions.md", "md_atom_type": "HEADING", "md_parent_section": "§4.1 [General Domain Assumptions]", "md_verbatim": "### 4.1.6 Additional Guidance on Dataset Naming", "score": 0.4459, "match_basis": "verbatim_token+chapter_route:ch04"}, {"md_atom_id": "md_ch04_a987", "md_file": "knowledge_base/chapters/ch04_general_assumptions.md", "md_atom_type": "HEADING", "md_parent_section": "§4.5 [Other Assumptions]", "md_verbatim": "### 4.5.7 Presence or Absence of Prespecified Interventions and Events", "score": 0.4067, "match_basis": "verbatim_token+chapter_route:ch04"}], "candidate_count": 5, "zero_candidate": false}
{"pdf_atom_id": "ig34_p0043_a002", "pdf_atom_type": "SENTENCE", "pdf_source": "SDTMIG_v3.4", "pdf_page": 43, "pdf_parent_section": "§4.4.6 [Representing Additional Study Days]", "pdf_verbatim": "The SDTM allows for the representation of study days relative to the RFSTDTC reference start date variable in the DM dataset, using variables --DY, as described in Section 4.4.4, Use of the \"Study Day\" Variables.", "figure_ref": null, "candidates": [{"md_atom_id": "md_ch04_a015", "md_file": "knowledge_base/chapters/ch04_general_assumptions.md", "md_atom_type": "SENTENCE", "md_parent_section": "§4.1.3 [Additional Timing Variables]", "md_verbatim": "Timing variables cannot be added to SUPPQUAL datasets or to RELREC (described in Section 8, Representing Relationships and Data).", "score": 0.516, "match_basis": "verbatim_token+chapter_route:ch04"}, {"md_atom_id": "md_ch04_a705", "md_file": "knowledge_base/chapters/ch04_general_assumptions.md", "md_atom_type": "SENTENCE", "md_parent_section": "§4.4.10 [Representing Time Points]", "md_verbatim": "Time points can be represented using the time point variables --TPT, --TPTNUM, --ELTM, and the time-point anchors --TPTREF (text description) and --RFTDTC (date/time).", "score": 0.4706, "match_basis": "verbatim_token+chapter_route:ch04"}, {"md_atom_id": "md_ch04_a629", "md_file": "knowledge_base/chapters/ch04_general_assumptions.md", "md_atom_type": "SENTENCE", "md_parent_section": "§4.4.7 [Use of Relative Timing Variables]", "md_verbatim": "The variables --STRF and --ENRF represent the timing of an observation relative to the sponsor-defined study reference period, when information such as \"BEFORE\", \"PRIOR\", \"ONGOING\", or \"CONTINUING\" is collected in lieu of a date and this collected information is in relation to the sponsor-defined study reference period.", "score": 0.4689, "match_basis": "verbatim_token+chapter_route:ch04"}, {"md_atom_id": "md_ch04_a789", "md_file": "knowledge_base/chapters/ch04_general_assumptions.md", "md_atom_type": "SENTENCE", "md_parent_section": "§4.4.11 [Disease Milestones and Disease Milestone Timing Variables]", "md_verbatim": "For an observation triggered by the occurrence of a disease milestone, the relationship of the observation to the disease milestone can be represented using the disease milestone timing variables MIDS, RELMIDS, and MIDSDTC:", "score": 0.467, "match_basis": "verbatim_token+chapter_route:ch04"}, {"md_atom_id": "md_ch04_a694", "md_file": "knowledge_base/chapters/ch04_general_assumptions.md", "md_atom_type": "SENTENCE", "md_parent_section": "§4.4.9 [Use of Dates as Result Variables]", "md_verbatim": "Dates are generally used only as timing variables to describe the timing of an event, intervention, or collection activity, but there may be occasions when it may be preferable to model a date as a result (--ORRES) in a Findings dataset.", "score": 0.4654, "match_basis": "verbatim_token+chapter_route:ch04"}], "candidate_count": 5, "zero_candidate": false}
{"pdf_atom_id": "ig34_p0043_a003", "pdf_atom_type": "CROSS_REF", "pdf_source": "SDTMIG_v3.4", "pdf_page": 43, "pdf_parent_section": "§4.4.6 [Representing Additional Study Days]", "pdf_verbatim": "Section 4.4.4, Use of the \"Study Day\" Variables", "figure_ref": null, "candidates": [{"md_atom_id": "md_ch04_a599", "md_file": "knowledge_base/chapters/ch04_general_assumptions.md", "md_atom_type": "HEADING", "md_parent_section": "§4.4 [Actual and Relative Time Assumptions]", "md_verbatim": "### 4.4.4 Study Day Variables", "score": 0.4567, "match_basis": "verbatim_token+chapter_route:ch04"}, {"md_atom_id": "md_ch04_a027", "md_file": "knowledge_base/chapters/ch04_general_assumptions.md", "md_atom_type": "HEADING", "md_parent_section": "§4.1 [General Domain Assumptions]", "md_verbatim": "### 4.1.4 Order of the Variables", "score": 0.3186, "match_basis": "verbatim_token+chapter_route:ch04"}, {"md_atom_id": "md_ch04_a343", "md_file": "knowledge_base/chapters/ch04_general_assumptions.md", "md_atom_type": "SENTENCE", "md_parent_section": "§4.2.7.4 [\"Specify\" Values for --OBJ]", "md_verbatim": "See also Section 6.4.3, Variables Unique to Findings About.", "score": 0.3018, "match_basis": "verbatim_token+chapter_route:ch04"}, {"md_atom_id": "md_ch04_a012", "md_file": "knowledge_base/chapters/ch04_general_assumptions.md", "md_atom_type": "HEADING", "md_parent_section": "§4.1 [General Domain Assumptions]", "md_verbatim": "### 4.1.3 Additional Timing Variables", "score": 0.2829, "match_basis": "verbatim_token+chapter_route:ch04"}, {"md_atom_id": "md_ch04_a693", "md_file": "knowledge_base/chapters/ch04_general_assumptions.md", "md_atom_type": "HEADING", "md_parent_section": "§4.4 [Use of Timing Variables]", "md_verbatim": "### 4.4.9 Use of Dates as Result Variables", "score": 0.282, "match_basis": "verbatim_token+chapter_route:ch04"}], "candidate_count": 5, "zero_candidate": false}
{"pdf_atom_id": "ig34_p0043_a004", "pdf_atom_type": "SENTENCE", "pdf_source": "SDTMIG_v3.4", "pdf_page": 43, "pdf_parent_section": "§4.4.6 [Representing Additional Study Days]", "pdf_verbatim": "The calculation of additional study days within subdivisions of time in a clinical trial may be based on 1 or more sponsor-defined reference dates not represented by RFSTDTC.", "figure_ref": null, "candidates": [{"md_atom_id": "md_ch04_a629", "md_file": "knowledge_base/chapters/ch04_general_assumptions.md", "md_atom_type": "SENTENCE", "md_parent_section": "§4.4.7 [Use of Relative Timing Variables]", "md_verbatim": "The variables --STRF and --ENRF represent the timing of an observation relative to the sponsor-defined study reference period, when information such as \"BEFORE\", \"PRIOR\", \"ONGOING\", or \"CONTINUING\" is collected in lieu of a date and this collected information is in relation to the sponsor-defined study reference period.", "score": 0.4603, "match_basis": "verbatim_token+chapter_route:ch04"}, {"md_atom_id": "md_ch04_a555", "md_file": "knowledge_base/chapters/ch04_general_assumptions.md", "md_atom_type": "SENTENCE", "md_parent_section": "§4.4.3.1 [Intervals of Time and Use of Duration]", "md_verbatim": "If both --STDTC and --ENDTC are collected, durations can be calculated by the difference in these 2 values, and need not be in the submission dataset.", "score": 0.4373, "match_basis": "verbatim_token+chapter_route:ch04"}, {"md_atom_id": "md_ch04_a630", "md_file": "knowledge_base/chapters/ch04_general_assumptions.md", "md_atom_type": "SENTENCE", "md_parent_section": "§4.4.7 [Use of Relative Timing Variables]", "md_verbatim": "The sponsor-defined study reference period is the continuous period of time defined by the discrete starting point, RFSTDTC, and the discrete ending point, RFENDTC, for each subject in the Demographics (DM) dataset.", "score": 0.4358, "match_basis": "verbatim_token+chapter_route:ch04"}, {"md_atom_id": "md_ch04_a1014", "md_file": "knowledge_base/chapters/ch04_general_assumptions.md", "md_atom_type": "SENTENCE", "md_parent_section": "§4.5.8 [Accounting for Long-term Follow-up]", "md_verbatim": "If a study has a clinical treatment phase followed by a long-term follow-up phase, these 2 segments of the study can be represented as separate epochs within the overall study, each with its own epoch disposition record.", "score": 0.4289, "match_basis": "verbatim_token+chapter_route:ch04"}, {"md_atom_id": "md_ch04_a573", "md_file": "knowledge_base/chapters/ch04_general_assumptions.md", "md_atom_type": "SENTENCE", "md_parent_section": "§4.4.3.1 [Intervals of Time and Use of Duration]", "md_verbatim": "As is the case with the date/time representation in --DTC, --STDTC, or --ENDTC, only the components of duration that are known or collected need to be represented.", "score": 0.4263, "match_basis": "verbatim_token+chapter_route:ch04"}], "candidate_count": 5, "zero_candidate": false}
{"pdf_atom_id": "ig34_p0043_a005", "pdf_atom_type": "SENTENCE", "pdf_source": "SDTMIG_v3.4", "pdf_page": 43, "pdf_parent_section": "§4.4.6 [Representing Additional Study Days]", "pdf_verbatim": "In such cases, the sponsor may define supplemental qualifier variables and the Define-XML document should reflect the reference dates used to calculate such study days.", "figure_ref": null, "candidates": [{"md_atom_id": "md_ch04_a148", "md_file": "knowledge_base/chapters/ch04_general_assumptions.md", "md_atom_type": "SENTENCE", "md_parent_section": "§4.1.9 [Assigning Natural Keys in the Metadata]", "md_verbatim": "Supplemental Qualifier variables should be referenced in the natural key by using a 2-part name.", "score": 0.5374, "match_basis": "verbatim_token+chapter_route:ch04"}, {"md_atom_id": "md_ch04_a028", "md_file": "knowledge_base/chapters/ch04_general_assumptions.md", "md_atom_type": "SENTENCE", "md_parent_section": "§4.1.4 [Order of the Variables]", "md_verbatim": "The order of variables in the Define-XML document must reflect the order of variables in the dataset.", "score": 0.4835, "match_basis": "verbatim_token+chapter_route:ch04"}, {"md_atom_id": "md_ch04_a138", "md_file": "knowledge_base/chapters/ch04_general_assumptions.md", "md_atom_type": "SENTENCE", "md_parent_section": "§4.1.9 [Assigning Natural Keys in the Metadata]", "md_verbatim": "The following example illustrates how to do this, and include a case where a Supplemental Qualifier variable is referenced because it forms part of the natural key.", "score": 0.4835, "match_basis": "verbatim_token+chapter_route:ch04"}, {"md_atom_id": "md_ch04_a955", "md_file": "knowledge_base/chapters/ch04_general_assumptions.md", "md_atom_type": "SENTENCE", "md_parent_section": "§4.5.4 [Evaluators in the Interventions and Events Observation Classes]", "md_verbatim": "For observations that have primary and secondary evaluations of specific qualifier variables, sponsors should put data from the primary evaluation into the standard domain dataset and data from the secondary evaluation into the Supplemental Qualifier datasets (SUPP--).", "score": 0.4721, "match_basis": "verbatim_token+chapter_route:ch04"}, {"md_atom_id": "md_ch04_a629", "md_file": "knowledge_base/chapters/ch04_general_assumptions.md", "md_atom_type": "SENTENCE", "md_parent_section": "§4.4.7 [Use of Relative Timing Variables]", "md_verbatim": "The variables --STRF and --ENRF represent the timing of an observation relative to the sponsor-defined study reference period, when information such as \"BEFORE\", \"PRIOR\", \"ONGOING\", or \"CONTINUING\" is collected in lieu of a date and this collected information is in relation to the sponsor-defined study reference period.", "score": 0.4521, "match_basis": "verbatim_token+chapter_route:ch04"}], "candidate_count": 5, "zero_candidate": false}
{"pdf_atom_id": "ig34_p0043_a006", "pdf_atom_type": "SENTENCE", "pdf_source": "SDTMIG_v3.4", "pdf_page": 43, "pdf_parent_section": "§4.4.6 [Representing Additional Study Days]", "pdf_verbatim": "If the sponsor wishes to define \"day within element\" or \"day within epoch\", the reference date/time will be an element start date/time in the Subject Elements (SE) dataset (see Section 5.3, Subject Elements).", "figure_ref": null, "candidates": [{"md_atom_id": "md_ch04_a626", "md_file": "knowledge_base/chapters/ch04_general_assumptions.md", "md_atom_type": "LIST_ITEM", "md_parent_section": "§4.4.6 [Representing Additional Study Days]", "md_verbatim": "- The reference date/time may use Subject Elements (SE) dataset element start date/time", "score": 0.51, "match_basis": "verbatim_token+chapter_route:ch04"}, {"md_atom_id": "md_ch04_a630", "md_file": "knowledge_base/chapters/ch04_general_assumptions.md", "md_atom_type": "SENTENCE", "md_parent_section": "§4.4.7 [Use of Relative Timing Variables]", "md_verbatim": "The sponsor-defined study reference period is the continuous period of time defined by the discrete starting point, RFSTDTC, and the discrete ending point, RFENDTC, for each subject in the Demographics (DM) dataset.", "score": 0.4745, "match_basis": "verbatim_token+chapter_route:ch04"}, {"md_atom_id": "md_ch04_a176", "md_file": "knowledge_base/chapters/ch04_general_assumptions.md", "md_atom_type": "SENTENCE", "md_parent_section": "§4.2.1 [Variable-Naming Conventions]", "md_verbatim": "Because QNAM serves the same purpose as --TESTCD within supplemental qualifier datasets, values of QNAM are subject to the same restrictions as values of --TESTCD.", "score": 0.4327, "match_basis": "verbatim_token+chapter_route:ch04"}, {"md_atom_id": "md_ch04_a648", "md_file": "knowledge_base/chapters/ch04_general_assumptions.md", "md_atom_type": "SENTENCE", "md_parent_section": "§4.4.7 [Use of Relative Timing Variables]", "md_verbatim": "If the reference time point is prior to the date of collection or assessment, AFTER is valid for --STRTPT.", "score": 0.4271, "match_basis": "verbatim_token+chapter_route:ch04"}, {"md_atom_id": "md_ch04_a755", "md_file": "knowledge_base/chapters/ch04_general_assumptions.md", "md_atom_type": "SENTENCE", "md_parent_section": "§4.4.10 [Representing Time Points]", "md_verbatim": "Option 2 — VISITNUM designates period and day within period; --TPTREF designates dose within the day; --TPTNUM designates timing relative to reference time point:", "score": 0.4125, "match_basis": "verbatim_token+chapter_route:ch04"}], "candidate_count": 5, "zero_candidate": false}
{"pdf_atom_id": "ig34_p0043_a007", "pdf_atom_type": "CROSS_REF", "pdf_source": "SDTMIG_v3.4", "pdf_page": 43, "pdf_parent_section": "§4.4.6 [Representing Additional Study Days]", "pdf_verbatim": "Section 5.3, Subject Elements", "figure_ref": null, "candidates": [{"md_atom_id": "md_ch04_a626", "md_file": "knowledge_base/chapters/ch04_general_assumptions.md", "md_atom_type": "LIST_ITEM", "md_parent_section": "§4.4.6 [Representing Additional Study Days]", "md_verbatim": "- The reference date/time may use Subject Elements (SE) dataset element start date/time", "score": 0.2733, "match_basis": "verbatim_token+chapter_route:ch04"}, {"md_atom_id": "md_ch04_a222", "md_file": "knowledge_base/chapters/ch04_general_assumptions.md", "md_atom_type": "NOTE", "md_parent_section": "§4.2.6 [Grouping Variables and Categorization]", "md_verbatim": "**For the subject:**", "score": 0.2665, "match_basis": "verbatim_token+chapter_route:ch04"}, {"md_atom_id": "md_ch04_a201", "md_file": "knowledge_base/chapters/ch04_general_assumptions.md", "md_atom_type": "HEADING", "md_parent_section": "§4.2 [General Variable Assumptions]", "md_verbatim": "### 4.2.3 Use of \"Subject\" and USUBJID", "score": 0.24, "match_basis": "verbatim_token+chapter_route:ch04"}, {"md_atom_id": "md_ch04_a428", "md_file": "knowledge_base/chapters/ch04_general_assumptions.md", "md_atom_type": "SENTENCE", "md_parent_section": "§4.3.2 [Controlled Terminology Text Case]", "md_verbatim": "See Section 4.2.4, Text Case in Submitted Data.", "score": 0.2186, "match_basis": "verbatim_token+chapter_route:ch04"}, {"md_atom_id": "md_ch04_a1027", "md_file": "knowledge_base/chapters/ch04_general_assumptions.md", "md_atom_type": "LIST_ITEM", "md_parent_section": "§4.5.8 [Accounting for Long-term Follow-up]", "md_verbatim": "6. The contacts would be recorded in Subject Visits (SV) and Subject Elements (SE) consistent with the way they are represented in TV and TE.", "score": 0.21, "match_basis": "verbatim_token+chapter_route:ch04"}], "candidate_count": 5, "zero_candidate": false}
{"pdf_atom_id": "ig34_p0043_a008", "pdf_atom_type": "HEADING", "pdf_source": "SDTMIG_v3.4", "pdf_page": 43, "pdf_parent_section": "§4.4.7 [Use of Relative Timing Variables]", "pdf_verbatim": "4.4.7 Use of Relative Timing Variables", "figure_ref": null, "candidates": [{"md_atom_id": "md_ch04_a627", "md_file": "knowledge_base/chapters/ch04_general_assumptions.md", "md_atom_type": "HEADING", "md_parent_section": "§4.4 [Actual and Relative Time Assumptions]", "md_verbatim": "### 4.4.7 Use of Relative Timing Variables", "score": 0.9, "match_basis": "verbatim_token+chapter_route:ch04"}, {"md_atom_id": "md_ch04_a012", "md_file": "knowledge_base/chapters/ch04_general_assumptions.md", "md_atom_type": "HEADING", "md_parent_section": "§4.1 [General Domain Assumptions]", "md_verbatim": "### 4.1.3 Additional Timing Variables", "score": 0.5538, "match_basis": "verbatim_token+chapter_route:ch04"}, {"md_atom_id": "md_ch04_a775", "md_file": "knowledge_base/chapters/ch04_general_assumptions.md", "md_atom_type": "HEADING", "md_parent_section": "§4.4 [Use of Timing Variables]", "md_verbatim": "### 4.4.11 Disease Milestones and Disease Milestone Timing Variables", "score": 0.5129, "match_basis": "verbatim_token+chapter_route:ch04"}, {"md_atom_id": "md_ch04_a801", "md_file": "knowledge_base/chapters/ch04_general_assumptions.md", "md_atom_type": "HEADING", "md_parent_section": "§4.4.11 [Disease Milestones and Disease Milestone Timing Variables]", "md_verbatim": "#### Use of Disease Milestone Timing Variables with Other Timing Variables", "score": 0.5118, "match_basis": "verbatim_token+chapter_route:ch04"}, {"md_atom_id": "md_ch04_a693", "md_file": "knowledge_base/chapters/ch04_general_assumptions.md", "md_atom_type": "HEADING", "md_parent_section": "§4.4 [Use of Timing Variables]", "md_verbatim": "### 4.4.9 Use of Dates as Result Variables", "score": 0.492, "match_basis": "verbatim_token+chapter_route:ch04"}], "candidate_count": 5, "zero_candidate": false}
{"pdf_atom_id": "ig34_p0043_a009", "pdf_atom_type": "HEADING", "pdf_source": "SDTMIG_v3.4", "pdf_page": 43, "pdf_parent_section": "§4.4.7 [Use of Relative Timing Variables]", "pdf_verbatim": "--STRF and --ENRF", "figure_ref": null, "candidates": [{"md_atom_id": "md_ch04_a628", "md_file": "knowledge_base/chapters/ch04_general_assumptions.md", "md_atom_type": "HEADING", "md_parent_section": "§4.4.7 [Use of Relative Timing Variables]", "md_verbatim": "#### --STRF and --ENRF", "score": 0.9, "match_basis": "verbatim_token+chapter_route:ch04"}, {"md_atom_id": "md_ch04_a639", "md_file": "knowledge_base/chapters/ch04_general_assumptions.md", "md_atom_type": "HEADING", "md_parent_section": "§4.4.7 [Use of Relative Timing Variables]", "md_verbatim": "#### --STRTPT, --STTPT, --ENRTPT, and --ENTPT", "score": 0.4385, "match_basis": "verbatim_token+chapter_route:ch04"}, {"md_atom_id": "md_ch04_a467", "md_file": "knowledge_base/chapters/ch04_general_assumptions.md", "md_atom_type": "HEADING", "md_parent_section": "§4.3 [Coding and Controlled Terminology Assumptions]", "md_verbatim": "### 4.3.7 Use of \"Yes\" and \"No\" Values", "score": 0.3545, "match_basis": "verbatim_token+chapter_route:ch04"}, {"md_atom_id": "md_ch04_a201", "md_file": "knowledge_base/chapters/ch04_general_assumptions.md", "md_atom_type": "HEADING", "md_parent_section": "§4.2 [General Variable Assumptions]", "md_verbatim": "### 4.2.3 Use of \"Subject\" and USUBJID", "score": 0.3429, "match_basis": "verbatim_token+chapter_route:ch04"}, {"md_atom_id": "md_ch04_a547", "md_file": "knowledge_base/chapters/ch04_general_assumptions.md", "md_atom_type": "HEADING", "md_parent_section": "§4.4.3 [Intervals of Time and Use of Duration for --DUR Variables]", "md_verbatim": "#### 4.4.3.1 Intervals of Time and Use of Duration", "score": 0.3286, "match_basis": "verbatim_token+chapter_route:ch04"}, {"md_atom_id": "md_ch04_a605", "md_file": "knowledge_base/chapters/ch04_general_assumptions.md", "md_atom_type": "HEADING", "md_parent_section": "§4.4 [Actual and Relative Time Assumptions]", "md_verbatim": "### 4.4.5 Clinical Encounters and Visits", "score": 0.3261, "match_basis": "verbatim_token+chapter_route:ch04"}, {"md_atom_id": "md_ch04_a809", "md_file": "knowledge_base/chapters/ch04_general_assumptions.md", "md_atom_type": "HEADING", "md_parent_section": "§4.4.11 [Disease Milestones and Disease Milestone Timing Variables]", "md_verbatim": "#### Linking and Disease Milestones", "score": 0.3261, "match_basis": "verbatim_token+chapter_route:ch04"}, {"md_atom_id": "md_ch04_a182", "md_file": "knowledge_base/chapters/ch04_general_assumptions.md", "md_atom_type": "HEADING", "md_parent_section": "§4.2.1 [Variable-Naming Conventions]", "md_verbatim": "#### 4.2.1.1 --TEST and --TESTCD Conventions (Findings)", "score": 0.325, "match_basis": "verbatim_token+chapter_route:ch04"}, {"md_atom_id": "md_ch04_a815", "md_file": "knowledge_base/chapters/ch04_general_assumptions.md", "md_atom_type": "HEADING", "md_parent_section": "§4.5 [Other Assumptions]", "md_verbatim": "### 4.5.1 Original and Standardized Results", "score": 0.324, "match_basis": "verbatim_token+chapter_route:ch04"}, {"md_atom_id": "md_ch04_a474", "md_file": "knowledge_base/chapters/ch04_general_assumptions.md", "md_atom_type": "HEADING", "md_parent_section": "§4 [General Assumptions]", "md_verbatim": "## 4.4 Actual and Relative Time Assumptions", "score": 0.3231, "match_basis": "verbatim_token+chapter_route:ch04"}], "candidate_count": 10, "zero_candidate": false}
{"pdf_atom_id": "ig34_p0043_a010", "pdf_atom_type": "SENTENCE", "pdf_source": "SDTMIG_v3.4", "pdf_page": 43, "pdf_parent_section": "§4.4.7 [Use of Relative Timing Variables]", "pdf_verbatim": "The variables --STRF and --ENRF represent the timing of an observation relative to the sponsor-defined study reference period, when information such as \"BEFORE\", \"PRIOR\", \"ONGOING\", or \"CONTINUING\" is collected in lieu of a date and this collected information is in relation to the sponsor-defined study reference period.", "figure_ref": null, "candidates": [{"md_atom_id": "md_ch04_a629", "md_file": "knowledge_base/chapters/ch04_general_assumptions.md", "md_atom_type": "SENTENCE", "md_parent_section": "§4.4.7 [Use of Relative Timing Variables]", "md_verbatim": "The variables --STRF and --ENRF represent the timing of an observation relative to the sponsor-defined study reference period, when information such as \"BEFORE\", \"PRIOR\", \"ONGOING\", or \"CONTINUING\" is collected in lieu of a date and this collected information is in relation to the sponsor-defined study reference period.", "score": 0.9, "match_basis": "verbatim_token+chapter_route:ch04"}, {"md_atom_id": "md_ch04_a640", "md_file": "knowledge_base/chapters/ch04_general_assumptions.md", "md_atom_type": "SENTENCE", "md_parent_section": "§4.4.7 [Use of Relative Timing Variables]", "md_verbatim": "Although --STRF and --ENRF are useful when relative timing assessments are made coincident with the start and end of the study reference period, they may not be suitable for expressing relative timing assessments collected at other times of the study.", "score": 0.4852, "match_basis": "verbatim_token+chapter_route:ch04"}, {"md_atom_id": "md_ch04_a789", "md_file": "knowledge_base/chapters/ch04_general_assumptions.md", "md_atom_type": "SENTENCE", "md_parent_section": "§4.4.11 [Disease Milestones and Disease Milestone Timing Variables]", "md_verbatim": "For an observation triggered by the occurrence of a disease milestone, the relationship of the observation to the disease milestone can be represented using the disease milestone timing variables MIDS, RELMIDS, and MIDSDTC:", "score": 0.4708, "match_basis": "verbatim_token+chapter_route:ch04"}, {"md_atom_id": "md_ch04_a636", "md_file": "knowledge_base/chapters/ch04_general_assumptions.md", "md_atom_type": "SENTENCE", "md_parent_section": "§4.4.7 [Use of Relative Timing Variables]", "md_verbatim": "Note that in this example, the information collected is with respect to the start of the concomitant medication use only, and therefore the collected data corresponds to variable CMSTRF, not CMENRF.", "score": 0.4614, "match_basis": "verbatim_token+chapter_route:ch04"}, {"md_atom_id": "md_ch04_a810", "md_file": "knowledge_base/chapters/ch04_general_assumptions.md", "md_atom_type": "SENTENCE", "md_parent_section": "§4.4.11 [Disease Milestones and Disease Milestone Timing Variables]", "md_verbatim": "When disease milestones have been defined for a study, the MIDS variable serves to link observations associated with a disease milestone in a way similar to how VISITNUM links observations collected at a visit.", "score": 0.4594, "match_basis": "verbatim_token+chapter_route:ch04"}], "candidate_count": 5, "zero_candidate": false}
{"pdf_atom_id": "ig34_p0043_a011", "pdf_atom_type": "SENTENCE", "pdf_source": "SDTMIG_v3.4", "pdf_page": 43, "pdf_parent_section": "§4.4.7 [Use of Relative Timing Variables]", "pdf_verbatim": "The sponsor-defined study reference period is the continuous period of time defined by the discrete starting point, RFSTDTC, and the discrete ending point, RFENDTC, for each subject in the Demographics (DM) dataset.", "figure_ref": null, "candidates": [{"md_atom_id": "md_ch04_a630", "md_file": "knowledge_base/chapters/ch04_general_assumptions.md", "md_atom_type": "SENTENCE", "md_parent_section": "§4.4.7 [Use of Relative Timing Variables]", "md_verbatim": "The sponsor-defined study reference period is the continuous period of time defined by the discrete starting point, RFSTDTC, and the discrete ending point, RFENDTC, for each subject in the Demographics (DM) dataset.", "score": 0.9, "match_basis": "verbatim_token+chapter_route:ch04"}, {"md_atom_id": "md_ch04_a026", "md_file": "knowledge_base/chapters/ch04_general_assumptions.md", "md_atom_type": "SENTENCE", "md_parent_section": "§4.1.3.1 [EPOCH Variable Guidance]", "md_verbatim": "Note that a subject's participation in a study includes screening, which generally occurs before the reference start date (RFSTDTC) in the Demographics (DM) domain.", "score": 0.4875, "match_basis": "verbatim_token+chapter_route:ch04"}, {"md_atom_id": "md_ch04_a629", "md_file": "knowledge_base/chapters/ch04_general_assumptions.md", "md_atom_type": "SENTENCE", "md_parent_section": "§4.4.7 [Use of Relative Timing Variables]", "md_verbatim": "The variables --STRF and --ENRF represent the timing of an observation relative to the sponsor-defined study reference period, when information such as \"BEFORE\", \"PRIOR\", \"ONGOING\", or \"CONTINUING\" is collected in lieu of a date and this collected information is in relation to the sponsor-defined study reference period.", "score": 0.45, "match_basis": "verbatim_token+chapter_route:ch04"}, {"md_atom_id": "md_ch04_a778", "md_file": "knowledge_base/chapters/ch04_general_assumptions.md", "md_atom_type": "SENTENCE", "md_parent_section": "§4.4.11 [Disease Milestones and Disease Milestone Timing Variables]", "md_verbatim": "The types of disease milestones for a study are defined in the study-level Trial Disease Milestones (TM) dataset; the times at which disease milestones occurred for a particular subject are summarized in the special-purpose Subject Disease Milestones (SM) domain.", "score": 0.4106, "match_basis": "verbatim_token+chapter_route:ch04"}, {"md_atom_id": "md_ch04_a640", "md_file": "knowledge_base/chapters/ch04_general_assumptions.md", "md_atom_type": "SENTENCE", "md_parent_section": "§4.4.7 [Use of Relative Timing Variables]", "md_verbatim": "Although --STRF and --ENRF are useful when relative timing assessments are made coincident with the start and end of the study reference period, they may not be suitable for expressing relative timing assessments collected at other times of the study.", "score": 0.4026, "match_basis": "verbatim_token+chapter_route:ch04"}], "candidate_count": 5, "zero_candidate": false}
{"pdf_atom_id": "ig34_p0043_a012", "pdf_atom_type": "SENTENCE", "pdf_source": "SDTMIG_v3.4", "pdf_page": 43, "pdf_parent_section": "§4.4.7 [Use of Relative Timing Variables]", "pdf_verbatim": "--STRF is used to identify the start of an observation relative to the sponsor-defined study reference period.", "figure_ref": null, "candidates": [{"md_atom_id": "md_ch04_a629", "md_file": "knowledge_base/chapters/ch04_general_assumptions.md", "md_atom_type": "SENTENCE", "md_parent_section": "§4.4.7 [Use of Relative Timing Variables]", "md_verbatim": "The variables --STRF and --ENRF represent the timing of an observation relative to the sponsor-defined study reference period, when information such as \"BEFORE\", \"PRIOR\", \"ONGOING\", or \"CONTINUING\" is collected in lieu of a date and this collected information is in relation to the sponsor-defined study reference period.", "score": 0.5345, "match_basis": "verbatim_token+chapter_route:ch04"}, {"md_atom_id": "md_ch04_a630", "md_file": "knowledge_base/chapters/ch04_general_assumptions.md", "md_atom_type": "SENTENCE", "md_parent_section": "§4.4.7 [Use of Relative Timing Variables]", "md_verbatim": "The sponsor-defined study reference period is the continuous period of time defined by the discrete starting point, RFSTDTC, and the discrete ending point, RFENDTC, for each subject in the Demographics (DM) dataset.", "score": 0.4626, "match_basis": "verbatim_token+chapter_route:ch04"}, {"md_atom_id": "md_ch04_a640", "md_file": "knowledge_base/chapters/ch04_general_assumptions.md", "md_atom_type": "SENTENCE", "md_parent_section": "§4.4.7 [Use of Relative Timing Variables]", "md_verbatim": "Although --STRF and --ENRF are useful when relative timing assessments are made coincident with the start and end of the study reference period, they may not be suitable for expressing relative timing assessments collected at other times of the study.", "score": 0.4552, "match_basis": "verbatim_token+chapter_route:ch04"}, {"md_atom_id": "md_ch04_a635", "md_file": "knowledge_base/chapters/ch04_general_assumptions.md", "md_atom_type": "SENTENCE", "md_parent_section": "§4.4.7 [Use of Relative Timing Variables]", "md_verbatim": "As an example, a CRF checkbox that identifies concomitant medication use that began prior to the study reference period would translate into CMSTRF = \"BEFORE\", if selected.", "score": 0.4459, "match_basis": "verbatim_token+chapter_route:ch04"}, {"md_atom_id": "md_ch04_a755", "md_file": "knowledge_base/chapters/ch04_general_assumptions.md", "md_atom_type": "SENTENCE", "md_parent_section": "§4.4.10 [Representing Time Points]", "md_verbatim": "Option 2 — VISITNUM designates period and day within period; --TPTREF designates dose within the day; --TPTNUM designates timing relative to reference time point:", "score": 0.4364, "match_basis": "verbatim_token+chapter_route:ch04"}], "candidate_count": 5, "zero_candidate": false}
{"pdf_atom_id": "ig34_p0043_a013", "pdf_atom_type": "SENTENCE", "pdf_source": "SDTMIG_v3.4", "pdf_page": 43, "pdf_parent_section": "§4.4.7 [Use of Relative Timing Variables]", "pdf_verbatim": "--ENRF is used to identify the end of an observation relative to the sponsor-defined study reference period.", "figure_ref": null, "candidates": [{"md_atom_id": "md_ch04_a629", "md_file": "knowledge_base/chapters/ch04_general_assumptions.md", "md_atom_type": "SENTENCE", "md_parent_section": "§4.4.7 [Use of Relative Timing Variables]", "md_verbatim": "The variables --STRF and --ENRF represent the timing of an observation relative to the sponsor-defined study reference period, when information such as \"BEFORE\", \"PRIOR\", \"ONGOING\", or \"CONTINUING\" is collected in lieu of a date and this collected information is in relation to the sponsor-defined study reference period.", "score": 0.5389, "match_basis": "verbatim_token+chapter_route:ch04"}, {"md_atom_id": "md_ch04_a630", "md_file": "knowledge_base/chapters/ch04_general_assumptions.md", "md_atom_type": "SENTENCE", "md_parent_section": "§4.4.7 [Use of Relative Timing Variables]", "md_verbatim": "The sponsor-defined study reference period is the continuous period of time defined by the discrete starting point, RFSTDTC, and the discrete ending point, RFENDTC, for each subject in the Demographics (DM) dataset.", "score": 0.4514, "match_basis": "verbatim_token+chapter_route:ch04"}, {"md_atom_id": "md_ch04_a640", "md_file": "knowledge_base/chapters/ch04_general_assumptions.md", "md_atom_type": "SENTENCE", "md_parent_section": "§4.4.7 [Use of Relative Timing Variables]", "md_verbatim": "Although --STRF and --ENRF are useful when relative timing assessments are made coincident with the start and end of the study reference period, they may not be suitable for expressing relative timing assessments collected at other times of the study.", "score": 0.4448, "match_basis": "verbatim_token+chapter_route:ch04"}, {"md_atom_id": "md_ch04_a755", "md_file": "knowledge_base/chapters/ch04_general_assumptions.md", "md_atom_type": "SENTENCE", "md_parent_section": "§4.4.10 [Representing Time Points]", "md_verbatim": "Option 2 — VISITNUM designates period and day within period; --TPTREF designates dose within the day; --TPTNUM designates timing relative to reference time point:", "score": 0.4395, "match_basis": "verbatim_token+chapter_route:ch04"}, {"md_atom_id": "md_ch04_a735", "md_file": "knowledge_base/chapters/ch04_general_assumptions.md", "md_atom_type": "SENTENCE", "md_parent_section": "§4.4.10 [Representing Time Points]", "md_verbatim": "Option 1 — VISITNUM designates period; --TPTREF designates day and dose; --TPTNUM designates timing relative to reference time point:", "score": 0.439, "match_basis": "verbatim_token+chapter_route:ch04"}], "candidate_count": 5, "zero_candidate": false}
{"pdf_atom_id": "ig34_p0043_a014", "pdf_atom_type": "SENTENCE", "pdf_source": "SDTMIG_v3.4", "pdf_page": 43, "pdf_parent_section": "§4.4.7 [Use of Relative Timing Variables]", "pdf_verbatim": "Allowable values for --STRF are \"BEFORE\", \"DURING\", \"DURING/AFTER\", \"AFTER\", and \"UNKNOWN\".", "figure_ref": null, "candidates": [{"md_atom_id": "md_ch04_a598", "md_file": "knowledge_base/chapters/ch04_general_assumptions.md", "md_atom_type": "SENTENCE", "md_parent_section": "§4.4.3.2 [Interval with Uncertainty]", "md_verbatim": "where the duration \"Pn...\" is represented before the solidus [/], the end date/time is represented following the solidus, and the entire representation is known as an \"interval.\"", "score": 0.4183, "match_basis": "verbatim_token+chapter_route:ch04"}, {"md_atom_id": "md_ch04_a594", "md_file": "knowledge_base/chapters/ch04_general_assumptions.md", "md_atom_type": "SENTENCE", "md_parent_section": "§4.4.3.2 [Interval with Uncertainty]", "md_verbatim": "where the start date/time is represented before the solidus [/], the \"Pn...\" following the solidus represents a \"duration,\" and the entire representation is known as an \"interval.\"", "score": 0.4135, "match_basis": "verbatim_token+chapter_route:ch04"}, {"md_atom_id": "md_ch04_a128", "md_file": "knowledge_base/chapters/ch04_general_assumptions.md", "md_atom_type": "SENTENCE", "md_parent_section": "§4.1.8.1 [Origin Metadata for Variables]", "md_verbatim": "The Define-XML specification is the definitive source of allowable origin values.", "score": 0.4082, "match_basis": "verbatim_token+chapter_route:ch04"}, {"md_atom_id": "md_ch04_a238", "md_file": "knowledge_base/chapters/ch04_general_assumptions.md", "md_atom_type": "SENTENCE", "md_parent_section": "§4.2.6 [Grouping Variables and Categorization]", "md_verbatim": "Unlike --CAT and --SCAT, --GRPID values are not intended to have any meaning across subjects and are usually assigned during or after data collection.", "score": 0.4012, "match_basis": "verbatim_token+chapter_route:ch04"}, {"md_atom_id": "md_ch04_a557", "md_file": "knowledge_base/chapters/ch04_general_assumptions.md", "md_atom_type": "SENTENCE", "md_parent_section": "§4.4.3.1 [Intervals of Time and Use of Duration]", "md_verbatim": "The values provided in --DUR should follow 1 of the following ISO 8601 duration formats:", "score": 0.3931, "match_basis": "verbatim_token+chapter_route:ch04"}], "candidate_count": 5, "zero_candidate": false}
{"pdf_atom_id": "ig34_p0043_a015", "pdf_atom_type": "SENTENCE", "pdf_source": "SDTMIG_v3.4", "pdf_page": 43, "pdf_parent_section": "§4.4.7 [Use of Relative Timing Variables]", "pdf_verbatim": "Although \"COINCIDENT\" and \"ONGOING\" are in the STENRF codelist, they describe timing relative to a point in time rather than an interval of time, so are not appropriate for use with --STRF variables.", "figure_ref": null, "candidates": [{"md_atom_id": "md_ch04_a634", "md_file": "knowledge_base/chapters/ch04_general_assumptions.md", "md_atom_type": "SENTENCE", "md_parent_section": "§4.4.7 [Use of Relative Timing Variables]", "md_verbatim": "**Important restriction on --ENRF:** Although \"COINCIDENT\" and \"ONGOING\" are in the STENRF codelist, they describe timing relative to a point in time rather than an interval of time, so are **not appropriate for use with --ENRF variables**.", "score": 0.801, "match_basis": "verbatim_token+chapter_route:ch04"}, {"md_atom_id": "md_ch04_a649", "md_file": "knowledge_base/chapters/ch04_general_assumptions.md", "md_atom_type": "NOTE", "md_parent_section": "§4.4.7 [Use of Relative Timing Variables]", "md_verbatim": "**Note:** \"DURING\" and \"DURING/AFTER\" are in the STENRF codelist but describe timing relative to an interval of time rather than a point in time, so are **not allowable for use with --STRTPT and --ENRTPT** variables.", "score": 0.5529, "match_basis": "verbatim_token+chapter_route:ch04"}, {"md_atom_id": "md_ch04_a640", "md_file": "knowledge_base/chapters/ch04_general_assumptions.md", "md_atom_type": "SENTENCE", "md_parent_section": "§4.4.7 [Use of Relative Timing Variables]", "md_verbatim": "Although --STRF and --ENRF are useful when relative timing assessments are made coincident with the start and end of the study reference period, they may not be suitable for expressing relative timing assessments collected at other times of the study.", "score": 0.4822, "match_basis": "verbatim_token+chapter_route:ch04"}, {"md_atom_id": "md_ch04_a641", "md_file": "knowledge_base/chapters/ch04_general_assumptions.md", "md_atom_type": "SENTENCE", "md_parent_section": "§4.4.7 [Use of Relative Timing Variables]", "md_verbatim": "The variables --STRTPT and --ENRTPT contain values similar to --STRF and --ENRF, but may be anchored with any timing description or date/time value expressed in the respective --STTPT and --ENTPT variables.", "score": 0.4359, "match_basis": "verbatim_token+chapter_route:ch04"}, {"md_atom_id": "md_ch04_a687", "md_file": "knowledge_base/chapters/ch04_general_assumptions.md", "md_atom_type": "SENTENCE", "md_parent_section": "§4.4.8 [Date and Time Reported in a Domain Based on Findings]", "md_verbatim": "This approach allows the single-point and interval collections to use the same date/time variables consistently across all datasets for the Findings general observation class.", "score": 0.4358, "match_basis": "verbatim_token+chapter_route:ch04"}], "candidate_count": 5, "zero_candidate": false}
{"pdf_atom_id": "ig34_p0043_a016", "pdf_atom_type": "SENTENCE", "pdf_source": "SDTMIG_v3.4", "pdf_page": 43, "pdf_parent_section": "§4.4.7 [Use of Relative Timing Variables]", "pdf_verbatim": "It would be unusual for an event or intervention to be recorded as starting \"AFTER\" the study reference period, but could be possible, depending on how the study reference period is defined in a particular study.", "figure_ref": null, "candidates": [{"md_atom_id": "md_ch04_a630", "md_file": "knowledge_base/chapters/ch04_general_assumptions.md", "md_atom_type": "SENTENCE", "md_parent_section": "§4.4.7 [Use of Relative Timing Variables]", "md_verbatim": "The sponsor-defined study reference period is the continuous period of time defined by the discrete starting point, RFSTDTC, and the discrete ending point, RFENDTC, for each subject in the Demographics (DM) dataset.", "score": 0.4512, "match_basis": "verbatim_token+chapter_route:ch04"}, {"md_atom_id": "md_ch04_a024", "md_file": "knowledge_base/chapters/ch04_general_assumptions.md", "md_atom_type": "SENTENCE", "md_parent_section": "§4.1.3.1 [EPOCH Variable Guidance]", "md_verbatim": "Because EPOCH is a study-design construct, it is not applicable to interventions or events that started before the subject's participation in a study, nor to findings performed before participation in a study.", "score": 0.4313, "match_basis": "verbatim_token+chapter_route:ch04"}, {"md_atom_id": "md_ch04_a019", "md_file": "knowledge_base/chapters/ch04_general_assumptions.md", "md_atom_type": "SENTENCE", "md_parent_section": "§4.1.3.1 [EPOCH Variable Guidance]", "md_verbatim": "A possible, though unlikely, exception would be a finding based on an interval specimen collection that started in one epoch but ended in another.", "score": 0.4289, "match_basis": "verbatim_token+chapter_route:ch04"}, {"md_atom_id": "md_ch04_a811", "md_file": "knowledge_base/chapters/ch04_general_assumptions.md", "md_atom_type": "SENTENCE", "md_parent_section": "§4.4.11 [Disease Milestones and Disease Milestone Timing Variables]", "md_verbatim": "If disease milestones were not defined for the study, it would be possible to link records associated with a disease milestone using RELREC, but the use of disease milestones has certain advantages over RELREC:", "score": 0.4248, "match_basis": "verbatim_token+chapter_route:ch04"}, {"md_atom_id": "md_ch04_a342", "md_file": "knowledge_base/chapters/ch04_general_assumptions.md", "md_atom_type": "SENTENCE", "md_parent_section": "§4.2.7.4 [\"Specify\" Values for --OBJ]", "md_verbatim": "As illustrated in the following figure, when findings are collected about an event or intervention, and the name of the event or intervention is collected in an \"Other, specify\" CRF field, the value in --OBJ variable depends on whether the Findings record has a parent record and whether the \"Other, specify\" value was coded.", "score": 0.4226, "match_basis": "verbatim_token+chapter_route:ch04"}], "candidate_count": 5, "zero_candidate": false}
{"pdf_atom_id": "ig34_p0043_a017", "pdf_atom_type": "SENTENCE", "pdf_source": "SDTMIG_v3.4", "pdf_page": 43, "pdf_parent_section": "§4.4.7 [Use of Relative Timing Variables]", "pdf_verbatim": "Allowable values for --ENRF are \"BEFORE\", \"DURING\", \"DURING/AFTER\", \"AFTER\" and \"UNKNOWN\".", "figure_ref": null, "candidates": [{"md_atom_id": "md_ch04_a598", "md_file": "knowledge_base/chapters/ch04_general_assumptions.md", "md_atom_type": "SENTENCE", "md_parent_section": "§4.4.3.2 [Interval with Uncertainty]", "md_verbatim": "where the duration \"Pn...\" is represented before the solidus [/], the end date/time is represented following the solidus, and the entire representation is known as an \"interval.\"", "score": 0.4183, "match_basis": "verbatim_token+chapter_route:ch04"}, {"md_atom_id": "md_ch04_a594", "md_file": "knowledge_base/chapters/ch04_general_assumptions.md", "md_atom_type": "SENTENCE", "md_parent_section": "§4.4.3.2 [Interval with Uncertainty]", "md_verbatim": "where the start date/time is represented before the solidus [/], the \"Pn...\" following the solidus represents a \"duration,\" and the entire representation is known as an \"interval.\"", "score": 0.4135, "match_basis": "verbatim_token+chapter_route:ch04"}, {"md_atom_id": "md_ch04_a128", "md_file": "knowledge_base/chapters/ch04_general_assumptions.md", "md_atom_type": "SENTENCE", "md_parent_section": "§4.1.8.1 [Origin Metadata for Variables]", "md_verbatim": "The Define-XML specification is the definitive source of allowable origin values.", "score": 0.4082, "match_basis": "verbatim_token+chapter_route:ch04"}, {"md_atom_id": "md_ch04_a238", "md_file": "knowledge_base/chapters/ch04_general_assumptions.md", "md_atom_type": "SENTENCE", "md_parent_section": "§4.2.6 [Grouping Variables and Categorization]", "md_verbatim": "Unlike --CAT and --SCAT, --GRPID values are not intended to have any meaning across subjects and are usually assigned during or after data collection.", "score": 0.4012, "match_basis": "verbatim_token+chapter_route:ch04"}, {"md_atom_id": "md_ch04_a557", "md_file": "knowledge_base/chapters/ch04_general_assumptions.md", "md_atom_type": "SENTENCE", "md_parent_section": "§4.4.3.1 [Intervals of Time and Use of Duration]", "md_verbatim": "The values provided in --DUR should follow 1 of the following ISO 8601 duration formats:", "score": 0.3931, "match_basis": "verbatim_token+chapter_route:ch04"}], "candidate_count": 5, "zero_candidate": false}
{"pdf_atom_id": "ig34_p0043_a018", "pdf_atom_type": "SENTENCE", "pdf_source": "SDTMIG_v3.4", "pdf_page": 43, "pdf_parent_section": "§4.4.7 [Use of Relative Timing Variables]", "pdf_verbatim": "If --ENRF is used, then --ENRF = \"AFTER\" means that the event did not end before or during the study reference period.", "figure_ref": null, "candidates": [{"md_atom_id": "md_ch04_a662", "md_file": "knowledge_base/chapters/ch04_general_assumptions.md", "md_atom_type": "SENTENCE", "md_parent_section": "§4.4.7 [Use of Relative Timing Variables]", "md_verbatim": "*Medical event began in 2002 and was ongoing at the reference time point of 2006-11-02. The event may or may not have ended at any time after that.*", "score": 0.4652, "match_basis": "verbatim_token+chapter_route:ch04"}, {"md_atom_id": "md_ch04_a635", "md_file": "knowledge_base/chapters/ch04_general_assumptions.md", "md_atom_type": "SENTENCE", "md_parent_section": "§4.4.7 [Use of Relative Timing Variables]", "md_verbatim": "As an example, a CRF checkbox that identifies concomitant medication use that began prior to the study reference period would translate into CMSTRF = \"BEFORE\", if selected.", "score": 0.4385, "match_basis": "verbatim_token+chapter_route:ch04"}, {"md_atom_id": "md_ch04_a640", "md_file": "knowledge_base/chapters/ch04_general_assumptions.md", "md_atom_type": "SENTENCE", "md_parent_section": "§4.4.7 [Use of Relative Timing Variables]", "md_verbatim": "Although --STRF and --ENRF are useful when relative timing assessments are made coincident with the start and end of the study reference period, they may not be suitable for expressing relative timing assessments collected at other times of the study.", "score": 0.4286, "match_basis": "verbatim_token+chapter_route:ch04"}, {"md_atom_id": "md_ch04_a629", "md_file": "knowledge_base/chapters/ch04_general_assumptions.md", "md_atom_type": "SENTENCE", "md_parent_section": "§4.4.7 [Use of Relative Timing Variables]", "md_verbatim": "The variables --STRF and --ENRF represent the timing of an observation relative to the sponsor-defined study reference period, when information such as \"BEFORE\", \"PRIOR\", \"ONGOING\", or \"CONTINUING\" is collected in lieu of a date and this collected information is in relation to the sponsor-defined study reference period.", "score": 0.421, "match_basis": "verbatim_token+chapter_route:ch04"}, {"md_atom_id": "md_ch04_a648", "md_file": "knowledge_base/chapters/ch04_general_assumptions.md", "md_atom_type": "SENTENCE", "md_parent_section": "§4.4.7 [Use of Relative Timing Variables]", "md_verbatim": "If the reference time point is prior to the date of collection or assessment, AFTER is valid for --STRTPT.", "score": 0.4151, "match_basis": "verbatim_token+chapter_route:ch04"}], "candidate_count": 5, "zero_candidate": false}
{"pdf_atom_id": "ig34_p0043_a019", "pdf_atom_type": "SENTENCE", "pdf_source": "SDTMIG_v3.4", "pdf_page": 43, "pdf_parent_section": "§4.4.7 [Use of Relative Timing Variables]", "pdf_verbatim": "Although \"COINCIDENT\" and \"ONGOING\" are in the STENRF codelist, they describe timing relative to a point in time rather than an interval of time, so are not appropriate for use with --ENRF variables.", "figure_ref": null, "candidates": [{"md_atom_id": "md_ch04_a634", "md_file": "knowledge_base/chapters/ch04_general_assumptions.md", "md_atom_type": "SENTENCE", "md_parent_section": "§4.4.7 [Use of Relative Timing Variables]", "md_verbatim": "**Important restriction on --ENRF:** Although \"COINCIDENT\" and \"ONGOING\" are in the STENRF codelist, they describe timing relative to a point in time rather than an interval of time, so are **not appropriate for use with --ENRF variables**.", "score": 0.8, "match_basis": "verbatim_token+chapter_route:ch04"}, {"md_atom_id": "md_ch04_a649", "md_file": "knowledge_base/chapters/ch04_general_assumptions.md", "md_atom_type": "NOTE", "md_parent_section": "§4.4.7 [Use of Relative Timing Variables]", "md_verbatim": "**Note:** \"DURING\" and \"DURING/AFTER\" are in the STENRF codelist but describe timing relative to an interval of time rather than a point in time, so are **not allowable for use with --STRTPT and --ENRTPT** variables.", "score": 0.5502, "match_basis": "verbatim_token+chapter_route:ch04"}, {"md_atom_id": "md_ch04_a640", "md_file": "knowledge_base/chapters/ch04_general_assumptions.md", "md_atom_type": "SENTENCE", "md_parent_section": "§4.4.7 [Use of Relative Timing Variables]", "md_verbatim": "Although --STRF and --ENRF are useful when relative timing assessments are made coincident with the start and end of the study reference period, they may not be suitable for expressing relative timing assessments collected at other times of the study.", "score": 0.4733, "match_basis": "verbatim_token+chapter_route:ch04"}, {"md_atom_id": "md_ch04_a687", "md_file": "knowledge_base/chapters/ch04_general_assumptions.md", "md_atom_type": "SENTENCE", "md_parent_section": "§4.4.8 [Date and Time Reported in a Domain Based on Findings]", "md_verbatim": "This approach allows the single-point and interval collections to use the same date/time variables consistently across all datasets for the Findings general observation class.", "score": 0.4378, "match_basis": "verbatim_token+chapter_route:ch04"}, {"md_atom_id": "md_ch04_a694", "md_file": "knowledge_base/chapters/ch04_general_assumptions.md", "md_atom_type": "SENTENCE", "md_parent_section": "§4.4.9 [Use of Dates as Result Variables]", "md_verbatim": "Dates are generally used only as timing variables to describe the timing of an event, intervention, or collection activity, but there may be occasions when it may be preferable to model a date as a result (--ORRES) in a Findings dataset.", "score": 0.4286, "match_basis": "verbatim_token+chapter_route:ch04"}], "candidate_count": 5, "zero_candidate": false}
{"pdf_atom_id": "ig34_p0043_a020", "pdf_atom_type": "SENTENCE", "pdf_source": "SDTMIG_v3.4", "pdf_page": 43, "pdf_parent_section": "§4.4.7 [Use of Relative Timing Variables]", "pdf_verbatim": "As an example, a CRF checkbox that identifies concomitant medication use that began prior to the study reference period would translate into CMSTRF = \"BEFORE\", if selected.", "figure_ref": null, "candidates": [{"md_atom_id": "md_ch04_a635", "md_file": "knowledge_base/chapters/ch04_general_assumptions.md", "md_atom_type": "SENTENCE", "md_parent_section": "§4.4.7 [Use of Relative Timing Variables]", "md_verbatim": "As an example, a CRF checkbox that identifies concomitant medication use that began prior to the study reference period would translate into CMSTRF = \"BEFORE\", if selected.", "score": 0.9, "match_basis": "verbatim_token+chapter_route:ch04"}, {"md_atom_id": "md_ch04_a636", "md_file": "knowledge_base/chapters/ch04_general_assumptions.md", "md_atom_type": "SENTENCE", "md_parent_section": "§4.4.7 [Use of Relative Timing Variables]", "md_verbatim": "Note that in this example, the information collected is with respect to the start of the concomitant medication use only, and therefore the collected data corresponds to variable CMSTRF, not CMENRF.", "score": 0.48, "match_basis": "verbatim_token+chapter_route:ch04"}, {"md_atom_id": "md_ch04_a253", "md_file": "knowledge_base/chapters/ch04_general_assumptions.md", "md_atom_type": "SENTENCE", "md_parent_section": "§4.2.6 [Grouping Variables and Categorization]", "md_verbatim": "For example, a concomitant medication administered as part of a known combination therapy for all subjects (e.g., \"Mayo Clinic Regimen\") would more appropriately use --CAT/--SCAT to identify the medication as part of that regimen.", "score": 0.4752, "match_basis": "verbatim_token+chapter_route:ch04"}, {"md_atom_id": "md_ch04_a663", "md_file": "knowledge_base/chapters/ch04_general_assumptions.md", "md_atom_type": "SENTENCE", "md_parent_section": "§4.4.7 [Use of Relative Timing Variables]", "md_verbatim": "**Example 2: Prior and Concomitant Medications**", "score": 0.4705, "match_basis": "verbatim_token+chapter_route:ch04"}, {"md_atom_id": "md_ch04_a664", "md_file": "knowledge_base/chapters/ch04_general_assumptions.md", "md_atom_type": "SENTENCE", "md_parent_section": "§4.4.7 [Use of Relative Timing Variables]", "md_verbatim": "CRF includes \"Start Date\" and \"Stop Date\", and checkboxes for \"Prior\" (if start date was before screening visit and unknown/uncollected) and \"Continuing\" (if medication had not stopped as of the final study visit).", "score": 0.4522, "match_basis": "verbatim_token+chapter_route:ch04"}], "candidate_count": 5, "zero_candidate": false}
{"pdf_atom_id": "ig34_p0043_a021", "pdf_atom_type": "SENTENCE", "pdf_source": "SDTMIG_v3.4", "pdf_page": 43, "pdf_parent_section": "§4.4.7 [Use of Relative Timing Variables]", "pdf_verbatim": "Note that in this example, the information collected is with respect to the start of the concomitant medication use only, and therefore the collected data corresponds to variable CMSTRF, not CMENRF.", "figure_ref": null, "candidates": [{"md_atom_id": "md_ch04_a636", "md_file": "knowledge_base/chapters/ch04_general_assumptions.md", "md_atom_type": "SENTENCE", "md_parent_section": "§4.4.7 [Use of Relative Timing Variables]", "md_verbatim": "Note that in this example, the information collected is with respect to the start of the concomitant medication use only, and therefore the collected data corresponds to variable CMSTRF, not CMENRF.", "score": 0.9, "match_basis": "verbatim_token+chapter_route:ch04"}, {"md_atom_id": "md_ch04_a277", "md_file": "knowledge_base/chapters/ch04_general_assumptions.md", "md_atom_type": "SENTENCE", "md_parent_section": "§4.2.7.1 [\"Specify\" Values for Non-Result Qualifier Variables]", "md_verbatim": "For example, consider a CRF that collects the indication for an analgesic concomitant medication (CMINDC) using a list of prespecified values and an \"Other, specify\" field:", "score": 0.4835, "match_basis": "verbatim_token+chapter_route:ch04"}, {"md_atom_id": "md_ch04_a635", "md_file": "knowledge_base/chapters/ch04_general_assumptions.md", "md_atom_type": "SENTENCE", "md_parent_section": "§4.4.7 [Use of Relative Timing Variables]", "md_verbatim": "As an example, a CRF checkbox that identifies concomitant medication use that began prior to the study reference period would translate into CMSTRF = \"BEFORE\", if selected.", "score": 0.48, "match_basis": "verbatim_token+chapter_route:ch04"}, {"md_atom_id": "md_ch04_a629", "md_file": "knowledge_base/chapters/ch04_general_assumptions.md", "md_atom_type": "SENTENCE", "md_parent_section": "§4.4.7 [Use of Relative Timing Variables]", "md_verbatim": "The variables --STRF and --ENRF represent the timing of an observation relative to the sponsor-defined study reference period, when information such as \"BEFORE\", \"PRIOR\", \"ONGOING\", or \"CONTINUING\" is collected in lieu of a date and this collected information is in relation to the sponsor-defined study reference period.", "score": 0.4614, "match_basis": "verbatim_token+chapter_route:ch04"}, {"md_atom_id": "md_ch04_a663", "md_file": "knowledge_base/chapters/ch04_general_assumptions.md", "md_atom_type": "SENTENCE", "md_parent_section": "§4.4.7 [Use of Relative Timing Variables]", "md_verbatim": "**Example 2: Prior and Concomitant Medications**", "score": 0.4586, "match_basis": "verbatim_token+chapter_route:ch04"}], "candidate_count": 5, "zero_candidate": false}
{"pdf_atom_id": "ig34_p0043_a022", "pdf_atom_type": "SENTENCE", "pdf_source": "SDTMIG_v3.4", "pdf_page": 43, "pdf_parent_section": "§4.4.7 [Use of Relative Timing Variables]", "pdf_verbatim": "Note also that the information collected is relative to the study reference period, which meets the definition of CMSTRF.", "figure_ref": null, "candidates": [{"md_atom_id": "md_ch04_a629", "md_file": "knowledge_base/chapters/ch04_general_assumptions.md", "md_atom_type": "SENTENCE", "md_parent_section": "§4.4.7 [Use of Relative Timing Variables]", "md_verbatim": "The variables --STRF and --ENRF represent the timing of an observation relative to the sponsor-defined study reference period, when information such as \"BEFORE\", \"PRIOR\", \"ONGOING\", or \"CONTINUING\" is collected in lieu of a date and this collected information is in relation to the sponsor-defined study reference period.", "score": 0.5085, "match_basis": "verbatim_token+chapter_route:ch04"}, {"md_atom_id": "md_ch04_a640", "md_file": "knowledge_base/chapters/ch04_general_assumptions.md", "md_atom_type": "SENTENCE", "md_parent_section": "§4.4.7 [Use of Relative Timing Variables]", "md_verbatim": "Although --STRF and --ENRF are useful when relative timing assessments are made coincident with the start and end of the study reference period, they may not be suitable for expressing relative timing assessments collected at other times of the study.", "score": 0.46, "match_basis": "verbatim_token+chapter_route:ch04"}, {"md_atom_id": "md_ch04_a635", "md_file": "knowledge_base/chapters/ch04_general_assumptions.md", "md_atom_type": "SENTENCE", "md_parent_section": "§4.4.7 [Use of Relative Timing Variables]", "md_verbatim": "As an example, a CRF checkbox that identifies concomitant medication use that began prior to the study reference period would translate into CMSTRF = \"BEFORE\", if selected.", "score": 0.4579, "match_basis": "verbatim_token+chapter_route:ch04"}, {"md_atom_id": "md_ch04_a636", "md_file": "knowledge_base/chapters/ch04_general_assumptions.md", "md_atom_type": "SENTENCE", "md_parent_section": "§4.4.7 [Use of Relative Timing Variables]", "md_verbatim": "Note that in this example, the information collected is with respect to the start of the concomitant medication use only, and therefore the collected data corresponds to variable CMSTRF, not CMENRF.", "score": 0.4421, "match_basis": "verbatim_token+chapter_route:ch04"}, {"md_atom_id": "md_ch04_a674", "md_file": "knowledge_base/chapters/ch04_general_assumptions.md", "md_atom_type": "SENTENCE", "md_parent_section": "§4.4.7 [Use of Relative Timing Variables]", "md_verbatim": "No assessment date or visit information was collected.", "score": 0.4333, "match_basis": "verbatim_token+chapter_route:ch04"}], "candidate_count": 5, "zero_candidate": false}
{"pdf_atom_id": "ig34_p0043_a023", "pdf_atom_type": "SENTENCE", "pdf_source": "SDTMIG_v3.4", "pdf_page": 43, "pdf_parent_section": "§4.4.7 [Use of Relative Timing Variables]", "pdf_verbatim": "Some sponsors may wish to derive --STRF and --ENRF for analysis or reporting purposes even when dates are collected.", "figure_ref": null, "candidates": [{"md_atom_id": "md_ch04_a637", "md_file": "knowledge_base/chapters/ch04_general_assumptions.md", "md_atom_type": "SENTENCE", "md_parent_section": "§4.4.7 [Use of Relative Timing Variables]", "md_verbatim": "**Caution on mixing collected and derived values:** Sponsors are cautioned that deriving --STRF and --ENRF for analysis or reporting purposes even when dates are collected may blur the distinction between collected and derived values within the domain.", "score": 0.6187, "match_basis": "verbatim_token+chapter_route:ch04"}, {"md_atom_id": "md_ch04_a132", "md_file": "knowledge_base/chapters/ch04_general_assumptions.md", "md_atom_type": "SENTENCE", "md_parent_section": "§4.1.8.2 [Origin Metadata for Records]", "md_verbatim": "In some cases, both collected and derived values may be reported in the same field.", "score": 0.469, "match_basis": "verbatim_token+chapter_route:ch04"}, {"md_atom_id": "md_ch04_a638", "md_file": "knowledge_base/chapters/ch04_general_assumptions.md", "md_atom_type": "SENTENCE", "md_parent_section": "§4.4.7 [Use of Relative Timing Variables]", "md_verbatim": "Sponsors wishing to do such derivations are instead encouraged to use analysis datasets for this derived data.", "score": 0.4535, "match_basis": "verbatim_token+chapter_route:ch04"}, {"md_atom_id": "md_ch04_a470", "md_file": "knowledge_base/chapters/ch04_general_assumptions.md", "md_atom_type": "SENTENCE", "md_parent_section": "§4.3.7 [Use of \"Yes\" and \"No\" Values]", "md_verbatim": "However, some variables are collected or derived in a manner that allows only 1 response, such as when a single checkbox indicates \"Yes\".", "score": 0.4394, "match_basis": "verbatim_token+chapter_route:ch04"}, {"md_atom_id": "md_ch04_a134", "md_file": "knowledge_base/chapters/ch04_general_assumptions.md", "md_atom_type": "SENTENCE", "md_parent_section": "§4.1.8.2 [Origin Metadata for Records]", "md_verbatim": "When both derived and collected values are reported in a variable, the origin is to be described using value-level metadata in the Define-XML document.", "score": 0.4307, "match_basis": "verbatim_token+chapter_route:ch04"}], "candidate_count": 5, "zero_candidate": false}
{"pdf_atom_id": "ig34_p0043_a024", "pdf_atom_type": "SENTENCE", "pdf_source": "SDTMIG_v3.4", "pdf_page": 43, "pdf_parent_section": "§4.4.7 [Use of Relative Timing Variables]", "pdf_verbatim": "Sponsors are cautioned that doing so in conjunction with directly collecting or mapping data such as \"BEFORE\", \"PRIOR\", and \"ONGOING\" to --STRF and --ENRF will blur the distinction between collected and derived values within the domain.", "figure_ref": null, "candidates": [{"md_atom_id": "md_ch04_a637", "md_file": "knowledge_base/chapters/ch04_general_assumptions.md", "md_atom_type": "SENTENCE", "md_parent_section": "§4.4.7 [Use of Relative Timing Variables]", "md_verbatim": "**Caution on mixing collected and derived values:** Sponsors are cautioned that deriving --STRF and --ENRF for analysis or reporting purposes even when dates are collected may blur the distinction between collected and derived values within the domain.", "score": 0.6098, "match_basis": "verbatim_token+chapter_route:ch04"}, {"md_atom_id": "md_ch04_a131", "md_file": "knowledge_base/chapters/ch04_general_assumptions.md", "md_atom_type": "SENTENCE", "md_parent_section": "§4.1.8.2 [Origin Metadata for Records]", "md_verbatim": "Sponsors are cautioned to recognize that a derived origin means that all values for that variable were derived, and that collected on the CRF applies to all values as well.", "score": 0.482, "match_basis": "verbatim_token+chapter_route:ch04"}, {"md_atom_id": "md_ch04_a629", "md_file": "knowledge_base/chapters/ch04_general_assumptions.md", "md_atom_type": "SENTENCE", "md_parent_section": "§4.4.7 [Use of Relative Timing Variables]", "md_verbatim": "The variables --STRF and --ENRF represent the timing of an observation relative to the sponsor-defined study reference period, when information such as \"BEFORE\", \"PRIOR\", \"ONGOING\", or \"CONTINUING\" is collected in lieu of a date and this collected information is in relation to the sponsor-defined study reference period.", "score": 0.4608, "match_basis": "verbatim_token+chapter_route:ch04"}, {"md_atom_id": "md_ch04_a133", "md_file": "knowledge_base/chapters/ch04_general_assumptions.md", "md_atom_type": "SENTENCE", "md_parent_section": "§4.1.8.2 [Origin Metadata for Records]", "md_verbatim": "For example, some records in a Findings dataset such as Questionnaires (QS) contain values collected from the CRF; other records may contain derived values, such as a total score.", "score": 0.4409, "match_basis": "verbatim_token+chapter_route:ch04"}, {"md_atom_id": "md_ch04_a021", "md_file": "knowledge_base/chapters/ch04_general_assumptions.md", "md_atom_type": "SENTENCE", "md_parent_section": "§4.1.3.1 [EPOCH Variable Guidance]", "md_verbatim": "Sponsors should not impute EPOCH values, but should, where possible, assign EPOCH values on the basis of CRF instructions and structure, even if EPOCH was not directly collected and date/time data was not collected with sufficient precision to permit assignment of an observation to an EPOCH on the basis of date/time data alone.", "score": 0.42, "match_basis": "verbatim_token+chapter_route:ch04"}], "candidate_count": 5, "zero_candidate": false}
{"pdf_atom_id": "ig34_p0043_a025", "pdf_atom_type": "SENTENCE", "pdf_source": "SDTMIG_v3.4", "pdf_page": 43, "pdf_parent_section": "§4.4.7 [Use of Relative Timing Variables]", "pdf_verbatim": "Sponsors wishing to do such derivations are instead encouraged to use analysis datasets for this derived data.", "figure_ref": null, "candidates": [{"md_atom_id": "md_ch04_a638", "md_file": "knowledge_base/chapters/ch04_general_assumptions.md", "md_atom_type": "SENTENCE", "md_parent_section": "§4.4.7 [Use of Relative Timing Variables]", "md_verbatim": "Sponsors wishing to do such derivations are instead encouraged to use analysis datasets for this derived data.", "score": 0.9, "match_basis": "verbatim_token+chapter_route:ch04"}, {"md_atom_id": "md_ch04_a637", "md_file": "knowledge_base/chapters/ch04_general_assumptions.md", "md_atom_type": "SENTENCE", "md_parent_section": "§4.4.7 [Use of Relative Timing Variables]", "md_verbatim": "**Caution on mixing collected and derived values:** Sponsors are cautioned that deriving --STRF and --ENRF for analysis or reporting purposes even when dates are collected may blur the distinction between collected and derived values within the domain.", "score": 0.425, "match_basis": "verbatim_token+chapter_route:ch04"}, {"md_atom_id": "md_ch04_a576", "md_file": "knowledge_base/chapters/ch04_general_assumptions.md", "md_atom_type": "SENTENCE", "md_parent_section": "§4.4.3.1 [Intervals of Time and Use of Duration]", "md_verbatim": "This may be useful if data are collected in formats such as \"one and one-half years\", \"two and a half weeks\", \"half a week\" or \"quarter of an hour\" and the sponsor wishes to represent this \"precision\" (or lack of precision) in ISO 8601 representation.", "score": 0.4121, "match_basis": "verbatim_token+chapter_route:ch04"}, {"md_atom_id": "md_ch04_a050", "md_file": "knowledge_base/chapters/ch04_general_assumptions.md", "md_atom_type": "SENTENCE", "md_parent_section": "§4.1.7 [Splitting Domains]", "md_verbatim": "Sponsors may choose to split a domain of topically related information into physically separate datasets.", "score": 0.4109, "match_basis": "verbatim_token+chapter_route:ch04"}, {"md_atom_id": "md_ch04_a241", "md_file": "knowledge_base/chapters/ch04_general_assumptions.md", "md_atom_type": "SENTENCE", "md_parent_section": "§4.2.6 [Grouping Variables and Categorization]", "md_verbatim": "As such, these variables are often used in IDVAR in a RELREC relationship when there is a dataset-to-dataset relationship.", "score": 0.4037, "match_basis": "verbatim_token+chapter_route:ch04"}], "candidate_count": 5, "zero_candidate": false}
{"pdf_atom_id": "ig34_p0043_a026", "pdf_atom_type": "SENTENCE", "pdf_source": "SDTMIG_v3.4", "pdf_page": 43, "pdf_parent_section": "§4.4.7 [Use of Relative Timing Variables]", "pdf_verbatim": "In general, sponsors are cautioned that representing information using variables --STRF and --ENRF may not be as precise as other methods, particularly because information is often collected relative to a point in time or to a period of time other than the one defined as the study reference period.", "figure_ref": null, "candidates": [{"md_atom_id": "md_ch04_a629", "md_file": "knowledge_base/chapters/ch04_general_assumptions.md", "md_atom_type": "SENTENCE", "md_parent_section": "§4.4.7 [Use of Relative Timing Variables]", "md_verbatim": "The variables --STRF and --ENRF represent the timing of an observation relative to the sponsor-defined study reference period, when information such as \"BEFORE\", \"PRIOR\", \"ONGOING\", or \"CONTINUING\" is collected in lieu of a date and this collected information is in relation to the sponsor-defined study reference period.", "score": 0.58, "match_basis": "verbatim_token+chapter_route:ch04"}, {"md_atom_id": "md_ch04_a640", "md_file": "knowledge_base/chapters/ch04_general_assumptions.md", "md_atom_type": "SENTENCE", "md_parent_section": "§4.4.7 [Use of Relative Timing Variables]", "md_verbatim": "Although --STRF and --ENRF are useful when relative timing assessments are made coincident with the start and end of the study reference period, they may not be suitable for expressing relative timing assessments collected at other times of the study.", "score": 0.4938, "match_basis": "verbatim_token+chapter_route:ch04"}, {"md_atom_id": "md_ch04_a683", "md_file": "knowledge_base/chapters/ch04_general_assumptions.md", "md_atom_type": "SENTENCE", "md_parent_section": "§4.4.8 [Date and Time Reported in a Domain Based on Findings]", "md_verbatim": "In order to ensure that the critical timing information is always represented in the same variable, the --DTC variable is used to represent the time of specimen collection.", "score": 0.451, "match_basis": "verbatim_token+chapter_route:ch04"}, {"md_atom_id": "md_ch04_a647", "md_file": "knowledge_base/chapters/ch04_general_assumptions.md", "md_atom_type": "SENTENCE", "md_parent_section": "§4.4.7 [Use of Relative Timing Variables]", "md_verbatim": "**Restriction on --STRTPT values:** If the reference time point corresponds to the date of collection or assessment, **AFTER is not a valid value** for --STRTPT because it would represent an event after the date of collection.", "score": 0.4471, "match_basis": "verbatim_token+chapter_route:ch04"}, {"md_atom_id": "md_ch04_a131", "md_file": "knowledge_base/chapters/ch04_general_assumptions.md", "md_atom_type": "SENTENCE", "md_parent_section": "§4.1.8.2 [Origin Metadata for Records]", "md_verbatim": "Sponsors are cautioned to recognize that a derived origin means that all values for that variable were derived, and that collected on the CRF applies to all values as well.", "score": 0.445, "match_basis": "verbatim_token+chapter_route:ch04"}], "candidate_count": 5, "zero_candidate": false}
{"pdf_atom_id": "ig34_p0043_a027", "pdf_atom_type": "SENTENCE", "pdf_source": "SDTMIG_v3.4", "pdf_page": 43, "pdf_parent_section": "§4.4.7 [Use of Relative Timing Variables]", "pdf_verbatim": "SDTMIG v3.1.2 attempted to address these limitations by the addition of 4 new relative timing variables, which are described in the following section.", "figure_ref": null, "candidates": [{"md_atom_id": "md_ch04_a015", "md_file": "knowledge_base/chapters/ch04_general_assumptions.md", "md_atom_type": "SENTENCE", "md_parent_section": "§4.1.3 [Additional Timing Variables]", "md_verbatim": "Timing variables cannot be added to SUPPQUAL datasets or to RELREC (described in Section 8, Representing Relationships and Data).", "score": 0.486, "match_basis": "verbatim_token+chapter_route:ch04"}, {"md_atom_id": "md_ch04_a898", "md_file": "knowledge_base/chapters/ch04_general_assumptions.md", "md_atom_type": "SENTENCE", "md_parent_section": "§4.5.3.1 [Test Name (--TEST) Greater than 40 Characters]", "md_verbatim": "Sponsors have the following options for including the full description for these variables in the study metadata:", "score": 0.45, "match_basis": "verbatim_token+chapter_route:ch04"}, {"md_atom_id": "md_ch04_a634", "md_file": "knowledge_base/chapters/ch04_general_assumptions.md", "md_atom_type": "SENTENCE", "md_parent_section": "§4.4.7 [Use of Relative Timing Variables]", "md_verbatim": "**Important restriction on --ENRF:** Although \"COINCIDENT\" and \"ONGOING\" are in the STENRF codelist, they describe timing relative to a point in time rather than an interval of time, so are **not appropriate for use with --ENRF variables**.", "score": 0.4299, "match_basis": "verbatim_token+chapter_route:ch04"}, {"md_atom_id": "md_ch04_a262", "md_file": "knowledge_base/chapters/ch04_general_assumptions.md", "md_atom_type": "SENTENCE", "md_parent_section": "§4.2.7.1 [\"Specify\" Values for Non-Result Qualifier Variables]", "md_verbatim": "When free-text information is collected to supplement a standard non-result qualifier field, the free-text value should be placed in the SUPP-- dataset described in Section 8.4, Relating Non-standard Variable Values to a Parent Domain.", "score": 0.4254, "match_basis": "verbatim_token+chapter_route:ch04"}, {"md_atom_id": "md_ch04_a694", "md_file": "knowledge_base/chapters/ch04_general_assumptions.md", "md_atom_type": "SENTENCE", "md_parent_section": "§4.4.9 [Use of Dates as Result Variables]", "md_verbatim": "Dates are generally used only as timing variables to describe the timing of an event, intervention, or collection activity, but there may be occasions when it may be preferable to model a date as a result (--ORRES) in a Findings dataset.", "score": 0.4246, "match_basis": "verbatim_token+chapter_route:ch04"}], "candidate_count": 5, "zero_candidate": false}
{"pdf_atom_id": "ig34_p0043_a028", "pdf_atom_type": "SENTENCE", "pdf_source": "SDTMIG_v3.4", "pdf_page": 43, "pdf_parent_section": "§4.4.7 [Use of Relative Timing Variables]", "pdf_verbatim": "Sponsors should use the set of variables that allows for accurate representation of collected data.", "figure_ref": null, "candidates": [{"md_atom_id": "md_ch04_a573", "md_file": "knowledge_base/chapters/ch04_general_assumptions.md", "md_atom_type": "SENTENCE", "md_parent_section": "§4.4.3.1 [Intervals of Time and Use of Duration]", "md_verbatim": "As is the case with the date/time representation in --DTC, --STDTC, or --ENDTC, only the components of duration that are known or collected need to be represented.", "score": 0.5, "match_basis": "verbatim_token+chapter_route:ch04"}, {"md_atom_id": "md_ch04_a904", "md_file": "knowledge_base/chapters/ch04_general_assumptions.md", "md_atom_type": "SENTENCE", "md_parent_section": "§4.5.3.2 [Text Strings Greater than 200 Characters in Other Variables]", "md_verbatim": "Some sponsors may collect data values longer than 200 characters for some variables.", "score": 0.4865, "match_basis": "verbatim_token+chapter_route:ch04"}, {"md_atom_id": "md_ch04_a576", "md_file": "knowledge_base/chapters/ch04_general_assumptions.md", "md_atom_type": "SENTENCE", "md_parent_section": "§4.4.3.1 [Intervals of Time and Use of Duration]", "md_verbatim": "This may be useful if data are collected in formats such as \"one and one-half years\", \"two and a half weeks\", \"half a week\" or \"quarter of an hour\" and the sponsor wishes to represent this \"precision\" (or lack of precision) in ISO 8601 representation.", "score": 0.4837, "match_basis": "verbatim_token+chapter_route:ch04"}, {"md_atom_id": "md_ch04_a551", "md_file": "knowledge_base/chapters/ch04_general_assumptions.md", "md_atom_type": "SENTENCE", "md_parent_section": "§4.4.3.1 [Intervals of Time and Use of Duration]", "md_verbatim": "One representation, shown below, uses 2 dates in the format:", "score": 0.4781, "match_basis": "verbatim_token+chapter_route:ch04"}, {"md_atom_id": "md_ch04_a683", "md_file": "knowledge_base/chapters/ch04_general_assumptions.md", "md_atom_type": "SENTENCE", "md_parent_section": "§4.4.8 [Date and Time Reported in a Domain Based on Findings]", "md_verbatim": "In order to ensure that the critical timing information is always represented in the same variable, the --DTC variable is used to represent the time of specimen collection.", "score": 0.4761, "match_basis": "verbatim_token+chapter_route:ch04"}], "candidate_count": 5, "zero_candidate": false}
{"pdf_atom_id": "ig34_p0043_a029", "pdf_atom_type": "SENTENCE", "pdf_source": "SDTMIG_v3.4", "pdf_page": 43, "pdf_parent_section": "§4.4.7 [Use of Relative Timing Variables]", "pdf_verbatim": "In many cases, this will mean using these new relative timing variables in place of --STRF and --ENRF.", "figure_ref": null, "candidates": [{"md_atom_id": "md_ch04_a803", "md_file": "knowledge_base/chapters/ch04_general_assumptions.md", "md_atom_type": "SENTENCE", "md_parent_section": "§4.4.11 [Disease Milestones and Disease Milestone Timing Variables]", "md_verbatim": "Their use does not preclude the use of variables that collect actual date/times or timing relative to the study schedule:", "score": 0.4385, "match_basis": "verbatim_token+chapter_route:ch04"}, {"md_atom_id": "md_ch04_a629", "md_file": "knowledge_base/chapters/ch04_general_assumptions.md", "md_atom_type": "SENTENCE", "md_parent_section": "§4.4.7 [Use of Relative Timing Variables]", "md_verbatim": "The variables --STRF and --ENRF represent the timing of an observation relative to the sponsor-defined study reference period, when information such as \"BEFORE\", \"PRIOR\", \"ONGOING\", or \"CONTINUING\" is collected in lieu of a date and this collected information is in relation to the sponsor-defined study reference period.", "score": 0.4333, "match_basis": "verbatim_token+chapter_route:ch04"}, {"md_atom_id": "md_ch04_a789", "md_file": "knowledge_base/chapters/ch04_general_assumptions.md", "md_atom_type": "SENTENCE", "md_parent_section": "§4.4.11 [Disease Milestones and Disease Milestone Timing Variables]", "md_verbatim": "For an observation triggered by the occurrence of a disease milestone, the relationship of the observation to the disease milestone can be represented using the disease milestone timing variables MIDS, RELMIDS, and MIDSDTC:", "score": 0.4313, "match_basis": "verbatim_token+chapter_route:ch04"}, {"md_atom_id": "md_ch04_a241", "md_file": "knowledge_base/chapters/ch04_general_assumptions.md", "md_atom_type": "SENTENCE", "md_parent_section": "§4.2.6 [Grouping Variables and Categorization]", "md_verbatim": "As such, these variables are often used in IDVAR in a RELREC relationship when there is a dataset-to-dataset relationship.", "score": 0.4304, "match_basis": "verbatim_token+chapter_route:ch04"}, {"md_atom_id": "md_ch04_a802", "md_file": "knowledge_base/chapters/ch04_general_assumptions.md", "md_atom_type": "SENTENCE", "md_parent_section": "§4.4.11 [Disease Milestones and Disease Milestone Timing Variables]", "md_verbatim": "The disease milestone timing variables provide timing relative to an activity or event that has been identified, for the particular study, as a disease milestone.", "score": 0.4295, "match_basis": "verbatim_token+chapter_route:ch04"}], "candidate_count": 5, "zero_candidate": false}
{"pdf_atom_id": "ig34_p0043_a030", "pdf_atom_type": "HEADING", "pdf_source": "SDTMIG_v3.4", "pdf_page": 43, "pdf_parent_section": "§4.4.7 [Use of Relative Timing Variables]", "pdf_verbatim": "--STRTPT, --STTPT, --ENRTPT, and --ENTPT", "figure_ref": null, "candidates": [{"md_atom_id": "md_ch04_a639", "md_file": "knowledge_base/chapters/ch04_general_assumptions.md", "md_atom_type": "HEADING", "md_parent_section": "§4.4.7 [Use of Relative Timing Variables]", "md_verbatim": "#### --STRTPT, --STTPT, --ENRTPT, and --ENTPT", "score": 0.9, "match_basis": "verbatim_token+chapter_route:ch04"}, {"md_atom_id": "md_ch04_a628", "md_file": "knowledge_base/chapters/ch04_general_assumptions.md", "md_atom_type": "HEADING", "md_parent_section": "§4.4.7 [Use of Relative Timing Variables]", "md_verbatim": "#### --STRF and --ENRF", "score": 0.4385, "match_basis": "verbatim_token+chapter_route:ch04"}, {"md_atom_id": "md_ch04_a186", "md_file": "knowledge_base/chapters/ch04_general_assumptions.md", "md_atom_type": "HEADING", "md_parent_section": "§4.2.1 [Variable-Naming Conventions]", "md_verbatim": "#### 4.2.1.2 --TRT Conventions (Interventions)", "score": 0.35, "match_basis": "verbatim_token+chapter_route:ch04"}, {"md_atom_id": "md_ch04_a182", "md_file": "knowledge_base/chapters/ch04_general_assumptions.md", "md_atom_type": "HEADING", "md_parent_section": "§4.2.1 [Variable-Naming Conventions]", "md_verbatim": "#### 4.2.1.1 --TEST and --TESTCD Conventions (Findings)", "score": 0.3414, "match_basis": "verbatim_token+chapter_route:ch04"}, {"md_atom_id": "md_ch04_a467", "md_file": "knowledge_base/chapters/ch04_general_assumptions.md", "md_atom_type": "HEADING", "md_parent_section": "§4.3 [Coding and Controlled Terminology Assumptions]", "md_verbatim": "### 4.3.7 Use of \"Yes\" and \"No\" Values", "score": 0.3353, "match_basis": "verbatim_token+chapter_route:ch04"}], "candidate_count": 5, "zero_candidate": false}
{"pdf_atom_id": "ig34_p0043_a031", "pdf_atom_type": "SENTENCE", "pdf_source": "SDTMIG_v3.4", "pdf_page": 43, "pdf_parent_section": "§4.4.7 [Use of Relative Timing Variables]", "pdf_verbatim": "Although the variables --STRF and --ENRF are useful in the case when relative timing assessments are made coincident with the start and end of the study reference period, they may not be suitable for expressing relative timing assessments (e.g., \"Prior\", \"Ongoing\") that are collected at other times of the study.", "figure_ref": null, "candidates": [{"md_atom_id": "md_ch04_a640", "md_file": "knowledge_base/chapters/ch04_general_assumptions.md", "md_atom_type": "SENTENCE", "md_parent_section": "§4.4.7 [Use of Relative Timing Variables]", "md_verbatim": "Although --STRF and --ENRF are useful when relative timing assessments are made coincident with the start and end of the study reference period, they may not be suitable for expressing relative timing assessments collected at other times of the study.", "score": 0.8222, "match_basis": "verbatim_token+chapter_route:ch04"}, {"md_atom_id": "md_ch04_a629", "md_file": "knowledge_base/chapters/ch04_general_assumptions.md", "md_atom_type": "SENTENCE", "md_parent_section": "§4.4.7 [Use of Relative Timing Variables]", "md_verbatim": "The variables --STRF and --ENRF represent the timing of an observation relative to the sponsor-defined study reference period, when information such as \"BEFORE\", \"PRIOR\", \"ONGOING\", or \"CONTINUING\" is collected in lieu of a date and this collected information is in relation to the sponsor-defined study reference period.", "score": 0.5196, "match_basis": "verbatim_token+chapter_route:ch04"}, {"md_atom_id": "md_ch04_a634", "md_file": "knowledge_base/chapters/ch04_general_assumptions.md", "md_atom_type": "SENTENCE", "md_parent_section": "§4.4.7 [Use of Relative Timing Variables]", "md_verbatim": "**Important restriction on --ENRF:** Although \"COINCIDENT\" and \"ONGOING\" are in the STENRF codelist, they describe timing relative to a point in time rather than an interval of time, so are **not appropriate for use with --ENRF variables**.", "score": 0.5, "match_basis": "verbatim_token+chapter_route:ch04"}, {"md_atom_id": "md_ch04_a803", "md_file": "knowledge_base/chapters/ch04_general_assumptions.md", "md_atom_type": "SENTENCE", "md_parent_section": "§4.4.11 [Disease Milestones and Disease Milestone Timing Variables]", "md_verbatim": "Their use does not preclude the use of variables that collect actual date/times or timing relative to the study schedule:", "score": 0.4535, "match_basis": "verbatim_token+chapter_route:ch04"}, {"md_atom_id": "md_ch04_a648", "md_file": "knowledge_base/chapters/ch04_general_assumptions.md", "md_atom_type": "SENTENCE", "md_parent_section": "§4.4.7 [Use of Relative Timing Variables]", "md_verbatim": "If the reference time point is prior to the date of collection or assessment, AFTER is valid for --STRTPT.", "score": 0.4403, "match_basis": "verbatim_token+chapter_route:ch04"}], "candidate_count": 5, "zero_candidate": false}
{"pdf_atom_id": "ig34_p0043_a032", "pdf_atom_type": "SENTENCE", "pdf_source": "SDTMIG_v3.4", "pdf_page": 43, "pdf_parent_section": "§4.4.7 [Use of Relative Timing Variables]", "pdf_verbatim": "As a result, 4 new timing variables were added in SDTMIG v3.1.2 to express a similar concept at any point in time.", "figure_ref": null, "candidates": [{"md_atom_id": "md_ch04_a641", "md_file": "knowledge_base/chapters/ch04_general_assumptions.md", "md_atom_type": "SENTENCE", "md_parent_section": "§4.4.7 [Use of Relative Timing Variables]", "md_verbatim": "The variables --STRTPT and --ENRTPT contain values similar to --STRF and --ENRF, but may be anchored with any timing description or date/time value expressed in the respective --STTPT and --ENTPT variables.", "score": 0.4453, "match_basis": "verbatim_token+chapter_route:ch04"}, {"md_atom_id": "md_ch04_a014", "md_file": "knowledge_base/chapters/ch04_general_assumptions.md", "md_atom_type": "SENTENCE", "md_parent_section": "§4.1.3 [Additional Timing Variables]", "md_verbatim": "Timing variables can be added to special-purpose domains only where specified in the SDTMIG domain model assumptions.", "score": 0.4425, "match_basis": "verbatim_token+chapter_route:ch04"}, {"md_atom_id": "md_ch04_a1033", "md_file": "knowledge_base/chapters/ch04_general_assumptions.md", "md_atom_type": "SENTENCE", "md_parent_section": "§4.5.9 [Baseline Values]", "md_verbatim": "The following table shows a set of similar flag variables and their usage across the SDTM and ADaM.", "score": 0.4304, "match_basis": "verbatim_token+chapter_route:ch04"}, {"md_atom_id": "md_ch04_a728", "md_file": "knowledge_base/chapters/ch04_general_assumptions.md", "md_atom_type": "SENTENCE", "md_parent_section": "§4.4.10 [Representing Time Points]", "md_verbatim": "Not all time points will require all 3 variables to provide uniqueness.", "score": 0.42, "match_basis": "verbatim_token+chapter_route:ch04"}, {"md_atom_id": "md_ch04_a906", "md_file": "knowledge_base/chapters/ch04_general_assumptions.md", "md_atom_type": "SENTENCE", "md_parent_section": "§4.5.3.2 [Text Strings Greater than 200 Characters in Other Variables]", "md_verbatim": "Therefore, the SDTMIG has defined conventions for storing long text strings using multiple variables.", "score": 0.4111, "match_basis": "verbatim_token+chapter_route:ch04"}], "candidate_count": 5, "zero_candidate": false}
{"pdf_atom_id": "ig34_p0043_a033", "pdf_atom_type": "SENTENCE", "pdf_source": "SDTMIG_v3.4", "pdf_page": 43, "pdf_parent_section": "§4.4.7 [Use of Relative Timing Variables]", "pdf_verbatim": "The variables --STRTPT and --ENRTPT contain values similar to --STRF and --ENRF, but may be anchored with any timing description or date/time value expressed in the respective --STTPT and --ENTPT variables, and are not limited to the study reference period.", "figure_ref": null, "candidates": [{"md_atom_id": "md_ch04_a641", "md_file": "knowledge_base/chapters/ch04_general_assumptions.md", "md_atom_type": "SENTENCE", "md_parent_section": "§4.4.7 [Use of Relative Timing Variables]", "md_verbatim": "The variables --STRTPT and --ENRTPT contain values similar to --STRF and --ENRF, but may be anchored with any timing description or date/time value expressed in the respective --STTPT and --ENTPT variables.", "score": 0.7737, "match_basis": "verbatim_token+chapter_route:ch04"}, {"md_atom_id": "md_ch04_a629", "md_file": "knowledge_base/chapters/ch04_general_assumptions.md", "md_atom_type": "SENTENCE", "md_parent_section": "§4.4.7 [Use of Relative Timing Variables]", "md_verbatim": "The variables --STRF and --ENRF represent the timing of an observation relative to the sponsor-defined study reference period, when information such as \"BEFORE\", \"PRIOR\", \"ONGOING\", or \"CONTINUING\" is collected in lieu of a date and this collected information is in relation to the sponsor-defined study reference period.", "score": 0.4788, "match_basis": "verbatim_token+chapter_route:ch04"}, {"md_atom_id": "md_ch04_a640", "md_file": "knowledge_base/chapters/ch04_general_assumptions.md", "md_atom_type": "SENTENCE", "md_parent_section": "§4.4.7 [Use of Relative Timing Variables]", "md_verbatim": "Although --STRF and --ENRF are useful when relative timing assessments are made coincident with the start and end of the study reference period, they may not be suitable for expressing relative timing assessments collected at other times of the study.", "score": 0.4767, "match_basis": "verbatim_token+chapter_route:ch04"}, {"md_atom_id": "md_ch04_a705", "md_file": "knowledge_base/chapters/ch04_general_assumptions.md", "md_atom_type": "SENTENCE", "md_parent_section": "§4.4.10 [Representing Time Points]", "md_verbatim": "Time points can be represented using the time point variables --TPT, --TPTNUM, --ELTM, and the time-point anchors --TPTREF (text description) and --RFTDTC (date/time).", "score": 0.4636, "match_basis": "verbatim_token+chapter_route:ch04"}, {"md_atom_id": "md_ch04_a808", "md_file": "knowledge_base/chapters/ch04_general_assumptions.md", "md_atom_type": "LIST_ITEM", "md_parent_section": "§4.4.11 [Disease Milestones and Disease Milestone Timing Variables]", "md_verbatim": "- The timing variables for start and end of an event or intervention relative to the study reference period (--STRF and --ENRF) or relative to a reference time point (--STRTPT and --STTPT, --ENRTPT and --ENTPT) can be used in conjunction with disease milestone variables", "score": 0.439, "match_basis": "verbatim_token+chapter_route:ch04"}], "candidate_count": 5, "zero_candidate": false}
{"pdf_atom_id": "ig34_p0043_a034", "pdf_atom_type": "SENTENCE", "pdf_source": "SDTMIG_v3.4", "pdf_page": 43, "pdf_parent_section": "§4.4.7 [Use of Relative Timing Variables]", "pdf_verbatim": "Unlike the variables --STRF and --ENRF, which for all domains are defined relative to one study [TRUNCATED_AT_PAGE_BOUNDARY]", "figure_ref": null, "candidates": [{"md_atom_id": "md_ch04_a961", "md_file": "knowledge_base/chapters/ch04_general_assumptions.md", "md_atom_type": "SENTENCE", "md_parent_section": "§4.5.4 [Evaluators in the Interventions and Events Observation Classes]", "md_verbatim": "See Section 8.4, Relating Non-standard Variable Values to a Parent Domain.", "score": 0.4403, "match_basis": "verbatim_token+chapter_route:ch04"}, {"md_atom_id": "md_ch04_a629", "md_file": "knowledge_base/chapters/ch04_general_assumptions.md", "md_atom_type": "SENTENCE", "md_parent_section": "§4.4.7 [Use of Relative Timing Variables]", "md_verbatim": "The variables --STRF and --ENRF represent the timing of an observation relative to the sponsor-defined study reference period, when information such as \"BEFORE\", \"PRIOR\", \"ONGOING\", or \"CONTINUING\" is collected in lieu of a date and this collected information is in relation to the sponsor-defined study reference period.", "score": 0.4395, "match_basis": "verbatim_token+chapter_route:ch04"}, {"md_atom_id": "md_ch04_a780", "md_file": "knowledge_base/chapters/ch04_general_assumptions.md", "md_atom_type": "SENTENCE", "md_parent_section": "§4.4.11 [Disease Milestones and Disease Milestone Timing Variables]", "md_verbatim": "If a study does not have disease milestones, the TM and SM domains will not be present and the disease milestone timing variables may not be included in other domains.", "score": 0.4149, "match_basis": "verbatim_token+chapter_route:ch04"}, {"md_atom_id": "md_ch04_a803", "md_file": "knowledge_base/chapters/ch04_general_assumptions.md", "md_atom_type": "SENTENCE", "md_parent_section": "§4.4.11 [Disease Milestones and Disease Milestone Timing Variables]", "md_verbatim": "Their use does not preclude the use of variables that collect actual date/times or timing relative to the study schedule:", "score": 0.4149, "match_basis": "verbatim_token+chapter_route:ch04"}, {"md_atom_id": "md_ch04_a778", "md_file": "knowledge_base/chapters/ch04_general_assumptions.md", "md_atom_type": "SENTENCE", "md_parent_section": "§4.4.11 [Disease Milestones and Disease Milestone Timing Variables]", "md_verbatim": "The types of disease milestones for a study are defined in the study-level Trial Disease Milestones (TM) dataset; the times at which disease milestones occurred for a particular subject are summarized in the special-purpose Subject Disease Milestones (SM) domain.", "score": 0.4109, "match_basis": "verbatim_token+chapter_route:ch04"}], "candidate_count": 5, "zero_candidate": false}
{"pdf_atom_id": "ig34_p0044_a001", "pdf_atom_type": "SENTENCE", "pdf_source": "SDTMIG_v3.4", "pdf_page": 44, "pdf_parent_section": "§4.4.7 [Use of Relative Timing Variables]", "pdf_verbatim": "reference period, the timing variables --STRTPT, --STTPT, --ENRTPT, and --ENTPT are defined by each sponsor for each study.", "figure_ref": null, "candidates": [{"md_atom_id": "md_ch04_a629", "md_file": "knowledge_base/chapters/ch04_general_assumptions.md", "md_atom_type": "SENTENCE", "md_parent_section": "§4.4.7 [Use of Relative Timing Variables]", "md_verbatim": "The variables --STRF and --ENRF represent the timing of an observation relative to the sponsor-defined study reference period, when information such as \"BEFORE\", \"PRIOR\", \"ONGOING\", or \"CONTINUING\" is collected in lieu of a date and this collected information is in relation to the sponsor-defined study reference period.", "score": 0.5216, "match_basis": "verbatim_token+chapter_route:ch04"}, {"md_atom_id": "md_ch04_a630", "md_file": "knowledge_base/chapters/ch04_general_assumptions.md", "md_atom_type": "SENTENCE", "md_parent_section": "§4.4.7 [Use of Relative Timing Variables]", "md_verbatim": "The sponsor-defined study reference period is the continuous period of time defined by the discrete starting point, RFSTDTC, and the discrete ending point, RFENDTC, for each subject in the Demographics (DM) dataset.", "score": 0.4788, "match_basis": "verbatim_token+chapter_route:ch04"}, {"md_atom_id": "md_ch04_a906", "md_file": "knowledge_base/chapters/ch04_general_assumptions.md", "md_atom_type": "SENTENCE", "md_parent_section": "§4.5.3.2 [Text Strings Greater than 200 Characters in Other Variables]", "md_verbatim": "Therefore, the SDTMIG has defined conventions for storing long text strings using multiple variables.", "score": 0.4429, "match_basis": "verbatim_token+chapter_route:ch04"}, {"md_atom_id": "md_ch04_a808", "md_file": "knowledge_base/chapters/ch04_general_assumptions.md", "md_atom_type": "LIST_ITEM", "md_parent_section": "§4.4.11 [Disease Milestones and Disease Milestone Timing Variables]", "md_verbatim": "- The timing variables for start and end of an event or intervention relative to the study reference period (--STRF and --ENRF) or relative to a reference time point (--STRTPT and --STTPT, --ENRTPT and --ENTPT) can be used in conjunction with disease milestone variables", "score": 0.4403, "match_basis": "verbatim_token+chapter_route:ch04"}, {"md_atom_id": "md_ch04_a640", "md_file": "knowledge_base/chapters/ch04_general_assumptions.md", "md_atom_type": "SENTENCE", "md_parent_section": "§4.4.7 [Use of Relative Timing Variables]", "md_verbatim": "Although --STRF and --ENRF are useful when relative timing assessments are made coincident with the start and end of the study reference period, they may not be suitable for expressing relative timing assessments collected at other times of the study.", "score": 0.4373, "match_basis": "verbatim_token+chapter_route:ch04"}], "candidate_count": 5, "zero_candidate": false}
{"pdf_atom_id": "ig34_p0044_a002", "pdf_atom_type": "SENTENCE", "pdf_source": "SDTMIG_v3.4", "pdf_page": 44, "pdf_parent_section": "§4.4.7 [Use of Relative Timing Variables]", "pdf_verbatim": "Allowable values for --STRTPT and --ENRTPT are as follows.", "figure_ref": null, "candidates": [{"md_atom_id": "md_ch04_a128", "md_file": "knowledge_base/chapters/ch04_general_assumptions.md", "md_atom_type": "SENTENCE", "md_parent_section": "§4.1.8.1 [Origin Metadata for Variables]", "md_verbatim": "The Define-XML specification is the definitive source of allowable origin values.", "score": 0.4245, "match_basis": "verbatim_token+chapter_route:ch04"}, {"md_atom_id": "md_ch04_a502", "md_file": "knowledge_base/chapters/ch04_general_assumptions.md", "md_atom_type": "SENTENCE", "md_parent_section": "§4.4.1 [Formats for Date/Time Variables]", "md_verbatim": "Key aspects of the ISO 8601 standard are as follows:", "score": 0.4105, "match_basis": "verbatim_token+chapter_route:ch04"}, {"md_atom_id": "md_ch04_a557", "md_file": "knowledge_base/chapters/ch04_general_assumptions.md", "md_atom_type": "SENTENCE", "md_parent_section": "§4.4.3.1 [Intervals of Time and Use of Duration]", "md_verbatim": "The values provided in --DUR should follow 1 of the following ISO 8601 duration formats:", "score": 0.408, "match_basis": "verbatim_token+chapter_route:ch04"}, {"md_atom_id": "md_ch04_a435", "md_file": "knowledge_base/chapters/ch04_general_assumptions.md", "md_atom_type": "SENTENCE", "md_parent_section": "§4.3.3 [Controlled Terminology Values]", "md_verbatim": "For example, --PRESP variables are associated with the NY codelist, but only the value \"Y\" is allowed in --PRESP variables.", "score": 0.4034, "match_basis": "verbatim_token+chapter_route:ch04"}, {"md_atom_id": "md_ch04_a516", "md_file": "knowledge_base/chapters/ch04_general_assumptions.md", "md_atom_type": "SENTENCE", "md_parent_section": "§4.4.2 [Date/Time Precision]", "md_verbatim": "The following table provides examples of ISO 8601 representations of complete and truncated date/time values.", "score": 0.3943, "match_basis": "verbatim_token+chapter_route:ch04"}], "candidate_count": 5, "zero_candidate": false}
{"pdf_atom_id": "ig34_p0044_a003", "pdf_atom_type": "SENTENCE", "pdf_source": "SDTMIG_v3.4", "pdf_page": 44, "pdf_parent_section": "§4.4.7 [Use of Relative Timing Variables]", "pdf_verbatim": "If the reference time point corresponds to the date of collection or assessment:", "figure_ref": null, "candidates": [{"md_atom_id": "md_ch04_a648", "md_file": "knowledge_base/chapters/ch04_general_assumptions.md", "md_atom_type": "SENTENCE", "md_parent_section": "§4.4.7 [Use of Relative Timing Variables]", "md_verbatim": "If the reference time point is prior to the date of collection or assessment, AFTER is valid for --STRTPT.", "score": 0.6444, "match_basis": "verbatim_token+chapter_route:ch04"}, {"md_atom_id": "md_ch04_a647", "md_file": "knowledge_base/chapters/ch04_general_assumptions.md", "md_atom_type": "SENTENCE", "md_parent_section": "§4.4.7 [Use of Relative Timing Variables]", "md_verbatim": "**Restriction on --STRTPT values:** If the reference time point corresponds to the date of collection or assessment, **AFTER is not a valid value** for --STRTPT because it would represent an event after the date of collection.", "score": 0.6243, "match_basis": "verbatim_token+chapter_route:ch04"}, {"md_atom_id": "md_ch04_a674", "md_file": "knowledge_base/chapters/ch04_general_assumptions.md", "md_atom_type": "SENTENCE", "md_parent_section": "§4.4.7 [Use of Relative Timing Variables]", "md_verbatim": "No assessment date or visit information was collected.", "score": 0.4925, "match_basis": "verbatim_token+chapter_route:ch04"}, {"md_atom_id": "md_ch04_a655", "md_file": "knowledge_base/chapters/ch04_general_assumptions.md", "md_atom_type": "SENTENCE", "md_parent_section": "§4.4.7 [Use of Relative Timing Variables]", "md_verbatim": "CRF contains \"Year Started\" and a checkbox for \"Active\"; \"Date of Assessment\" is also collected.", "score": 0.4412, "match_basis": "verbatim_token+chapter_route:ch04"}, {"md_atom_id": "md_ch04_a640", "md_file": "knowledge_base/chapters/ch04_general_assumptions.md", "md_atom_type": "SENTENCE", "md_parent_section": "§4.4.7 [Use of Relative Timing Variables]", "md_verbatim": "Although --STRF and --ENRF are useful when relative timing assessments are made coincident with the start and end of the study reference period, they may not be suitable for expressing relative timing assessments collected at other times of the study.", "score": 0.4376, "match_basis": "verbatim_token+chapter_route:ch04"}], "candidate_count": 5, "zero_candidate": false}
{"pdf_atom_id": "ig34_p0044_a004", "pdf_atom_type": "LIST_ITEM", "pdf_source": "SDTMIG_v3.4", "pdf_page": 44, "pdf_parent_section": "§4.4.7 [Use of Relative Timing Variables]", "pdf_verbatim": "Start values: An observation can start BEFORE that time point, can start COINCIDENT with that time point, or it can be UNKNOWN when it started.", "figure_ref": null, "candidates": [{"md_atom_id": "md_ch04_a051", "md_file": "knowledge_base/chapters/ch04_general_assumptions.md", "md_atom_type": "LIST_ITEM", "md_parent_section": "§4.1.7 [Splitting Domains]", "md_verbatim": "- A domain based on a general observation class may be split according to values in --CAT. When a domain is split on --CAT, --CAT must not be null.", "score": 0.4154, "match_basis": "verbatim_token+chapter_route:ch04"}, {"md_atom_id": "md_ch04_a246", "md_file": "knowledge_base/chapters/ch04_general_assumptions.md", "md_atom_type": "LIST_ITEM", "md_parent_section": "§4.2.6 [Grouping Variables and Categorization]", "md_verbatim": "1. --CAT/--SCAT are known (identified) about the data before it is collected.", "score": 0.4, "match_basis": "verbatim_token+chapter_route:ch04"}, {"md_atom_id": "md_ch04_a805", "md_file": "knowledge_base/chapters/ch04_general_assumptions.md", "md_atom_type": "LIST_ITEM", "md_parent_section": "§4.4.11 [Disease Milestones and Disease Milestone Timing Variables]", "md_verbatim": "- Study-day variables should be populated wherever complete actual date/times are populated, including negative study days for pre-study observations", "score": 0.3909, "match_basis": "verbatim_token+chapter_route:ch04"}, {"md_atom_id": "md_ch04_a808", "md_file": "knowledge_base/chapters/ch04_general_assumptions.md", "md_atom_type": "LIST_ITEM", "md_parent_section": "§4.4.11 [Disease Milestones and Disease Milestone Timing Variables]", "md_verbatim": "- The timing variables for start and end of an event or intervention relative to the study reference period (--STRF and --ENRF) or relative to a reference time point (--STRTPT and --STTPT, --ENRTPT and --ENTPT) can be used in conjunction with disease milestone variables", "score": 0.3887, "match_basis": "verbatim_token+chapter_route:ch04"}, {"md_atom_id": "md_ch04_a813", "md_file": "knowledge_base/chapters/ch04_general_assumptions.md", "md_atom_type": "LIST_ITEM", "md_parent_section": "§4.4.11 [Disease Milestones and Disease Milestone Timing Variables]", "md_verbatim": "- When disease milestones are defined, it is not necessary to create RELREC records to establish relationships between observations associated with a disease milestone", "score": 0.3833, "match_basis": "verbatim_token+chapter_route:ch04"}], "candidate_count": 5, "zero_candidate": false}
{"pdf_atom_id": "ig34_p0044_a005", "pdf_atom_type": "LIST_ITEM", "pdf_source": "SDTMIG_v3.4", "pdf_page": 44, "pdf_parent_section": "§4.4.7 [Use of Relative Timing Variables]", "pdf_verbatim": "End values: An observation can end BEFORE that time point, can end COINCIDENT with that time point, can be known that it did not end but was ONGOING, or it can be UNKNOWN when it ended or if it was ongoing.", "figure_ref": null, "candidates": [{"md_atom_id": "md_ch04_a051", "md_file": "knowledge_base/chapters/ch04_general_assumptions.md", "md_atom_type": "LIST_ITEM", "md_parent_section": "§4.1.7 [Splitting Domains]", "md_verbatim": "- A domain based on a general observation class may be split according to values in --CAT. When a domain is split on --CAT, --CAT must not be null.", "score": 0.4244, "match_basis": "verbatim_token+chapter_route:ch04"}, {"md_atom_id": "md_ch04_a805", "md_file": "knowledge_base/chapters/ch04_general_assumptions.md", "md_atom_type": "LIST_ITEM", "md_parent_section": "§4.4.11 [Disease Milestones and Disease Milestone Timing Variables]", "md_verbatim": "- Study-day variables should be populated wherever complete actual date/times are populated, including negative study days for pre-study observations", "score": 0.3857, "match_basis": "verbatim_token+chapter_route:ch04"}, {"md_atom_id": "md_ch04_a506", "md_file": "knowledge_base/chapters/ch04_general_assumptions.md", "md_atom_type": "LIST_ITEM", "md_parent_section": "§4.4.1 [Formats for Date/Time Variables]", "md_verbatim": "- When a date is stored with a time in the same variable (as a date/time), the date is written in front of the time and the time is preceded with \"T\" using the notation YYYY-MM-DDThh:mm:ss (e.g., 2001-12-26T00:00:01).", "score": 0.3839, "match_basis": "verbatim_token+chapter_route:ch04"}, {"md_atom_id": "md_ch04_a806", "md_file": "knowledge_base/chapters/ch04_general_assumptions.md", "md_atom_type": "LIST_ITEM", "md_parent_section": "§4.4.11 [Disease Milestones and Disease Milestone Timing Variables]", "md_verbatim": "- The timing variables EPOCH and TAETORD may be populated for on-study observations associated with disease milestones; however, pre-study disease milestones do not have an associated EPOCH or TAETORD", "score": 0.3826, "match_basis": "verbatim_token+chapter_route:ch04"}, {"md_atom_id": "md_ch04_a246", "md_file": "knowledge_base/chapters/ch04_general_assumptions.md", "md_atom_type": "LIST_ITEM", "md_parent_section": "§4.2.6 [Grouping Variables and Categorization]", "md_verbatim": "1. --CAT/--SCAT are known (identified) about the data before it is collected.", "score": 0.3822, "match_basis": "verbatim_token+chapter_route:ch04"}], "candidate_count": 5, "zero_candidate": false}
{"pdf_atom_id": "ig34_p0044_a006", "pdf_atom_type": "LIST_ITEM", "pdf_source": "SDTMIG_v3.4", "pdf_page": 44, "pdf_parent_section": "§4.4.7 [Use of Relative Timing Variables]", "pdf_verbatim": "AFTER is not a valid value in this case because it would represent an event after the date of collection.", "figure_ref": null, "candidates": [{"md_atom_id": "md_ch04_a647", "md_file": "knowledge_base/chapters/ch04_general_assumptions.md", "md_atom_type": "SENTENCE", "md_parent_section": "§4.4.7 [Use of Relative Timing Variables]", "md_verbatim": "**Restriction on --STRTPT values:** If the reference time point corresponds to the date of collection or assessment, **AFTER is not a valid value** for --STRTPT because it would represent an event after the date of collection.", "score": 0.4946, "match_basis": "verbatim_token+chapter_route:ch04"}, {"md_atom_id": "md_ch04_a446", "md_file": "knowledge_base/chapters/ch04_general_assumptions.md", "md_atom_type": "LIST_ITEM", "md_parent_section": "§4.3.5 [Storing Controlled Terminology for Synonym Qualifier Variables (MedDRA and WHODrug)]", "md_verbatim": "  - For example, **--LLT** should be used to represent the Lowest Level Term text description and **--LLTCD** should be used to represent the Lowest Level Term code value", "score": 0.45, "match_basis": "verbatim_token+chapter_route:ch04"}, {"md_atom_id": "md_ch04_a503", "md_file": "knowledge_base/chapters/ch04_general_assumptions.md", "md_atom_type": "LIST_ITEM", "md_parent_section": "§4.4.1 [Formats for Date/Time Variables]", "md_verbatim": "- ISO 8601 represents dates as a text string using the notation YYYY-MM-DD.", "score": 0.4345, "match_basis": "verbatim_token+chapter_route:ch04"}, {"md_atom_id": "md_ch04_a499", "md_file": "knowledge_base/chapters/ch04_general_assumptions.md", "md_atom_type": "LIST_ITEM", "md_parent_section": "§4.4.1 [Formats for Date/Time Variables]", "md_verbatim": "- [/] (solidus): to separate components in the representation of date/time intervals", "score": 0.4343, "match_basis": "verbatim_token+chapter_route:ch04"}, {"md_atom_id": "md_ch04_a191", "md_file": "knowledge_base/chapters/ch04_general_assumptions.md", "md_atom_type": "LIST_ITEM", "md_parent_section": "§4.2.1.3 [--TERM Conventions (Events)]", "md_verbatim": "- Should represent the term as reported on the CRF", "score": 0.432, "match_basis": "verbatim_token+chapter_route:ch04"}], "candidate_count": 5, "zero_candidate": false}
{"pdf_atom_id": "ig34_p0044_a007", "pdf_atom_type": "SENTENCE", "pdf_source": "SDTMIG_v3.4", "pdf_page": 44, "pdf_parent_section": "§4.4.7 [Use of Relative Timing Variables]", "pdf_verbatim": "If the reference time point is prior to the date of collection or assessment:", "figure_ref": null, "candidates": [{"md_atom_id": "md_ch04_a648", "md_file": "knowledge_base/chapters/ch04_general_assumptions.md", "md_atom_type": "SENTENCE", "md_parent_section": "§4.4.7 [Use of Relative Timing Variables]", "md_verbatim": "If the reference time point is prior to the date of collection or assessment, AFTER is valid for --STRTPT.", "score": 0.7533, "match_basis": "verbatim_token+chapter_route:ch04"}, {"md_atom_id": "md_ch04_a647", "md_file": "knowledge_base/chapters/ch04_general_assumptions.md", "md_atom_type": "SENTENCE", "md_parent_section": "§4.4.7 [Use of Relative Timing Variables]", "md_verbatim": "**Restriction on --STRTPT values:** If the reference time point corresponds to the date of collection or assessment, **AFTER is not a valid value** for --STRTPT because it would represent an event after the date of collection.", "score": 0.5416, "match_basis": "verbatim_token+chapter_route:ch04"}, {"md_atom_id": "md_ch04_a674", "md_file": "knowledge_base/chapters/ch04_general_assumptions.md", "md_atom_type": "SENTENCE", "md_parent_section": "§4.4.7 [Use of Relative Timing Variables]", "md_verbatim": "No assessment date or visit information was collected.", "score": 0.517, "match_basis": "verbatim_token+chapter_route:ch04"}, {"md_atom_id": "md_ch04_a655", "md_file": "knowledge_base/chapters/ch04_general_assumptions.md", "md_atom_type": "SENTENCE", "md_parent_section": "§4.4.7 [Use of Relative Timing Variables]", "md_verbatim": "CRF contains \"Year Started\" and a checkbox for \"Active\"; \"Date of Assessment\" is also collected.", "score": 0.4548, "match_basis": "verbatim_token+chapter_route:ch04"}, {"md_atom_id": "md_ch04_a640", "md_file": "knowledge_base/chapters/ch04_general_assumptions.md", "md_atom_type": "SENTENCE", "md_parent_section": "§4.4.7 [Use of Relative Timing Variables]", "md_verbatim": "Although --STRF and --ENRF are useful when relative timing assessments are made coincident with the start and end of the study reference period, they may not be suitable for expressing relative timing assessments collected at other times of the study.", "score": 0.4456, "match_basis": "verbatim_token+chapter_route:ch04"}], "candidate_count": 5, "zero_candidate": false}
{"pdf_atom_id": "ig34_p0044_a008", "pdf_atom_type": "LIST_ITEM", "pdf_source": "SDTMIG_v3.4", "pdf_page": 44, "pdf_parent_section": "§4.4.7 [Use of Relative Timing Variables]", "pdf_verbatim": "Start values: An observation can start BEFORE the reference point, can start COINCIDENT with the reference point, can start AFTER the reference point, or it can be UNKNOWN when it started.", "figure_ref": null, "candidates": [{"md_atom_id": "md_ch04_a643", "md_file": "knowledge_base/chapters/ch04_general_assumptions.md", "md_atom_type": "TABLE_ROW", "md_parent_section": "§4.4.7 [Use of Relative Timing Variables]", "md_verbatim": "| --STRTPT | BEFORE, COINCIDENT, AFTER, UNKNOWN | Start relative to a specific reference time point |", "score": 0.4329, "match_basis": "verbatim_token+chapter_route:ch04"}, {"md_atom_id": "md_ch04_a808", "md_file": "knowledge_base/chapters/ch04_general_assumptions.md", "md_atom_type": "LIST_ITEM", "md_parent_section": "§4.4.11 [Disease Milestones and Disease Milestone Timing Variables]", "md_verbatim": "- The timing variables for start and end of an event or intervention relative to the study reference period (--STRF and --ENRF) or relative to a reference time point (--STRTPT and --STTPT, --ENRTPT and --ENTPT) can be used in conjunction with disease milestone variables", "score": 0.4252, "match_basis": "verbatim_token+chapter_route:ch04"}, {"md_atom_id": "md_ch04_a051", "md_file": "knowledge_base/chapters/ch04_general_assumptions.md", "md_atom_type": "LIST_ITEM", "md_parent_section": "§4.1.7 [Splitting Domains]", "md_verbatim": "- A domain based on a general observation class may be split according to values in --CAT. When a domain is split on --CAT, --CAT must not be null.", "score": 0.4059, "match_basis": "verbatim_token+chapter_route:ch04"}, {"md_atom_id": "md_ch04_a246", "md_file": "knowledge_base/chapters/ch04_general_assumptions.md", "md_atom_type": "LIST_ITEM", "md_parent_section": "§4.2.6 [Grouping Variables and Categorization]", "md_verbatim": "1. --CAT/--SCAT are known (identified) about the data before it is collected.", "score": 0.4, "match_basis": "verbatim_token+chapter_route:ch04"}, {"md_atom_id": "md_ch04_a626", "md_file": "knowledge_base/chapters/ch04_general_assumptions.md", "md_atom_type": "LIST_ITEM", "md_parent_section": "§4.4.6 [Representing Additional Study Days]", "md_verbatim": "- The reference date/time may use Subject Elements (SE) dataset element start date/time", "score": 0.3986, "match_basis": "verbatim_token+chapter_route:ch04"}], "candidate_count": 5, "zero_candidate": false}
{"pdf_atom_id": "ig34_p0044_a009", "pdf_atom_type": "LIST_ITEM", "pdf_source": "SDTMIG_v3.4", "pdf_page": 44, "pdf_parent_section": "§4.4.7 [Use of Relative Timing Variables]", "pdf_verbatim": "End values: An observation can end BEFORE the reference point, can end COINCIDENT with the reference point, can end AFTER the reference point, can be known that it did not end but was ONGOING, or it can be UNKNOWN when it ended or if it was ongoing.", "figure_ref": null, "candidates": [{"md_atom_id": "md_ch04_a645", "md_file": "knowledge_base/chapters/ch04_general_assumptions.md", "md_atom_type": "TABLE_ROW", "md_parent_section": "§4.4.7 [Use of Relative Timing Variables]", "md_verbatim": "| --ENRTPT | BEFORE, COINCIDENT, AFTER, ONGOING, UNKNOWN | End relative to a specific reference time point |", "score": 0.4192, "match_basis": "verbatim_token+chapter_route:ch04"}, {"md_atom_id": "md_ch04_a051", "md_file": "knowledge_base/chapters/ch04_general_assumptions.md", "md_atom_type": "LIST_ITEM", "md_parent_section": "§4.1.7 [Splitting Domains]", "md_verbatim": "- A domain based on a general observation class may be split according to values in --CAT. When a domain is split on --CAT, --CAT must not be null.", "score": 0.4121, "match_basis": "verbatim_token+chapter_route:ch04"}, {"md_atom_id": "md_ch04_a808", "md_file": "knowledge_base/chapters/ch04_general_assumptions.md", "md_atom_type": "LIST_ITEM", "md_parent_section": "§4.4.11 [Disease Milestones and Disease Milestone Timing Variables]", "md_verbatim": "- The timing variables for start and end of an event or intervention relative to the study reference period (--STRF and --ENRF) or relative to a reference time point (--STRTPT and --STTPT, --ENRTPT and --ENTPT) can be used in conjunction with disease milestone variables", "score": 0.4113, "match_basis": "verbatim_token+chapter_route:ch04"}, {"md_atom_id": "md_ch04_a662", "md_file": "knowledge_base/chapters/ch04_general_assumptions.md", "md_atom_type": "SENTENCE", "md_parent_section": "§4.4.7 [Use of Relative Timing Variables]", "md_verbatim": "*Medical event began in 2002 and was ongoing at the reference time point of 2006-11-02. The event may or may not have ended at any time after that.*", "score": 0.4026, "match_basis": "verbatim_token+chapter_route:ch04"}, {"md_atom_id": "md_ch04_a732", "md_file": "knowledge_base/chapters/ch04_general_assumptions.md", "md_atom_type": "LIST_ITEM", "md_parent_section": "§4.4.10 [Representing Time Points]", "md_verbatim": "3. A trial may have only 1 reference time point per visit, and all reference time points may be similar, so that only 1 value of --TPTREF (e.g., \"DOSE\") is needed. (--TPTREF would be populated, but would not contribute to uniqueness.)", "score": 0.3939, "match_basis": "verbatim_token+chapter_route:ch04"}], "candidate_count": 5, "zero_candidate": false}
{"pdf_atom_id": "ig34_p0044_a010", "pdf_atom_type": "SENTENCE", "pdf_source": "SDTMIG_v3.4", "pdf_page": 44, "pdf_parent_section": "§4.4.7 [Use of Relative Timing Variables]", "pdf_verbatim": "Although \"DURING\" and \"DURING/AFTER\" are in the STENRF codelist, they describe timing relative to an interval of time rather than a point in time, so are not allowable for use with --STRTPT and --ENRTPT variables.", "figure_ref": null, "candidates": [{"md_atom_id": "md_ch04_a649", "md_file": "knowledge_base/chapters/ch04_general_assumptions.md", "md_atom_type": "NOTE", "md_parent_section": "§4.4.7 [Use of Relative Timing Variables]", "md_verbatim": "**Note:** \"DURING\" and \"DURING/AFTER\" are in the STENRF codelist but describe timing relative to an interval of time rather than a point in time, so are **not allowable for use with --STRTPT and --ENRTPT** variables.", "score": 0.7416, "match_basis": "verbatim_token+chapter_route:ch04"}, {"md_atom_id": "md_ch04_a634", "md_file": "knowledge_base/chapters/ch04_general_assumptions.md", "md_atom_type": "SENTENCE", "md_parent_section": "§4.4.7 [Use of Relative Timing Variables]", "md_verbatim": "**Important restriction on --ENRF:** Although \"COINCIDENT\" and \"ONGOING\" are in the STENRF codelist, they describe timing relative to a point in time rather than an interval of time, so are **not appropriate for use with --ENRF variables**.", "score": 0.6436, "match_basis": "verbatim_token+chapter_route:ch04"}, {"md_atom_id": "md_ch04_a641", "md_file": "knowledge_base/chapters/ch04_general_assumptions.md", "md_atom_type": "SENTENCE", "md_parent_section": "§4.4.7 [Use of Relative Timing Variables]", "md_verbatim": "The variables --STRTPT and --ENRTPT contain values similar to --STRF and --ENRF, but may be anchored with any timing description or date/time value expressed in the respective --STTPT and --ENTPT variables.", "score": 0.4475, "match_basis": "verbatim_token+chapter_route:ch04"}, {"md_atom_id": "md_ch04_a640", "md_file": "knowledge_base/chapters/ch04_general_assumptions.md", "md_atom_type": "SENTENCE", "md_parent_section": "§4.4.7 [Use of Relative Timing Variables]", "md_verbatim": "Although --STRF and --ENRF are useful when relative timing assessments are made coincident with the start and end of the study reference period, they may not be suitable for expressing relative timing assessments collected at other times of the study.", "score": 0.4435, "match_basis": "verbatim_token+chapter_route:ch04"}, {"md_atom_id": "md_ch04_a435", "md_file": "knowledge_base/chapters/ch04_general_assumptions.md", "md_atom_type": "SENTENCE", "md_parent_section": "§4.3.3 [Controlled Terminology Values]", "md_verbatim": "For example, --PRESP variables are associated with the NY codelist, but only the value \"Y\" is allowed in --PRESP variables.", "score": 0.432, "match_basis": "verbatim_token+chapter_route:ch04"}], "candidate_count": 5, "zero_candidate": false}
{"pdf_atom_id": "ig34_p0044_a011", "pdf_atom_type": "HEADING", "pdf_source": "SDTMIG_v3.4", "pdf_page": 44, "pdf_parent_section": "§4.4.7 [Use of Relative Timing Variables]", "pdf_verbatim": "Examples of --STRTPT, --STTPT, --ENRTPT, and --ENTPT", "figure_ref": null, "candidates": [{"md_atom_id": "md_ch04_a639", "md_file": "knowledge_base/chapters/ch04_general_assumptions.md", "md_atom_type": "HEADING", "md_parent_section": "§4.4.7 [Use of Relative Timing Variables]", "md_verbatim": "#### --STRTPT, --STTPT, --ENRTPT, and --ENTPT", "score": 0.6882, "match_basis": "verbatim_token+chapter_route:ch04"}, {"md_atom_id": "md_ch04_a831", "md_file": "knowledge_base/chapters/ch04_general_assumptions.md", "md_atom_type": "HEADING", "md_parent_section": "§4.5.1 [Original and Standardized Results]", "md_verbatim": "#### 4.5.1.3 Examples of Original and Standard Units and Test Not Done", "score": 0.4167, "match_basis": "verbatim_token+chapter_route:ch04"}, {"md_atom_id": "md_ch04_a628", "md_file": "knowledge_base/chapters/ch04_general_assumptions.md", "md_atom_type": "HEADING", "md_parent_section": "§4.4.7 [Use of Relative Timing Variables]", "md_verbatim": "#### --STRF and --ENRF", "score": 0.3947, "match_basis": "verbatim_token+chapter_route:ch04"}, {"md_atom_id": "md_ch04_a069", "md_file": "knowledge_base/chapters/ch04_general_assumptions.md", "md_atom_type": "HEADING", "md_parent_section": "§4.1.7 [Splitting Domains]", "md_verbatim": "#### 4.1.7.1 Example of Splitting Questionnaires", "score": 0.3833, "match_basis": "verbatim_token+chapter_route:ch04"}, {"md_atom_id": "md_ch04_a007", "md_file": "knowledge_base/chapters/ch04_general_assumptions.md", "md_atom_type": "HEADING", "md_parent_section": "§4.1 [General Domain Assumptions]", "md_verbatim": "### 4.1.1 Review Study Data Tabulation Model and Implementation Guide", "score": 0.3522, "match_basis": "verbatim_token+chapter_route:ch04"}], "candidate_count": 5, "zero_candidate": false}
{"pdf_atom_id": "ig34_p0044_a012", "pdf_atom_type": "SENTENCE", "pdf_source": "SDTMIG_v3.4", "pdf_page": 44, "pdf_parent_section": "§4.4.7 [Use of Relative Timing Variables]", "pdf_verbatim": "Example 1: Medical History", "figure_ref": null, "candidates": [{"md_atom_id": "md_ch04_a654", "md_file": "knowledge_base/chapters/ch04_general_assumptions.md", "md_atom_type": "SENTENCE", "md_parent_section": "§4.4.7 [Use of Relative Timing Variables]", "md_verbatim": "**Example 1: Medical History**", "score": 0.9, "match_basis": "verbatim_token+chapter_route:ch04"}, {"md_atom_id": "md_ch04_a320", "md_file": "knowledge_base/chapters/ch04_general_assumptions.md", "md_atom_type": "SENTENCE", "md_parent_section": "§4.2.7.3 [\"Specify\" Values for Topic Variables]", "md_verbatim": "For example:", "score": 0.4875, "match_basis": "verbatim_token+chapter_route:ch04"}, {"md_atom_id": "md_ch04_a354", "md_file": "knowledge_base/chapters/ch04_general_assumptions.md", "md_atom_type": "SENTENCE", "md_parent_section": "§4.2.8.2 [Multiple Values for a Findings Result Variable]", "md_verbatim": "For example:", "score": 0.4875, "match_basis": "verbatim_token+chapter_route:ch04"}, {"md_atom_id": "md_ch04_a402", "md_file": "knowledge_base/chapters/ch04_general_assumptions.md", "md_atom_type": "SENTENCE", "md_parent_section": "§4.2.8.4 [Multiple Values for a Parameter]", "md_verbatim": "For example:", "score": 0.4875, "match_basis": "verbatim_token+chapter_route:ch04"}, {"md_atom_id": "md_ch04_a834", "md_file": "knowledge_base/chapters/ch04_general_assumptions.md", "md_atom_type": "SENTENCE", "md_parent_section": "§4.5.1.3 [Examples of Original and Standard Units and Test Not Done]", "md_verbatim": "**Example 1 (lb.xpt)**", "score": 0.4875, "match_basis": "verbatim_token+chapter_route:ch04"}], "candidate_count": 5, "zero_candidate": false}
{"pdf_atom_id": "ig34_p0044_a013", "pdf_atom_type": "SENTENCE", "pdf_source": "SDTMIG_v3.4", "pdf_page": 44, "pdf_parent_section": "§4.4.7 [Use of Relative Timing Variables]", "pdf_verbatim": "Assumptions:", "figure_ref": null, "candidates": [{"md_atom_id": "md_ch04_a814", "md_file": "knowledge_base/chapters/ch04_general_assumptions.md", "md_atom_type": "HEADING", "md_parent_section": "§4 [General Assumptions]", "md_verbatim": "## 4.5 Other Assumptions", "score": 0.51, "match_basis": "verbatim_token+chapter_route:ch04"}, {"md_atom_id": "md_ch04_a014", "md_file": "knowledge_base/chapters/ch04_general_assumptions.md", "md_atom_type": "SENTENCE", "md_parent_section": "§4.1.3 [Additional Timing Variables]", "md_verbatim": "Timing variables can be added to special-purpose domains only where specified in the SDTMIG domain model assumptions.", "score": 0.3964, "match_basis": "verbatim_token+chapter_route:ch04"}, {"md_atom_id": "md_ch04_a1007", "md_file": "knowledge_base/chapters/ch04_general_assumptions.md", "md_atom_type": "SENTENCE", "md_parent_section": "§4.5.7 [Presence or Absence of Prespecified Interventions and Events]", "md_verbatim": "Refer to the standard domains in the Events and Interventions general observation classes for additional assumptions and examples.", "score": 0.3871, "match_basis": "verbatim_token+chapter_route:ch04"}, {"md_atom_id": "md_ch04_a650", "md_file": "knowledge_base/chapters/ch04_general_assumptions.md", "md_atom_type": "SENTENCE", "md_parent_section": "§4.4.7 [Use of Relative Timing Variables]", "md_verbatim": "**Example applications:**", "score": 0.3857, "match_basis": "verbatim_token+chapter_route:ch04"}, {"md_atom_id": "md_ch04_a005", "md_file": "knowledge_base/chapters/ch04_general_assumptions.md", "md_atom_type": "SENTENCE", "md_parent_section": "§4.0 [Overview]", "md_verbatim": "It covers general domain assumptions, general variable assumptions, coding and controlled terminology assumptions, actual and relative time assumptions, and other assumptions.", "score": 0.3831, "match_basis": "verbatim_token+chapter_route:ch04"}], "candidate_count": 5, "zero_candidate": false}
{"pdf_atom_id": "ig34_p0044_a014", "pdf_atom_type": "LIST_ITEM", "pdf_source": "SDTMIG_v3.4", "pdf_page": 44, "pdf_parent_section": "§4.4.7 [Use of Relative Timing Variables]", "pdf_verbatim": "CRF contains \"Year Started\" and checkbox for \"Active\"", "figure_ref": null, "candidates": [{"md_atom_id": "md_ch04_a655", "md_file": "knowledge_base/chapters/ch04_general_assumptions.md", "md_atom_type": "SENTENCE", "md_parent_section": "§4.4.7 [Use of Relative Timing Variables]", "md_verbatim": "CRF contains \"Year Started\" and a checkbox for \"Active\"; \"Date of Assessment\" is also collected.", "score": 0.5645, "match_basis": "verbatim_token+chapter_route:ch04"}, {"md_atom_id": "md_ch04_a673", "md_file": "knowledge_base/chapters/ch04_general_assumptions.md", "md_atom_type": "SENTENCE", "md_parent_section": "§4.4.7 [Use of Relative Timing Variables]", "md_verbatim": "CRF contains \"Start Date\", \"Stop Date\", and \"Outcome\" checkboxes for \"Continuing\" and \"Unknown\".", "score": 0.435, "match_basis": "verbatim_token+chapter_route:ch04"}, {"md_atom_id": "md_ch04_a658", "md_file": "knowledge_base/chapters/ch04_general_assumptions.md", "md_atom_type": "LIST_ITEM", "md_parent_section": "§4.4.7 [Use of Relative Timing Variables]", "md_verbatim": "- MHSTDTC = year of condition start (e.g., \"2002\")", "score": 0.3923, "match_basis": "verbatim_token+chapter_route:ch04"}, {"md_atom_id": "md_ch04_a839", "md_file": "knowledge_base/chapters/ch04_general_assumptions.md", "md_atom_type": "LIST_ITEM", "md_parent_section": "§4.5.1.3 [Examples of Original and Standard Units and Test Not Done]", "md_verbatim": "- **Row 5:** A character result was converted to a standardized format.", "score": 0.3792, "match_basis": "verbatim_token+chapter_route:ch04"}, {"md_atom_id": "md_ch04_a190", "md_file": "knowledge_base/chapters/ch04_general_assumptions.md", "md_atom_type": "LIST_ITEM", "md_parent_section": "§4.2.1.3 [--TERM Conventions (Events)]", "md_verbatim": "- Contains the verbatim or prespecified name of the event", "score": 0.375, "match_basis": "verbatim_token+chapter_route:ch04"}], "candidate_count": 5, "zero_candidate": false}
{"pdf_atom_id": "ig34_p0044_a015", "pdf_atom_type": "LIST_ITEM", "pdf_source": "SDTMIG_v3.4", "pdf_page": 44, "pdf_parent_section": "§4.4.7 [Use of Relative Timing Variables]", "pdf_verbatim": "\"Date of Assessment\" is collected", "figure_ref": null, "candidates": [{"md_atom_id": "md_ch04_a674", "md_file": "knowledge_base/chapters/ch04_general_assumptions.md", "md_atom_type": "SENTENCE", "md_parent_section": "§4.4.7 [Use of Relative Timing Variables]", "md_verbatim": "No assessment date or visit information was collected.", "score": 0.55, "match_basis": "verbatim_token+chapter_route:ch04"}, {"md_atom_id": "md_ch04_a657", "md_file": "knowledge_base/chapters/ch04_general_assumptions.md", "md_atom_type": "LIST_ITEM", "md_parent_section": "§4.4.7 [Use of Relative Timing Variables]", "md_verbatim": "- MHDTC = date of assessment value (e.g., \"2006-11-02\")", "score": 0.54, "match_basis": "verbatim_token+chapter_route:ch04"}, {"md_atom_id": "md_ch04_a660", "md_file": "knowledge_base/chapters/ch04_general_assumptions.md", "md_atom_type": "LIST_ITEM", "md_parent_section": "§4.4.7 [Use of Relative Timing Variables]", "md_verbatim": "- MHENTPT = date of assessment value (e.g., \"2006-11-02\")", "score": 0.5308, "match_basis": "verbatim_token+chapter_route:ch04"}, {"md_atom_id": "md_ch04_a655", "md_file": "knowledge_base/chapters/ch04_general_assumptions.md", "md_atom_type": "SENTENCE", "md_parent_section": "§4.4.7 [Use of Relative Timing Variables]", "md_verbatim": "CRF contains \"Year Started\" and a checkbox for \"Active\"; \"Date of Assessment\" is also collected.", "score": 0.4418, "match_basis": "verbatim_token+chapter_route:ch04"}, {"md_atom_id": "md_ch04_a246", "md_file": "knowledge_base/chapters/ch04_general_assumptions.md", "md_atom_type": "LIST_ITEM", "md_parent_section": "§4.2.6 [Grouping Variables and Categorization]", "md_verbatim": "1. --CAT/--SCAT are known (identified) about the data before it is collected.", "score": 0.4385, "match_basis": "verbatim_token+chapter_route:ch04"}], "candidate_count": 5, "zero_candidate": false}
{"pdf_atom_id": "ig34_p0044_a016", "pdf_atom_type": "SENTENCE", "pdf_source": "SDTMIG_v3.4", "pdf_page": 44, "pdf_parent_section": "§4.4.7 [Use of Relative Timing Variables]", "pdf_verbatim": "Example when \"Active\" is checked:", "figure_ref": null, "candidates": [{"md_atom_id": "md_ch04_a656", "md_file": "knowledge_base/chapters/ch04_general_assumptions.md", "md_atom_type": "SENTENCE", "md_parent_section": "§4.4.7 [Use of Relative Timing Variables]", "md_verbatim": "When \"Active\" is checked:", "score": 0.7125, "match_basis": "verbatim_token+chapter_route:ch04"}, {"md_atom_id": "md_ch04_a675", "md_file": "knowledge_base/chapters/ch04_general_assumptions.md", "md_atom_type": "SENTENCE", "md_parent_section": "§4.4.7 [Use of Relative Timing Variables]", "md_verbatim": "When \"Unknown\" is checked:", "score": 0.5, "match_basis": "verbatim_token+chapter_route:ch04"}, {"md_atom_id": "md_ch04_a320", "md_file": "knowledge_base/chapters/ch04_general_assumptions.md", "md_atom_type": "SENTENCE", "md_parent_section": "§4.2.7.3 [\"Specify\" Values for Topic Variables]", "md_verbatim": "For example:", "score": 0.4765, "match_basis": "verbatim_token+chapter_route:ch04"}, {"md_atom_id": "md_ch04_a354", "md_file": "knowledge_base/chapters/ch04_general_assumptions.md", "md_atom_type": "SENTENCE", "md_parent_section": "§4.2.8.2 [Multiple Values for a Findings Result Variable]", "md_verbatim": "For example:", "score": 0.4765, "match_basis": "verbatim_token+chapter_route:ch04"}, {"md_atom_id": "md_ch04_a402", "md_file": "knowledge_base/chapters/ch04_general_assumptions.md", "md_atom_type": "SENTENCE", "md_parent_section": "§4.2.8.4 [Multiple Values for a Parameter]", "md_verbatim": "For example:", "score": 0.4765, "match_basis": "verbatim_token+chapter_route:ch04"}], "candidate_count": 5, "zero_candidate": false}
{"pdf_atom_id": "ig34_p0044_a017", "pdf_atom_type": "LIST_ITEM", "pdf_source": "SDTMIG_v3.4", "pdf_page": 44, "pdf_parent_section": "§4.4.7 [Use of Relative Timing Variables]", "pdf_verbatim": "MHDTC = date of assessment value (e.g., \"2006-11-02\")", "figure_ref": null, "candidates": [{"md_atom_id": "md_ch04_a657", "md_file": "knowledge_base/chapters/ch04_general_assumptions.md", "md_atom_type": "LIST_ITEM", "md_parent_section": "§4.4.7 [Use of Relative Timing Variables]", "md_verbatim": "- MHDTC = date of assessment value (e.g., \"2006-11-02\")", "score": 0.9, "match_basis": "verbatim_token+chapter_route:ch04"}, {"md_atom_id": "md_ch04_a660", "md_file": "knowledge_base/chapters/ch04_general_assumptions.md", "md_atom_type": "LIST_ITEM", "md_parent_section": "§4.4.7 [Use of Relative Timing Variables]", "md_verbatim": "- MHENTPT = date of assessment value (e.g., \"2006-11-02\")", "score": 0.7091, "match_basis": "verbatim_token+chapter_route:ch04"}, {"md_atom_id": "md_ch04_a671", "md_file": "knowledge_base/chapters/ch04_general_assumptions.md", "md_atom_type": "LIST_ITEM", "md_parent_section": "§4.4.7 [Use of Relative Timing Variables]", "md_verbatim": "- CMENTPT = final study visit date (e.g., \"2006-11-02\")", "score": 0.42, "match_basis": "verbatim_token+chapter_route:ch04"}, {"md_atom_id": "md_ch04_a676", "md_file": "knowledge_base/chapters/ch04_general_assumptions.md", "md_atom_type": "LIST_ITEM", "md_parent_section": "§4.4.7 [Use of Relative Timing Variables]", "md_verbatim": "- AESTDTC = start date (e.g., \"2006-10-01\")", "score": 0.42, "match_basis": "verbatim_token+chapter_route:ch04"}, {"md_atom_id": "md_ch04_a679", "md_file": "knowledge_base/chapters/ch04_general_assumptions.md", "md_atom_type": "LIST_ITEM", "md_parent_section": "§4.4.7 [Use of Relative Timing Variables]", "md_verbatim": "- AEENTPT = final subject contact date (e.g., \"2006-11-02\")", "score": 0.3857, "match_basis": "verbatim_token+chapter_route:ch04"}], "candidate_count": 5, "zero_candidate": false}
{"pdf_atom_id": "ig34_p0044_a018", "pdf_atom_type": "LIST_ITEM", "pdf_source": "SDTMIG_v3.4", "pdf_page": 44, "pdf_parent_section": "§4.4.7 [Use of Relative Timing Variables]", "pdf_verbatim": "MHSTDTC = year of condition start (e.g., \"2002\")", "figure_ref": null, "candidates": [{"md_atom_id": "md_ch04_a658", "md_file": "knowledge_base/chapters/ch04_general_assumptions.md", "md_atom_type": "LIST_ITEM", "md_parent_section": "§4.4.7 [Use of Relative Timing Variables]", "md_verbatim": "- MHSTDTC = year of condition start (e.g., \"2002\")", "score": 0.9, "match_basis": "verbatim_token+chapter_route:ch04"}, {"md_atom_id": "md_ch04_a676", "md_file": "knowledge_base/chapters/ch04_general_assumptions.md", "md_atom_type": "LIST_ITEM", "md_parent_section": "§4.4.7 [Use of Relative Timing Variables]", "md_verbatim": "- AESTDTC = start date (e.g., \"2006-10-01\")", "score": 0.475, "match_basis": "verbatim_token+chapter_route:ch04"}, {"md_atom_id": "md_ch04_a601", "md_file": "knowledge_base/chapters/ch04_general_assumptions.md", "md_atom_type": "LIST_ITEM", "md_parent_section": "§4.4.4 [Study Day Variables]", "md_verbatim": "- If --DTC is on or after RFSTDTC: DY = date portion of --DTC − date portion of RFSTDTC + 1", "score": 0.4034, "match_basis": "verbatim_token+chapter_route:ch04"}, {"md_atom_id": "md_ch04_a602", "md_file": "knowledge_base/chapters/ch04_general_assumptions.md", "md_atom_type": "LIST_ITEM", "md_parent_section": "§4.4.4 [Study Day Variables]", "md_verbatim": "- If --DTC is before RFSTDTC: DY = date portion of --DTC − date portion of RFSTDTC", "score": 0.4, "match_basis": "verbatim_token+chapter_route:ch04"}, {"md_atom_id": "md_ch04_a666", "md_file": "knowledge_base/chapters/ch04_general_assumptions.md", "md_atom_type": "LIST_ITEM", "md_parent_section": "§4.4.7 [Use of Relative Timing Variables]", "md_verbatim": "- CMSTDTC is null", "score": 0.3783, "match_basis": "verbatim_token+chapter_route:ch04"}], "candidate_count": 5, "zero_candidate": false}
