{"pdf_atom_id": "ig34_p0286_a013", "pdf_atom_type": "TABLE_ROW", "pdf_source": "SDTMIG_v3.4", "pdf_page": 286, "pdf_parent_section": "§6.3.7.1 Generic Morphology/Physiology Specification", "pdf_verbatim": "| --DY | Study Day of Collection | Num | | Timing | Study day of the collection, in integer days. The algorithm for calculations must be relative to the sponsor-defined RFSTDTC variable in the Demographics (DM) domain. | Exp |", "figure_ref": null, "candidates": [{"md_atom_id": "md_varindex_a1168", "md_file": "knowledge_base/VARIABLE_INDEX.md", "md_atom_type": "TABLE_ROW", "md_parent_section": "§ 二、领域专属变量（仅 1 个域，共 1499 个），按域分组", "md_verbatim": "| PPDY | Study Day of Parameter Calculations | Num | Timing | Perm | — |", "score": 0.4239, "match_basis": "verbatim_token+global_search"}, {"md_atom_id": "md_model03_a052", "md_file": "knowledge_base/model/03_special_purpose_domains.md", "md_atom_type": "TABLE_ROW", "md_parent_section": "§ Demographics (DM) > Variables (38 variables)", "md_verbatim": "| 38 | DMDY | Study Day of Collection | Num | Timing | |", "score": 0.4229, "match_basis": "verbatim_token+global_search"}, {"md_atom_id": "md_varindex_a1079", "md_file": "knowledge_base/VARIABLE_INDEX.md", "md_atom_type": "TABLE_ROW", "md_parent_section": "§ 二、领域专属变量（仅 1 个域，共 1499 个），按域分组", "md_verbatim": "| OEDY | Study Day of Visit/Collection/Exam | Num | Timing | Exp | — |", "score": 0.4227, "match_basis": "verbatim_token+global_search"}, {"md_atom_id": "md_model02_a201", "md_file": "knowledge_base/model/02_observation_classes.md", "md_atom_type": "TABLE_ROW", "md_parent_section": "§3.1.5 > Study Day Variables", "md_verbatim": "| 13 | --DY | Study Day of Visit/Collection/Exam | Num | Derived from --DTC and RFSTDTC |", "score": 0.4226, "match_basis": "verbatim_token+global_search"}, {"md_atom_id": "md_varindex_a377", "md_file": "knowledge_base/VARIABLE_INDEX.md", "md_atom_type": "TABLE_ROW", "md_parent_section": "§ 二、领域专属变量（仅 1 个域，共 1499 个），按域分组", "md_verbatim": "| DDDY | Study Day of Collection | Num | Timing | Perm | — |", "score": 0.42, "match_basis": "verbatim_token+global_search"}], "candidate_count": 5, "zero_candidate": false}
{"pdf_atom_id": "ig34_p0286_a014", "pdf_atom_type": "NOTE", "pdf_source": "SDTMIG_v3.4", "pdf_page": 286, "pdf_parent_section": "§6.3.7.1 Generic Morphology/Physiology Specification", "pdf_verbatim": "¹In this column, an asterisk (*) indicates that the variable may be subject to controlled terminology. CDISC/NCI codelist values are enclosed in parentheses.", "figure_ref": null, "candidates": [{"md_atom_id": "md_ch08_a080", "md_file": "knowledge_base/chapters/ch08_relationships.md", "md_atom_type": "SENTENCE", "md_parent_section": "§8.2.1 [Related Records (RELREC)]", "md_verbatim": "^1^ In this column, an asterisk (*) indicates that the variable may be subject to controlled terminology. CDISC/NCI codelist values are enclosed in parentheses.", "score": 0.81, "match_basis": "verbatim_token+global_search"}, {"md_atom_id": "md_ch08_a168", "md_file": "knowledge_base/chapters/ch08_relationships.md", "md_atom_type": "SENTENCE", "md_parent_section": "§8.4.1 [Supplemental Qualifiers (SUPP--)]", "md_verbatim": "^1^ In this column, an asterisk (*) indicates that the variable may be subject to controlled terminology. CDISC/NCI codelist values are enclosed in parentheses.", "score": 0.81, "match_basis": "verbatim_token+global_search"}, {"md_atom_id": "md_ch04_a473", "md_file": "knowledge_base/chapters/ch04_general_assumptions.md", "md_atom_type": "NOTE", "md_parent_section": "§4.3.7 [Use of \"Yes\" and \"No\" Values]", "md_verbatim": "> **Note:** Permissible values for variables with controlled terms of \"Y\" or \"N\" may be extended to include \"U\" or \"NA\" if it is the sponsor's practice to explicitly collect or derive values indicating \"Unknown\" or \"Not Applicable\" for that variable.", "score": 0.4511, "match_basis": "verbatim_token+global_search"}, {"md_atom_id": "md_ch04_a425", "md_file": "knowledge_base/chapters/ch04_general_assumptions.md", "md_atom_type": "SENTENCE", "md_parent_section": "§4.3.1 [Controlled Terms, Codelist or Format Column]", "md_verbatim": "In addition, the Controlled Terms, Codelist or Format column has been used to indicate variables that use an ISO 8601 format.", "score": 0.4327, "match_basis": "verbatim_token+global_search"}, {"md_atom_id": "md_dmTS_assn_a018", "md_file": "knowledge_base/domains/TS/assumptions.md", "md_atom_type": "NOTE", "md_parent_section": "§TS [TS — Assumptions]", "md_verbatim": "    Note that this is different from datasets that contain subject data, where the --SEQ variable has a different value for each record for the same subject.", "score": 0.4266, "match_basis": "verbatim_token+global_search"}], "candidate_count": 5, "zero_candidate": false}
{"pdf_atom_id": "ig34_p0286_a015", "pdf_atom_type": "HEADING", "pdf_source": "SDTMIG_v3.4", "pdf_page": 286, "pdf_parent_section": "§6.3.7 Morphology/Physiology Domains", "pdf_verbatim": "6.3.7.2 Cardiovascular System Findings (CV)", "figure_ref": null, "candidates": [{"md_atom_id": "md_varindex_a310", "md_file": "knowledge_base/VARIABLE_INDEX.md", "md_atom_type": "HEADING", "md_parent_section": "§ 二、领域专属变量（仅 1 个域，共 1499 个），按域分组", "md_verbatim": "### CV — Cardiovascular System Findings (Findings)", "score": 0.9, "match_basis": "verbatim_token+global_search"}, {"md_atom_id": "md_varindex_a1005", "md_file": "knowledge_base/VARIABLE_INDEX.md", "md_atom_type": "HEADING", "md_parent_section": "§ 二、领域专属变量（仅 1 个域，共 1499 个），按域分组", "md_verbatim": "### NV — Nervous System Findings (Findings)", "score": 0.5222, "match_basis": "verbatim_token+global_search"}, {"md_atom_id": "md_varindex_a1593", "md_file": "knowledge_base/VARIABLE_INDEX.md", "md_atom_type": "HEADING", "md_parent_section": "§ 二、领域专属变量（仅 1 个域，共 1499 个），按域分组", "md_verbatim": "### UR — Urinary System Findings (Findings)", "score": 0.5222, "match_basis": "verbatim_token+global_search"}, {"md_atom_id": "md_varindex_a885", "md_file": "knowledge_base/VARIABLE_INDEX.md", "md_atom_type": "HEADING", "md_parent_section": "§ 二、领域专属变量（仅 1 个域，共 1499 个），按域分组", "md_verbatim": "### MK — Musculoskeletal System Findings (Findings)", "score": 0.5182, "match_basis": "verbatim_token+global_search"}, {"md_atom_id": "md_varindex_a1241", "md_file": "knowledge_base/VARIABLE_INDEX.md", "md_atom_type": "HEADING", "md_parent_section": "§ 二、领域专属变量（仅 1 个域，共 1499 个），按域分组", "md_verbatim": "### RE — Respiratory System Findings (Findings)", "score": 0.4935, "match_basis": "verbatim_token+global_search"}], "candidate_count": 5, "zero_candidate": false}
{"pdf_atom_id": "ig34_p0286_a016", "pdf_atom_type": "HEADING", "pdf_source": "SDTMIG_v3.4", "pdf_page": 286, "pdf_parent_section": "§6.3.7.2 Cardiovascular System Findings (CV)", "pdf_verbatim": "CV – Description/Overview", "figure_ref": null, "candidates": [{"md_atom_id": "md_dmCV_assn_a001", "md_file": "knowledge_base/domains/CV/assumptions.md", "md_atom_type": "HEADING", "md_parent_section": "§CV [CV — Assumptions]", "md_verbatim": "# CV — Assumptions", "score": 0.4857, "match_basis": "verbatim_token+domain_route:CV"}, {"md_atom_id": "md_dmCV_ex_a001", "md_file": "knowledge_base/domains/CV/examples.md", "md_atom_type": "HEADING", "md_parent_section": "§CV [CV — Examples]", "md_verbatim": "# CV — Examples", "score": 0.4, "match_basis": "verbatim_token+domain_route:CV"}, {"md_atom_id": "md_dmCV_ex_a002", "md_file": "knowledge_base/domains/CV/examples.md", "md_atom_type": "HEADING", "md_parent_section": "§CV [CV — Examples]", "md_verbatim": "## Example 1", "score": 0.4, "match_basis": "verbatim_token+domain_route:CV"}, {"md_atom_id": "md_dmCV_ex_a011", "md_file": "knowledge_base/domains/CV/examples.md", "md_atom_type": "HEADING", "md_parent_section": "§CV [CV — Examples]", "md_verbatim": "## Example 2", "score": 0.4, "match_basis": "verbatim_token+domain_route:CV"}], "candidate_count": 4, "zero_candidate": false}
{"pdf_atom_id": "ig34_p0286_a017", "pdf_atom_type": "SENTENCE", "pdf_source": "SDTMIG_v3.4", "pdf_page": 286, "pdf_parent_section": "§6.3.7.2 Cardiovascular System Findings (CV)", "pdf_verbatim": "A findings domain that contains physiological and morphological findings related to the cardiovascular system, including the heart, blood vessels and lymphatic vessels.", "figure_ref": null, "candidates": [{"md_atom_id": "md_dmCV_ex_a003", "md_file": "knowledge_base/domains/CV/examples.md", "md_atom_type": "SENTENCE", "md_parent_section": "§CV.1 [Example 1]", "md_verbatim": "This example shows various findings related to the aortic artery, along with evaluation for the presence or absence of abdominal aortic aneurysms. The suprarenal, infrarenal, and thoracic sections of the aorta were examined for aneurysms. This level of anatomical location detail can be found in CVLOC. The records in rows 1 to 3 are related assessments regarding an aneurysm in the thoracic aorta and are grouped together using the CVGRPID variable.", "score": 0.4667, "match_basis": "verbatim_token+domain_route:CV"}, {"md_atom_id": "md_dmCV_assn_a002", "md_file": "knowledge_base/domains/CV/assumptions.md", "md_atom_type": "LIST_ITEM", "md_parent_section": "§CV [CV — Assumptions]", "md_verbatim": "1. The Cardiovascular System Findings domain is used to represent results and findings of cardiovascular diagnostic procedures. Information about the conduct of the procedure(s), if collected, is submitted in the Procedures (PR) domain.", "score": 0.4555, "match_basis": "verbatim_token+domain_route:CV"}, {"md_atom_id": "md_dmCV_ex_a012", "md_file": "knowledge_base/domains/CV/examples.md", "md_atom_type": "SENTENCE", "md_parent_section": "§CV.2 [Example 2]", "md_verbatim": "In this example CVTEST represents the structure of the aortic valve evaluated during a transthoracic echocardiography procedure.", "score": 0.4423, "match_basis": "verbatim_token+domain_route:CV"}, {"md_atom_id": "md_dmCV_ex_a004", "md_file": "knowledge_base/domains/CV/examples.md", "md_atom_type": "SENTENCE", "md_parent_section": "§CV.1 [Example 1]", "md_verbatim": "**cv.xpt**", "score": 0.4, "match_basis": "verbatim_token+domain_route:CV"}, {"md_atom_id": "md_dmCV_ex_a013", "md_file": "knowledge_base/domains/CV/examples.md", "md_atom_type": "SENTENCE", "md_parent_section": "§CV.2 [Example 2]", "md_verbatim": "**cv.xpt**", "score": 0.4, "match_basis": "verbatim_token+domain_route:CV"}], "candidate_count": 5, "zero_candidate": false}
{"pdf_atom_id": "ig34_p0286_a018", "pdf_atom_type": "HEADING", "pdf_source": "SDTMIG_v3.4", "pdf_page": 286, "pdf_parent_section": "§6.3.7.2 Cardiovascular System Findings (CV)", "pdf_verbatim": "CV – Specification", "figure_ref": null, "candidates": [{"md_atom_id": "md_dmCV_assn_a001", "md_file": "knowledge_base/domains/CV/assumptions.md", "md_atom_type": "HEADING", "md_parent_section": "§CV [CV — Assumptions]", "md_verbatim": "# CV — Assumptions", "score": 0.4667, "match_basis": "verbatim_token+domain_route:CV"}, {"md_atom_id": "md_dmCV_ex_a001", "md_file": "knowledge_base/domains/CV/examples.md", "md_atom_type": "HEADING", "md_parent_section": "§CV [CV — Examples]", "md_verbatim": "# CV — Examples", "score": 0.4, "match_basis": "verbatim_token+domain_route:CV"}, {"md_atom_id": "md_dmCV_ex_a002", "md_file": "knowledge_base/domains/CV/examples.md", "md_atom_type": "HEADING", "md_parent_section": "§CV [CV — Examples]", "md_verbatim": "## Example 1", "score": 0.4, "match_basis": "verbatim_token+domain_route:CV"}, {"md_atom_id": "md_dmCV_ex_a011", "md_file": "knowledge_base/domains/CV/examples.md", "md_atom_type": "HEADING", "md_parent_section": "§CV [CV — Examples]", "md_verbatim": "## Example 2", "score": 0.4, "match_basis": "verbatim_token+domain_route:CV"}], "candidate_count": 4, "zero_candidate": false}
{"pdf_atom_id": "ig34_p0286_a019", "pdf_atom_type": "CODE_LITERAL", "pdf_source": "SDTMIG_v3.4", "pdf_page": 286, "pdf_parent_section": "§6.3.7.2 Cardiovascular System Findings (CV)", "pdf_verbatim": "cv.xpt", "figure_ref": null, "candidates": [{"md_atom_id": "md_dmCV_ex_a004", "md_file": "knowledge_base/domains/CV/examples.md", "md_atom_type": "SENTENCE", "md_parent_section": "§CV.1 [Example 1]", "md_verbatim": "**cv.xpt**", "score": 0.79, "match_basis": "verbatim_token+domain_route:CV"}, {"md_atom_id": "md_dmCV_ex_a013", "md_file": "knowledge_base/domains/CV/examples.md", "md_atom_type": "SENTENCE", "md_parent_section": "§CV.2 [Example 2]", "md_verbatim": "**cv.xpt**", "score": 0.79, "match_basis": "verbatim_token+domain_route:CV"}, {"md_atom_id": "md_dmCV_assn_a001", "md_file": "knowledge_base/domains/CV/assumptions.md", "md_atom_type": "HEADING", "md_parent_section": "§CV [CV — Assumptions]", "md_verbatim": "# CV — Assumptions", "score": 0.19, "match_basis": "verbatim_token+domain_route:CV"}, {"md_atom_id": "md_dmCV_assn_a002", "md_file": "knowledge_base/domains/CV/assumptions.md", "md_atom_type": "LIST_ITEM", "md_parent_section": "§CV [CV — Assumptions]", "md_verbatim": "1. The Cardiovascular System Findings domain is used to represent results and findings of cardiovascular diagnostic procedures. Information about the conduct of the procedure(s), if collected, is submitted in the Procedures (PR) domain.", "score": 0.19, "match_basis": "verbatim_token+domain_route:CV"}, {"md_atom_id": "md_dmCV_assn_a003", "md_file": "knowledge_base/domains/CV/assumptions.md", "md_atom_type": "LIST_ITEM", "md_parent_section": "§CV [CV — Assumptions]", "md_verbatim": "2. Any Identifiers, Timing variables, or Findings general observation class qualifiers may be added to the CV domain, but the following qualifiers would generally not be used: --MODIFY, --BODSYS, --FAST, --ORNRLO, --ORNRHI, --TNRLO, --STNRHI, and --LOINC.", "score": 0.19, "match_basis": "verbatim_token+domain_route:CV"}, {"md_atom_id": "md_dmCV_ex_a001", "md_file": "knowledge_base/domains/CV/examples.md", "md_atom_type": "HEADING", "md_parent_section": "§CV [CV — Examples]", "md_verbatim": "# CV — Examples", "score": 0.19, "match_basis": "verbatim_token+domain_route:CV"}, {"md_atom_id": "md_dmCV_ex_a002", "md_file": "knowledge_base/domains/CV/examples.md", "md_atom_type": "HEADING", "md_parent_section": "§CV [CV — Examples]", "md_verbatim": "## Example 1", "score": 0.19, "match_basis": "verbatim_token+domain_route:CV"}, {"md_atom_id": "md_dmCV_ex_a003", "md_file": "knowledge_base/domains/CV/examples.md", "md_atom_type": "SENTENCE", "md_parent_section": "§CV.1 [Example 1]", "md_verbatim": "This example shows various findings related to the aortic artery, along with evaluation for the presence or absence of abdominal aortic aneurysms. The suprarenal, infrarenal, and thoracic sections of the aorta were examined for aneurysms. This level of anatomical location detail can be found in CVLOC. The records in rows 1 to 3 are related assessments regarding an aneurysm in the thoracic aorta and are grouped together using the CVGRPID variable.", "score": 0.19, "match_basis": "verbatim_token+domain_route:CV"}, {"md_atom_id": "md_dmCV_ex_a005", "md_file": "knowledge_base/domains/CV/examples.md", "md_atom_type": "TABLE_HEADER", "md_parent_section": "§CV.1 [Example 1]", "md_verbatim": "| Row | STUDYID | DOMAIN | USUBJID | CVSEQ | CVGRPID | CVTESTCD | CVTEST | CVORRES | CVSTRESC | CVLOC | CVMETHOD | VISITNUM | VISIT | CVDTC |\n|-----|---------|--------|---------|-------|---------|----------|--------|---------|----------|-------|----------|----------|-------|-------|", "score": 0.19, "match_basis": "verbatim_token+domain_route:CV"}, {"md_atom_id": "md_dmCV_ex_a006", "md_file": "knowledge_base/domains/CV/examples.md", "md_atom_type": "TABLE_ROW", "md_parent_section": "§CV.1 [Example 1]", "md_verbatim": "| 1 | ABC123 | CV | 002-2004 | 1 | 2 | ANEURIND | Aneurysm Indicator | Y | Y | THORACIC AORTA | TRANSTHORACIC ECHOCARDIOGRAPHY | 2 | BASELINE | 2015-06-09T14:20 |", "score": 0.19, "match_basis": "verbatim_token+domain_route:CV"}], "candidate_count": 10, "zero_candidate": false}
{"pdf_atom_id": "ig34_p0286_a020", "pdf_atom_type": "TABLE_HEADER", "pdf_source": "SDTMIG_v3.4", "pdf_page": 286, "pdf_parent_section": "§6.3.7.2 Cardiovascular System Findings (CV)", "pdf_verbatim": "| Variable Name | Variable Label | Type | Controlled Terms, Codelist or Format¹ | Role | CDISC Notes | Core |", "figure_ref": null, "candidates": [{"md_atom_id": "md_dmCV_ex_a005", "md_file": "knowledge_base/domains/CV/examples.md", "md_atom_type": "TABLE_HEADER", "md_parent_section": "§CV.1 [Example 1]", "md_verbatim": "| Row | STUDYID | DOMAIN | USUBJID | CVSEQ | CVGRPID | CVTESTCD | CVTEST | CVORRES | CVSTRESC | CVLOC | CVMETHOD | VISITNUM | VISIT | CVDTC |\n|-----|---------|--------|---------|-------|---------|----------|--------|---------|----------|-------|----------|----------|-------|-------|", "score": 0.4061, "match_basis": "verbatim_token+domain_route:CV"}, {"md_atom_id": "md_dmCV_ex_a014", "md_file": "knowledge_base/domains/CV/examples.md", "md_atom_type": "TABLE_HEADER", "md_parent_section": "§CV.2 [Example 2]", "md_verbatim": "| Row | STUDYID | DOMAIN | USUBJID | CVSEQ | CVTESTCD | CVTEST | CVCAT | CVORRES | CVORRESU | CVSTRESC | CVSTRESN | CVSTRESU | CVLOC | CVMETHOD | VISITNUM | VISIT | CVDTC |\n|-----|---------|--------|---------|-------|----------|--------|-------|---------|----------|----------|----------|----------|-------|----------|----------|-------|-------|", "score": 0.4061, "match_basis": "verbatim_token+domain_route:CV"}, {"md_atom_id": "md_dmCV_ex_a015", "md_file": "knowledge_base/domains/CV/examples.md", "md_atom_type": "TABLE_ROW", "md_parent_section": "§CV.2 [Example 2]", "md_verbatim": "| 1 | ABC123 | CV | 1001 | 1 | NCVALTYP | Native Cardiac Valve Structure Without Intervention Type | VALVULAR STRUCTURE, COMMON | NATIVE, WITHOUT INTERVENTION | | NATIVE, WITHOUT INTERVENTION | | | AORTIC VALVE | TRANSTHORACIC ECHOCARDIOGRAPHY | 5 | MONTH 2 | 2015-08-05T11:15 |", "score": 0.3592, "match_basis": "verbatim_token+domain_route:CV"}, {"md_atom_id": "md_dmCV_ex_a021", "md_file": "knowledge_base/domains/CV/examples.md", "md_atom_type": "TABLE_ROW", "md_parent_section": "§CV.2 [Example 2]", "md_verbatim": "| 7 | ABC123 | CV | 1001 | 7 | MNDIAMVS | Minor Axis Cross-sec Diameter, MVS | VALVULAR STRUCTURE, COMMON | 2.11 | cm | 2.11 | 2.11 | cm | AORTIC VALVE ANNULUS | TRANSTHORACIC ECHOCARDIOGRAPHY | 5 | MONTH 2 | 2015-08-05T11:15 |", "score": 0.3545, "match_basis": "verbatim_token+domain_route:CV"}, {"md_atom_id": "md_dmCV_ex_a022", "md_file": "knowledge_base/domains/CV/examples.md", "md_atom_type": "TABLE_ROW", "md_parent_section": "§CV.2 [Example 2]", "md_verbatim": "| 8 | ABC123 | CV | 1001 | 8 | MJDIAMVS | Major Axis Cross-sec Diameter, MVS | VALVULAR STRUCTURE, COMMON | 2.39 | cm | 2.39 | 2.39 | cm | AORTIC VALVE ANNULUS | TRANSTHORACIC ECHOCARDIOGRAPHY | 5 | MONTH 2 | 2015-08-05T11:15 |", "score": 0.3545, "match_basis": "verbatim_token+domain_route:CV"}], "candidate_count": 5, "zero_candidate": false}
{"pdf_atom_id": "ig34_p0286_a021", "pdf_atom_type": "TABLE_ROW", "pdf_source": "SDTMIG_v3.4", "pdf_page": 286, "pdf_parent_section": "§6.3.7.2 Cardiovascular System Findings (CV)", "pdf_verbatim": "| STUDYID | Study Identifier | Char | | Identifier | Unique identifier for a study. | Req |", "figure_ref": null, "candidates": [{"md_atom_id": "md_dmCV_ex_a008", "md_file": "knowledge_base/domains/CV/examples.md", "md_atom_type": "TABLE_ROW", "md_parent_section": "§CV.1 [Example 1]", "md_verbatim": "| 3 | ABC123 | CV | 002-2004 | 3 | 2 | STANFADC | Stanford AoD Classification | CLASS A | CLASS A | THORACIC AORTA | TRANSTHORACIC ECHOCARDIOGRAPHY | 2 | BASELINE | 2015-06-09T14:20 |", "score": 0.4138, "match_basis": "verbatim_token+domain_route:CV"}, {"md_atom_id": "md_dmCV_ex_a015", "md_file": "knowledge_base/domains/CV/examples.md", "md_atom_type": "TABLE_ROW", "md_parent_section": "§CV.2 [Example 2]", "md_verbatim": "| 1 | ABC123 | CV | 1001 | 1 | NCVALTYP | Native Cardiac Valve Structure Without Intervention Type | VALVULAR STRUCTURE, COMMON | NATIVE, WITHOUT INTERVENTION | | NATIVE, WITHOUT INTERVENTION | | | AORTIC VALVE | TRANSTHORACIC ECHOCARDIOGRAPHY | 5 | MONTH 2 | 2015-08-05T11:15 |", "score": 0.4114, "match_basis": "verbatim_token+domain_route:CV"}, {"md_atom_id": "md_dmCV_ex_a006", "md_file": "knowledge_base/domains/CV/examples.md", "md_atom_type": "TABLE_ROW", "md_parent_section": "§CV.1 [Example 1]", "md_verbatim": "| 1 | ABC123 | CV | 002-2004 | 1 | 2 | ANEURIND | Aneurysm Indicator | Y | Y | THORACIC AORTA | TRANSTHORACIC ECHOCARDIOGRAPHY | 2 | BASELINE | 2015-06-09T14:20 |", "score": 0.4, "match_basis": "verbatim_token+domain_route:CV"}, {"md_atom_id": "md_dmCV_ex_a007", "md_file": "knowledge_base/domains/CV/examples.md", "md_atom_type": "TABLE_ROW", "md_parent_section": "§CV.1 [Example 1]", "md_verbatim": "| 2 | ABC123 | CV | 002-2004 | 2 | 2 | DISECIND | Dissection Indicator | Y | Y | THORACIC AORTA | TRANSTHORACIC ECHOCARDIOGRAPHY | 2 | BASELINE | 2015-06-09T14:20 |", "score": 0.4, "match_basis": "verbatim_token+domain_route:CV"}, {"md_atom_id": "md_dmCV_ex_a009", "md_file": "knowledge_base/domains/CV/examples.md", "md_atom_type": "TABLE_ROW", "md_parent_section": "§CV.1 [Example 1]", "md_verbatim": "| 4 | ABC123 | CV | 002-2004 | 4 | | ANEURIND | Aneurysm Indicator | N | N | SUPRARENAL AORTA | TRANSTHORACIC ECHOCARDIOGRAPHY | 2 | BASELINE | 2015-06-09T14:20 |", "score": 0.4, "match_basis": "verbatim_token+domain_route:CV"}], "candidate_count": 5, "zero_candidate": false}
{"pdf_atom_id": "ig34_p0287_a001", "pdf_atom_type": "TABLE_ROW", "pdf_source": "SDTMIG_v3.4", "pdf_page": 287, "pdf_parent_section": "§6.3.7.2 Cardiovascular System Findings (CV)", "pdf_verbatim": "| DOMAIN | Domain Abbreviation | Char | CV | Identifier | Two-character abbreviation for the domain. | Req |", "figure_ref": null, "candidates": [{"md_atom_id": "md_dmCV_ex_a008", "md_file": "knowledge_base/domains/CV/examples.md", "md_atom_type": "TABLE_ROW", "md_parent_section": "§CV.1 [Example 1]", "md_verbatim": "| 3 | ABC123 | CV | 002-2004 | 3 | 2 | STANFADC | Stanford AoD Classification | CLASS A | CLASS A | THORACIC AORTA | TRANSTHORACIC ECHOCARDIOGRAPHY | 2 | BASELINE | 2015-06-09T14:20 |", "score": 0.4379, "match_basis": "verbatim_token+domain_route:CV"}, {"md_atom_id": "md_dmCV_ex_a015", "md_file": "knowledge_base/domains/CV/examples.md", "md_atom_type": "TABLE_ROW", "md_parent_section": "§CV.2 [Example 2]", "md_verbatim": "| 1 | ABC123 | CV | 1001 | 1 | NCVALTYP | Native Cardiac Valve Structure Without Intervention Type | VALVULAR STRUCTURE, COMMON | NATIVE, WITHOUT INTERVENTION | | NATIVE, WITHOUT INTERVENTION | | | AORTIC VALVE | TRANSTHORACIC ECHOCARDIOGRAPHY | 5 | MONTH 2 | 2015-08-05T11:15 |", "score": 0.4375, "match_basis": "verbatim_token+domain_route:CV"}, {"md_atom_id": "md_dmCV_ex_a007", "md_file": "knowledge_base/domains/CV/examples.md", "md_atom_type": "TABLE_ROW", "md_parent_section": "§CV.1 [Example 1]", "md_verbatim": "| 2 | ABC123 | CV | 002-2004 | 2 | 2 | DISECIND | Dissection Indicator | Y | Y | THORACIC AORTA | TRANSTHORACIC ECHOCARDIOGRAPHY | 2 | BASELINE | 2015-06-09T14:20 |", "score": 0.4191, "match_basis": "verbatim_token+domain_route:CV"}, {"md_atom_id": "md_dmCV_ex_a021", "md_file": "knowledge_base/domains/CV/examples.md", "md_atom_type": "TABLE_ROW", "md_parent_section": "§CV.2 [Example 2]", "md_verbatim": "| 7 | ABC123 | CV | 1001 | 7 | MNDIAMVS | Minor Axis Cross-sec Diameter, MVS | VALVULAR STRUCTURE, COMMON | 2.11 | cm | 2.11 | 2.11 | cm | AORTIC VALVE ANNULUS | TRANSTHORACIC ECHOCARDIOGRAPHY | 5 | MONTH 2 | 2015-08-05T11:15 |", "score": 0.4104, "match_basis": "verbatim_token+domain_route:CV"}, {"md_atom_id": "md_dmCV_ex_a022", "md_file": "knowledge_base/domains/CV/examples.md", "md_atom_type": "TABLE_ROW", "md_parent_section": "§CV.2 [Example 2]", "md_verbatim": "| 8 | ABC123 | CV | 1001 | 8 | MJDIAMVS | Major Axis Cross-sec Diameter, MVS | VALVULAR STRUCTURE, COMMON | 2.39 | cm | 2.39 | 2.39 | cm | AORTIC VALVE ANNULUS | TRANSTHORACIC ECHOCARDIOGRAPHY | 5 | MONTH 2 | 2015-08-05T11:15 |", "score": 0.4104, "match_basis": "verbatim_token+domain_route:CV"}], "candidate_count": 5, "zero_candidate": false}
{"pdf_atom_id": "ig34_p0287_a002", "pdf_atom_type": "TABLE_ROW", "pdf_source": "SDTMIG_v3.4", "pdf_page": 287, "pdf_parent_section": "§6.3.7.2 Cardiovascular System Findings (CV)", "pdf_verbatim": "| USUBJID | Unique Subject Identifier | Char | | Identifier | Identifier used to uniquely identify a subject across all studies for all applications or submissions involving the product. | Req |", "figure_ref": null, "candidates": [{"md_atom_id": "md_dmCV_ex_a008", "md_file": "knowledge_base/domains/CV/examples.md", "md_atom_type": "TABLE_ROW", "md_parent_section": "§CV.1 [Example 1]", "md_verbatim": "| 3 | ABC123 | CV | 002-2004 | 3 | 2 | STANFADC | Stanford AoD Classification | CLASS A | CLASS A | THORACIC AORTA | TRANSTHORACIC ECHOCARDIOGRAPHY | 2 | BASELINE | 2015-06-09T14:20 |", "score": 0.4375, "match_basis": "verbatim_token+domain_route:CV"}, {"md_atom_id": "md_dmCV_ex_a007", "md_file": "knowledge_base/domains/CV/examples.md", "md_atom_type": "TABLE_ROW", "md_parent_section": "§CV.1 [Example 1]", "md_verbatim": "| 2 | ABC123 | CV | 002-2004 | 2 | 2 | DISECIND | Dissection Indicator | Y | Y | THORACIC AORTA | TRANSTHORACIC ECHOCARDIOGRAPHY | 2 | BASELINE | 2015-06-09T14:20 |", "score": 0.4286, "match_basis": "verbatim_token+domain_route:CV"}, {"md_atom_id": "md_dmCV_ex_a015", "md_file": "knowledge_base/domains/CV/examples.md", "md_atom_type": "TABLE_ROW", "md_parent_section": "§CV.2 [Example 2]", "md_verbatim": "| 1 | ABC123 | CV | 1001 | 1 | NCVALTYP | Native Cardiac Valve Structure Without Intervention Type | VALVULAR STRUCTURE, COMMON | NATIVE, WITHOUT INTERVENTION | | NATIVE, WITHOUT INTERVENTION | | | AORTIC VALVE | TRANSTHORACIC ECHOCARDIOGRAPHY | 5 | MONTH 2 | 2015-08-05T11:15 |", "score": 0.4243, "match_basis": "verbatim_token+domain_route:CV"}, {"md_atom_id": "md_dmCV_ex_a021", "md_file": "knowledge_base/domains/CV/examples.md", "md_atom_type": "TABLE_ROW", "md_parent_section": "§CV.2 [Example 2]", "md_verbatim": "| 7 | ABC123 | CV | 1001 | 7 | MNDIAMVS | Minor Axis Cross-sec Diameter, MVS | VALVULAR STRUCTURE, COMMON | 2.11 | cm | 2.11 | 2.11 | cm | AORTIC VALVE ANNULUS | TRANSTHORACIC ECHOCARDIOGRAPHY | 5 | MONTH 2 | 2015-08-05T11:15 |", "score": 0.4162, "match_basis": "verbatim_token+domain_route:CV"}, {"md_atom_id": "md_dmCV_ex_a022", "md_file": "knowledge_base/domains/CV/examples.md", "md_atom_type": "TABLE_ROW", "md_parent_section": "§CV.2 [Example 2]", "md_verbatim": "| 8 | ABC123 | CV | 1001 | 8 | MJDIAMVS | Major Axis Cross-sec Diameter, MVS | VALVULAR STRUCTURE, COMMON | 2.39 | cm | 2.39 | 2.39 | cm | AORTIC VALVE ANNULUS | TRANSTHORACIC ECHOCARDIOGRAPHY | 5 | MONTH 2 | 2015-08-05T11:15 |", "score": 0.4162, "match_basis": "verbatim_token+domain_route:CV"}], "candidate_count": 5, "zero_candidate": false}
{"pdf_atom_id": "ig34_p0287_a003", "pdf_atom_type": "TABLE_ROW", "pdf_source": "SDTMIG_v3.4", "pdf_page": 287, "pdf_parent_section": "§6.3.7.2 Cardiovascular System Findings (CV)", "pdf_verbatim": "| CVSEQ | Sequence Number | Num | | Identifier | Sequence number to ensure uniqueness of records within a dataset for a subject. May be any valid number (including decimals) and does not have to start at 1. | Req |", "figure_ref": null, "candidates": [{"md_atom_id": "md_dmCV_ex_a015", "md_file": "knowledge_base/domains/CV/examples.md", "md_atom_type": "TABLE_ROW", "md_parent_section": "§CV.2 [Example 2]", "md_verbatim": "| 1 | ABC123 | CV | 1001 | 1 | NCVALTYP | Native Cardiac Valve Structure Without Intervention Type | VALVULAR STRUCTURE, COMMON | NATIVE, WITHOUT INTERVENTION | | NATIVE, WITHOUT INTERVENTION | | | AORTIC VALVE | TRANSTHORACIC ECHOCARDIOGRAPHY | 5 | MONTH 2 | 2015-08-05T11:15 |", "score": 0.4228, "match_basis": "verbatim_token+domain_route:CV"}, {"md_atom_id": "md_dmCV_ex_a008", "md_file": "knowledge_base/domains/CV/examples.md", "md_atom_type": "TABLE_ROW", "md_parent_section": "§CV.1 [Example 1]", "md_verbatim": "| 3 | ABC123 | CV | 002-2004 | 3 | 2 | STANFADC | Stanford AoD Classification | CLASS A | CLASS A | THORACIC AORTA | TRANSTHORACIC ECHOCARDIOGRAPHY | 2 | BASELINE | 2015-06-09T14:20 |", "score": 0.4213, "match_basis": "verbatim_token+domain_route:CV"}, {"md_atom_id": "md_dmCV_ex_a007", "md_file": "knowledge_base/domains/CV/examples.md", "md_atom_type": "TABLE_ROW", "md_parent_section": "§CV.1 [Example 1]", "md_verbatim": "| 2 | ABC123 | CV | 002-2004 | 2 | 2 | DISECIND | Dissection Indicator | Y | Y | THORACIC AORTA | TRANSTHORACIC ECHOCARDIOGRAPHY | 2 | BASELINE | 2015-06-09T14:20 |", "score": 0.4129, "match_basis": "verbatim_token+domain_route:CV"}, {"md_atom_id": "md_dmCV_ex_a016", "md_file": "knowledge_base/domains/CV/examples.md", "md_atom_type": "TABLE_ROW", "md_parent_section": "§CV.2 [Example 2]", "md_verbatim": "| 2 | ABC123 | CV | 1001 | 2 | SIZE | Size | VALVULAR STRUCTURE, COMMON | REDUCED | | REDUCED | | | AORTIC VALVE ANNULUS | TRANSTHORACIC ECHOCARDIOGRAPHY | 5 | MONTH 2 | 2015-08-05T11:15 |", "score": 0.4081, "match_basis": "verbatim_token+domain_route:CV"}, {"md_atom_id": "md_dmCV_ex_a021", "md_file": "knowledge_base/domains/CV/examples.md", "md_atom_type": "TABLE_ROW", "md_parent_section": "§CV.2 [Example 2]", "md_verbatim": "| 7 | ABC123 | CV | 1001 | 7 | MNDIAMVS | Minor Axis Cross-sec Diameter, MVS | VALVULAR STRUCTURE, COMMON | 2.11 | cm | 2.11 | 2.11 | cm | AORTIC VALVE ANNULUS | TRANSTHORACIC ECHOCARDIOGRAPHY | 5 | MONTH 2 | 2015-08-05T11:15 |", "score": 0.4075, "match_basis": "verbatim_token+domain_route:CV"}], "candidate_count": 5, "zero_candidate": false}
{"pdf_atom_id": "ig34_p0287_a004", "pdf_atom_type": "TABLE_ROW", "pdf_source": "SDTMIG_v3.4", "pdf_page": 287, "pdf_parent_section": "§6.3.7.2 Cardiovascular System Findings (CV)", "pdf_verbatim": "| CVGRPID | Group ID | Char | | Identifier | Optional group identifier, used to link together a block of related records within a subject in a domain. | Perm |", "figure_ref": null, "candidates": [{"md_atom_id": "md_dmCV_ex_a015", "md_file": "knowledge_base/domains/CV/examples.md", "md_atom_type": "TABLE_ROW", "md_parent_section": "§CV.2 [Example 2]", "md_verbatim": "| 1 | ABC123 | CV | 1001 | 1 | NCVALTYP | Native Cardiac Valve Structure Without Intervention Type | VALVULAR STRUCTURE, COMMON | NATIVE, WITHOUT INTERVENTION | | NATIVE, WITHOUT INTERVENTION | | | AORTIC VALVE | TRANSTHORACIC ECHOCARDIOGRAPHY | 5 | MONTH 2 | 2015-08-05T11:15 |", "score": 0.4254, "match_basis": "verbatim_token+domain_route:CV"}, {"md_atom_id": "md_dmCV_ex_a008", "md_file": "knowledge_base/domains/CV/examples.md", "md_atom_type": "TABLE_ROW", "md_parent_section": "§CV.1 [Example 1]", "md_verbatim": "| 3 | ABC123 | CV | 002-2004 | 3 | 2 | STANFADC | Stanford AoD Classification | CLASS A | CLASS A | THORACIC AORTA | TRANSTHORACIC ECHOCARDIOGRAPHY | 2 | BASELINE | 2015-06-09T14:20 |", "score": 0.424, "match_basis": "verbatim_token+domain_route:CV"}, {"md_atom_id": "md_dmCV_ex_a007", "md_file": "knowledge_base/domains/CV/examples.md", "md_atom_type": "TABLE_ROW", "md_parent_section": "§CV.1 [Example 1]", "md_verbatim": "| 2 | ABC123 | CV | 002-2004 | 2 | 2 | DISECIND | Dissection Indicator | Y | Y | THORACIC AORTA | TRANSTHORACIC ECHOCARDIOGRAPHY | 2 | BASELINE | 2015-06-09T14:20 |", "score": 0.4197, "match_basis": "verbatim_token+domain_route:CV"}, {"md_atom_id": "md_dmCV_ex_a005", "md_file": "knowledge_base/domains/CV/examples.md", "md_atom_type": "TABLE_HEADER", "md_parent_section": "§CV.1 [Example 1]", "md_verbatim": "| Row | STUDYID | DOMAIN | USUBJID | CVSEQ | CVGRPID | CVTESTCD | CVTEST | CVORRES | CVSTRESC | CVLOC | CVMETHOD | VISITNUM | VISIT | CVDTC |\n|-----|---------|--------|---------|-------|---------|----------|--------|---------|----------|-------|----------|----------|-------|-------|", "score": 0.4143, "match_basis": "verbatim_token+domain_route:CV"}, {"md_atom_id": "md_dmCV_ex_a009", "md_file": "knowledge_base/domains/CV/examples.md", "md_atom_type": "TABLE_ROW", "md_parent_section": "§CV.1 [Example 1]", "md_verbatim": "| 4 | ABC123 | CV | 002-2004 | 4 | | ANEURIND | Aneurysm Indicator | N | N | SUPRARENAL AORTA | TRANSTHORACIC ECHOCARDIOGRAPHY | 2 | BASELINE | 2015-06-09T14:20 |", "score": 0.4093, "match_basis": "verbatim_token+domain_route:CV"}], "candidate_count": 5, "zero_candidate": false}
{"pdf_atom_id": "ig34_p0287_a005", "pdf_atom_type": "TABLE_ROW", "pdf_source": "SDTMIG_v3.4", "pdf_page": 287, "pdf_parent_section": "§6.3.7.2 Cardiovascular System Findings (CV)", "pdf_verbatim": "| CVREFID | Reference ID | Char | | Identifier | Optional internal or external identifier. | Perm |", "figure_ref": null, "candidates": [{"md_atom_id": "md_dmCV_ex_a015", "md_file": "knowledge_base/domains/CV/examples.md", "md_atom_type": "TABLE_ROW", "md_parent_section": "§CV.2 [Example 2]", "md_verbatim": "| 1 | ABC123 | CV | 1001 | 1 | NCVALTYP | Native Cardiac Valve Structure Without Intervention Type | VALVULAR STRUCTURE, COMMON | NATIVE, WITHOUT INTERVENTION | | NATIVE, WITHOUT INTERVENTION | | | AORTIC VALVE | TRANSTHORACIC ECHOCARDIOGRAPHY | 5 | MONTH 2 | 2015-08-05T11:15 |", "score": 0.4365, "match_basis": "verbatim_token+domain_route:CV"}, {"md_atom_id": "md_dmCV_ex_a008", "md_file": "knowledge_base/domains/CV/examples.md", "md_atom_type": "TABLE_ROW", "md_parent_section": "§CV.1 [Example 1]", "md_verbatim": "| 3 | ABC123 | CV | 002-2004 | 3 | 2 | STANFADC | Stanford AoD Classification | CLASS A | CLASS A | THORACIC AORTA | TRANSTHORACIC ECHOCARDIOGRAPHY | 2 | BASELINE | 2015-06-09T14:20 |", "score": 0.4178, "match_basis": "verbatim_token+domain_route:CV"}, {"md_atom_id": "md_dmCV_ex_a007", "md_file": "knowledge_base/domains/CV/examples.md", "md_atom_type": "TABLE_ROW", "md_parent_section": "§CV.1 [Example 1]", "md_verbatim": "| 2 | ABC123 | CV | 002-2004 | 2 | 2 | DISECIND | Dissection Indicator | Y | Y | THORACIC AORTA | TRANSTHORACIC ECHOCARDIOGRAPHY | 2 | BASELINE | 2015-06-09T14:20 |", "score": 0.4122, "match_basis": "verbatim_token+domain_route:CV"}, {"md_atom_id": "md_dmCV_ex_a009", "md_file": "knowledge_base/domains/CV/examples.md", "md_atom_type": "TABLE_ROW", "md_parent_section": "§CV.1 [Example 1]", "md_verbatim": "| 4 | ABC123 | CV | 002-2004 | 4 | | ANEURIND | Aneurysm Indicator | N | N | SUPRARENAL AORTA | TRANSTHORACIC ECHOCARDIOGRAPHY | 2 | BASELINE | 2015-06-09T14:20 |", "score": 0.4117, "match_basis": "verbatim_token+domain_route:CV"}, {"md_atom_id": "md_dmCV_ex_a010", "md_file": "knowledge_base/domains/CV/examples.md", "md_atom_type": "TABLE_ROW", "md_parent_section": "§CV.1 [Example 1]", "md_verbatim": "| 5 | ABC123 | CV | 002-2004 | 5 | | ANEURIND | Aneurysm Indicator | N | N | INFRARENAL AORTA | TRANSTHORACIC ECHOCARDIOGRAPHY | 2 | BASELINE | 2015-06-09T14:20 |", "score": 0.4117, "match_basis": "verbatim_token+domain_route:CV"}], "candidate_count": 5, "zero_candidate": false}
{"pdf_atom_id": "ig34_p0287_a006", "pdf_atom_type": "TABLE_ROW", "pdf_source": "SDTMIG_v3.4", "pdf_page": 287, "pdf_parent_section": "§6.3.7.2 Cardiovascular System Findings (CV)", "pdf_verbatim": "| CVSPID | Sponsor-Defined Identifier | Char | | Identifier | Sponsor-defined identifier. Example: a preprinted line identifier on a CRF. | Perm |", "figure_ref": null, "candidates": [{"md_atom_id": "md_dmCV_ex_a015", "md_file": "knowledge_base/domains/CV/examples.md", "md_atom_type": "TABLE_ROW", "md_parent_section": "§CV.2 [Example 2]", "md_verbatim": "| 1 | ABC123 | CV | 1001 | 1 | NCVALTYP | Native Cardiac Valve Structure Without Intervention Type | VALVULAR STRUCTURE, COMMON | NATIVE, WITHOUT INTERVENTION | | NATIVE, WITHOUT INTERVENTION | | | AORTIC VALVE | TRANSTHORACIC ECHOCARDIOGRAPHY | 5 | MONTH 2 | 2015-08-05T11:15 |", "score": 0.4195, "match_basis": "verbatim_token+domain_route:CV"}, {"md_atom_id": "md_dmCV_ex_a006", "md_file": "knowledge_base/domains/CV/examples.md", "md_atom_type": "TABLE_ROW", "md_parent_section": "§CV.1 [Example 1]", "md_verbatim": "| 1 | ABC123 | CV | 002-2004 | 1 | 2 | ANEURIND | Aneurysm Indicator | Y | Y | THORACIC AORTA | TRANSTHORACIC ECHOCARDIOGRAPHY | 2 | BASELINE | 2015-06-09T14:20 |", "score": 0.4182, "match_basis": "verbatim_token+domain_route:CV"}, {"md_atom_id": "md_dmCV_ex_a008", "md_file": "knowledge_base/domains/CV/examples.md", "md_atom_type": "TABLE_ROW", "md_parent_section": "§CV.1 [Example 1]", "md_verbatim": "| 3 | ABC123 | CV | 002-2004 | 3 | 2 | STANFADC | Stanford AoD Classification | CLASS A | CLASS A | THORACIC AORTA | TRANSTHORACIC ECHOCARDIOGRAPHY | 2 | BASELINE | 2015-06-09T14:20 |", "score": 0.417, "match_basis": "verbatim_token+domain_route:CV"}, {"md_atom_id": "md_dmCV_ex_a009", "md_file": "knowledge_base/domains/CV/examples.md", "md_atom_type": "TABLE_ROW", "md_parent_section": "§CV.1 [Example 1]", "md_verbatim": "| 4 | ABC123 | CV | 002-2004 | 4 | | ANEURIND | Aneurysm Indicator | N | N | SUPRARENAL AORTA | TRANSTHORACIC ECHOCARDIOGRAPHY | 2 | BASELINE | 2015-06-09T14:20 |", "score": 0.4168, "match_basis": "verbatim_token+domain_route:CV"}, {"md_atom_id": "md_dmCV_ex_a010", "md_file": "knowledge_base/domains/CV/examples.md", "md_atom_type": "TABLE_ROW", "md_parent_section": "§CV.1 [Example 1]", "md_verbatim": "| 5 | ABC123 | CV | 002-2004 | 5 | | ANEURIND | Aneurysm Indicator | N | N | INFRARENAL AORTA | TRANSTHORACIC ECHOCARDIOGRAPHY | 2 | BASELINE | 2015-06-09T14:20 |", "score": 0.4168, "match_basis": "verbatim_token+domain_route:CV"}], "candidate_count": 5, "zero_candidate": false}
{"pdf_atom_id": "ig34_p0287_a007", "pdf_atom_type": "TABLE_ROW", "pdf_source": "SDTMIG_v3.4", "pdf_page": 287, "pdf_parent_section": "§6.3.7.2 Cardiovascular System Findings (CV)", "pdf_verbatim": "| CVLNKID | Link ID | Char | | Identifier | Identifier used to link related records across domains. This may be a one-to-one or a one-to-many relationship. | Perm |", "figure_ref": null, "candidates": [{"md_atom_id": "md_dmCV_ex_a008", "md_file": "knowledge_base/domains/CV/examples.md", "md_atom_type": "TABLE_ROW", "md_parent_section": "§CV.1 [Example 1]", "md_verbatim": "| 3 | ABC123 | CV | 002-2004 | 3 | 2 | STANFADC | Stanford AoD Classification | CLASS A | CLASS A | THORACIC AORTA | TRANSTHORACIC ECHOCARDIOGRAPHY | 2 | BASELINE | 2015-06-09T14:20 |", "score": 0.4313, "match_basis": "verbatim_token+domain_route:CV"}, {"md_atom_id": "md_dmCV_ex_a015", "md_file": "knowledge_base/domains/CV/examples.md", "md_atom_type": "TABLE_ROW", "md_parent_section": "§CV.2 [Example 2]", "md_verbatim": "| 1 | ABC123 | CV | 1001 | 1 | NCVALTYP | Native Cardiac Valve Structure Without Intervention Type | VALVULAR STRUCTURE, COMMON | NATIVE, WITHOUT INTERVENTION | | NATIVE, WITHOUT INTERVENTION | | | AORTIC VALVE | TRANSTHORACIC ECHOCARDIOGRAPHY | 5 | MONTH 2 | 2015-08-05T11:15 |", "score": 0.4224, "match_basis": "verbatim_token+domain_route:CV"}, {"md_atom_id": "md_dmCV_ex_a007", "md_file": "knowledge_base/domains/CV/examples.md", "md_atom_type": "TABLE_ROW", "md_parent_section": "§CV.1 [Example 1]", "md_verbatim": "| 2 | ABC123 | CV | 002-2004 | 2 | 2 | DISECIND | Dissection Indicator | Y | Y | THORACIC AORTA | TRANSTHORACIC ECHOCARDIOGRAPHY | 2 | BASELINE | 2015-06-09T14:20 |", "score": 0.4158, "match_basis": "verbatim_token+domain_route:CV"}, {"md_atom_id": "md_dmCV_ex_a021", "md_file": "knowledge_base/domains/CV/examples.md", "md_atom_type": "TABLE_ROW", "md_parent_section": "§CV.2 [Example 2]", "md_verbatim": "| 7 | ABC123 | CV | 1001 | 7 | MNDIAMVS | Minor Axis Cross-sec Diameter, MVS | VALVULAR STRUCTURE, COMMON | 2.11 | cm | 2.11 | 2.11 | cm | AORTIC VALVE ANNULUS | TRANSTHORACIC ECHOCARDIOGRAPHY | 5 | MONTH 2 | 2015-08-05T11:15 |", "score": 0.4134, "match_basis": "verbatim_token+domain_route:CV"}, {"md_atom_id": "md_dmCV_ex_a022", "md_file": "knowledge_base/domains/CV/examples.md", "md_atom_type": "TABLE_ROW", "md_parent_section": "§CV.2 [Example 2]", "md_verbatim": "| 8 | ABC123 | CV | 1001 | 8 | MJDIAMVS | Major Axis Cross-sec Diameter, MVS | VALVULAR STRUCTURE, COMMON | 2.39 | cm | 2.39 | 2.39 | cm | AORTIC VALVE ANNULUS | TRANSTHORACIC ECHOCARDIOGRAPHY | 5 | MONTH 2 | 2015-08-05T11:15 |", "score": 0.4134, "match_basis": "verbatim_token+domain_route:CV"}], "candidate_count": 5, "zero_candidate": false}
{"pdf_atom_id": "ig34_p0287_a008", "pdf_atom_type": "TABLE_ROW", "pdf_source": "SDTMIG_v3.4", "pdf_page": 287, "pdf_parent_section": "§6.3.7.2 Cardiovascular System Findings (CV)", "pdf_verbatim": "| CVLNKGRP | Link Group | Char | | Identifier | Identifier used to link related records across domains. This will usually be a many-to-one relationship. | Perm |", "figure_ref": null, "candidates": [{"md_atom_id": "md_dmCV_ex_a008", "md_file": "knowledge_base/domains/CV/examples.md", "md_atom_type": "TABLE_ROW", "md_parent_section": "§CV.1 [Example 1]", "md_verbatim": "| 3 | ABC123 | CV | 002-2004 | 3 | 2 | STANFADC | Stanford AoD Classification | CLASS A | CLASS A | THORACIC AORTA | TRANSTHORACIC ECHOCARDIOGRAPHY | 2 | BASELINE | 2015-06-09T14:20 |", "score": 0.4288, "match_basis": "verbatim_token+domain_route:CV"}, {"md_atom_id": "md_dmCV_ex_a015", "md_file": "knowledge_base/domains/CV/examples.md", "md_atom_type": "TABLE_ROW", "md_parent_section": "§CV.2 [Example 2]", "md_verbatim": "| 1 | ABC123 | CV | 1001 | 1 | NCVALTYP | Native Cardiac Valve Structure Without Intervention Type | VALVULAR STRUCTURE, COMMON | NATIVE, WITHOUT INTERVENTION | | NATIVE, WITHOUT INTERVENTION | | | AORTIC VALVE | TRANSTHORACIC ECHOCARDIOGRAPHY | 5 | MONTH 2 | 2015-08-05T11:15 |", "score": 0.4208, "match_basis": "verbatim_token+domain_route:CV"}, {"md_atom_id": "md_dmCV_ex_a007", "md_file": "knowledge_base/domains/CV/examples.md", "md_atom_type": "TABLE_ROW", "md_parent_section": "§CV.1 [Example 1]", "md_verbatim": "| 2 | ABC123 | CV | 002-2004 | 2 | 2 | DISECIND | Dissection Indicator | Y | Y | THORACIC AORTA | TRANSTHORACIC ECHOCARDIOGRAPHY | 2 | BASELINE | 2015-06-09T14:20 |", "score": 0.4145, "match_basis": "verbatim_token+domain_route:CV"}, {"md_atom_id": "md_dmCV_ex_a021", "md_file": "knowledge_base/domains/CV/examples.md", "md_atom_type": "TABLE_ROW", "md_parent_section": "§CV.2 [Example 2]", "md_verbatim": "| 7 | ABC123 | CV | 1001 | 7 | MNDIAMVS | Minor Axis Cross-sec Diameter, MVS | VALVULAR STRUCTURE, COMMON | 2.11 | cm | 2.11 | 2.11 | cm | AORTIC VALVE ANNULUS | TRANSTHORACIC ECHOCARDIOGRAPHY | 5 | MONTH 2 | 2015-08-05T11:15 |", "score": 0.4125, "match_basis": "verbatim_token+domain_route:CV"}, {"md_atom_id": "md_dmCV_ex_a022", "md_file": "knowledge_base/domains/CV/examples.md", "md_atom_type": "TABLE_ROW", "md_parent_section": "§CV.2 [Example 2]", "md_verbatim": "| 8 | ABC123 | CV | 1001 | 8 | MJDIAMVS | Major Axis Cross-sec Diameter, MVS | VALVULAR STRUCTURE, COMMON | 2.39 | cm | 2.39 | 2.39 | cm | AORTIC VALVE ANNULUS | TRANSTHORACIC ECHOCARDIOGRAPHY | 5 | MONTH 2 | 2015-08-05T11:15 |", "score": 0.4125, "match_basis": "verbatim_token+domain_route:CV"}], "candidate_count": 5, "zero_candidate": false}
{"pdf_atom_id": "ig34_p0287_a009", "pdf_atom_type": "TABLE_ROW", "pdf_source": "SDTMIG_v3.4", "pdf_page": 287, "pdf_parent_section": "§6.3.7.2 Cardiovascular System Findings (CV)", "pdf_verbatim": "| CVTESTCD | Short Name of Cardiovascular Test | Char | (CVTESTCD) | Topic | Short name of the measurement, test, or examination described in CVTEST. It can be used as a column name when converting a dataset from a vertical to a horizontal format. The value in CVTESTCD cannot be longer than 8 characters, nor can it start with a number (e.g., \"1TEST\" would not be valid). CVTESTCD cannot contain characters other than letters, numbers, or underscores. | Req |", "figure_ref": null, "candidates": [{"md_atom_id": "md_dmCV_ex_a015", "md_file": "knowledge_base/domains/CV/examples.md", "md_atom_type": "TABLE_ROW", "md_parent_section": "§CV.2 [Example 2]", "md_verbatim": "| 1 | ABC123 | CV | 1001 | 1 | NCVALTYP | Native Cardiac Valve Structure Without Intervention Type | VALVULAR STRUCTURE, COMMON | NATIVE, WITHOUT INTERVENTION | | NATIVE, WITHOUT INTERVENTION | | | AORTIC VALVE | TRANSTHORACIC ECHOCARDIOGRAPHY | 5 | MONTH 2 | 2015-08-05T11:15 |", "score": 0.4641, "match_basis": "verbatim_token+domain_route:CV"}, {"md_atom_id": "md_dmCV_ex_a021", "md_file": "knowledge_base/domains/CV/examples.md", "md_atom_type": "TABLE_ROW", "md_parent_section": "§CV.2 [Example 2]", "md_verbatim": "| 7 | ABC123 | CV | 1001 | 7 | MNDIAMVS | Minor Axis Cross-sec Diameter, MVS | VALVULAR STRUCTURE, COMMON | 2.11 | cm | 2.11 | 2.11 | cm | AORTIC VALVE ANNULUS | TRANSTHORACIC ECHOCARDIOGRAPHY | 5 | MONTH 2 | 2015-08-05T11:15 |", "score": 0.4551, "match_basis": "verbatim_token+domain_route:CV"}, {"md_atom_id": "md_dmCV_ex_a017", "md_file": "knowledge_base/domains/CV/examples.md", "md_atom_type": "TABLE_ROW", "md_parent_section": "§CV.2 [Example 2]", "md_verbatim": "| 3 | ABC123 | CV | 1001 | 3 | MNDIAEVS | Minor Axis Cross-sec Diameter, EVS | VALVULAR STRUCTURE, COMMON | 2.18 | cm | 2.18 | 2.18 | cm | AORTIC VALVE ANNULUS | TRANSTHORACIC ECHOCARDIOGRAPHY | 5 | MONTH 2 | 2015-08-05T11:15 |", "score": 0.4548, "match_basis": "verbatim_token+domain_route:CV"}, {"md_atom_id": "md_dmCV_ex_a019", "md_file": "knowledge_base/domains/CV/examples.md", "md_atom_type": "TABLE_ROW", "md_parent_section": "§CV.2 [Example 2]", "md_verbatim": "| 5 | ABC123 | CV | 1001 | 5 | MNDIAEVD | Minor Axis Cross-sec Diameter, EVD | VALVULAR STRUCTURE, COMMON | 1.92 | cm | 1.92 | 1.92 | cm | AORTIC VALVE ANNULUS | TRANSTHORACIC ECHOCARDIOGRAPHY | 5 | MONTH 2 | 2015-08-05T11:15 |", "score": 0.4548, "match_basis": "verbatim_token+domain_route:CV"}, {"md_atom_id": "md_dmCV_ex_a022", "md_file": "knowledge_base/domains/CV/examples.md", "md_atom_type": "TABLE_ROW", "md_parent_section": "§CV.2 [Example 2]", "md_verbatim": "| 8 | ABC123 | CV | 1001 | 8 | MJDIAMVS | Major Axis Cross-sec Diameter, MVS | VALVULAR STRUCTURE, COMMON | 2.39 | cm | 2.39 | 2.39 | cm | AORTIC VALVE ANNULUS | TRANSTHORACIC ECHOCARDIOGRAPHY | 5 | MONTH 2 | 2015-08-05T11:15 |", "score": 0.4488, "match_basis": "verbatim_token+domain_route:CV"}], "candidate_count": 5, "zero_candidate": false}
{"pdf_atom_id": "ig34_p0287_a010", "pdf_atom_type": "TABLE_ROW", "pdf_source": "SDTMIG_v3.4", "pdf_page": 287, "pdf_parent_section": "§6.3.7.2 Cardiovascular System Findings (CV)", "pdf_verbatim": "| CVTEST | Name of Cardiovascular Test | Char | (CVTEST) | Synonym Qualifier | Long name For CVTESTCD. The value in CVTEST cannot be longer than 40 characters. | Req |", "figure_ref": null, "candidates": [{"md_atom_id": "md_dmCV_ex_a021", "md_file": "knowledge_base/domains/CV/examples.md", "md_atom_type": "TABLE_ROW", "md_parent_section": "§CV.2 [Example 2]", "md_verbatim": "| 7 | ABC123 | CV | 1001 | 7 | MNDIAMVS | Minor Axis Cross-sec Diameter, MVS | VALVULAR STRUCTURE, COMMON | 2.11 | cm | 2.11 | 2.11 | cm | AORTIC VALVE ANNULUS | TRANSTHORACIC ECHOCARDIOGRAPHY | 5 | MONTH 2 | 2015-08-05T11:15 |", "score": 0.4512, "match_basis": "verbatim_token+domain_route:CV"}, {"md_atom_id": "md_dmCV_ex_a022", "md_file": "knowledge_base/domains/CV/examples.md", "md_atom_type": "TABLE_ROW", "md_parent_section": "§CV.2 [Example 2]", "md_verbatim": "| 8 | ABC123 | CV | 1001 | 8 | MJDIAMVS | Major Axis Cross-sec Diameter, MVS | VALVULAR STRUCTURE, COMMON | 2.39 | cm | 2.39 | 2.39 | cm | AORTIC VALVE ANNULUS | TRANSTHORACIC ECHOCARDIOGRAPHY | 5 | MONTH 2 | 2015-08-05T11:15 |", "score": 0.4512, "match_basis": "verbatim_token+domain_route:CV"}, {"md_atom_id": "md_dmCV_ex_a017", "md_file": "knowledge_base/domains/CV/examples.md", "md_atom_type": "TABLE_ROW", "md_parent_section": "§CV.2 [Example 2]", "md_verbatim": "| 3 | ABC123 | CV | 1001 | 3 | MNDIAEVS | Minor Axis Cross-sec Diameter, EVS | VALVULAR STRUCTURE, COMMON | 2.18 | cm | 2.18 | 2.18 | cm | AORTIC VALVE ANNULUS | TRANSTHORACIC ECHOCARDIOGRAPHY | 5 | MONTH 2 | 2015-08-05T11:15 |", "score": 0.4508, "match_basis": "verbatim_token+domain_route:CV"}, {"md_atom_id": "md_dmCV_ex_a018", "md_file": "knowledge_base/domains/CV/examples.md", "md_atom_type": "TABLE_ROW", "md_parent_section": "§CV.2 [Example 2]", "md_verbatim": "| 4 | ABC123 | CV | 1001 | 4 | MJDIAEVS | Major Axis Cross-sec Diameter, EVS | VALVULAR STRUCTURE, COMMON | 2.48 | cm | 2.48 | 2.48 | cm | AORTIC VALVE ANNULUS | TRANSTHORACIC ECHOCARDIOGRAPHY | 5 | MONTH 2 | 2015-08-05T11:15 |", "score": 0.4508, "match_basis": "verbatim_token+domain_route:CV"}, {"md_atom_id": "md_dmCV_ex_a019", "md_file": "knowledge_base/domains/CV/examples.md", "md_atom_type": "TABLE_ROW", "md_parent_section": "§CV.2 [Example 2]", "md_verbatim": "| 5 | ABC123 | CV | 1001 | 5 | MNDIAEVD | Minor Axis Cross-sec Diameter, EVD | VALVULAR STRUCTURE, COMMON | 1.92 | cm | 1.92 | 1.92 | cm | AORTIC VALVE ANNULUS | TRANSTHORACIC ECHOCARDIOGRAPHY | 5 | MONTH 2 | 2015-08-05T11:15 |", "score": 0.4508, "match_basis": "verbatim_token+domain_route:CV"}], "candidate_count": 5, "zero_candidate": false}
{"pdf_atom_id": "ig34_p0287_a011", "pdf_atom_type": "TABLE_ROW", "pdf_source": "SDTMIG_v3.4", "pdf_page": 287, "pdf_parent_section": "§6.3.7.2 Cardiovascular System Findings (CV)", "pdf_verbatim": "| CVCAT | Category for Cardiovascular Test | Char | * | Grouping Qualifier | Used to define a category of topic-variable values. | Perm |", "figure_ref": null, "candidates": [{"md_atom_id": "md_dmCV_ex_a008", "md_file": "knowledge_base/domains/CV/examples.md", "md_atom_type": "TABLE_ROW", "md_parent_section": "§CV.1 [Example 1]", "md_verbatim": "| 3 | ABC123 | CV | 002-2004 | 3 | 2 | STANFADC | Stanford AoD Classification | CLASS A | CLASS A | THORACIC AORTA | TRANSTHORACIC ECHOCARDIOGRAPHY | 2 | BASELINE | 2015-06-09T14:20 |", "score": 0.4403, "match_basis": "verbatim_token+domain_route:CV"}, {"md_atom_id": "md_dmCV_ex_a016", "md_file": "knowledge_base/domains/CV/examples.md", "md_atom_type": "TABLE_ROW", "md_parent_section": "§CV.2 [Example 2]", "md_verbatim": "| 2 | ABC123 | CV | 1001 | 2 | SIZE | Size | VALVULAR STRUCTURE, COMMON | REDUCED | | REDUCED | | | AORTIC VALVE ANNULUS | TRANSTHORACIC ECHOCARDIOGRAPHY | 5 | MONTH 2 | 2015-08-05T11:15 |", "score": 0.4339, "match_basis": "verbatim_token+domain_route:CV"}, {"md_atom_id": "md_dmCV_ex_a006", "md_file": "knowledge_base/domains/CV/examples.md", "md_atom_type": "TABLE_ROW", "md_parent_section": "§CV.1 [Example 1]", "md_verbatim": "| 1 | ABC123 | CV | 002-2004 | 1 | 2 | ANEURIND | Aneurysm Indicator | Y | Y | THORACIC AORTA | TRANSTHORACIC ECHOCARDIOGRAPHY | 2 | BASELINE | 2015-06-09T14:20 |", "score": 0.4316, "match_basis": "verbatim_token+domain_route:CV"}, {"md_atom_id": "md_dmCV_ex_a021", "md_file": "knowledge_base/domains/CV/examples.md", "md_atom_type": "TABLE_ROW", "md_parent_section": "§CV.2 [Example 2]", "md_verbatim": "| 7 | ABC123 | CV | 1001 | 7 | MNDIAMVS | Minor Axis Cross-sec Diameter, MVS | VALVULAR STRUCTURE, COMMON | 2.11 | cm | 2.11 | 2.11 | cm | AORTIC VALVE ANNULUS | TRANSTHORACIC ECHOCARDIOGRAPHY | 5 | MONTH 2 | 2015-08-05T11:15 |", "score": 0.4309, "match_basis": "verbatim_token+domain_route:CV"}, {"md_atom_id": "md_dmCV_ex_a022", "md_file": "knowledge_base/domains/CV/examples.md", "md_atom_type": "TABLE_ROW", "md_parent_section": "§CV.2 [Example 2]", "md_verbatim": "| 8 | ABC123 | CV | 1001 | 8 | MJDIAMVS | Major Axis Cross-sec Diameter, MVS | VALVULAR STRUCTURE, COMMON | 2.39 | cm | 2.39 | 2.39 | cm | AORTIC VALVE ANNULUS | TRANSTHORACIC ECHOCARDIOGRAPHY | 5 | MONTH 2 | 2015-08-05T11:15 |", "score": 0.4309, "match_basis": "verbatim_token+domain_route:CV"}], "candidate_count": 5, "zero_candidate": false}
{"pdf_atom_id": "ig34_p0287_a012", "pdf_atom_type": "TABLE_ROW", "pdf_source": "SDTMIG_v3.4", "pdf_page": 287, "pdf_parent_section": "§6.3.7.2 Cardiovascular System Findings (CV)", "pdf_verbatim": "| CVSCAT | Subcategory for Cardiovascular Test | Char | * | Grouping Qualifier | Used to define a further categorization of CVCAT values. | Perm |", "figure_ref": null, "candidates": [{"md_atom_id": "md_dmCV_ex_a008", "md_file": "knowledge_base/domains/CV/examples.md", "md_atom_type": "TABLE_ROW", "md_parent_section": "§CV.1 [Example 1]", "md_verbatim": "| 3 | ABC123 | CV | 002-2004 | 3 | 2 | STANFADC | Stanford AoD Classification | CLASS A | CLASS A | THORACIC AORTA | TRANSTHORACIC ECHOCARDIOGRAPHY | 2 | BASELINE | 2015-06-09T14:20 |", "score": 0.4528, "match_basis": "verbatim_token+domain_route:CV"}, {"md_atom_id": "md_dmCV_ex_a015", "md_file": "knowledge_base/domains/CV/examples.md", "md_atom_type": "TABLE_ROW", "md_parent_section": "§CV.2 [Example 2]", "md_verbatim": "| 1 | ABC123 | CV | 1001 | 1 | NCVALTYP | Native Cardiac Valve Structure Without Intervention Type | VALVULAR STRUCTURE, COMMON | NATIVE, WITHOUT INTERVENTION | | NATIVE, WITHOUT INTERVENTION | | | AORTIC VALVE | TRANSTHORACIC ECHOCARDIOGRAPHY | 5 | MONTH 2 | 2015-08-05T11:15 |", "score": 0.4417, "match_basis": "verbatim_token+domain_route:CV"}, {"md_atom_id": "md_dmCV_ex_a007", "md_file": "knowledge_base/domains/CV/examples.md", "md_atom_type": "TABLE_ROW", "md_parent_section": "§CV.1 [Example 1]", "md_verbatim": "| 2 | ABC123 | CV | 002-2004 | 2 | 2 | DISECIND | Dissection Indicator | Y | Y | THORACIC AORTA | TRANSTHORACIC ECHOCARDIOGRAPHY | 2 | BASELINE | 2015-06-09T14:20 |", "score": 0.4387, "match_basis": "verbatim_token+domain_route:CV"}, {"md_atom_id": "md_dmCV_ex_a016", "md_file": "knowledge_base/domains/CV/examples.md", "md_atom_type": "TABLE_ROW", "md_parent_section": "§CV.2 [Example 2]", "md_verbatim": "| 2 | ABC123 | CV | 1001 | 2 | SIZE | Size | VALVULAR STRUCTURE, COMMON | REDUCED | | REDUCED | | | AORTIC VALVE ANNULUS | TRANSTHORACIC ECHOCARDIOGRAPHY | 5 | MONTH 2 | 2015-08-05T11:15 |", "score": 0.4316, "match_basis": "verbatim_token+domain_route:CV"}, {"md_atom_id": "md_dmCV_ex_a006", "md_file": "knowledge_base/domains/CV/examples.md", "md_atom_type": "TABLE_ROW", "md_parent_section": "§CV.1 [Example 1]", "md_verbatim": "| 1 | ABC123 | CV | 002-2004 | 1 | 2 | ANEURIND | Aneurysm Indicator | Y | Y | THORACIC AORTA | TRANSTHORACIC ECHOCARDIOGRAPHY | 2 | BASELINE | 2015-06-09T14:20 |", "score": 0.4293, "match_basis": "verbatim_token+domain_route:CV"}], "candidate_count": 5, "zero_candidate": false}
{"pdf_atom_id": "ig34_p0287_a013", "pdf_atom_type": "TABLE_ROW", "pdf_source": "SDTMIG_v3.4", "pdf_page": 287, "pdf_parent_section": "§6.3.7.2 Cardiovascular System Findings (CV)", "pdf_verbatim": "| CVPOS | Position of Subject During Observation | Char | (POSITION) | Record Qualifier | Position of the subject during a measurement or examination. Examples: \"SUPINE\", \"STANDING\", \"SITTING\". | Perm |", "figure_ref": null, "candidates": [{"md_atom_id": "md_dmCV_ex_a008", "md_file": "knowledge_base/domains/CV/examples.md", "md_atom_type": "TABLE_ROW", "md_parent_section": "§CV.1 [Example 1]", "md_verbatim": "| 3 | ABC123 | CV | 002-2004 | 3 | 2 | STANFADC | Stanford AoD Classification | CLASS A | CLASS A | THORACIC AORTA | TRANSTHORACIC ECHOCARDIOGRAPHY | 2 | BASELINE | 2015-06-09T14:20 |", "score": 0.4366, "match_basis": "verbatim_token+domain_route:CV"}, {"md_atom_id": "md_dmCV_ex_a015", "md_file": "knowledge_base/domains/CV/examples.md", "md_atom_type": "TABLE_ROW", "md_parent_section": "§CV.2 [Example 2]", "md_verbatim": "| 1 | ABC123 | CV | 1001 | 1 | NCVALTYP | Native Cardiac Valve Structure Without Intervention Type | VALVULAR STRUCTURE, COMMON | NATIVE, WITHOUT INTERVENTION | | NATIVE, WITHOUT INTERVENTION | | | AORTIC VALVE | TRANSTHORACIC ECHOCARDIOGRAPHY | 5 | MONTH 2 | 2015-08-05T11:15 |", "score": 0.428, "match_basis": "verbatim_token+domain_route:CV"}, {"md_atom_id": "md_dmCV_ex_a007", "md_file": "knowledge_base/domains/CV/examples.md", "md_atom_type": "TABLE_ROW", "md_parent_section": "§CV.1 [Example 1]", "md_verbatim": "| 2 | ABC123 | CV | 002-2004 | 2 | 2 | DISECIND | Dissection Indicator | Y | Y | THORACIC AORTA | TRANSTHORACIC ECHOCARDIOGRAPHY | 2 | BASELINE | 2015-06-09T14:20 |", "score": 0.4231, "match_basis": "verbatim_token+domain_route:CV"}, {"md_atom_id": "md_dmCV_ex_a009", "md_file": "knowledge_base/domains/CV/examples.md", "md_atom_type": "TABLE_ROW", "md_parent_section": "§CV.1 [Example 1]", "md_verbatim": "| 4 | ABC123 | CV | 002-2004 | 4 | | ANEURIND | Aneurysm Indicator | N | N | SUPRARENAL AORTA | TRANSTHORACIC ECHOCARDIOGRAPHY | 2 | BASELINE | 2015-06-09T14:20 |", "score": 0.4222, "match_basis": "verbatim_token+domain_route:CV"}, {"md_atom_id": "md_dmCV_ex_a006", "md_file": "knowledge_base/domains/CV/examples.md", "md_atom_type": "TABLE_ROW", "md_parent_section": "§CV.1 [Example 1]", "md_verbatim": "| 1 | ABC123 | CV | 002-2004 | 1 | 2 | ANEURIND | Aneurysm Indicator | Y | Y | THORACIC AORTA | TRANSTHORACIC ECHOCARDIOGRAPHY | 2 | BASELINE | 2015-06-09T14:20 |", "score": 0.4187, "match_basis": "verbatim_token+domain_route:CV"}], "candidate_count": 5, "zero_candidate": false}
{"pdf_atom_id": "ig34_p0287_a014", "pdf_atom_type": "TABLE_ROW", "pdf_source": "SDTMIG_v3.4", "pdf_page": 287, "pdf_parent_section": "§6.3.7.2 Cardiovascular System Findings (CV)", "pdf_verbatim": "| CVORRES | Result or Finding in Original Units | Char | | Result Qualifier | Result of the measurement or finding as originally received or collected. | Exp |", "figure_ref": null, "candidates": [{"md_atom_id": "md_dmCV_ex_a007", "md_file": "knowledge_base/domains/CV/examples.md", "md_atom_type": "TABLE_ROW", "md_parent_section": "§CV.1 [Example 1]", "md_verbatim": "| 2 | ABC123 | CV | 002-2004 | 2 | 2 | DISECIND | Dissection Indicator | Y | Y | THORACIC AORTA | TRANSTHORACIC ECHOCARDIOGRAPHY | 2 | BASELINE | 2015-06-09T14:20 |", "score": 0.4153, "match_basis": "verbatim_token+domain_route:CV"}, {"md_atom_id": "md_dmCV_ex_a009", "md_file": "knowledge_base/domains/CV/examples.md", "md_atom_type": "TABLE_ROW", "md_parent_section": "§CV.1 [Example 1]", "md_verbatim": "| 4 | ABC123 | CV | 002-2004 | 4 | | ANEURIND | Aneurysm Indicator | N | N | SUPRARENAL AORTA | TRANSTHORACIC ECHOCARDIOGRAPHY | 2 | BASELINE | 2015-06-09T14:20 |", "score": 0.4146, "match_basis": "verbatim_token+domain_route:CV"}, {"md_atom_id": "md_dmCV_ex_a010", "md_file": "knowledge_base/domains/CV/examples.md", "md_atom_type": "TABLE_ROW", "md_parent_section": "§CV.1 [Example 1]", "md_verbatim": "| 5 | ABC123 | CV | 002-2004 | 5 | | ANEURIND | Aneurysm Indicator | N | N | INFRARENAL AORTA | TRANSTHORACIC ECHOCARDIOGRAPHY | 2 | BASELINE | 2015-06-09T14:20 |", "score": 0.4146, "match_basis": "verbatim_token+domain_route:CV"}, {"md_atom_id": "md_dmCV_ex_a015", "md_file": "knowledge_base/domains/CV/examples.md", "md_atom_type": "TABLE_ROW", "md_parent_section": "§CV.2 [Example 2]", "md_verbatim": "| 1 | ABC123 | CV | 1001 | 1 | NCVALTYP | Native Cardiac Valve Structure Without Intervention Type | VALVULAR STRUCTURE, COMMON | NATIVE, WITHOUT INTERVENTION | | NATIVE, WITHOUT INTERVENTION | | | AORTIC VALVE | TRANSTHORACIC ECHOCARDIOGRAPHY | 5 | MONTH 2 | 2015-08-05T11:15 |", "score": 0.4129, "match_basis": "verbatim_token+domain_route:CV"}, {"md_atom_id": "md_dmCV_ex_a006", "md_file": "knowledge_base/domains/CV/examples.md", "md_atom_type": "TABLE_ROW", "md_parent_section": "§CV.1 [Example 1]", "md_verbatim": "| 1 | ABC123 | CV | 002-2004 | 1 | 2 | ANEURIND | Aneurysm Indicator | Y | Y | THORACIC AORTA | TRANSTHORACIC ECHOCARDIOGRAPHY | 2 | BASELINE | 2015-06-09T14:20 |", "score": 0.4103, "match_basis": "verbatim_token+domain_route:CV"}], "candidate_count": 5, "zero_candidate": false}
{"pdf_atom_id": "ig34_p0287_a015", "pdf_atom_type": "TABLE_ROW", "pdf_source": "SDTMIG_v3.4", "pdf_page": 287, "pdf_parent_section": "§6.3.7.2 Cardiovascular System Findings (CV)", "pdf_verbatim": "| CVORRESU | Original Units | Char | (UNIT) | Variable Qualifier | Original units in which the data were collected. Unit for CVORRES. | Perm |", "figure_ref": null, "candidates": [{"md_atom_id": "md_dmCV_ex_a008", "md_file": "knowledge_base/domains/CV/examples.md", "md_atom_type": "TABLE_ROW", "md_parent_section": "§CV.1 [Example 1]", "md_verbatim": "| 3 | ABC123 | CV | 002-2004 | 3 | 2 | STANFADC | Stanford AoD Classification | CLASS A | CLASS A | THORACIC AORTA | TRANSTHORACIC ECHOCARDIOGRAPHY | 2 | BASELINE | 2015-06-09T14:20 |", "score": 0.4105, "match_basis": "verbatim_token+domain_route:CV"}, {"md_atom_id": "md_dmCV_ex_a007", "md_file": "knowledge_base/domains/CV/examples.md", "md_atom_type": "TABLE_ROW", "md_parent_section": "§CV.1 [Example 1]", "md_verbatim": "| 2 | ABC123 | CV | 002-2004 | 2 | 2 | DISECIND | Dissection Indicator | Y | Y | THORACIC AORTA | TRANSTHORACIC ECHOCARDIOGRAPHY | 2 | BASELINE | 2015-06-09T14:20 |", "score": 0.4054, "match_basis": "verbatim_token+domain_route:CV"}, {"md_atom_id": "md_dmCV_ex_a009", "md_file": "knowledge_base/domains/CV/examples.md", "md_atom_type": "TABLE_ROW", "md_parent_section": "§CV.1 [Example 1]", "md_verbatim": "| 4 | ABC123 | CV | 002-2004 | 4 | | ANEURIND | Aneurysm Indicator | N | N | SUPRARENAL AORTA | TRANSTHORACIC ECHOCARDIOGRAPHY | 2 | BASELINE | 2015-06-09T14:20 |", "score": 0.4052, "match_basis": "verbatim_token+domain_route:CV"}, {"md_atom_id": "md_dmCV_ex_a010", "md_file": "knowledge_base/domains/CV/examples.md", "md_atom_type": "TABLE_ROW", "md_parent_section": "§CV.1 [Example 1]", "md_verbatim": "| 5 | ABC123 | CV | 002-2004 | 5 | | ANEURIND | Aneurysm Indicator | N | N | INFRARENAL AORTA | TRANSTHORACIC ECHOCARDIOGRAPHY | 2 | BASELINE | 2015-06-09T14:20 |", "score": 0.4052, "match_basis": "verbatim_token+domain_route:CV"}, {"md_atom_id": "md_dmCV_ex_a006", "md_file": "knowledge_base/domains/CV/examples.md", "md_atom_type": "TABLE_ROW", "md_parent_section": "§CV.1 [Example 1]", "md_verbatim": "| 1 | ABC123 | CV | 002-2004 | 1 | 2 | ANEURIND | Aneurysm Indicator | Y | Y | THORACIC AORTA | TRANSTHORACIC ECHOCARDIOGRAPHY | 2 | BASELINE | 2015-06-09T14:20 |", "score": 0.4, "match_basis": "verbatim_token+domain_route:CV"}], "candidate_count": 5, "zero_candidate": false}
{"pdf_atom_id": "ig34_p0287_a016", "pdf_atom_type": "TABLE_ROW", "pdf_source": "SDTMIG_v3.4", "pdf_page": 287, "pdf_parent_section": "§6.3.7.2 Cardiovascular System Findings (CV)", "pdf_verbatim": "| CVSTRESC | Character Result/Finding in Std Format | Char | * | Result Qualifier | Contains the result value for all findings, copied or derived, from CVORRES in a standard format or in standard units. CVSTRESC should store all results or findings in character format; if results are numeric, they should also be stored in numeric format in CVSTRESN. For example, if various tests have results \"NONE\", \"NEG\", and \"NEGATIVE\" in CVORRES and these results effectively have the same meaning, they could be represented in standard format in CVSTRESC as \"NEGATIVE\". | Exp |", "figure_ref": null, "candidates": [{"md_atom_id": "md_dmCV_ex_a015", "md_file": "knowledge_base/domains/CV/examples.md", "md_atom_type": "TABLE_ROW", "md_parent_section": "§CV.2 [Example 2]", "md_verbatim": "| 1 | ABC123 | CV | 1001 | 1 | NCVALTYP | Native Cardiac Valve Structure Without Intervention Type | VALVULAR STRUCTURE, COMMON | NATIVE, WITHOUT INTERVENTION | | NATIVE, WITHOUT INTERVENTION | | | AORTIC VALVE | TRANSTHORACIC ECHOCARDIOGRAPHY | 5 | MONTH 2 | 2015-08-05T11:15 |", "score": 0.4348, "match_basis": "verbatim_token+domain_route:CV"}, {"md_atom_id": "md_dmCV_ex_a021", "md_file": "knowledge_base/domains/CV/examples.md", "md_atom_type": "TABLE_ROW", "md_parent_section": "§CV.2 [Example 2]", "md_verbatim": "| 7 | ABC123 | CV | 1001 | 7 | MNDIAMVS | Minor Axis Cross-sec Diameter, MVS | VALVULAR STRUCTURE, COMMON | 2.11 | cm | 2.11 | 2.11 | cm | AORTIC VALVE ANNULUS | TRANSTHORACIC ECHOCARDIOGRAPHY | 5 | MONTH 2 | 2015-08-05T11:15 |", "score": 0.423, "match_basis": "verbatim_token+domain_route:CV"}, {"md_atom_id": "md_dmCV_ex_a017", "md_file": "knowledge_base/domains/CV/examples.md", "md_atom_type": "TABLE_ROW", "md_parent_section": "§CV.2 [Example 2]", "md_verbatim": "| 3 | ABC123 | CV | 1001 | 3 | MNDIAEVS | Minor Axis Cross-sec Diameter, EVS | VALVULAR STRUCTURE, COMMON | 2.18 | cm | 2.18 | 2.18 | cm | AORTIC VALVE ANNULUS | TRANSTHORACIC ECHOCARDIOGRAPHY | 5 | MONTH 2 | 2015-08-05T11:15 |", "score": 0.4229, "match_basis": "verbatim_token+domain_route:CV"}, {"md_atom_id": "md_dmCV_ex_a019", "md_file": "knowledge_base/domains/CV/examples.md", "md_atom_type": "TABLE_ROW", "md_parent_section": "§CV.2 [Example 2]", "md_verbatim": "| 5 | ABC123 | CV | 1001 | 5 | MNDIAEVD | Minor Axis Cross-sec Diameter, EVD | VALVULAR STRUCTURE, COMMON | 1.92 | cm | 1.92 | 1.92 | cm | AORTIC VALVE ANNULUS | TRANSTHORACIC ECHOCARDIOGRAPHY | 5 | MONTH 2 | 2015-08-05T11:15 |", "score": 0.4229, "match_basis": "verbatim_token+domain_route:CV"}, {"md_atom_id": "md_dmCV_ex_a007", "md_file": "knowledge_base/domains/CV/examples.md", "md_atom_type": "TABLE_ROW", "md_parent_section": "§CV.1 [Example 1]", "md_verbatim": "| 2 | ABC123 | CV | 002-2004 | 2 | 2 | DISECIND | Dissection Indicator | Y | Y | THORACIC AORTA | TRANSTHORACIC ECHOCARDIOGRAPHY | 2 | BASELINE | 2015-06-09T14:20 |", "score": 0.4221, "match_basis": "verbatim_token+domain_route:CV"}], "candidate_count": 5, "zero_candidate": false}
{"pdf_atom_id": "ig34_p0287_a017", "pdf_atom_type": "TABLE_ROW", "pdf_source": "SDTMIG_v3.4", "pdf_page": 287, "pdf_parent_section": "§6.3.7.2 Cardiovascular System Findings (CV)", "pdf_verbatim": "| CVSTRESN | Numeric Result/Finding in Standard Units | Num | | Result Qualifier | Used for continuous or numeric results or findings in standard format; copied in numeric format from CVSTRESC. CVSTRESN should store all numeric test results or findings. | Perm |", "figure_ref": null, "candidates": [{"md_atom_id": "md_dmCV_ex_a008", "md_file": "knowledge_base/domains/CV/examples.md", "md_atom_type": "TABLE_ROW", "md_parent_section": "§CV.1 [Example 1]", "md_verbatim": "| 3 | ABC123 | CV | 002-2004 | 3 | 2 | STANFADC | Stanford AoD Classification | CLASS A | CLASS A | THORACIC AORTA | TRANSTHORACIC ECHOCARDIOGRAPHY | 2 | BASELINE | 2015-06-09T14:20 |", "score": 0.4226, "match_basis": "verbatim_token+domain_route:CV"}, {"md_atom_id": "md_dmCV_ex_a015", "md_file": "knowledge_base/domains/CV/examples.md", "md_atom_type": "TABLE_ROW", "md_parent_section": "§CV.2 [Example 2]", "md_verbatim": "| 1 | ABC123 | CV | 1001 | 1 | NCVALTYP | Native Cardiac Valve Structure Without Intervention Type | VALVULAR STRUCTURE, COMMON | NATIVE, WITHOUT INTERVENTION | | NATIVE, WITHOUT INTERVENTION | | | AORTIC VALVE | TRANSTHORACIC ECHOCARDIOGRAPHY | 5 | MONTH 2 | 2015-08-05T11:15 |", "score": 0.4199, "match_basis": "verbatim_token+domain_route:CV"}, {"md_atom_id": "md_dmCV_ex_a006", "md_file": "knowledge_base/domains/CV/examples.md", "md_atom_type": "TABLE_ROW", "md_parent_section": "§CV.1 [Example 1]", "md_verbatim": "| 1 | ABC123 | CV | 002-2004 | 1 | 2 | ANEURIND | Aneurysm Indicator | Y | Y | THORACIC AORTA | TRANSTHORACIC ECHOCARDIOGRAPHY | 2 | BASELINE | 2015-06-09T14:20 |", "score": 0.4189, "match_basis": "verbatim_token+domain_route:CV"}, {"md_atom_id": "md_dmCV_ex_a007", "md_file": "knowledge_base/domains/CV/examples.md", "md_atom_type": "TABLE_ROW", "md_parent_section": "§CV.1 [Example 1]", "md_verbatim": "| 2 | ABC123 | CV | 002-2004 | 2 | 2 | DISECIND | Dissection Indicator | Y | Y | THORACIC AORTA | TRANSTHORACIC ECHOCARDIOGRAPHY | 2 | BASELINE | 2015-06-09T14:20 |", "score": 0.4185, "match_basis": "verbatim_token+domain_route:CV"}, {"md_atom_id": "md_dmCV_ex_a009", "md_file": "knowledge_base/domains/CV/examples.md", "md_atom_type": "TABLE_ROW", "md_parent_section": "§CV.1 [Example 1]", "md_verbatim": "| 4 | ABC123 | CV | 002-2004 | 4 | | ANEURIND | Aneurysm Indicator | N | N | SUPRARENAL AORTA | TRANSTHORACIC ECHOCARDIOGRAPHY | 2 | BASELINE | 2015-06-09T14:20 |", "score": 0.4178, "match_basis": "verbatim_token+domain_route:CV"}], "candidate_count": 5, "zero_candidate": false}
{"pdf_atom_id": "ig34_p0287_a018", "pdf_atom_type": "TABLE_ROW", "pdf_source": "SDTMIG_v3.4", "pdf_page": 287, "pdf_parent_section": "§6.3.7.2 Cardiovascular System Findings (CV)", "pdf_verbatim": "| CVSTRESU | Standard Units | Char | (UNIT) | Variable Qualifier | Standardized units used for CVSTRESC and CVSTRESN. | Perm |", "figure_ref": null, "candidates": [{"md_atom_id": "md_dmCV_ex_a008", "md_file": "knowledge_base/domains/CV/examples.md", "md_atom_type": "TABLE_ROW", "md_parent_section": "§CV.1 [Example 1]", "md_verbatim": "| 3 | ABC123 | CV | 002-2004 | 3 | 2 | STANFADC | Stanford AoD Classification | CLASS A | CLASS A | THORACIC AORTA | TRANSTHORACIC ECHOCARDIOGRAPHY | 2 | BASELINE | 2015-06-09T14:20 |", "score": 0.435, "match_basis": "verbatim_token+domain_route:CV"}, {"md_atom_id": "md_dmCV_ex_a016", "md_file": "knowledge_base/domains/CV/examples.md", "md_atom_type": "TABLE_ROW", "md_parent_section": "§CV.2 [Example 2]", "md_verbatim": "| 2 | ABC123 | CV | 1001 | 2 | SIZE | Size | VALVULAR STRUCTURE, COMMON | REDUCED | | REDUCED | | | AORTIC VALVE ANNULUS | TRANSTHORACIC ECHOCARDIOGRAPHY | 5 | MONTH 2 | 2015-08-05T11:15 |", "score": 0.422, "match_basis": "verbatim_token+domain_route:CV"}, {"md_atom_id": "md_dmCV_ex_a021", "md_file": "knowledge_base/domains/CV/examples.md", "md_atom_type": "TABLE_ROW", "md_parent_section": "§CV.2 [Example 2]", "md_verbatim": "| 7 | ABC123 | CV | 1001 | 7 | MNDIAMVS | Minor Axis Cross-sec Diameter, MVS | VALVULAR STRUCTURE, COMMON | 2.11 | cm | 2.11 | 2.11 | cm | AORTIC VALVE ANNULUS | TRANSTHORACIC ECHOCARDIOGRAPHY | 5 | MONTH 2 | 2015-08-05T11:15 |", "score": 0.4148, "match_basis": "verbatim_token+domain_route:CV"}, {"md_atom_id": "md_dmCV_ex_a022", "md_file": "knowledge_base/domains/CV/examples.md", "md_atom_type": "TABLE_ROW", "md_parent_section": "§CV.2 [Example 2]", "md_verbatim": "| 8 | ABC123 | CV | 1001 | 8 | MJDIAMVS | Major Axis Cross-sec Diameter, MVS | VALVULAR STRUCTURE, COMMON | 2.39 | cm | 2.39 | 2.39 | cm | AORTIC VALVE ANNULUS | TRANSTHORACIC ECHOCARDIOGRAPHY | 5 | MONTH 2 | 2015-08-05T11:15 |", "score": 0.4148, "match_basis": "verbatim_token+domain_route:CV"}, {"md_atom_id": "md_dmCV_ex_a017", "md_file": "knowledge_base/domains/CV/examples.md", "md_atom_type": "TABLE_ROW", "md_parent_section": "§CV.2 [Example 2]", "md_verbatim": "| 3 | ABC123 | CV | 1001 | 3 | MNDIAEVS | Minor Axis Cross-sec Diameter, EVS | VALVULAR STRUCTURE, COMMON | 2.18 | cm | 2.18 | 2.18 | cm | AORTIC VALVE ANNULUS | TRANSTHORACIC ECHOCARDIOGRAPHY | 5 | MONTH 2 | 2015-08-05T11:15 |", "score": 0.4146, "match_basis": "verbatim_token+domain_route:CV"}], "candidate_count": 5, "zero_candidate": false}
{"pdf_atom_id": "ig34_p0287_a019", "pdf_atom_type": "TABLE_ROW", "pdf_source": "SDTMIG_v3.4", "pdf_page": 287, "pdf_parent_section": "§6.3.7.2 Cardiovascular System Findings (CV)", "pdf_verbatim": "| CVSTAT | Completion Status | Char | (ND) | Record Qualifier | Used to indicate that a question was not asked or a test was not done, or a test was attempted but did not generate a result. Should be null or have a value of \"NOT DONE\". | Perm |", "figure_ref": null, "candidates": [{"md_atom_id": "md_dmCV_ex_a007", "md_file": "knowledge_base/domains/CV/examples.md", "md_atom_type": "TABLE_ROW", "md_parent_section": "§CV.1 [Example 1]", "md_verbatim": "| 2 | ABC123 | CV | 002-2004 | 2 | 2 | DISECIND | Dissection Indicator | Y | Y | THORACIC AORTA | TRANSTHORACIC ECHOCARDIOGRAPHY | 2 | BASELINE | 2015-06-09T14:20 |", "score": 0.4307, "match_basis": "verbatim_token+domain_route:CV"}, {"md_atom_id": "md_dmCV_ex_a008", "md_file": "knowledge_base/domains/CV/examples.md", "md_atom_type": "TABLE_ROW", "md_parent_section": "§CV.1 [Example 1]", "md_verbatim": "| 3 | ABC123 | CV | 002-2004 | 3 | 2 | STANFADC | Stanford AoD Classification | CLASS A | CLASS A | THORACIC AORTA | TRANSTHORACIC ECHOCARDIOGRAPHY | 2 | BASELINE | 2015-06-09T14:20 |", "score": 0.4298, "match_basis": "verbatim_token+domain_route:CV"}, {"md_atom_id": "md_dmCV_ex_a006", "md_file": "knowledge_base/domains/CV/examples.md", "md_atom_type": "TABLE_ROW", "md_parent_section": "§CV.1 [Example 1]", "md_verbatim": "| 1 | ABC123 | CV | 002-2004 | 1 | 2 | ANEURIND | Aneurysm Indicator | Y | Y | THORACIC AORTA | TRANSTHORACIC ECHOCARDIOGRAPHY | 2 | BASELINE | 2015-06-09T14:20 |", "score": 0.4221, "match_basis": "verbatim_token+domain_route:CV"}, {"md_atom_id": "md_dmCV_ex_a009", "md_file": "knowledge_base/domains/CV/examples.md", "md_atom_type": "TABLE_ROW", "md_parent_section": "§CV.1 [Example 1]", "md_verbatim": "| 4 | ABC123 | CV | 002-2004 | 4 | | ANEURIND | Aneurysm Indicator | N | N | SUPRARENAL AORTA | TRANSTHORACIC ECHOCARDIOGRAPHY | 2 | BASELINE | 2015-06-09T14:20 |", "score": 0.4208, "match_basis": "verbatim_token+domain_route:CV"}, {"md_atom_id": "md_dmCV_ex_a010", "md_file": "knowledge_base/domains/CV/examples.md", "md_atom_type": "TABLE_ROW", "md_parent_section": "§CV.1 [Example 1]", "md_verbatim": "| 5 | ABC123 | CV | 002-2004 | 5 | | ANEURIND | Aneurysm Indicator | N | N | INFRARENAL AORTA | TRANSTHORACIC ECHOCARDIOGRAPHY | 2 | BASELINE | 2015-06-09T14:20 |", "score": 0.4208, "match_basis": "verbatim_token+domain_route:CV"}], "candidate_count": 5, "zero_candidate": false}
{"pdf_atom_id": "ig34_p0287_a020", "pdf_atom_type": "TABLE_ROW", "pdf_source": "SDTMIG_v3.4", "pdf_page": 287, "pdf_parent_section": "§6.3.7.2 Cardiovascular System Findings (CV)", "pdf_verbatim": "| CVREASND | Reason Not Done | Char | | Record Qualifier | Describes why a measurement or test was not performed (e.g., \"BROKEN EQUIPMENT\", \"SUBJECT REFUSED\"). Used in conjunction with CVSTAT when value is \"NOT DONE\". | Perm |", "figure_ref": null, "candidates": [{"md_atom_id": "md_dmCV_ex_a015", "md_file": "knowledge_base/domains/CV/examples.md", "md_atom_type": "TABLE_ROW", "md_parent_section": "§CV.2 [Example 2]", "md_verbatim": "| 1 | ABC123 | CV | 1001 | 1 | NCVALTYP | Native Cardiac Valve Structure Without Intervention Type | VALVULAR STRUCTURE, COMMON | NATIVE, WITHOUT INTERVENTION | | NATIVE, WITHOUT INTERVENTION | | | AORTIC VALVE | TRANSTHORACIC ECHOCARDIOGRAPHY | 5 | MONTH 2 | 2015-08-05T11:15 |", "score": 0.4249, "match_basis": "verbatim_token+domain_route:CV"}, {"md_atom_id": "md_dmCV_ex_a008", "md_file": "knowledge_base/domains/CV/examples.md", "md_atom_type": "TABLE_ROW", "md_parent_section": "§CV.1 [Example 1]", "md_verbatim": "| 3 | ABC123 | CV | 002-2004 | 3 | 2 | STANFADC | Stanford AoD Classification | CLASS A | CLASS A | THORACIC AORTA | TRANSTHORACIC ECHOCARDIOGRAPHY | 2 | BASELINE | 2015-06-09T14:20 |", "score": 0.4237, "match_basis": "verbatim_token+domain_route:CV"}, {"md_atom_id": "md_dmCV_ex_a007", "md_file": "knowledge_base/domains/CV/examples.md", "md_atom_type": "TABLE_ROW", "md_parent_section": "§CV.1 [Example 1]", "md_verbatim": "| 2 | ABC123 | CV | 002-2004 | 2 | 2 | DISECIND | Dissection Indicator | Y | Y | THORACIC AORTA | TRANSTHORACIC ECHOCARDIOGRAPHY | 2 | BASELINE | 2015-06-09T14:20 |", "score": 0.416, "match_basis": "verbatim_token+domain_route:CV"}, {"md_atom_id": "md_dmCV_ex_a016", "md_file": "knowledge_base/domains/CV/examples.md", "md_atom_type": "TABLE_ROW", "md_parent_section": "§CV.2 [Example 2]", "md_verbatim": "| 2 | ABC123 | CV | 1001 | 2 | SIZE | Size | VALVULAR STRUCTURE, COMMON | REDUCED | | REDUCED | | | AORTIC VALVE ANNULUS | TRANSTHORACIC ECHOCARDIOGRAPHY | 5 | MONTH 2 | 2015-08-05T11:15 |", "score": 0.4075, "match_basis": "verbatim_token+domain_route:CV"}, {"md_atom_id": "md_dmCV_ex_a021", "md_file": "knowledge_base/domains/CV/examples.md", "md_atom_type": "TABLE_ROW", "md_parent_section": "§CV.2 [Example 2]", "md_verbatim": "| 7 | ABC123 | CV | 1001 | 7 | MNDIAMVS | Minor Axis Cross-sec Diameter, MVS | VALVULAR STRUCTURE, COMMON | 2.11 | cm | 2.11 | 2.11 | cm | AORTIC VALVE ANNULUS | TRANSTHORACIC ECHOCARDIOGRAPHY | 5 | MONTH 2 | 2015-08-05T11:15 |", "score": 0.407, "match_basis": "verbatim_token+domain_route:CV"}], "candidate_count": 5, "zero_candidate": false}
{"pdf_atom_id": "ig34_p0287_a021", "pdf_atom_type": "TABLE_ROW", "pdf_source": "SDTMIG_v3.4", "pdf_page": 287, "pdf_parent_section": "§6.3.7.2 Cardiovascular System Findings (CV)", "pdf_verbatim": "| CVLOC | Location Used for the Measurement | Char | (LOC) | Record Qualifier | Anatomical location of the subject relevant to the collection of the measurement. Examples: \"HEART\", \"LEFT VENTRICLE\". | Perm |", "figure_ref": null, "candidates": [{"md_atom_id": "md_dmCV_ex_a008", "md_file": "knowledge_base/domains/CV/examples.md", "md_atom_type": "TABLE_ROW", "md_parent_section": "§CV.1 [Example 1]", "md_verbatim": "| 3 | ABC123 | CV | 002-2004 | 3 | 2 | STANFADC | Stanford AoD Classification | CLASS A | CLASS A | THORACIC AORTA | TRANSTHORACIC ECHOCARDIOGRAPHY | 2 | BASELINE | 2015-06-09T14:20 |", "score": 0.4397, "match_basis": "verbatim_token+domain_route:CV"}, {"md_atom_id": "md_dmCV_ex_a007", "md_file": "knowledge_base/domains/CV/examples.md", "md_atom_type": "TABLE_ROW", "md_parent_section": "§CV.1 [Example 1]", "md_verbatim": "| 2 | ABC123 | CV | 002-2004 | 2 | 2 | DISECIND | Dissection Indicator | Y | Y | THORACIC AORTA | TRANSTHORACIC ECHOCARDIOGRAPHY | 2 | BASELINE | 2015-06-09T14:20 |", "score": 0.4361, "match_basis": "verbatim_token+domain_route:CV"}, {"md_atom_id": "md_dmCV_ex_a015", "md_file": "knowledge_base/domains/CV/examples.md", "md_atom_type": "TABLE_ROW", "md_parent_section": "§CV.2 [Example 2]", "md_verbatim": "| 1 | ABC123 | CV | 1001 | 1 | NCVALTYP | Native Cardiac Valve Structure Without Intervention Type | VALVULAR STRUCTURE, COMMON | NATIVE, WITHOUT INTERVENTION | | NATIVE, WITHOUT INTERVENTION | | | AORTIC VALVE | TRANSTHORACIC ECHOCARDIOGRAPHY | 5 | MONTH 2 | 2015-08-05T11:15 |", "score": 0.431, "match_basis": "verbatim_token+domain_route:CV"}, {"md_atom_id": "md_dmCV_ex_a006", "md_file": "knowledge_base/domains/CV/examples.md", "md_atom_type": "TABLE_ROW", "md_parent_section": "§CV.1 [Example 1]", "md_verbatim": "| 1 | ABC123 | CV | 002-2004 | 1 | 2 | ANEURIND | Aneurysm Indicator | Y | Y | THORACIC AORTA | TRANSTHORACIC ECHOCARDIOGRAPHY | 2 | BASELINE | 2015-06-09T14:20 |", "score": 0.4179, "match_basis": "verbatim_token+domain_route:CV"}, {"md_atom_id": "md_dmCV_ex_a009", "md_file": "knowledge_base/domains/CV/examples.md", "md_atom_type": "TABLE_ROW", "md_parent_section": "§CV.1 [Example 1]", "md_verbatim": "| 4 | ABC123 | CV | 002-2004 | 4 | | ANEURIND | Aneurysm Indicator | N | N | SUPRARENAL AORTA | TRANSTHORACIC ECHOCARDIOGRAPHY | 2 | BASELINE | 2015-06-09T14:20 |", "score": 0.4169, "match_basis": "verbatim_token+domain_route:CV"}], "candidate_count": 5, "zero_candidate": false}
{"pdf_atom_id": "ig34_p0287_a022", "pdf_atom_type": "TABLE_ROW", "pdf_source": "SDTMIG_v3.4", "pdf_page": 287, "pdf_parent_section": "§6.3.7.2 Cardiovascular System Findings (CV)", "pdf_verbatim": "| CVLAT | Laterality | Char | (LAT) | Variable Qualifier | Qualifier for anatomical location or specimen further detailing laterality. Examples: \"RIGHT\", \"LEFT\", \"BILATERAL\", \"UNILATERAL\". | Perm |", "figure_ref": null, "candidates": [{"md_atom_id": "md_dmCV_ex_a008", "md_file": "knowledge_base/domains/CV/examples.md", "md_atom_type": "TABLE_ROW", "md_parent_section": "§CV.1 [Example 1]", "md_verbatim": "| 3 | ABC123 | CV | 002-2004 | 3 | 2 | STANFADC | Stanford AoD Classification | CLASS A | CLASS A | THORACIC AORTA | TRANSTHORACIC ECHOCARDIOGRAPHY | 2 | BASELINE | 2015-06-09T14:20 |", "score": 0.4406, "match_basis": "verbatim_token+domain_route:CV"}, {"md_atom_id": "md_dmCV_ex_a007", "md_file": "knowledge_base/domains/CV/examples.md", "md_atom_type": "TABLE_ROW", "md_parent_section": "§CV.1 [Example 1]", "md_verbatim": "| 2 | ABC123 | CV | 002-2004 | 2 | 2 | DISECIND | Dissection Indicator | Y | Y | THORACIC AORTA | TRANSTHORACIC ECHOCARDIOGRAPHY | 2 | BASELINE | 2015-06-09T14:20 |", "score": 0.4369, "match_basis": "verbatim_token+domain_route:CV"}, {"md_atom_id": "md_dmCV_ex_a015", "md_file": "knowledge_base/domains/CV/examples.md", "md_atom_type": "TABLE_ROW", "md_parent_section": "§CV.2 [Example 2]", "md_verbatim": "| 1 | ABC123 | CV | 1001 | 1 | NCVALTYP | Native Cardiac Valve Structure Without Intervention Type | VALVULAR STRUCTURE, COMMON | NATIVE, WITHOUT INTERVENTION | | NATIVE, WITHOUT INTERVENTION | | | AORTIC VALVE | TRANSTHORACIC ECHOCARDIOGRAPHY | 5 | MONTH 2 | 2015-08-05T11:15 |", "score": 0.4234, "match_basis": "verbatim_token+domain_route:CV"}, {"md_atom_id": "md_dmCV_ex_a006", "md_file": "knowledge_base/domains/CV/examples.md", "md_atom_type": "TABLE_ROW", "md_parent_section": "§CV.1 [Example 1]", "md_verbatim": "| 1 | ABC123 | CV | 002-2004 | 1 | 2 | ANEURIND | Aneurysm Indicator | Y | Y | THORACIC AORTA | TRANSTHORACIC ECHOCARDIOGRAPHY | 2 | BASELINE | 2015-06-09T14:20 |", "score": 0.4231, "match_basis": "verbatim_token+domain_route:CV"}, {"md_atom_id": "md_dmCV_ex_a009", "md_file": "knowledge_base/domains/CV/examples.md", "md_atom_type": "TABLE_ROW", "md_parent_section": "§CV.1 [Example 1]", "md_verbatim": "| 4 | ABC123 | CV | 002-2004 | 4 | | ANEURIND | Aneurysm Indicator | N | N | SUPRARENAL AORTA | TRANSTHORACIC ECHOCARDIOGRAPHY | 2 | BASELINE | 2015-06-09T14:20 |", "score": 0.4217, "match_basis": "verbatim_token+domain_route:CV"}], "candidate_count": 5, "zero_candidate": false}
{"pdf_atom_id": "ig34_p0287_a023", "pdf_atom_type": "TABLE_ROW", "pdf_source": "SDTMIG_v3.4", "pdf_page": 287, "pdf_parent_section": "§6.3.7.2 Cardiovascular System Findings (CV)", "pdf_verbatim": "| CVDIR | Directionality | Char | (DIR) | Variable Qualifier | Qualifier for anatomical location or specimen further detailing directionality. Examples: \"ANTERIOR\", \"LOWER\", \"PROXIMAL\". | Perm |", "figure_ref": null, "candidates": [{"md_atom_id": "md_dmCV_ex_a007", "md_file": "knowledge_base/domains/CV/examples.md", "md_atom_type": "TABLE_ROW", "md_parent_section": "§CV.1 [Example 1]", "md_verbatim": "| 2 | ABC123 | CV | 002-2004 | 2 | 2 | DISECIND | Dissection Indicator | Y | Y | THORACIC AORTA | TRANSTHORACIC ECHOCARDIOGRAPHY | 2 | BASELINE | 2015-06-09T14:20 |", "score": 0.4441, "match_basis": "verbatim_token+domain_route:CV"}, {"md_atom_id": "md_dmCV_ex_a008", "md_file": "knowledge_base/domains/CV/examples.md", "md_atom_type": "TABLE_ROW", "md_parent_section": "§CV.1 [Example 1]", "md_verbatim": "| 3 | ABC123 | CV | 002-2004 | 3 | 2 | STANFADC | Stanford AoD Classification | CLASS A | CLASS A | THORACIC AORTA | TRANSTHORACIC ECHOCARDIOGRAPHY | 2 | BASELINE | 2015-06-09T14:20 |", "score": 0.4383, "match_basis": "verbatim_token+domain_route:CV"}, {"md_atom_id": "md_dmCV_ex_a015", "md_file": "knowledge_base/domains/CV/examples.md", "md_atom_type": "TABLE_ROW", "md_parent_section": "§CV.2 [Example 2]", "md_verbatim": "| 1 | ABC123 | CV | 1001 | 1 | NCVALTYP | Native Cardiac Valve Structure Without Intervention Type | VALVULAR STRUCTURE, COMMON | NATIVE, WITHOUT INTERVENTION | | NATIVE, WITHOUT INTERVENTION | | | AORTIC VALVE | TRANSTHORACIC ECHOCARDIOGRAPHY | 5 | MONTH 2 | 2015-08-05T11:15 |", "score": 0.4261, "match_basis": "verbatim_token+domain_route:CV"}, {"md_atom_id": "md_dmCV_ex_a009", "md_file": "knowledge_base/domains/CV/examples.md", "md_atom_type": "TABLE_ROW", "md_parent_section": "§CV.1 [Example 1]", "md_verbatim": "| 4 | ABC123 | CV | 002-2004 | 4 | | ANEURIND | Aneurysm Indicator | N | N | SUPRARENAL AORTA | TRANSTHORACIC ECHOCARDIOGRAPHY | 2 | BASELINE | 2015-06-09T14:20 |", "score": 0.4248, "match_basis": "verbatim_token+domain_route:CV"}, {"md_atom_id": "md_dmCV_ex_a010", "md_file": "knowledge_base/domains/CV/examples.md", "md_atom_type": "TABLE_ROW", "md_parent_section": "§CV.1 [Example 1]", "md_verbatim": "| 5 | ABC123 | CV | 002-2004 | 5 | | ANEURIND | Aneurysm Indicator | N | N | INFRARENAL AORTA | TRANSTHORACIC ECHOCARDIOGRAPHY | 2 | BASELINE | 2015-06-09T14:20 |", "score": 0.4248, "match_basis": "verbatim_token+domain_route:CV"}], "candidate_count": 5, "zero_candidate": false}
{"pdf_atom_id": "ig34_p0287_a024", "pdf_atom_type": "TABLE_ROW", "pdf_source": "SDTMIG_v3.4", "pdf_page": 287, "pdf_parent_section": "§6.3.7.2 Cardiovascular System Findings (CV)", "pdf_verbatim": "| CVMETHOD | Method of Test or Examination | Char | (METHOD) | Record Qualifier | Method used to create the result. | Perm |", "figure_ref": null, "candidates": [{"md_atom_id": "md_dmCV_ex_a008", "md_file": "knowledge_base/domains/CV/examples.md", "md_atom_type": "TABLE_ROW", "md_parent_section": "§CV.1 [Example 1]", "md_verbatim": "| 3 | ABC123 | CV | 002-2004 | 3 | 2 | STANFADC | Stanford AoD Classification | CLASS A | CLASS A | THORACIC AORTA | TRANSTHORACIC ECHOCARDIOGRAPHY | 2 | BASELINE | 2015-06-09T14:20 |", "score": 0.4343, "match_basis": "verbatim_token+domain_route:CV"}, {"md_atom_id": "md_dmCV_ex_a015", "md_file": "knowledge_base/domains/CV/examples.md", "md_atom_type": "TABLE_ROW", "md_parent_section": "§CV.2 [Example 2]", "md_verbatim": "| 1 | ABC123 | CV | 1001 | 1 | NCVALTYP | Native Cardiac Valve Structure Without Intervention Type | VALVULAR STRUCTURE, COMMON | NATIVE, WITHOUT INTERVENTION | | NATIVE, WITHOUT INTERVENTION | | | AORTIC VALVE | TRANSTHORACIC ECHOCARDIOGRAPHY | 5 | MONTH 2 | 2015-08-05T11:15 |", "score": 0.4242, "match_basis": "verbatim_token+domain_route:CV"}, {"md_atom_id": "md_dmCV_ex_a007", "md_file": "knowledge_base/domains/CV/examples.md", "md_atom_type": "TABLE_ROW", "md_parent_section": "§CV.1 [Example 1]", "md_verbatim": "| 2 | ABC123 | CV | 002-2004 | 2 | 2 | DISECIND | Dissection Indicator | Y | Y | THORACIC AORTA | TRANSTHORACIC ECHOCARDIOGRAPHY | 2 | BASELINE | 2015-06-09T14:20 |", "score": 0.4173, "match_basis": "verbatim_token+domain_route:CV"}, {"md_atom_id": "md_dmCV_ex_a021", "md_file": "knowledge_base/domains/CV/examples.md", "md_atom_type": "TABLE_ROW", "md_parent_section": "§CV.2 [Example 2]", "md_verbatim": "| 7 | ABC123 | CV | 1001 | 7 | MNDIAMVS | Minor Axis Cross-sec Diameter, MVS | VALVULAR STRUCTURE, COMMON | 2.11 | cm | 2.11 | 2.11 | cm | AORTIC VALVE ANNULUS | TRANSTHORACIC ECHOCARDIOGRAPHY | 5 | MONTH 2 | 2015-08-05T11:15 |", "score": 0.4145, "match_basis": "verbatim_token+domain_route:CV"}, {"md_atom_id": "md_dmCV_ex_a017", "md_file": "knowledge_base/domains/CV/examples.md", "md_atom_type": "TABLE_ROW", "md_parent_section": "§CV.2 [Example 2]", "md_verbatim": "| 3 | ABC123 | CV | 1001 | 3 | MNDIAEVS | Minor Axis Cross-sec Diameter, EVS | VALVULAR STRUCTURE, COMMON | 2.18 | cm | 2.18 | 2.18 | cm | AORTIC VALVE ANNULUS | TRANSTHORACIC ECHOCARDIOGRAPHY | 5 | MONTH 2 | 2015-08-05T11:15 |", "score": 0.4144, "match_basis": "verbatim_token+domain_route:CV"}], "candidate_count": 5, "zero_candidate": false}
{"pdf_atom_id": "ig34_p0288_a001", "pdf_atom_type": "TABLE_ROW", "pdf_source": "SDTMIG_v3.4", "pdf_page": 288, "pdf_parent_section": "§6.3.7.2 Cardiovascular System Findings (CV)", "pdf_verbatim": "| CVLOBXFL | Last Observation Before Exposure Flag | Char | (NY) | Record Qualifier | Operationally-derived indicator used to identify the last non-missing value prior to RFXSTDTC. The value should be \"Y\" or null. | Exp |", "figure_ref": null, "candidates": [{"md_atom_id": "md_dmCV_ex_a007", "md_file": "knowledge_base/domains/CV/examples.md", "md_atom_type": "TABLE_ROW", "md_parent_section": "§CV.1 [Example 1]", "md_verbatim": "| 2 | ABC123 | CV | 002-2004 | 2 | 2 | DISECIND | Dissection Indicator | Y | Y | THORACIC AORTA | TRANSTHORACIC ECHOCARDIOGRAPHY | 2 | BASELINE | 2015-06-09T14:20 |", "score": 0.4403, "match_basis": "verbatim_token+domain_route:CV"}, {"md_atom_id": "md_dmCV_ex_a008", "md_file": "knowledge_base/domains/CV/examples.md", "md_atom_type": "TABLE_ROW", "md_parent_section": "§CV.1 [Example 1]", "md_verbatim": "| 3 | ABC123 | CV | 002-2004 | 3 | 2 | STANFADC | Stanford AoD Classification | CLASS A | CLASS A | THORACIC AORTA | TRANSTHORACIC ECHOCARDIOGRAPHY | 2 | BASELINE | 2015-06-09T14:20 |", "score": 0.4392, "match_basis": "verbatim_token+domain_route:CV"}, {"md_atom_id": "md_dmCV_ex_a015", "md_file": "knowledge_base/domains/CV/examples.md", "md_atom_type": "TABLE_ROW", "md_parent_section": "§CV.2 [Example 2]", "md_verbatim": "| 1 | ABC123 | CV | 1001 | 1 | NCVALTYP | Native Cardiac Valve Structure Without Intervention Type | VALVULAR STRUCTURE, COMMON | NATIVE, WITHOUT INTERVENTION | | NATIVE, WITHOUT INTERVENTION | | | AORTIC VALVE | TRANSTHORACIC ECHOCARDIOGRAPHY | 5 | MONTH 2 | 2015-08-05T11:15 |", "score": 0.4351, "match_basis": "verbatim_token+domain_route:CV"}, {"md_atom_id": "md_dmCV_ex_a009", "md_file": "knowledge_base/domains/CV/examples.md", "md_atom_type": "TABLE_ROW", "md_parent_section": "§CV.1 [Example 1]", "md_verbatim": "| 4 | ABC123 | CV | 002-2004 | 4 | | ANEURIND | Aneurysm Indicator | N | N | SUPRARENAL AORTA | TRANSTHORACIC ECHOCARDIOGRAPHY | 2 | BASELINE | 2015-06-09T14:20 |", "score": 0.4308, "match_basis": "verbatim_token+domain_route:CV"}, {"md_atom_id": "md_dmCV_ex_a010", "md_file": "knowledge_base/domains/CV/examples.md", "md_atom_type": "TABLE_ROW", "md_parent_section": "§CV.1 [Example 1]", "md_verbatim": "| 5 | ABC123 | CV | 002-2004 | 5 | | ANEURIND | Aneurysm Indicator | N | N | INFRARENAL AORTA | TRANSTHORACIC ECHOCARDIOGRAPHY | 2 | BASELINE | 2015-06-09T14:20 |", "score": 0.4308, "match_basis": "verbatim_token+domain_route:CV"}], "candidate_count": 5, "zero_candidate": false}
{"pdf_atom_id": "ig34_p0288_a002", "pdf_atom_type": "TABLE_ROW", "pdf_source": "SDTMIG_v3.4", "pdf_page": 288, "pdf_parent_section": "§6.3.7.2 Cardiovascular System Findings (CV)", "pdf_verbatim": "| CVBLFL | Baseline Flag | Char | (NY) | Record Qualifier | Indicator used to identify a baseline value. Should be \"Y\" or null. Note that CVBLFL is retained for backward compatibility. The authoritative baseline for statistical analysis is in an ADaM dataset. | Perm |", "figure_ref": null, "candidates": [{"md_atom_id": "md_dmCV_ex_a009", "md_file": "knowledge_base/domains/CV/examples.md", "md_atom_type": "TABLE_ROW", "md_parent_section": "§CV.1 [Example 1]", "md_verbatim": "| 4 | ABC123 | CV | 002-2004 | 4 | | ANEURIND | Aneurysm Indicator | N | N | SUPRARENAL AORTA | TRANSTHORACIC ECHOCARDIOGRAPHY | 2 | BASELINE | 2015-06-09T14:20 |", "score": 0.4642, "match_basis": "verbatim_token+domain_route:CV"}, {"md_atom_id": "md_dmCV_ex_a010", "md_file": "knowledge_base/domains/CV/examples.md", "md_atom_type": "TABLE_ROW", "md_parent_section": "§CV.1 [Example 1]", "md_verbatim": "| 5 | ABC123 | CV | 002-2004 | 5 | | ANEURIND | Aneurysm Indicator | N | N | INFRARENAL AORTA | TRANSTHORACIC ECHOCARDIOGRAPHY | 2 | BASELINE | 2015-06-09T14:20 |", "score": 0.4642, "match_basis": "verbatim_token+domain_route:CV"}, {"md_atom_id": "md_dmCV_ex_a006", "md_file": "knowledge_base/domains/CV/examples.md", "md_atom_type": "TABLE_ROW", "md_parent_section": "§CV.1 [Example 1]", "md_verbatim": "| 1 | ABC123 | CV | 002-2004 | 1 | 2 | ANEURIND | Aneurysm Indicator | Y | Y | THORACIC AORTA | TRANSTHORACIC ECHOCARDIOGRAPHY | 2 | BASELINE | 2015-06-09T14:20 |", "score": 0.4632, "match_basis": "verbatim_token+domain_route:CV"}, {"md_atom_id": "md_dmCV_ex_a007", "md_file": "knowledge_base/domains/CV/examples.md", "md_atom_type": "TABLE_ROW", "md_parent_section": "§CV.1 [Example 1]", "md_verbatim": "| 2 | ABC123 | CV | 002-2004 | 2 | 2 | DISECIND | Dissection Indicator | Y | Y | THORACIC AORTA | TRANSTHORACIC ECHOCARDIOGRAPHY | 2 | BASELINE | 2015-06-09T14:20 |", "score": 0.4619, "match_basis": "verbatim_token+domain_route:CV"}, {"md_atom_id": "md_dmCV_ex_a008", "md_file": "knowledge_base/domains/CV/examples.md", "md_atom_type": "TABLE_ROW", "md_parent_section": "§CV.1 [Example 1]", "md_verbatim": "| 3 | ABC123 | CV | 002-2004 | 3 | 2 | STANFADC | Stanford AoD Classification | CLASS A | CLASS A | THORACIC AORTA | TRANSTHORACIC ECHOCARDIOGRAPHY | 2 | BASELINE | 2015-06-09T14:20 |", "score": 0.4604, "match_basis": "verbatim_token+domain_route:CV"}], "candidate_count": 5, "zero_candidate": false}
{"pdf_atom_id": "ig34_p0288_a003", "pdf_atom_type": "TABLE_ROW", "pdf_source": "SDTMIG_v3.4", "pdf_page": 288, "pdf_parent_section": "§6.3.7.2 Cardiovascular System Findings (CV)", "pdf_verbatim": "| CVDRVFL | Derived Flag | Char | (NY) | Record Qualifier | Used to indicate a derived record (i.e., a record that represents the average of other records, such as a computed baseline). Should be \"Y\" or null. | Perm |", "figure_ref": null, "candidates": [{"md_atom_id": "md_dmCV_ex_a006", "md_file": "knowledge_base/domains/CV/examples.md", "md_atom_type": "TABLE_ROW", "md_parent_section": "§CV.1 [Example 1]", "md_verbatim": "| 1 | ABC123 | CV | 002-2004 | 1 | 2 | ANEURIND | Aneurysm Indicator | Y | Y | THORACIC AORTA | TRANSTHORACIC ECHOCARDIOGRAPHY | 2 | BASELINE | 2015-06-09T14:20 |", "score": 0.4532, "match_basis": "verbatim_token+domain_route:CV"}, {"md_atom_id": "md_dmCV_ex_a007", "md_file": "knowledge_base/domains/CV/examples.md", "md_atom_type": "TABLE_ROW", "md_parent_section": "§CV.1 [Example 1]", "md_verbatim": "| 2 | ABC123 | CV | 002-2004 | 2 | 2 | DISECIND | Dissection Indicator | Y | Y | THORACIC AORTA | TRANSTHORACIC ECHOCARDIOGRAPHY | 2 | BASELINE | 2015-06-09T14:20 |", "score": 0.452, "match_basis": "verbatim_token+domain_route:CV"}, {"md_atom_id": "md_dmCV_ex_a009", "md_file": "knowledge_base/domains/CV/examples.md", "md_atom_type": "TABLE_ROW", "md_parent_section": "§CV.1 [Example 1]", "md_verbatim": "| 4 | ABC123 | CV | 002-2004 | 4 | | ANEURIND | Aneurysm Indicator | N | N | SUPRARENAL AORTA | TRANSTHORACIC ECHOCARDIOGRAPHY | 2 | BASELINE | 2015-06-09T14:20 |", "score": 0.45, "match_basis": "verbatim_token+domain_route:CV"}, {"md_atom_id": "md_dmCV_ex_a010", "md_file": "knowledge_base/domains/CV/examples.md", "md_atom_type": "TABLE_ROW", "md_parent_section": "§CV.1 [Example 1]", "md_verbatim": "| 5 | ABC123 | CV | 002-2004 | 5 | | ANEURIND | Aneurysm Indicator | N | N | INFRARENAL AORTA | TRANSTHORACIC ECHOCARDIOGRAPHY | 2 | BASELINE | 2015-06-09T14:20 |", "score": 0.45, "match_basis": "verbatim_token+domain_route:CV"}, {"md_atom_id": "md_dmCV_ex_a008", "md_file": "knowledge_base/domains/CV/examples.md", "md_atom_type": "TABLE_ROW", "md_parent_section": "§CV.1 [Example 1]", "md_verbatim": "| 3 | ABC123 | CV | 002-2004 | 3 | 2 | STANFADC | Stanford AoD Classification | CLASS A | CLASS A | THORACIC AORTA | TRANSTHORACIC ECHOCARDIOGRAPHY | 2 | BASELINE | 2015-06-09T14:20 |", "score": 0.4455, "match_basis": "verbatim_token+domain_route:CV"}], "candidate_count": 5, "zero_candidate": false}
{"pdf_atom_id": "ig34_p0288_a004", "pdf_atom_type": "TABLE_ROW", "pdf_source": "SDTMIG_v3.4", "pdf_page": 288, "pdf_parent_section": "§6.3.7.2 Cardiovascular System Findings (CV)", "pdf_verbatim": "| CVEVAL | Evaluator | Char | (EVAL) | Record Qualifier | Role of the person who provided the evaluation. Used only for results that are subjective (e.g., assigned by a person or a group). Examples: \"ADJUDICATION COMMITTEE\", \" INDEPENDENT ASSESSOR\", \"RADIOLOGIST\". | Perm |", "figure_ref": null, "candidates": [{"md_atom_id": "md_dmCV_ex_a007", "md_file": "knowledge_base/domains/CV/examples.md", "md_atom_type": "TABLE_ROW", "md_parent_section": "§CV.1 [Example 1]", "md_verbatim": "| 2 | ABC123 | CV | 002-2004 | 2 | 2 | DISECIND | Dissection Indicator | Y | Y | THORACIC AORTA | TRANSTHORACIC ECHOCARDIOGRAPHY | 2 | BASELINE | 2015-06-09T14:20 |", "score": 0.4439, "match_basis": "verbatim_token+domain_route:CV"}, {"md_atom_id": "md_dmCV_ex_a008", "md_file": "knowledge_base/domains/CV/examples.md", "md_atom_type": "TABLE_ROW", "md_parent_section": "§CV.1 [Example 1]", "md_verbatim": "| 3 | ABC123 | CV | 002-2004 | 3 | 2 | STANFADC | Stanford AoD Classification | CLASS A | CLASS A | THORACIC AORTA | TRANSTHORACIC ECHOCARDIOGRAPHY | 2 | BASELINE | 2015-06-09T14:20 |", "score": 0.4391, "match_basis": "verbatim_token+domain_route:CV"}, {"md_atom_id": "md_dmCV_ex_a015", "md_file": "knowledge_base/domains/CV/examples.md", "md_atom_type": "TABLE_ROW", "md_parent_section": "§CV.2 [Example 2]", "md_verbatim": "| 1 | ABC123 | CV | 1001 | 1 | NCVALTYP | Native Cardiac Valve Structure Without Intervention Type | VALVULAR STRUCTURE, COMMON | NATIVE, WITHOUT INTERVENTION | | NATIVE, WITHOUT INTERVENTION | | | AORTIC VALVE | TRANSTHORACIC ECHOCARDIOGRAPHY | 5 | MONTH 2 | 2015-08-05T11:15 |", "score": 0.4319, "match_basis": "verbatim_token+domain_route:CV"}, {"md_atom_id": "md_dmCV_ex_a009", "md_file": "knowledge_base/domains/CV/examples.md", "md_atom_type": "TABLE_ROW", "md_parent_section": "§CV.1 [Example 1]", "md_verbatim": "| 4 | ABC123 | CV | 002-2004 | 4 | | ANEURIND | Aneurysm Indicator | N | N | SUPRARENAL AORTA | TRANSTHORACIC ECHOCARDIOGRAPHY | 2 | BASELINE | 2015-06-09T14:20 |", "score": 0.4277, "match_basis": "verbatim_token+domain_route:CV"}, {"md_atom_id": "md_dmCV_ex_a010", "md_file": "knowledge_base/domains/CV/examples.md", "md_atom_type": "TABLE_ROW", "md_parent_section": "§CV.1 [Example 1]", "md_verbatim": "| 5 | ABC123 | CV | 002-2004 | 5 | | ANEURIND | Aneurysm Indicator | N | N | INFRARENAL AORTA | TRANSTHORACIC ECHOCARDIOGRAPHY | 2 | BASELINE | 2015-06-09T14:20 |", "score": 0.4277, "match_basis": "verbatim_token+domain_route:CV"}], "candidate_count": 5, "zero_candidate": false}
{"pdf_atom_id": "ig34_p0288_a005", "pdf_atom_type": "TABLE_ROW", "pdf_source": "SDTMIG_v3.4", "pdf_page": 288, "pdf_parent_section": "§6.3.7.2 Cardiovascular System Findings (CV)", "pdf_verbatim": "| CVEVALID | Evaluator Identifier | Char | (MEDEVAL) | Variable Qualifier | Used to distinguish multiple evaluators with the same role recorded in CVEVAL. Examples: \"RADIOLOGIST1\" or \"RADIOLOGIST2\". | Perm |", "figure_ref": null, "candidates": [{"md_atom_id": "md_dmCV_ex_a015", "md_file": "knowledge_base/domains/CV/examples.md", "md_atom_type": "TABLE_ROW", "md_parent_section": "§CV.2 [Example 2]", "md_verbatim": "| 1 | ABC123 | CV | 1001 | 1 | NCVALTYP | Native Cardiac Valve Structure Without Intervention Type | VALVULAR STRUCTURE, COMMON | NATIVE, WITHOUT INTERVENTION | | NATIVE, WITHOUT INTERVENTION | | | AORTIC VALVE | TRANSTHORACIC ECHOCARDIOGRAPHY | 5 | MONTH 2 | 2015-08-05T11:15 |", "score": 0.4224, "match_basis": "verbatim_token+domain_route:CV"}, {"md_atom_id": "md_dmCV_ex_a007", "md_file": "knowledge_base/domains/CV/examples.md", "md_atom_type": "TABLE_ROW", "md_parent_section": "§CV.1 [Example 1]", "md_verbatim": "| 2 | ABC123 | CV | 002-2004 | 2 | 2 | DISECIND | Dissection Indicator | Y | Y | THORACIC AORTA | TRANSTHORACIC ECHOCARDIOGRAPHY | 2 | BASELINE | 2015-06-09T14:20 |", "score": 0.417, "match_basis": "verbatim_token+domain_route:CV"}, {"md_atom_id": "md_dmCV_ex_a006", "md_file": "knowledge_base/domains/CV/examples.md", "md_atom_type": "TABLE_ROW", "md_parent_section": "§CV.1 [Example 1]", "md_verbatim": "| 1 | ABC123 | CV | 002-2004 | 1 | 2 | ANEURIND | Aneurysm Indicator | Y | Y | THORACIC AORTA | TRANSTHORACIC ECHOCARDIOGRAPHY | 2 | BASELINE | 2015-06-09T14:20 |", "score": 0.4129, "match_basis": "verbatim_token+domain_route:CV"}, {"md_atom_id": "md_dmCV_ex_a008", "md_file": "knowledge_base/domains/CV/examples.md", "md_atom_type": "TABLE_ROW", "md_parent_section": "§CV.1 [Example 1]", "md_verbatim": "| 3 | ABC123 | CV | 002-2004 | 3 | 2 | STANFADC | Stanford AoD Classification | CLASS A | CLASS A | THORACIC AORTA | TRANSTHORACIC ECHOCARDIOGRAPHY | 2 | BASELINE | 2015-06-09T14:20 |", "score": 0.4123, "match_basis": "verbatim_token+domain_route:CV"}, {"md_atom_id": "md_dmCV_ex_a009", "md_file": "knowledge_base/domains/CV/examples.md", "md_atom_type": "TABLE_ROW", "md_parent_section": "§CV.1 [Example 1]", "md_verbatim": "| 4 | ABC123 | CV | 002-2004 | 4 | | ANEURIND | Aneurysm Indicator | N | N | SUPRARENAL AORTA | TRANSTHORACIC ECHOCARDIOGRAPHY | 2 | BASELINE | 2015-06-09T14:20 |", "score": 0.4122, "match_basis": "verbatim_token+domain_route:CV"}], "candidate_count": 5, "zero_candidate": false}
{"pdf_atom_id": "ig34_p0288_a006", "pdf_atom_type": "TABLE_ROW", "pdf_source": "SDTMIG_v3.4", "pdf_page": 288, "pdf_parent_section": "§6.3.7.2 Cardiovascular System Findings (CV)", "pdf_verbatim": "| VISITNUM | Visit Number | Num | | Timing | Clinical encounter number. Numeric version of VISIT, used for sorting. | Exp |", "figure_ref": null, "candidates": [{"md_atom_id": "md_dmCV_ex_a008", "md_file": "knowledge_base/domains/CV/examples.md", "md_atom_type": "TABLE_ROW", "md_parent_section": "§CV.1 [Example 1]", "md_verbatim": "| 3 | ABC123 | CV | 002-2004 | 3 | 2 | STANFADC | Stanford AoD Classification | CLASS A | CLASS A | THORACIC AORTA | TRANSTHORACIC ECHOCARDIOGRAPHY | 2 | BASELINE | 2015-06-09T14:20 |", "score": 0.4283, "match_basis": "verbatim_token+domain_route:CV"}, {"md_atom_id": "md_dmCV_ex_a015", "md_file": "knowledge_base/domains/CV/examples.md", "md_atom_type": "TABLE_ROW", "md_parent_section": "§CV.2 [Example 2]", "md_verbatim": "| 1 | ABC123 | CV | 1001 | 1 | NCVALTYP | Native Cardiac Valve Structure Without Intervention Type | VALVULAR STRUCTURE, COMMON | NATIVE, WITHOUT INTERVENTION | | NATIVE, WITHOUT INTERVENTION | | | AORTIC VALVE | TRANSTHORACIC ECHOCARDIOGRAPHY | 5 | MONTH 2 | 2015-08-05T11:15 |", "score": 0.4242, "match_basis": "verbatim_token+domain_route:CV"}, {"md_atom_id": "md_dmCV_ex_a007", "md_file": "knowledge_base/domains/CV/examples.md", "md_atom_type": "TABLE_ROW", "md_parent_section": "§CV.1 [Example 1]", "md_verbatim": "| 2 | ABC123 | CV | 002-2004 | 2 | 2 | DISECIND | Dissection Indicator | Y | Y | THORACIC AORTA | TRANSTHORACIC ECHOCARDIOGRAPHY | 2 | BASELINE | 2015-06-09T14:20 |", "score": 0.4233, "match_basis": "verbatim_token+domain_route:CV"}, {"md_atom_id": "md_dmCV_ex_a021", "md_file": "knowledge_base/domains/CV/examples.md", "md_atom_type": "TABLE_ROW", "md_parent_section": "§CV.2 [Example 2]", "md_verbatim": "| 7 | ABC123 | CV | 1001 | 7 | MNDIAMVS | Minor Axis Cross-sec Diameter, MVS | VALVULAR STRUCTURE, COMMON | 2.11 | cm | 2.11 | 2.11 | cm | AORTIC VALVE ANNULUS | TRANSTHORACIC ECHOCARDIOGRAPHY | 5 | MONTH 2 | 2015-08-05T11:15 |", "score": 0.4195, "match_basis": "verbatim_token+domain_route:CV"}, {"md_atom_id": "md_dmCV_ex_a017", "md_file": "knowledge_base/domains/CV/examples.md", "md_atom_type": "TABLE_ROW", "md_parent_section": "§CV.2 [Example 2]", "md_verbatim": "| 3 | ABC123 | CV | 1001 | 3 | MNDIAEVS | Minor Axis Cross-sec Diameter, EVS | VALVULAR STRUCTURE, COMMON | 2.18 | cm | 2.18 | 2.18 | cm | AORTIC VALVE ANNULUS | TRANSTHORACIC ECHOCARDIOGRAPHY | 5 | MONTH 2 | 2015-08-05T11:15 |", "score": 0.4194, "match_basis": "verbatim_token+domain_route:CV"}], "candidate_count": 5, "zero_candidate": false}
{"pdf_atom_id": "ig34_p0288_a007", "pdf_atom_type": "TABLE_ROW", "pdf_source": "SDTMIG_v3.4", "pdf_page": 288, "pdf_parent_section": "§6.3.7.2 Cardiovascular System Findings (CV)", "pdf_verbatim": "| VISIT | Visit Name | Char | | Timing | Protocol-defined description of clinical encounter. May be used in addition to VISITNUM and/or VISITDY. | Perm |", "figure_ref": null, "candidates": [{"md_atom_id": "md_dmCV_ex_a007", "md_file": "knowledge_base/domains/CV/examples.md", "md_atom_type": "TABLE_ROW", "md_parent_section": "§CV.1 [Example 1]", "md_verbatim": "| 2 | ABC123 | CV | 002-2004 | 2 | 2 | DISECIND | Dissection Indicator | Y | Y | THORACIC AORTA | TRANSTHORACIC ECHOCARDIOGRAPHY | 2 | BASELINE | 2015-06-09T14:20 |", "score": 0.4254, "match_basis": "verbatim_token+domain_route:CV"}, {"md_atom_id": "md_dmCV_ex_a008", "md_file": "knowledge_base/domains/CV/examples.md", "md_atom_type": "TABLE_ROW", "md_parent_section": "§CV.1 [Example 1]", "md_verbatim": "| 3 | ABC123 | CV | 002-2004 | 3 | 2 | STANFADC | Stanford AoD Classification | CLASS A | CLASS A | THORACIC AORTA | TRANSTHORACIC ECHOCARDIOGRAPHY | 2 | BASELINE | 2015-06-09T14:20 |", "score": 0.4246, "match_basis": "verbatim_token+domain_route:CV"}, {"md_atom_id": "md_dmCV_ex_a015", "md_file": "knowledge_base/domains/CV/examples.md", "md_atom_type": "TABLE_ROW", "md_parent_section": "§CV.2 [Example 2]", "md_verbatim": "| 1 | ABC123 | CV | 1001 | 1 | NCVALTYP | Native Cardiac Valve Structure Without Intervention Type | VALVULAR STRUCTURE, COMMON | NATIVE, WITHOUT INTERVENTION | | NATIVE, WITHOUT INTERVENTION | | | AORTIC VALVE | TRANSTHORACIC ECHOCARDIOGRAPHY | 5 | MONTH 2 | 2015-08-05T11:15 |", "score": 0.417, "match_basis": "verbatim_token+domain_route:CV"}, {"md_atom_id": "md_dmCV_ex_a006", "md_file": "knowledge_base/domains/CV/examples.md", "md_atom_type": "TABLE_ROW", "md_parent_section": "§CV.1 [Example 1]", "md_verbatim": "| 1 | ABC123 | CV | 002-2004 | 1 | 2 | ANEURIND | Aneurysm Indicator | Y | Y | THORACIC AORTA | TRANSTHORACIC ECHOCARDIOGRAPHY | 2 | BASELINE | 2015-06-09T14:20 |", "score": 0.4154, "match_basis": "verbatim_token+domain_route:CV"}, {"md_atom_id": "md_dmCV_ex_a009", "md_file": "knowledge_base/domains/CV/examples.md", "md_atom_type": "TABLE_ROW", "md_parent_section": "§CV.1 [Example 1]", "md_verbatim": "| 4 | ABC123 | CV | 002-2004 | 4 | | ANEURIND | Aneurysm Indicator | N | N | SUPRARENAL AORTA | TRANSTHORACIC ECHOCARDIOGRAPHY | 2 | BASELINE | 2015-06-09T14:20 |", "score": 0.4144, "match_basis": "verbatim_token+domain_route:CV"}], "candidate_count": 5, "zero_candidate": false}
{"pdf_atom_id": "ig34_p0288_a008", "pdf_atom_type": "TABLE_ROW", "pdf_source": "SDTMIG_v3.4", "pdf_page": 288, "pdf_parent_section": "§6.3.7.2 Cardiovascular System Findings (CV)", "pdf_verbatim": "| VISITDY | Planned Study Day of Visit | Num | | Timing | Planned study day of VISIT. Should be an integer. | Perm |", "figure_ref": null, "candidates": [{"md_atom_id": "md_dmCV_ex_a015", "md_file": "knowledge_base/domains/CV/examples.md", "md_atom_type": "TABLE_ROW", "md_parent_section": "§CV.2 [Example 2]", "md_verbatim": "| 1 | ABC123 | CV | 1001 | 1 | NCVALTYP | Native Cardiac Valve Structure Without Intervention Type | VALVULAR STRUCTURE, COMMON | NATIVE, WITHOUT INTERVENTION | | NATIVE, WITHOUT INTERVENTION | | | AORTIC VALVE | TRANSTHORACIC ECHOCARDIOGRAPHY | 5 | MONTH 2 | 2015-08-05T11:15 |", "score": 0.4159, "match_basis": "verbatim_token+domain_route:CV"}, {"md_atom_id": "md_dmCV_ex_a021", "md_file": "knowledge_base/domains/CV/examples.md", "md_atom_type": "TABLE_ROW", "md_parent_section": "§CV.2 [Example 2]", "md_verbatim": "| 7 | ABC123 | CV | 1001 | 7 | MNDIAMVS | Minor Axis Cross-sec Diameter, MVS | VALVULAR STRUCTURE, COMMON | 2.11 | cm | 2.11 | 2.11 | cm | AORTIC VALVE ANNULUS | TRANSTHORACIC ECHOCARDIOGRAPHY | 5 | MONTH 2 | 2015-08-05T11:15 |", "score": 0.4107, "match_basis": "verbatim_token+domain_route:CV"}, {"md_atom_id": "md_dmCV_ex_a017", "md_file": "knowledge_base/domains/CV/examples.md", "md_atom_type": "TABLE_ROW", "md_parent_section": "§CV.2 [Example 2]", "md_verbatim": "| 3 | ABC123 | CV | 1001 | 3 | MNDIAEVS | Minor Axis Cross-sec Diameter, EVS | VALVULAR STRUCTURE, COMMON | 2.18 | cm | 2.18 | 2.18 | cm | AORTIC VALVE ANNULUS | TRANSTHORACIC ECHOCARDIOGRAPHY | 5 | MONTH 2 | 2015-08-05T11:15 |", "score": 0.4106, "match_basis": "verbatim_token+domain_route:CV"}, {"md_atom_id": "md_dmCV_ex_a019", "md_file": "knowledge_base/domains/CV/examples.md", "md_atom_type": "TABLE_ROW", "md_parent_section": "§CV.2 [Example 2]", "md_verbatim": "| 5 | ABC123 | CV | 1001 | 5 | MNDIAEVD | Minor Axis Cross-sec Diameter, EVD | VALVULAR STRUCTURE, COMMON | 1.92 | cm | 1.92 | 1.92 | cm | AORTIC VALVE ANNULUS | TRANSTHORACIC ECHOCARDIOGRAPHY | 5 | MONTH 2 | 2015-08-05T11:15 |", "score": 0.4106, "match_basis": "verbatim_token+domain_route:CV"}, {"md_atom_id": "md_dmCV_ex_a016", "md_file": "knowledge_base/domains/CV/examples.md", "md_atom_type": "TABLE_ROW", "md_parent_section": "§CV.2 [Example 2]", "md_verbatim": "| 2 | ABC123 | CV | 1001 | 2 | SIZE | Size | VALVULAR STRUCTURE, COMMON | REDUCED | | REDUCED | | | AORTIC VALVE ANNULUS | TRANSTHORACIC ECHOCARDIOGRAPHY | 5 | MONTH 2 | 2015-08-05T11:15 |", "score": 0.4059, "match_basis": "verbatim_token+domain_route:CV"}], "candidate_count": 5, "zero_candidate": false}
{"pdf_atom_id": "ig34_p0288_a009", "pdf_atom_type": "TABLE_ROW", "pdf_source": "SDTMIG_v3.4", "pdf_page": 288, "pdf_parent_section": "§6.3.7.2 Cardiovascular System Findings (CV)", "pdf_verbatim": "| TAETORD | Planned Order of Element within Arm | Num | | Timing | Number that gives the planned order of the element within the arm for the element in which the assessment was made. | Perm |", "figure_ref": null, "candidates": [{"md_atom_id": "md_dmCV_ex_a015", "md_file": "knowledge_base/domains/CV/examples.md", "md_atom_type": "TABLE_ROW", "md_parent_section": "§CV.2 [Example 2]", "md_verbatim": "| 1 | ABC123 | CV | 1001 | 1 | NCVALTYP | Native Cardiac Valve Structure Without Intervention Type | VALVULAR STRUCTURE, COMMON | NATIVE, WITHOUT INTERVENTION | | NATIVE, WITHOUT INTERVENTION | | | AORTIC VALVE | TRANSTHORACIC ECHOCARDIOGRAPHY | 5 | MONTH 2 | 2015-08-05T11:15 |", "score": 0.418, "match_basis": "verbatim_token+domain_route:CV"}, {"md_atom_id": "md_dmCV_ex_a008", "md_file": "knowledge_base/domains/CV/examples.md", "md_atom_type": "TABLE_ROW", "md_parent_section": "§CV.1 [Example 1]", "md_verbatim": "| 3 | ABC123 | CV | 002-2004 | 3 | 2 | STANFADC | Stanford AoD Classification | CLASS A | CLASS A | THORACIC AORTA | TRANSTHORACIC ECHOCARDIOGRAPHY | 2 | BASELINE | 2015-06-09T14:20 |", "score": 0.4155, "match_basis": "verbatim_token+domain_route:CV"}, {"md_atom_id": "md_dmCV_ex_a007", "md_file": "knowledge_base/domains/CV/examples.md", "md_atom_type": "TABLE_ROW", "md_parent_section": "§CV.1 [Example 1]", "md_verbatim": "| 2 | ABC123 | CV | 002-2004 | 2 | 2 | DISECIND | Dissection Indicator | Y | Y | THORACIC AORTA | TRANSTHORACIC ECHOCARDIOGRAPHY | 2 | BASELINE | 2015-06-09T14:20 |", "score": 0.4106, "match_basis": "verbatim_token+domain_route:CV"}, {"md_atom_id": "md_dmCV_ex_a021", "md_file": "knowledge_base/domains/CV/examples.md", "md_atom_type": "TABLE_ROW", "md_parent_section": "§CV.2 [Example 2]", "md_verbatim": "| 7 | ABC123 | CV | 1001 | 7 | MNDIAMVS | Minor Axis Cross-sec Diameter, MVS | VALVULAR STRUCTURE, COMMON | 2.11 | cm | 2.11 | 2.11 | cm | AORTIC VALVE ANNULUS | TRANSTHORACIC ECHOCARDIOGRAPHY | 5 | MONTH 2 | 2015-08-05T11:15 |", "score": 0.409, "match_basis": "verbatim_token+domain_route:CV"}, {"md_atom_id": "md_dmCV_ex_a017", "md_file": "knowledge_base/domains/CV/examples.md", "md_atom_type": "TABLE_ROW", "md_parent_section": "§CV.2 [Example 2]", "md_verbatim": "| 3 | ABC123 | CV | 1001 | 3 | MNDIAEVS | Minor Axis Cross-sec Diameter, EVS | VALVULAR STRUCTURE, COMMON | 2.18 | cm | 2.18 | 2.18 | cm | AORTIC VALVE ANNULUS | TRANSTHORACIC ECHOCARDIOGRAPHY | 5 | MONTH 2 | 2015-08-05T11:15 |", "score": 0.409, "match_basis": "verbatim_token+domain_route:CV"}], "candidate_count": 5, "zero_candidate": false}
{"pdf_atom_id": "ig34_p0288_a010", "pdf_atom_type": "TABLE_ROW", "pdf_source": "SDTMIG_v3.4", "pdf_page": 288, "pdf_parent_section": "§6.3.7.2 Cardiovascular System Findings (CV)", "pdf_verbatim": "| EPOCH | Epoch | Char | (EPOCH) | Timing | Epoch associated with the date/time at which the assessment was made. | Perm |", "figure_ref": null, "candidates": [{"md_atom_id": "md_dmCV_ex_a015", "md_file": "knowledge_base/domains/CV/examples.md", "md_atom_type": "TABLE_ROW", "md_parent_section": "§CV.2 [Example 2]", "md_verbatim": "| 1 | ABC123 | CV | 1001 | 1 | NCVALTYP | Native Cardiac Valve Structure Without Intervention Type | VALVULAR STRUCTURE, COMMON | NATIVE, WITHOUT INTERVENTION | | NATIVE, WITHOUT INTERVENTION | | | AORTIC VALVE | TRANSTHORACIC ECHOCARDIOGRAPHY | 5 | MONTH 2 | 2015-08-05T11:15 |", "score": 0.415, "match_basis": "verbatim_token+domain_route:CV"}, {"md_atom_id": "md_dmCV_ex_a007", "md_file": "knowledge_base/domains/CV/examples.md", "md_atom_type": "TABLE_ROW", "md_parent_section": "§CV.1 [Example 1]", "md_verbatim": "| 2 | ABC123 | CV | 002-2004 | 2 | 2 | DISECIND | Dissection Indicator | Y | Y | THORACIC AORTA | TRANSTHORACIC ECHOCARDIOGRAPHY | 2 | BASELINE | 2015-06-09T14:20 |", "score": 0.406, "match_basis": "verbatim_token+domain_route:CV"}, {"md_atom_id": "md_dmCV_ex_a008", "md_file": "knowledge_base/domains/CV/examples.md", "md_atom_type": "TABLE_ROW", "md_parent_section": "§CV.1 [Example 1]", "md_verbatim": "| 3 | ABC123 | CV | 002-2004 | 3 | 2 | STANFADC | Stanford AoD Classification | CLASS A | CLASS A | THORACIC AORTA | TRANSTHORACIC ECHOCARDIOGRAPHY | 2 | BASELINE | 2015-06-09T14:20 |", "score": 0.4058, "match_basis": "verbatim_token+domain_route:CV"}, {"md_atom_id": "md_dmCV_ex_a021", "md_file": "knowledge_base/domains/CV/examples.md", "md_atom_type": "TABLE_ROW", "md_parent_section": "§CV.2 [Example 2]", "md_verbatim": "| 7 | ABC123 | CV | 1001 | 7 | MNDIAMVS | Minor Axis Cross-sec Diameter, MVS | VALVULAR STRUCTURE, COMMON | 2.11 | cm | 2.11 | 2.11 | cm | AORTIC VALVE ANNULUS | TRANSTHORACIC ECHOCARDIOGRAPHY | 5 | MONTH 2 | 2015-08-05T11:15 |", "score": 0.405, "match_basis": "verbatim_token+domain_route:CV"}, {"md_atom_id": "md_dmCV_ex_a017", "md_file": "knowledge_base/domains/CV/examples.md", "md_atom_type": "TABLE_ROW", "md_parent_section": "§CV.2 [Example 2]", "md_verbatim": "| 3 | ABC123 | CV | 1001 | 3 | MNDIAEVS | Minor Axis Cross-sec Diameter, EVS | VALVULAR STRUCTURE, COMMON | 2.18 | cm | 2.18 | 2.18 | cm | AORTIC VALVE ANNULUS | TRANSTHORACIC ECHOCARDIOGRAPHY | 5 | MONTH 2 | 2015-08-05T11:15 |", "score": 0.405, "match_basis": "verbatim_token+domain_route:CV"}], "candidate_count": 5, "zero_candidate": false}
{"pdf_atom_id": "ig34_p0288_a011", "pdf_atom_type": "TABLE_ROW", "pdf_source": "SDTMIG_v3.4", "pdf_page": 288, "pdf_parent_section": "§6.3.7.2 Cardiovascular System Findings (CV)", "pdf_verbatim": "| CVDTC | Date/Time of Test | Char | ISO 8601 datetime or interval | Timing | Collection date and time of an observation. | Exp |", "figure_ref": null, "candidates": [{"md_atom_id": "md_dmCV_ex_a015", "md_file": "knowledge_base/domains/CV/examples.md", "md_atom_type": "TABLE_ROW", "md_parent_section": "§CV.2 [Example 2]", "md_verbatim": "| 1 | ABC123 | CV | 1001 | 1 | NCVALTYP | Native Cardiac Valve Structure Without Intervention Type | VALVULAR STRUCTURE, COMMON | NATIVE, WITHOUT INTERVENTION | | NATIVE, WITHOUT INTERVENTION | | | AORTIC VALVE | TRANSTHORACIC ECHOCARDIOGRAPHY | 5 | MONTH 2 | 2015-08-05T11:15 |", "score": 0.4407, "match_basis": "verbatim_token+domain_route:CV"}, {"md_atom_id": "md_dmCV_ex_a007", "md_file": "knowledge_base/domains/CV/examples.md", "md_atom_type": "TABLE_ROW", "md_parent_section": "§CV.1 [Example 1]", "md_verbatim": "| 2 | ABC123 | CV | 002-2004 | 2 | 2 | DISECIND | Dissection Indicator | Y | Y | THORACIC AORTA | TRANSTHORACIC ECHOCARDIOGRAPHY | 2 | BASELINE | 2015-06-09T14:20 |", "score": 0.424, "match_basis": "verbatim_token+domain_route:CV"}, {"md_atom_id": "md_dmCV_ex_a008", "md_file": "knowledge_base/domains/CV/examples.md", "md_atom_type": "TABLE_ROW", "md_parent_section": "§CV.1 [Example 1]", "md_verbatim": "| 3 | ABC123 | CV | 002-2004 | 3 | 2 | STANFADC | Stanford AoD Classification | CLASS A | CLASS A | THORACIC AORTA | TRANSTHORACIC ECHOCARDIOGRAPHY | 2 | BASELINE | 2015-06-09T14:20 |", "score": 0.4171, "match_basis": "verbatim_token+domain_route:CV"}, {"md_atom_id": "md_dmCV_ex_a021", "md_file": "knowledge_base/domains/CV/examples.md", "md_atom_type": "TABLE_ROW", "md_parent_section": "§CV.2 [Example 2]", "md_verbatim": "| 7 | ABC123 | CV | 1001 | 7 | MNDIAMVS | Minor Axis Cross-sec Diameter, MVS | VALVULAR STRUCTURE, COMMON | 2.11 | cm | 2.11 | 2.11 | cm | AORTIC VALVE ANNULUS | TRANSTHORACIC ECHOCARDIOGRAPHY | 5 | MONTH 2 | 2015-08-05T11:15 |", "score": 0.4149, "match_basis": "verbatim_token+domain_route:CV"}, {"md_atom_id": "md_dmCV_ex_a017", "md_file": "knowledge_base/domains/CV/examples.md", "md_atom_type": "TABLE_ROW", "md_parent_section": "§CV.2 [Example 2]", "md_verbatim": "| 3 | ABC123 | CV | 1001 | 3 | MNDIAEVS | Minor Axis Cross-sec Diameter, EVS | VALVULAR STRUCTURE, COMMON | 2.18 | cm | 2.18 | 2.18 | cm | AORTIC VALVE ANNULUS | TRANSTHORACIC ECHOCARDIOGRAPHY | 5 | MONTH 2 | 2015-08-05T11:15 |", "score": 0.4148, "match_basis": "verbatim_token+domain_route:CV"}], "candidate_count": 5, "zero_candidate": false}
{"pdf_atom_id": "ig34_p0288_a012", "pdf_atom_type": "TABLE_ROW", "pdf_source": "SDTMIG_v3.4", "pdf_page": 288, "pdf_parent_section": "§6.3.7.2 Cardiovascular System Findings (CV)", "pdf_verbatim": "| CVDY | Study Day of Visit/Collection/Exam | Num | | Timing | Actual study day of visit/collection/exam expressed in integer days relative to the sponsor-defined RFSTDTC in Demographics. | Perm |", "figure_ref": null, "candidates": [{"md_atom_id": "md_dmCV_ex_a015", "md_file": "knowledge_base/domains/CV/examples.md", "md_atom_type": "TABLE_ROW", "md_parent_section": "§CV.2 [Example 2]", "md_verbatim": "| 1 | ABC123 | CV | 1001 | 1 | NCVALTYP | Native Cardiac Valve Structure Without Intervention Type | VALVULAR STRUCTURE, COMMON | NATIVE, WITHOUT INTERVENTION | | NATIVE, WITHOUT INTERVENTION | | | AORTIC VALVE | TRANSTHORACIC ECHOCARDIOGRAPHY | 5 | MONTH 2 | 2015-08-05T11:15 |", "score": 0.4483, "match_basis": "verbatim_token+domain_route:CV"}, {"md_atom_id": "md_dmCV_ex_a007", "md_file": "knowledge_base/domains/CV/examples.md", "md_atom_type": "TABLE_ROW", "md_parent_section": "§CV.1 [Example 1]", "md_verbatim": "| 2 | ABC123 | CV | 002-2004 | 2 | 2 | DISECIND | Dissection Indicator | Y | Y | THORACIC AORTA | TRANSTHORACIC ECHOCARDIOGRAPHY | 2 | BASELINE | 2015-06-09T14:20 |", "score": 0.4465, "match_basis": "verbatim_token+domain_route:CV"}, {"md_atom_id": "md_dmCV_ex_a008", "md_file": "knowledge_base/domains/CV/examples.md", "md_atom_type": "TABLE_ROW", "md_parent_section": "§CV.1 [Example 1]", "md_verbatim": "| 3 | ABC123 | CV | 002-2004 | 3 | 2 | STANFADC | Stanford AoD Classification | CLASS A | CLASS A | THORACIC AORTA | TRANSTHORACIC ECHOCARDIOGRAPHY | 2 | BASELINE | 2015-06-09T14:20 |", "score": 0.4356, "match_basis": "verbatim_token+domain_route:CV"}, {"md_atom_id": "md_dmCV_ex_a021", "md_file": "knowledge_base/domains/CV/examples.md", "md_atom_type": "TABLE_ROW", "md_parent_section": "§CV.2 [Example 2]", "md_verbatim": "| 7 | ABC123 | CV | 1001 | 7 | MNDIAMVS | Minor Axis Cross-sec Diameter, MVS | VALVULAR STRUCTURE, COMMON | 2.11 | cm | 2.11 | 2.11 | cm | AORTIC VALVE ANNULUS | TRANSTHORACIC ECHOCARDIOGRAPHY | 5 | MONTH 2 | 2015-08-05T11:15 |", "score": 0.4235, "match_basis": "verbatim_token+domain_route:CV"}, {"md_atom_id": "md_dmCV_ex_a017", "md_file": "knowledge_base/domains/CV/examples.md", "md_atom_type": "TABLE_ROW", "md_parent_section": "§CV.2 [Example 2]", "md_verbatim": "| 3 | ABC123 | CV | 1001 | 3 | MNDIAEVS | Minor Axis Cross-sec Diameter, EVS | VALVULAR STRUCTURE, COMMON | 2.18 | cm | 2.18 | 2.18 | cm | AORTIC VALVE ANNULUS | TRANSTHORACIC ECHOCARDIOGRAPHY | 5 | MONTH 2 | 2015-08-05T11:15 |", "score": 0.4234, "match_basis": "verbatim_token+domain_route:CV"}], "candidate_count": 5, "zero_candidate": false}
{"pdf_atom_id": "ig34_p0288_a013", "pdf_atom_type": "TABLE_ROW", "pdf_source": "SDTMIG_v3.4", "pdf_page": 288, "pdf_parent_section": "§6.3.7.2 Cardiovascular System Findings (CV)", "pdf_verbatim": "| CVTPT | Planned Time Point Name | Char | | Timing | Text description of time of when a measurement or observation should be taken, as defined in the protocol. This may be represented as an elapsed time relative to a fixed reference point, such as time of last dose. See CVTPTNUM and CVTPTREF. | Perm |", "figure_ref": null, "candidates": [{"md_atom_id": "md_dmCV_ex_a015", "md_file": "knowledge_base/domains/CV/examples.md", "md_atom_type": "TABLE_ROW", "md_parent_section": "§CV.2 [Example 2]", "md_verbatim": "| 1 | ABC123 | CV | 1001 | 1 | NCVALTYP | Native Cardiac Valve Structure Without Intervention Type | VALVULAR STRUCTURE, COMMON | NATIVE, WITHOUT INTERVENTION | | NATIVE, WITHOUT INTERVENTION | | | AORTIC VALVE | TRANSTHORACIC ECHOCARDIOGRAPHY | 5 | MONTH 2 | 2015-08-05T11:15 |", "score": 0.4353, "match_basis": "verbatim_token+domain_route:CV"}, {"md_atom_id": "md_dmCV_ex_a008", "md_file": "knowledge_base/domains/CV/examples.md", "md_atom_type": "TABLE_ROW", "md_parent_section": "§CV.1 [Example 1]", "md_verbatim": "| 3 | ABC123 | CV | 002-2004 | 3 | 2 | STANFADC | Stanford AoD Classification | CLASS A | CLASS A | THORACIC AORTA | TRANSTHORACIC ECHOCARDIOGRAPHY | 2 | BASELINE | 2015-06-09T14:20 |", "score": 0.4171, "match_basis": "verbatim_token+domain_route:CV"}, {"md_atom_id": "md_dmCV_ex_a021", "md_file": "knowledge_base/domains/CV/examples.md", "md_atom_type": "TABLE_ROW", "md_parent_section": "§CV.2 [Example 2]", "md_verbatim": "| 7 | ABC123 | CV | 1001 | 7 | MNDIAMVS | Minor Axis Cross-sec Diameter, MVS | VALVULAR STRUCTURE, COMMON | 2.11 | cm | 2.11 | 2.11 | cm | AORTIC VALVE ANNULUS | TRANSTHORACIC ECHOCARDIOGRAPHY | 5 | MONTH 2 | 2015-08-05T11:15 |", "score": 0.4125, "match_basis": "verbatim_token+domain_route:CV"}, {"md_atom_id": "md_dmCV_ex_a017", "md_file": "knowledge_base/domains/CV/examples.md", "md_atom_type": "TABLE_ROW", "md_parent_section": "§CV.2 [Example 2]", "md_verbatim": "| 3 | ABC123 | CV | 1001 | 3 | MNDIAEVS | Minor Axis Cross-sec Diameter, EVS | VALVULAR STRUCTURE, COMMON | 2.18 | cm | 2.18 | 2.18 | cm | AORTIC VALVE ANNULUS | TRANSTHORACIC ECHOCARDIOGRAPHY | 5 | MONTH 2 | 2015-08-05T11:15 |", "score": 0.4124, "match_basis": "verbatim_token+domain_route:CV"}, {"md_atom_id": "md_dmCV_ex_a019", "md_file": "knowledge_base/domains/CV/examples.md", "md_atom_type": "TABLE_ROW", "md_parent_section": "§CV.2 [Example 2]", "md_verbatim": "| 5 | ABC123 | CV | 1001 | 5 | MNDIAEVD | Minor Axis Cross-sec Diameter, EVD | VALVULAR STRUCTURE, COMMON | 1.92 | cm | 1.92 | 1.92 | cm | AORTIC VALVE ANNULUS | TRANSTHORACIC ECHOCARDIOGRAPHY | 5 | MONTH 2 | 2015-08-05T11:15 |", "score": 0.4124, "match_basis": "verbatim_token+domain_route:CV"}], "candidate_count": 5, "zero_candidate": false}
{"pdf_atom_id": "ig34_p0288_a014", "pdf_atom_type": "TABLE_ROW", "pdf_source": "SDTMIG_v3.4", "pdf_page": 288, "pdf_parent_section": "§6.3.7.2 Cardiovascular System Findings (CV)", "pdf_verbatim": "| CVTPTNUM | Planned Time Point Number | Num | | Timing | Numeric version of planned time point used in sorting. | Perm |", "figure_ref": null, "candidates": [{"md_atom_id": "md_dmCV_ex_a021", "md_file": "knowledge_base/domains/CV/examples.md", "md_atom_type": "TABLE_ROW", "md_parent_section": "§CV.2 [Example 2]", "md_verbatim": "| 7 | ABC123 | CV | 1001 | 7 | MNDIAMVS | Minor Axis Cross-sec Diameter, MVS | VALVULAR STRUCTURE, COMMON | 2.11 | cm | 2.11 | 2.11 | cm | AORTIC VALVE ANNULUS | TRANSTHORACIC ECHOCARDIOGRAPHY | 5 | MONTH 2 | 2015-08-05T11:15 |", "score": 0.4202, "match_basis": "verbatim_token+domain_route:CV"}, {"md_atom_id": "md_dmCV_ex_a017", "md_file": "knowledge_base/domains/CV/examples.md", "md_atom_type": "TABLE_ROW", "md_parent_section": "§CV.2 [Example 2]", "md_verbatim": "| 3 | ABC123 | CV | 1001 | 3 | MNDIAEVS | Minor Axis Cross-sec Diameter, EVS | VALVULAR STRUCTURE, COMMON | 2.18 | cm | 2.18 | 2.18 | cm | AORTIC VALVE ANNULUS | TRANSTHORACIC ECHOCARDIOGRAPHY | 5 | MONTH 2 | 2015-08-05T11:15 |", "score": 0.42, "match_basis": "verbatim_token+domain_route:CV"}, {"md_atom_id": "md_dmCV_ex_a019", "md_file": "knowledge_base/domains/CV/examples.md", "md_atom_type": "TABLE_ROW", "md_parent_section": "§CV.2 [Example 2]", "md_verbatim": "| 5 | ABC123 | CV | 1001 | 5 | MNDIAEVD | Minor Axis Cross-sec Diameter, EVD | VALVULAR STRUCTURE, COMMON | 1.92 | cm | 1.92 | 1.92 | cm | AORTIC VALVE ANNULUS | TRANSTHORACIC ECHOCARDIOGRAPHY | 5 | MONTH 2 | 2015-08-05T11:15 |", "score": 0.42, "match_basis": "verbatim_token+domain_route:CV"}, {"md_atom_id": "md_dmCV_ex_a015", "md_file": "knowledge_base/domains/CV/examples.md", "md_atom_type": "TABLE_ROW", "md_parent_section": "§CV.2 [Example 2]", "md_verbatim": "| 1 | ABC123 | CV | 1001 | 1 | NCVALTYP | Native Cardiac Valve Structure Without Intervention Type | VALVULAR STRUCTURE, COMMON | NATIVE, WITHOUT INTERVENTION | | NATIVE, WITHOUT INTERVENTION | | | AORTIC VALVE | TRANSTHORACIC ECHOCARDIOGRAPHY | 5 | MONTH 2 | 2015-08-05T11:15 |", "score": 0.4198, "match_basis": "verbatim_token+domain_route:CV"}, {"md_atom_id": "md_dmCV_ex_a016", "md_file": "knowledge_base/domains/CV/examples.md", "md_atom_type": "TABLE_ROW", "md_parent_section": "§CV.2 [Example 2]", "md_verbatim": "| 2 | ABC123 | CV | 1001 | 2 | SIZE | Size | VALVULAR STRUCTURE, COMMON | REDUCED | | REDUCED | | | AORTIC VALVE ANNULUS | TRANSTHORACIC ECHOCARDIOGRAPHY | 5 | MONTH 2 | 2015-08-05T11:15 |", "score": 0.4167, "match_basis": "verbatim_token+domain_route:CV"}], "candidate_count": 5, "zero_candidate": false}
{"pdf_atom_id": "ig34_p0288_a015", "pdf_atom_type": "TABLE_ROW", "pdf_source": "SDTMIG_v3.4", "pdf_page": 288, "pdf_parent_section": "§6.3.7.2 Cardiovascular System Findings (CV)", "pdf_verbatim": "| CVELTM | Planned Elapsed Time from Time Point Ref | Char | ISO 8601 duration | Timing | Planned elapsed time relative to a planned fixed reference (CVPTREF). Examples: \"PREVIOUS DOSE\", \"PREVIOUS MEAL\". This variable is useful where there are repetitive measures. Not a clock time or a date/time variable, but an interval, represented as ISO duration. | Perm |", "figure_ref": null, "candidates": [{"md_atom_id": "md_dmCV_ex_a015", "md_file": "knowledge_base/domains/CV/examples.md", "md_atom_type": "TABLE_ROW", "md_parent_section": "§CV.2 [Example 2]", "md_verbatim": "| 1 | ABC123 | CV | 1001 | 1 | NCVALTYP | Native Cardiac Valve Structure Without Intervention Type | VALVULAR STRUCTURE, COMMON | NATIVE, WITHOUT INTERVENTION | | NATIVE, WITHOUT INTERVENTION | | | AORTIC VALVE | TRANSTHORACIC ECHOCARDIOGRAPHY | 5 | MONTH 2 | 2015-08-05T11:15 |", "score": 0.4381, "match_basis": "verbatim_token+domain_route:CV"}, {"md_atom_id": "md_dmCV_ex_a021", "md_file": "knowledge_base/domains/CV/examples.md", "md_atom_type": "TABLE_ROW", "md_parent_section": "§CV.2 [Example 2]", "md_verbatim": "| 7 | ABC123 | CV | 1001 | 7 | MNDIAMVS | Minor Axis Cross-sec Diameter, MVS | VALVULAR STRUCTURE, COMMON | 2.11 | cm | 2.11 | 2.11 | cm | AORTIC VALVE ANNULUS | TRANSTHORACIC ECHOCARDIOGRAPHY | 5 | MONTH 2 | 2015-08-05T11:15 |", "score": 0.4155, "match_basis": "verbatim_token+domain_route:CV"}, {"md_atom_id": "md_dmCV_ex_a017", "md_file": "knowledge_base/domains/CV/examples.md", "md_atom_type": "TABLE_ROW", "md_parent_section": "§CV.2 [Example 2]", "md_verbatim": "| 3 | ABC123 | CV | 1001 | 3 | MNDIAEVS | Minor Axis Cross-sec Diameter, EVS | VALVULAR STRUCTURE, COMMON | 2.18 | cm | 2.18 | 2.18 | cm | AORTIC VALVE ANNULUS | TRANSTHORACIC ECHOCARDIOGRAPHY | 5 | MONTH 2 | 2015-08-05T11:15 |", "score": 0.4154, "match_basis": "verbatim_token+domain_route:CV"}, {"md_atom_id": "md_dmCV_ex_a019", "md_file": "knowledge_base/domains/CV/examples.md", "md_atom_type": "TABLE_ROW", "md_parent_section": "§CV.2 [Example 2]", "md_verbatim": "| 5 | ABC123 | CV | 1001 | 5 | MNDIAEVD | Minor Axis Cross-sec Diameter, EVD | VALVULAR STRUCTURE, COMMON | 1.92 | cm | 1.92 | 1.92 | cm | AORTIC VALVE ANNULUS | TRANSTHORACIC ECHOCARDIOGRAPHY | 5 | MONTH 2 | 2015-08-05T11:15 |", "score": 0.4154, "match_basis": "verbatim_token+domain_route:CV"}, {"md_atom_id": "md_dmCV_ex_a022", "md_file": "knowledge_base/domains/CV/examples.md", "md_atom_type": "TABLE_ROW", "md_parent_section": "§CV.2 [Example 2]", "md_verbatim": "| 8 | ABC123 | CV | 1001 | 8 | MJDIAMVS | Major Axis Cross-sec Diameter, MVS | VALVULAR STRUCTURE, COMMON | 2.39 | cm | 2.39 | 2.39 | cm | AORTIC VALVE ANNULUS | TRANSTHORACIC ECHOCARDIOGRAPHY | 5 | MONTH 2 | 2015-08-05T11:15 |", "score": 0.4123, "match_basis": "verbatim_token+domain_route:CV"}], "candidate_count": 5, "zero_candidate": false}
{"pdf_atom_id": "ig34_p0288_a016", "pdf_atom_type": "TABLE_ROW", "pdf_source": "SDTMIG_v3.4", "pdf_page": 288, "pdf_parent_section": "§6.3.7.2 Cardiovascular System Findings (CV)", "pdf_verbatim": "| CVTPTREF | Time Point Reference | Char | | Timing | Description of the fixed reference point referred to by CVELTM, CVTPTNUM, and CVTPT. Examples: \"PREVIOUS DOSE\", \"PREVIOUS MEAL\". | Perm |", "figure_ref": null, "candidates": [{"md_atom_id": "md_dmCV_ex_a015", "md_file": "knowledge_base/domains/CV/examples.md", "md_atom_type": "TABLE_ROW", "md_parent_section": "§CV.2 [Example 2]", "md_verbatim": "| 1 | ABC123 | CV | 1001 | 1 | NCVALTYP | Native Cardiac Valve Structure Without Intervention Type | VALVULAR STRUCTURE, COMMON | NATIVE, WITHOUT INTERVENTION | | NATIVE, WITHOUT INTERVENTION | | | AORTIC VALVE | TRANSTHORACIC ECHOCARDIOGRAPHY | 5 | MONTH 2 | 2015-08-05T11:15 |", "score": 0.4122, "match_basis": "verbatim_token+domain_route:CV"}, {"md_atom_id": "md_dmCV_ex_a007", "md_file": "knowledge_base/domains/CV/examples.md", "md_atom_type": "TABLE_ROW", "md_parent_section": "§CV.1 [Example 1]", "md_verbatim": "| 2 | ABC123 | CV | 002-2004 | 2 | 2 | DISECIND | Dissection Indicator | Y | Y | THORACIC AORTA | TRANSTHORACIC ECHOCARDIOGRAPHY | 2 | BASELINE | 2015-06-09T14:20 |", "score": 0.4095, "match_basis": "verbatim_token+domain_route:CV"}, {"md_atom_id": "md_dmCV_ex_a008", "md_file": "knowledge_base/domains/CV/examples.md", "md_atom_type": "TABLE_ROW", "md_parent_section": "§CV.1 [Example 1]", "md_verbatim": "| 3 | ABC123 | CV | 002-2004 | 3 | 2 | STANFADC | Stanford AoD Classification | CLASS A | CLASS A | THORACIC AORTA | TRANSTHORACIC ECHOCARDIOGRAPHY | 2 | BASELINE | 2015-06-09T14:20 |", "score": 0.4092, "match_basis": "verbatim_token+domain_route:CV"}, {"md_atom_id": "md_dmCV_ex_a009", "md_file": "knowledge_base/domains/CV/examples.md", "md_atom_type": "TABLE_ROW", "md_parent_section": "§CV.1 [Example 1]", "md_verbatim": "| 4 | ABC123 | CV | 002-2004 | 4 | | ANEURIND | Aneurysm Indicator | N | N | SUPRARENAL AORTA | TRANSTHORACIC ECHOCARDIOGRAPHY | 2 | BASELINE | 2015-06-09T14:20 |", "score": 0.4045, "match_basis": "verbatim_token+domain_route:CV"}, {"md_atom_id": "md_dmCV_ex_a010", "md_file": "knowledge_base/domains/CV/examples.md", "md_atom_type": "TABLE_ROW", "md_parent_section": "§CV.1 [Example 1]", "md_verbatim": "| 5 | ABC123 | CV | 002-2004 | 5 | | ANEURIND | Aneurysm Indicator | N | N | INFRARENAL AORTA | TRANSTHORACIC ECHOCARDIOGRAPHY | 2 | BASELINE | 2015-06-09T14:20 |", "score": 0.4045, "match_basis": "verbatim_token+domain_route:CV"}], "candidate_count": 5, "zero_candidate": false}
{"pdf_atom_id": "ig34_p0288_a017", "pdf_atom_type": "TABLE_ROW", "pdf_source": "SDTMIG_v3.4", "pdf_page": 288, "pdf_parent_section": "§6.3.7.2 Cardiovascular System Findings (CV)", "pdf_verbatim": "| CVRFTDTC | Date/Time of Reference Time Point | Char | ISO 8601 datetime or interval | Timing | Date/time for a fixed reference time point defined by CVTPTREF. | Perm |", "figure_ref": null, "candidates": [{"md_atom_id": "md_dmCV_ex_a015", "md_file": "knowledge_base/domains/CV/examples.md", "md_atom_type": "TABLE_ROW", "md_parent_section": "§CV.2 [Example 2]", "md_verbatim": "| 1 | ABC123 | CV | 1001 | 1 | NCVALTYP | Native Cardiac Valve Structure Without Intervention Type | VALVULAR STRUCTURE, COMMON | NATIVE, WITHOUT INTERVENTION | | NATIVE, WITHOUT INTERVENTION | | | AORTIC VALVE | TRANSTHORACIC ECHOCARDIOGRAPHY | 5 | MONTH 2 | 2015-08-05T11:15 |", "score": 0.4227, "match_basis": "verbatim_token+domain_route:CV"}, {"md_atom_id": "md_dmCV_ex_a021", "md_file": "knowledge_base/domains/CV/examples.md", "md_atom_type": "TABLE_ROW", "md_parent_section": "§CV.2 [Example 2]", "md_verbatim": "| 7 | ABC123 | CV | 1001 | 7 | MNDIAMVS | Minor Axis Cross-sec Diameter, MVS | VALVULAR STRUCTURE, COMMON | 2.11 | cm | 2.11 | 2.11 | cm | AORTIC VALVE ANNULUS | TRANSTHORACIC ECHOCARDIOGRAPHY | 5 | MONTH 2 | 2015-08-05T11:15 |", "score": 0.4136, "match_basis": "verbatim_token+domain_route:CV"}, {"md_atom_id": "md_dmCV_ex_a017", "md_file": "knowledge_base/domains/CV/examples.md", "md_atom_type": "TABLE_ROW", "md_parent_section": "§CV.2 [Example 2]", "md_verbatim": "| 3 | ABC123 | CV | 1001 | 3 | MNDIAEVS | Minor Axis Cross-sec Diameter, EVS | VALVULAR STRUCTURE, COMMON | 2.18 | cm | 2.18 | 2.18 | cm | AORTIC VALVE ANNULUS | TRANSTHORACIC ECHOCARDIOGRAPHY | 5 | MONTH 2 | 2015-08-05T11:15 |", "score": 0.4135, "match_basis": "verbatim_token+domain_route:CV"}, {"md_atom_id": "md_dmCV_ex_a019", "md_file": "knowledge_base/domains/CV/examples.md", "md_atom_type": "TABLE_ROW", "md_parent_section": "§CV.2 [Example 2]", "md_verbatim": "| 5 | ABC123 | CV | 1001 | 5 | MNDIAEVD | Minor Axis Cross-sec Diameter, EVD | VALVULAR STRUCTURE, COMMON | 1.92 | cm | 1.92 | 1.92 | cm | AORTIC VALVE ANNULUS | TRANSTHORACIC ECHOCARDIOGRAPHY | 5 | MONTH 2 | 2015-08-05T11:15 |", "score": 0.4135, "match_basis": "verbatim_token+domain_route:CV"}, {"md_atom_id": "md_dmCV_ex_a008", "md_file": "knowledge_base/domains/CV/examples.md", "md_atom_type": "TABLE_ROW", "md_parent_section": "§CV.1 [Example 1]", "md_verbatim": "| 3 | ABC123 | CV | 002-2004 | 3 | 2 | STANFADC | Stanford AoD Classification | CLASS A | CLASS A | THORACIC AORTA | TRANSTHORACIC ECHOCARDIOGRAPHY | 2 | BASELINE | 2015-06-09T14:20 |", "score": 0.4103, "match_basis": "verbatim_token+domain_route:CV"}], "candidate_count": 5, "zero_candidate": false}
{"pdf_atom_id": "ig34_p0288_a018", "pdf_atom_type": "NOTE", "pdf_source": "SDTMIG_v3.4", "pdf_page": 288, "pdf_parent_section": "§6.3.7.2 Cardiovascular System Findings (CV)", "pdf_verbatim": "¹In this column, an asterisk (*) indicates that the variable may be subject to controlled terminology. CDISC/NCI codelist values are enclosed in parentheses.", "figure_ref": null, "candidates": [{"md_atom_id": "md_dmCV_ex_a003", "md_file": "knowledge_base/domains/CV/examples.md", "md_atom_type": "SENTENCE", "md_parent_section": "§CV.1 [Example 1]", "md_verbatim": "This example shows various findings related to the aortic artery, along with evaluation for the presence or absence of abdominal aortic aneurysms. The suprarenal, infrarenal, and thoracic sections of the aorta were examined for aneurysms. This level of anatomical location detail can be found in CVLOC. The records in rows 1 to 3 are related assessments regarding an aneurysm in the thoracic aorta and are grouped together using the CVGRPID variable.", "score": 0.3798, "match_basis": "verbatim_token+domain_route:CV"}, {"md_atom_id": "md_dmCV_ex_a012", "md_file": "knowledge_base/domains/CV/examples.md", "md_atom_type": "SENTENCE", "md_parent_section": "§CV.2 [Example 2]", "md_verbatim": "In this example CVTEST represents the structure of the aortic valve evaluated during a transthoracic echocardiography procedure.", "score": 0.3478, "match_basis": "verbatim_token+domain_route:CV"}, {"md_atom_id": "md_dmCV_ex_a004", "md_file": "knowledge_base/domains/CV/examples.md", "md_atom_type": "SENTENCE", "md_parent_section": "§CV.1 [Example 1]", "md_verbatim": "**cv.xpt**", "score": 0.31, "match_basis": "verbatim_token+domain_route:CV"}, {"md_atom_id": "md_dmCV_ex_a013", "md_file": "knowledge_base/domains/CV/examples.md", "md_atom_type": "SENTENCE", "md_parent_section": "§CV.2 [Example 2]", "md_verbatim": "**cv.xpt**", "score": 0.31, "match_basis": "verbatim_token+domain_route:CV"}, {"md_atom_id": "md_dmCV_assn_a003", "md_file": "knowledge_base/domains/CV/assumptions.md", "md_atom_type": "LIST_ITEM", "md_parent_section": "§CV [CV — Assumptions]", "md_verbatim": "2. Any Identifiers, Timing variables, or Findings general observation class qualifiers may be added to the CV domain, but the following qualifiers would generally not be used: --MODIFY, --BODSYS, --FAST, --ORNRLO, --ORNRHI, --TNRLO, --STNRHI, and --LOINC.", "score": 0.3077, "match_basis": "verbatim_token+domain_route:CV"}], "candidate_count": 5, "zero_candidate": false}
{"pdf_atom_id": "ig34_p0288_a019", "pdf_atom_type": "HEADING", "pdf_source": "SDTMIG_v3.4", "pdf_page": 288, "pdf_parent_section": "§6.3.7.2 Cardiovascular System Findings (CV)", "pdf_verbatim": "CV – Assumptions", "figure_ref": null, "candidates": [{"md_atom_id": "md_dmCV_assn_a001", "md_file": "knowledge_base/domains/CV/assumptions.md", "md_atom_type": "HEADING", "md_parent_section": "§CV [CV — Assumptions]", "md_verbatim": "# CV — Assumptions", "score": 1.0, "match_basis": "verbatim_token+domain_route:CV"}, {"md_atom_id": "md_dmCV_ex_a001", "md_file": "knowledge_base/domains/CV/examples.md", "md_atom_type": "HEADING", "md_parent_section": "§CV [CV — Examples]", "md_verbatim": "# CV — Examples", "score": 0.4, "match_basis": "verbatim_token+domain_route:CV"}, {"md_atom_id": "md_dmCV_ex_a002", "md_file": "knowledge_base/domains/CV/examples.md", "md_atom_type": "HEADING", "md_parent_section": "§CV [CV — Examples]", "md_verbatim": "## Example 1", "score": 0.4, "match_basis": "verbatim_token+domain_route:CV"}, {"md_atom_id": "md_dmCV_ex_a011", "md_file": "knowledge_base/domains/CV/examples.md", "md_atom_type": "HEADING", "md_parent_section": "§CV [CV — Examples]", "md_verbatim": "## Example 2", "score": 0.4, "match_basis": "verbatim_token+domain_route:CV"}], "candidate_count": 4, "zero_candidate": false}
{"pdf_atom_id": "ig34_p0288_a020", "pdf_atom_type": "LIST_ITEM", "pdf_source": "SDTMIG_v3.4", "pdf_page": 288, "pdf_parent_section": "§6.3.7.2 Cardiovascular System Findings (CV)", "pdf_verbatim": "1. The Cardiovascular System Findings domain is used to represent results and findings of cardiovascular diagnostic procedures. Information about the conduct of the procedure(s), if collected, is submitted in the Procedures (PR) domain.", "figure_ref": null, "candidates": [{"md_atom_id": "md_dmCV_assn_a002", "md_file": "knowledge_base/domains/CV/assumptions.md", "md_atom_type": "LIST_ITEM", "md_parent_section": "§CV [CV — Assumptions]", "md_verbatim": "1. The Cardiovascular System Findings domain is used to represent results and findings of cardiovascular diagnostic procedures. Information about the conduct of the procedure(s), if collected, is submitted in the Procedures (PR) domain.", "score": 1.0, "match_basis": "verbatim_token+domain_route:CV"}, {"md_atom_id": "md_dmCV_assn_a003", "md_file": "knowledge_base/domains/CV/assumptions.md", "md_atom_type": "LIST_ITEM", "md_parent_section": "§CV [CV — Assumptions]", "md_verbatim": "2. Any Identifiers, Timing variables, or Findings general observation class qualifiers may be added to the CV domain, but the following qualifiers would generally not be used: --MODIFY, --BODSYS, --FAST, --ORNRLO, --ORNRHI, --TNRLO, --STNRHI, and --LOINC.", "score": 0.4755, "match_basis": "verbatim_token+domain_route:CV"}, {"md_atom_id": "md_dmCV_ex_a012", "md_file": "knowledge_base/domains/CV/examples.md", "md_atom_type": "SENTENCE", "md_parent_section": "§CV.2 [Example 2]", "md_verbatim": "In this example CVTEST represents the structure of the aortic valve evaluated during a transthoracic echocardiography procedure.", "score": 0.4107, "match_basis": "verbatim_token+domain_route:CV"}, {"md_atom_id": "md_dmCV_ex_a003", "md_file": "knowledge_base/domains/CV/examples.md", "md_atom_type": "SENTENCE", "md_parent_section": "§CV.1 [Example 1]", "md_verbatim": "This example shows various findings related to the aortic artery, along with evaluation for the presence or absence of abdominal aortic aneurysms. The suprarenal, infrarenal, and thoracic sections of the aorta were examined for aneurysms. This level of anatomical location detail can be found in CVLOC. The records in rows 1 to 3 are related assessments regarding an aneurysm in the thoracic aorta and are grouped together using the CVGRPID variable.", "score": 0.3743, "match_basis": "verbatim_token+domain_route:CV"}, {"md_atom_id": "md_dmCV_ex_a004", "md_file": "knowledge_base/domains/CV/examples.md", "md_atom_type": "SENTENCE", "md_parent_section": "§CV.1 [Example 1]", "md_verbatim": "**cv.xpt**", "score": 0.31, "match_basis": "verbatim_token+domain_route:CV"}], "candidate_count": 5, "zero_candidate": false}
{"pdf_atom_id": "ig34_p0288_a021", "pdf_atom_type": "LIST_ITEM", "pdf_source": "SDTMIG_v3.4", "pdf_page": 288, "pdf_parent_section": "§6.3.7.2 Cardiovascular System Findings (CV)", "pdf_verbatim": "2. Any Identifiers, Timing variables, or Findings general observation class qualifiers may be added to the CV domain, but the following qualifiers would generally not be used: --MODIFY, --BODSYS, --FAST, --ORNRLO, --ORNRHI, --TNRLO, --STNRHI, and --LOINC.", "figure_ref": null, "candidates": [{"md_atom_id": "md_dmCV_assn_a003", "md_file": "knowledge_base/domains/CV/assumptions.md", "md_atom_type": "LIST_ITEM", "md_parent_section": "§CV [CV — Assumptions]", "md_verbatim": "2. Any Identifiers, Timing variables, or Findings general observation class qualifiers may be added to the CV domain, but the following qualifiers would generally not be used: --MODIFY, --BODSYS, --FAST, --ORNRLO, --ORNRHI, --TNRLO, --STNRHI, and --LOINC.", "score": 1.0, "match_basis": "verbatim_token+domain_route:CV"}, {"md_atom_id": "md_dmCV_assn_a002", "md_file": "knowledge_base/domains/CV/assumptions.md", "md_atom_type": "LIST_ITEM", "md_parent_section": "§CV [CV — Assumptions]", "md_verbatim": "1. The Cardiovascular System Findings domain is used to represent results and findings of cardiovascular diagnostic procedures. Information about the conduct of the procedure(s), if collected, is submitted in the Procedures (PR) domain.", "score": 0.4755, "match_basis": "verbatim_token+domain_route:CV"}, {"md_atom_id": "md_dmCV_ex_a003", "md_file": "knowledge_base/domains/CV/examples.md", "md_atom_type": "SENTENCE", "md_parent_section": "§CV.1 [Example 1]", "md_verbatim": "This example shows various findings related to the aortic artery, along with evaluation for the presence or absence of abdominal aortic aneurysms. The suprarenal, infrarenal, and thoracic sections of the aorta were examined for aneurysms. This level of anatomical location detail can be found in CVLOC. The records in rows 1 to 3 are related assessments regarding an aneurysm in the thoracic aorta and are grouped together using the CVGRPID variable.", "score": 0.3667, "match_basis": "verbatim_token+domain_route:CV"}, {"md_atom_id": "md_dmCV_ex_a012", "md_file": "knowledge_base/domains/CV/examples.md", "md_atom_type": "SENTENCE", "md_parent_section": "§CV.2 [Example 2]", "md_verbatim": "In this example CVTEST represents the structure of the aortic valve evaluated during a transthoracic echocardiography procedure.", "score": 0.321, "match_basis": "verbatim_token+domain_route:CV"}, {"md_atom_id": "md_dmCV_ex_a004", "md_file": "knowledge_base/domains/CV/examples.md", "md_atom_type": "SENTENCE", "md_parent_section": "§CV.1 [Example 1]", "md_verbatim": "**cv.xpt**", "score": 0.31, "match_basis": "verbatim_token+domain_route:CV"}], "candidate_count": 5, "zero_candidate": false}
{"pdf_atom_id": "ig34_p0289_a001", "pdf_atom_type": "HEADING", "pdf_source": "SDTMIG_v3.4", "pdf_page": 289, "pdf_parent_section": "§6.3.7.2 Cardiovascular System Findings (CV)", "pdf_verbatim": "CV – Examples", "figure_ref": null, "candidates": [{"md_atom_id": "md_dmCV_ex_a001", "md_file": "knowledge_base/domains/CV/examples.md", "md_atom_type": "HEADING", "md_parent_section": "§CV [CV — Examples]", "md_verbatim": "# CV — Examples", "score": 1.0, "match_basis": "verbatim_token+domain_route:CV"}, {"md_atom_id": "md_dmCV_ex_a002", "md_file": "knowledge_base/domains/CV/examples.md", "md_atom_type": "HEADING", "md_parent_section": "§CV [CV — Examples]", "md_verbatim": "## Example 1", "score": 0.9, "match_basis": "verbatim_token+domain_route:CV"}, {"md_atom_id": "md_dmCV_ex_a011", "md_file": "knowledge_base/domains/CV/examples.md", "md_atom_type": "HEADING", "md_parent_section": "§CV [CV — Examples]", "md_verbatim": "## Example 2", "score": 0.9, "match_basis": "verbatim_token+domain_route:CV"}, {"md_atom_id": "md_dmCV_assn_a001", "md_file": "knowledge_base/domains/CV/assumptions.md", "md_atom_type": "HEADING", "md_parent_section": "§CV [CV — Assumptions]", "md_verbatim": "# CV — Assumptions", "score": 0.4, "match_basis": "verbatim_token+domain_route:CV"}], "candidate_count": 4, "zero_candidate": false}
{"pdf_atom_id": "ig34_p0289_a002", "pdf_atom_type": "HEADING", "pdf_source": "SDTMIG_v3.4", "pdf_page": 289, "pdf_parent_section": "§6.3.7.2 Cardiovascular System Findings (CV)", "pdf_verbatim": "Example 1", "figure_ref": null, "candidates": [{"md_atom_id": "md_dmCV_ex_a002", "md_file": "knowledge_base/domains/CV/examples.md", "md_atom_type": "HEADING", "md_parent_section": "§CV [CV — Examples]", "md_verbatim": "## Example 1", "score": 1.0, "match_basis": "verbatim_token+domain_route:CV"}, {"md_atom_id": "md_dmCV_ex_a011", "md_file": "knowledge_base/domains/CV/examples.md", "md_atom_type": "HEADING", "md_parent_section": "§CV [CV — Examples]", "md_verbatim": "## Example 2", "score": 1.0, "match_basis": "verbatim_token+domain_route:CV"}, {"md_atom_id": "md_dmCV_ex_a001", "md_file": "knowledge_base/domains/CV/examples.md", "md_atom_type": "HEADING", "md_parent_section": "§CV [CV — Examples]", "md_verbatim": "# CV — Examples", "score": 0.9, "match_basis": "verbatim_token+domain_route:CV"}, {"md_atom_id": "md_dmCV_assn_a001", "md_file": "knowledge_base/domains/CV/assumptions.md", "md_atom_type": "HEADING", "md_parent_section": "§CV [CV — Assumptions]", "md_verbatim": "# CV — Assumptions", "score": 0.4, "match_basis": "verbatim_token+domain_route:CV"}], "candidate_count": 4, "zero_candidate": false}
{"pdf_atom_id": "ig34_p0289_a003", "pdf_atom_type": "SENTENCE", "pdf_source": "SDTMIG_v3.4", "pdf_page": 289, "pdf_parent_section": "§6.3.7.2 Cardiovascular System Findings (CV)", "pdf_verbatim": "This example shows various findings related to the aortic artery, along with evaluation for the presence or absence of abdominal aortic aneurysms.", "figure_ref": null, "candidates": [{"md_atom_id": "md_dmCV_ex_a003", "md_file": "knowledge_base/domains/CV/examples.md", "md_atom_type": "SENTENCE", "md_parent_section": "§CV.1 [Example 1]", "md_verbatim": "This example shows various findings related to the aortic artery, along with evaluation for the presence or absence of abdominal aortic aneurysms. The suprarenal, infrarenal, and thoracic sections of the aorta were examined for aneurysms. This level of anatomical location detail can be found in CVLOC. The records in rows 1 to 3 are related assessments regarding an aneurysm in the thoracic aorta and are grouped together using the CVGRPID variable.", "score": 0.663, "match_basis": "verbatim_token+domain_route:CV"}, {"md_atom_id": "md_dmCV_ex_a012", "md_file": "knowledge_base/domains/CV/examples.md", "md_atom_type": "SENTENCE", "md_parent_section": "§CV.2 [Example 2]", "md_verbatim": "In this example CVTEST represents the structure of the aortic valve evaluated during a transthoracic echocardiography procedure.", "score": 0.519, "match_basis": "verbatim_token+domain_route:CV"}, {"md_atom_id": "md_dmCV_ex_a004", "md_file": "knowledge_base/domains/CV/examples.md", "md_atom_type": "SENTENCE", "md_parent_section": "§CV.1 [Example 1]", "md_verbatim": "**cv.xpt**", "score": 0.4, "match_basis": "verbatim_token+domain_route:CV"}, {"md_atom_id": "md_dmCV_ex_a013", "md_file": "knowledge_base/domains/CV/examples.md", "md_atom_type": "SENTENCE", "md_parent_section": "§CV.2 [Example 2]", "md_verbatim": "**cv.xpt**", "score": 0.4, "match_basis": "verbatim_token+domain_route:CV"}, {"md_atom_id": "md_dmCV_assn_a002", "md_file": "knowledge_base/domains/CV/assumptions.md", "md_atom_type": "LIST_ITEM", "md_parent_section": "§CV [CV — Assumptions]", "md_verbatim": "1. The Cardiovascular System Findings domain is used to represent results and findings of cardiovascular diagnostic procedures. Information about the conduct of the procedure(s), if collected, is submitted in the Procedures (PR) domain.", "score": 0.3877, "match_basis": "verbatim_token+domain_route:CV"}], "candidate_count": 5, "zero_candidate": false}
{"pdf_atom_id": "ig34_p0289_a004", "pdf_atom_type": "SENTENCE", "pdf_source": "SDTMIG_v3.4", "pdf_page": 289, "pdf_parent_section": "§6.3.7.2 Cardiovascular System Findings (CV)", "pdf_verbatim": "The suprarenal, infrarenal, and thoracic sections of the aorta were examined for aneurysms.", "figure_ref": null, "candidates": [{"md_atom_id": "md_dmCV_ex_a003", "md_file": "knowledge_base/domains/CV/examples.md", "md_atom_type": "SENTENCE", "md_parent_section": "§CV.1 [Example 1]", "md_verbatim": "This example shows various findings related to the aortic artery, along with evaluation for the presence or absence of abdominal aortic aneurysms. The suprarenal, infrarenal, and thoracic sections of the aorta were examined for aneurysms. This level of anatomical location detail can be found in CVLOC. The records in rows 1 to 3 are related assessments regarding an aneurysm in the thoracic aorta and are grouped together using the CVGRPID variable.", "score": 0.563, "match_basis": "verbatim_token+domain_route:CV"}, {"md_atom_id": "md_dmCV_ex_a012", "md_file": "knowledge_base/domains/CV/examples.md", "md_atom_type": "SENTENCE", "md_parent_section": "§CV.2 [Example 2]", "md_verbatim": "In this example CVTEST represents the structure of the aortic valve evaluated during a transthoracic echocardiography procedure.", "score": 0.4617, "match_basis": "verbatim_token+domain_route:CV"}, {"md_atom_id": "md_dmCV_ex_a004", "md_file": "knowledge_base/domains/CV/examples.md", "md_atom_type": "SENTENCE", "md_parent_section": "§CV.1 [Example 1]", "md_verbatim": "**cv.xpt**", "score": 0.4, "match_basis": "verbatim_token+domain_route:CV"}, {"md_atom_id": "md_dmCV_ex_a013", "md_file": "knowledge_base/domains/CV/examples.md", "md_atom_type": "SENTENCE", "md_parent_section": "§CV.2 [Example 2]", "md_verbatim": "**cv.xpt**", "score": 0.4, "match_basis": "verbatim_token+domain_route:CV"}, {"md_atom_id": "md_dmCV_ex_a009", "md_file": "knowledge_base/domains/CV/examples.md", "md_atom_type": "TABLE_ROW", "md_parent_section": "§CV.1 [Example 1]", "md_verbatim": "| 4 | ABC123 | CV | 002-2004 | 4 | | ANEURIND | Aneurysm Indicator | N | N | SUPRARENAL AORTA | TRANSTHORACIC ECHOCARDIOGRAPHY | 2 | BASELINE | 2015-06-09T14:20 |", "score": 0.3818, "match_basis": "verbatim_token+domain_route:CV"}], "candidate_count": 5, "zero_candidate": false}
{"pdf_atom_id": "ig34_p0289_a005", "pdf_atom_type": "SENTENCE", "pdf_source": "SDTMIG_v3.4", "pdf_page": 289, "pdf_parent_section": "§6.3.7.2 Cardiovascular System Findings (CV)", "pdf_verbatim": "This level of anatomical location detail can be found in CVLOC.", "figure_ref": null, "candidates": [{"md_atom_id": "md_dmCV_ex_a003", "md_file": "knowledge_base/domains/CV/examples.md", "md_atom_type": "SENTENCE", "md_parent_section": "§CV.1 [Example 1]", "md_verbatim": "This example shows various findings related to the aortic artery, along with evaluation for the presence or absence of abdominal aortic aneurysms. The suprarenal, infrarenal, and thoracic sections of the aorta were examined for aneurysms. This level of anatomical location detail can be found in CVLOC. The records in rows 1 to 3 are related assessments regarding an aneurysm in the thoracic aorta and are grouped together using the CVGRPID variable.", "score": 0.5074, "match_basis": "verbatim_token+domain_route:CV"}, {"md_atom_id": "md_dmCV_ex_a012", "md_file": "knowledge_base/domains/CV/examples.md", "md_atom_type": "SENTENCE", "md_parent_section": "§CV.2 [Example 2]", "md_verbatim": "In this example CVTEST represents the structure of the aortic valve evaluated during a transthoracic echocardiography procedure.", "score": 0.418, "match_basis": "verbatim_token+domain_route:CV"}, {"md_atom_id": "md_dmCV_ex_a004", "md_file": "knowledge_base/domains/CV/examples.md", "md_atom_type": "SENTENCE", "md_parent_section": "§CV.1 [Example 1]", "md_verbatim": "**cv.xpt**", "score": 0.4, "match_basis": "verbatim_token+domain_route:CV"}, {"md_atom_id": "md_dmCV_ex_a013", "md_file": "knowledge_base/domains/CV/examples.md", "md_atom_type": "SENTENCE", "md_parent_section": "§CV.2 [Example 2]", "md_verbatim": "**cv.xpt**", "score": 0.4, "match_basis": "verbatim_token+domain_route:CV"}, {"md_atom_id": "md_dmCV_assn_a002", "md_file": "knowledge_base/domains/CV/assumptions.md", "md_atom_type": "LIST_ITEM", "md_parent_section": "§CV [CV — Assumptions]", "md_verbatim": "1. The Cardiovascular System Findings domain is used to represent results and findings of cardiovascular diagnostic procedures. Information about the conduct of the procedure(s), if collected, is submitted in the Procedures (PR) domain.", "score": 0.3261, "match_basis": "verbatim_token+domain_route:CV"}], "candidate_count": 5, "zero_candidate": false}
{"pdf_atom_id": "ig34_p0289_a006", "pdf_atom_type": "SENTENCE", "pdf_source": "SDTMIG_v3.4", "pdf_page": 289, "pdf_parent_section": "§6.3.7.2 Cardiovascular System Findings (CV)", "pdf_verbatim": "The records in rows 1 to 3 are related assessments regarding an aneurysm in the thoracic aorta and are grouped together using the CVGRPID variable.", "figure_ref": null, "candidates": [{"md_atom_id": "md_dmCV_ex_a003", "md_file": "knowledge_base/domains/CV/examples.md", "md_atom_type": "SENTENCE", "md_parent_section": "§CV.1 [Example 1]", "md_verbatim": "This example shows various findings related to the aortic artery, along with evaluation for the presence or absence of abdominal aortic aneurysms. The suprarenal, infrarenal, and thoracic sections of the aorta were examined for aneurysms. This level of anatomical location detail can be found in CVLOC. The records in rows 1 to 3 are related assessments regarding an aneurysm in the thoracic aorta and are grouped together using the CVGRPID variable.", "score": 0.6556, "match_basis": "verbatim_token+domain_route:CV"}, {"md_atom_id": "md_dmCV_ex_a012", "md_file": "knowledge_base/domains/CV/examples.md", "md_atom_type": "SENTENCE", "md_parent_section": "§CV.2 [Example 2]", "md_verbatim": "In this example CVTEST represents the structure of the aortic valve evaluated during a transthoracic echocardiography procedure.", "score": 0.4756, "match_basis": "verbatim_token+domain_route:CV"}, {"md_atom_id": "md_dmCV_ex_a004", "md_file": "knowledge_base/domains/CV/examples.md", "md_atom_type": "SENTENCE", "md_parent_section": "§CV.1 [Example 1]", "md_verbatim": "**cv.xpt**", "score": 0.4, "match_basis": "verbatim_token+domain_route:CV"}, {"md_atom_id": "md_dmCV_ex_a013", "md_file": "knowledge_base/domains/CV/examples.md", "md_atom_type": "SENTENCE", "md_parent_section": "§CV.2 [Example 2]", "md_verbatim": "**cv.xpt**", "score": 0.4, "match_basis": "verbatim_token+domain_route:CV"}, {"md_atom_id": "md_dmCV_assn_a003", "md_file": "knowledge_base/domains/CV/assumptions.md", "md_atom_type": "LIST_ITEM", "md_parent_section": "§CV [CV — Assumptions]", "md_verbatim": "2. Any Identifiers, Timing variables, or Findings general observation class qualifiers may be added to the CV domain, but the following qualifiers would generally not be used: --MODIFY, --BODSYS, --FAST, --ORNRLO, --ORNRHI, --TNRLO, --STNRHI, and --LOINC.", "score": 0.358, "match_basis": "verbatim_token+domain_route:CV"}], "candidate_count": 5, "zero_candidate": false}
{"pdf_atom_id": "ig34_p0289_a007", "pdf_atom_type": "CODE_LITERAL", "pdf_source": "SDTMIG_v3.4", "pdf_page": 289, "pdf_parent_section": "§6.3.7.2 Cardiovascular System Findings (CV)", "pdf_verbatim": "cv.xpt", "figure_ref": null, "candidates": [{"md_atom_id": "md_dmCV_ex_a004", "md_file": "knowledge_base/domains/CV/examples.md", "md_atom_type": "SENTENCE", "md_parent_section": "§CV.1 [Example 1]", "md_verbatim": "**cv.xpt**", "score": 0.79, "match_basis": "verbatim_token+domain_route:CV"}, {"md_atom_id": "md_dmCV_ex_a013", "md_file": "knowledge_base/domains/CV/examples.md", "md_atom_type": "SENTENCE", "md_parent_section": "§CV.2 [Example 2]", "md_verbatim": "**cv.xpt**", "score": 0.79, "match_basis": "verbatim_token+domain_route:CV"}, {"md_atom_id": "md_dmCV_assn_a001", "md_file": "knowledge_base/domains/CV/assumptions.md", "md_atom_type": "HEADING", "md_parent_section": "§CV [CV — Assumptions]", "md_verbatim": "# CV — Assumptions", "score": 0.19, "match_basis": "verbatim_token+domain_route:CV"}, {"md_atom_id": "md_dmCV_assn_a002", "md_file": "knowledge_base/domains/CV/assumptions.md", "md_atom_type": "LIST_ITEM", "md_parent_section": "§CV [CV — Assumptions]", "md_verbatim": "1. The Cardiovascular System Findings domain is used to represent results and findings of cardiovascular diagnostic procedures. Information about the conduct of the procedure(s), if collected, is submitted in the Procedures (PR) domain.", "score": 0.19, "match_basis": "verbatim_token+domain_route:CV"}, {"md_atom_id": "md_dmCV_assn_a003", "md_file": "knowledge_base/domains/CV/assumptions.md", "md_atom_type": "LIST_ITEM", "md_parent_section": "§CV [CV — Assumptions]", "md_verbatim": "2. Any Identifiers, Timing variables, or Findings general observation class qualifiers may be added to the CV domain, but the following qualifiers would generally not be used: --MODIFY, --BODSYS, --FAST, --ORNRLO, --ORNRHI, --TNRLO, --STNRHI, and --LOINC.", "score": 0.19, "match_basis": "verbatim_token+domain_route:CV"}, {"md_atom_id": "md_dmCV_ex_a001", "md_file": "knowledge_base/domains/CV/examples.md", "md_atom_type": "HEADING", "md_parent_section": "§CV [CV — Examples]", "md_verbatim": "# CV — Examples", "score": 0.19, "match_basis": "verbatim_token+domain_route:CV"}, {"md_atom_id": "md_dmCV_ex_a002", "md_file": "knowledge_base/domains/CV/examples.md", "md_atom_type": "HEADING", "md_parent_section": "§CV [CV — Examples]", "md_verbatim": "## Example 1", "score": 0.19, "match_basis": "verbatim_token+domain_route:CV"}, {"md_atom_id": "md_dmCV_ex_a003", "md_file": "knowledge_base/domains/CV/examples.md", "md_atom_type": "SENTENCE", "md_parent_section": "§CV.1 [Example 1]", "md_verbatim": "This example shows various findings related to the aortic artery, along with evaluation for the presence or absence of abdominal aortic aneurysms. The suprarenal, infrarenal, and thoracic sections of the aorta were examined for aneurysms. This level of anatomical location detail can be found in CVLOC. The records in rows 1 to 3 are related assessments regarding an aneurysm in the thoracic aorta and are grouped together using the CVGRPID variable.", "score": 0.19, "match_basis": "verbatim_token+domain_route:CV"}, {"md_atom_id": "md_dmCV_ex_a005", "md_file": "knowledge_base/domains/CV/examples.md", "md_atom_type": "TABLE_HEADER", "md_parent_section": "§CV.1 [Example 1]", "md_verbatim": "| Row | STUDYID | DOMAIN | USUBJID | CVSEQ | CVGRPID | CVTESTCD | CVTEST | CVORRES | CVSTRESC | CVLOC | CVMETHOD | VISITNUM | VISIT | CVDTC |\n|-----|---------|--------|---------|-------|---------|----------|--------|---------|----------|-------|----------|----------|-------|-------|", "score": 0.19, "match_basis": "verbatim_token+domain_route:CV"}, {"md_atom_id": "md_dmCV_ex_a006", "md_file": "knowledge_base/domains/CV/examples.md", "md_atom_type": "TABLE_ROW", "md_parent_section": "§CV.1 [Example 1]", "md_verbatim": "| 1 | ABC123 | CV | 002-2004 | 1 | 2 | ANEURIND | Aneurysm Indicator | Y | Y | THORACIC AORTA | TRANSTHORACIC ECHOCARDIOGRAPHY | 2 | BASELINE | 2015-06-09T14:20 |", "score": 0.19, "match_basis": "verbatim_token+domain_route:CV"}], "candidate_count": 10, "zero_candidate": false}
{"pdf_atom_id": "ig34_p0289_a008", "pdf_atom_type": "TABLE_HEADER", "pdf_source": "SDTMIG_v3.4", "pdf_page": 289, "pdf_parent_section": "§6.3.7.2 Cardiovascular System Findings (CV)", "pdf_verbatim": "| Row | STUDYID | DOMAIN | USUBJID | CVSEQ | CVGRPID | CVTESTCD | CVTEST | CVORRES | CVSTRESC | CVLOC | CVMETHOD | VISITNUM | VISIT | CVDTC |", "figure_ref": null, "candidates": [{"md_atom_id": "md_dmCV_ex_a005", "md_file": "knowledge_base/domains/CV/examples.md", "md_atom_type": "TABLE_HEADER", "md_parent_section": "§CV.1 [Example 1]", "md_verbatim": "| Row | STUDYID | DOMAIN | USUBJID | CVSEQ | CVGRPID | CVTESTCD | CVTEST | CVORRES | CVSTRESC | CVLOC | CVMETHOD | VISITNUM | VISIT | CVDTC |\n|-----|---------|--------|---------|-------|---------|----------|--------|---------|----------|-------|----------|----------|-------|-------|", "score": 1.0, "match_basis": "verbatim_token+domain_route:CV"}, {"md_atom_id": "md_dmCV_ex_a014", "md_file": "knowledge_base/domains/CV/examples.md", "md_atom_type": "TABLE_HEADER", "md_parent_section": "§CV.2 [Example 2]", "md_verbatim": "| Row | STUDYID | DOMAIN | USUBJID | CVSEQ | CVTESTCD | CVTEST | CVCAT | CVORRES | CVORRESU | CVSTRESC | CVSTRESN | CVSTRESU | CVLOC | CVMETHOD | VISITNUM | VISIT | CVDTC |\n|-----|---------|--------|---------|-------|----------|--------|-------|---------|----------|----------|----------|----------|-------|----------|----------|-------|-------|", "score": 0.9016, "match_basis": "verbatim_token+domain_route:CV"}, {"md_atom_id": "md_dmCV_ex_a021", "md_file": "knowledge_base/domains/CV/examples.md", "md_atom_type": "TABLE_ROW", "md_parent_section": "§CV.2 [Example 2]", "md_verbatim": "| 7 | ABC123 | CV | 1001 | 7 | MNDIAMVS | Minor Axis Cross-sec Diameter, MVS | VALVULAR STRUCTURE, COMMON | 2.11 | cm | 2.11 | 2.11 | cm | AORTIC VALVE ANNULUS | TRANSTHORACIC ECHOCARDIOGRAPHY | 5 | MONTH 2 | 2015-08-05T11:15 |", "score": 0.3531, "match_basis": "verbatim_token+domain_route:CV"}, {"md_atom_id": "md_dmCV_ex_a022", "md_file": "knowledge_base/domains/CV/examples.md", "md_atom_type": "TABLE_ROW", "md_parent_section": "§CV.2 [Example 2]", "md_verbatim": "| 8 | ABC123 | CV | 1001 | 8 | MJDIAMVS | Major Axis Cross-sec Diameter, MVS | VALVULAR STRUCTURE, COMMON | 2.39 | cm | 2.39 | 2.39 | cm | AORTIC VALVE ANNULUS | TRANSTHORACIC ECHOCARDIOGRAPHY | 5 | MONTH 2 | 2015-08-05T11:15 |", "score": 0.3531, "match_basis": "verbatim_token+domain_route:CV"}, {"md_atom_id": "md_dmCV_ex_a017", "md_file": "knowledge_base/domains/CV/examples.md", "md_atom_type": "TABLE_ROW", "md_parent_section": "§CV.2 [Example 2]", "md_verbatim": "| 3 | ABC123 | CV | 1001 | 3 | MNDIAEVS | Minor Axis Cross-sec Diameter, EVS | VALVULAR STRUCTURE, COMMON | 2.18 | cm | 2.18 | 2.18 | cm | AORTIC VALVE ANNULUS | TRANSTHORACIC ECHOCARDIOGRAPHY | 5 | MONTH 2 | 2015-08-05T11:15 |", "score": 0.353, "match_basis": "verbatim_token+domain_route:CV"}], "candidate_count": 5, "zero_candidate": false}
{"pdf_atom_id": "ig34_p0289_a009", "pdf_atom_type": "TABLE_ROW", "pdf_source": "SDTMIG_v3.4", "pdf_page": 289, "pdf_parent_section": "§6.3.7.2 Cardiovascular System Findings (CV)", "pdf_verbatim": "| 1 | ABC123 | CV | 002-2004 | 1 | 2 | ANEURIND | Aneurysm Indicator | Y | Y | THORACIC AORTA | TRANSTHORACIC ECHOCARDIOGRAPHY | 2 | BASELINE | 2015-06-09T14:20 |", "figure_ref": null, "candidates": [{"md_atom_id": "md_dmCV_ex_a006", "md_file": "knowledge_base/domains/CV/examples.md", "md_atom_type": "TABLE_ROW", "md_parent_section": "§CV.1 [Example 1]", "md_verbatim": "| 1 | ABC123 | CV | 002-2004 | 1 | 2 | ANEURIND | Aneurysm Indicator | Y | Y | THORACIC AORTA | TRANSTHORACIC ECHOCARDIOGRAPHY | 2 | BASELINE | 2015-06-09T14:20 |", "score": 1.0, "match_basis": "verbatim_token+domain_route:CV"}, {"md_atom_id": "md_dmCV_ex_a009", "md_file": "knowledge_base/domains/CV/examples.md", "md_atom_type": "TABLE_ROW", "md_parent_section": "§CV.1 [Example 1]", "md_verbatim": "| 4 | ABC123 | CV | 002-2004 | 4 | | ANEURIND | Aneurysm Indicator | N | N | SUPRARENAL AORTA | TRANSTHORACIC ECHOCARDIOGRAPHY | 2 | BASELINE | 2015-06-09T14:20 |", "score": 0.9304, "match_basis": "verbatim_token+domain_route:CV"}, {"md_atom_id": "md_dmCV_ex_a010", "md_file": "knowledge_base/domains/CV/examples.md", "md_atom_type": "TABLE_ROW", "md_parent_section": "§CV.1 [Example 1]", "md_verbatim": "| 5 | ABC123 | CV | 002-2004 | 5 | | ANEURIND | Aneurysm Indicator | N | N | INFRARENAL AORTA | TRANSTHORACIC ECHOCARDIOGRAPHY | 2 | BASELINE | 2015-06-09T14:20 |", "score": 0.9304, "match_basis": "verbatim_token+domain_route:CV"}, {"md_atom_id": "md_dmCV_ex_a007", "md_file": "knowledge_base/domains/CV/examples.md", "md_atom_type": "TABLE_ROW", "md_parent_section": "§CV.1 [Example 1]", "md_verbatim": "| 2 | ABC123 | CV | 002-2004 | 2 | 2 | DISECIND | Dissection Indicator | Y | Y | THORACIC AORTA | TRANSTHORACIC ECHOCARDIOGRAPHY | 2 | BASELINE | 2015-06-09T14:20 |", "score": 0.8417, "match_basis": "verbatim_token+domain_route:CV"}, {"md_atom_id": "md_dmCV_ex_a008", "md_file": "knowledge_base/domains/CV/examples.md", "md_atom_type": "TABLE_ROW", "md_parent_section": "§CV.1 [Example 1]", "md_verbatim": "| 3 | ABC123 | CV | 002-2004 | 3 | 2 | STANFADC | Stanford AoD Classification | CLASS A | CLASS A | THORACIC AORTA | TRANSTHORACIC ECHOCARDIOGRAPHY | 2 | BASELINE | 2015-06-09T14:20 |", "score": 0.7556, "match_basis": "verbatim_token+domain_route:CV"}], "candidate_count": 5, "zero_candidate": false}
{"pdf_atom_id": "ig34_p0289_a010", "pdf_atom_type": "TABLE_ROW", "pdf_source": "SDTMIG_v3.4", "pdf_page": 289, "pdf_parent_section": "§6.3.7.2 Cardiovascular System Findings (CV)", "pdf_verbatim": "| 2 | ABC123 | CV | 002-2004 | 2 | 2 | DISECIND | Dissection Indicator | Y | Y | THORACIC AORTA | TRANSTHORACIC ECHOCARDIOGRAPHY | 2 | BASELINE | 2015-06-09T14:20 |", "figure_ref": null, "candidates": [{"md_atom_id": "md_dmCV_ex_a007", "md_file": "knowledge_base/domains/CV/examples.md", "md_atom_type": "TABLE_ROW", "md_parent_section": "§CV.1 [Example 1]", "md_verbatim": "| 2 | ABC123 | CV | 002-2004 | 2 | 2 | DISECIND | Dissection Indicator | Y | Y | THORACIC AORTA | TRANSTHORACIC ECHOCARDIOGRAPHY | 2 | BASELINE | 2015-06-09T14:20 |", "score": 1.0, "match_basis": "verbatim_token+domain_route:CV"}, {"md_atom_id": "md_dmCV_ex_a006", "md_file": "knowledge_base/domains/CV/examples.md", "md_atom_type": "TABLE_ROW", "md_parent_section": "§CV.1 [Example 1]", "md_verbatim": "| 1 | ABC123 | CV | 002-2004 | 1 | 2 | ANEURIND | Aneurysm Indicator | Y | Y | THORACIC AORTA | TRANSTHORACIC ECHOCARDIOGRAPHY | 2 | BASELINE | 2015-06-09T14:20 |", "score": 0.8417, "match_basis": "verbatim_token+domain_route:CV"}, {"md_atom_id": "md_dmCV_ex_a009", "md_file": "knowledge_base/domains/CV/examples.md", "md_atom_type": "TABLE_ROW", "md_parent_section": "§CV.1 [Example 1]", "md_verbatim": "| 4 | ABC123 | CV | 002-2004 | 4 | | ANEURIND | Aneurysm Indicator | N | N | SUPRARENAL AORTA | TRANSTHORACIC ECHOCARDIOGRAPHY | 2 | BASELINE | 2015-06-09T14:20 |", "score": 0.7975, "match_basis": "verbatim_token+domain_route:CV"}, {"md_atom_id": "md_dmCV_ex_a010", "md_file": "knowledge_base/domains/CV/examples.md", "md_atom_type": "TABLE_ROW", "md_parent_section": "§CV.1 [Example 1]", "md_verbatim": "| 5 | ABC123 | CV | 002-2004 | 5 | | ANEURIND | Aneurysm Indicator | N | N | INFRARENAL AORTA | TRANSTHORACIC ECHOCARDIOGRAPHY | 2 | BASELINE | 2015-06-09T14:20 |", "score": 0.7975, "match_basis": "verbatim_token+domain_route:CV"}, {"md_atom_id": "md_dmCV_ex_a008", "md_file": "knowledge_base/domains/CV/examples.md", "md_atom_type": "TABLE_ROW", "md_parent_section": "§CV.1 [Example 1]", "md_verbatim": "| 3 | ABC123 | CV | 002-2004 | 3 | 2 | STANFADC | Stanford AoD Classification | CLASS A | CLASS A | THORACIC AORTA | TRANSTHORACIC ECHOCARDIOGRAPHY | 2 | BASELINE | 2015-06-09T14:20 |", "score": 0.7659, "match_basis": "verbatim_token+domain_route:CV"}], "candidate_count": 5, "zero_candidate": false}
{"pdf_atom_id": "ig34_p0289_a011", "pdf_atom_type": "TABLE_ROW", "pdf_source": "SDTMIG_v3.4", "pdf_page": 289, "pdf_parent_section": "§6.3.7.2 Cardiovascular System Findings (CV)", "pdf_verbatim": "| 3 | ABC123 | CV | 002-2004 | 3 | 2 | STANFADC | Stanford AoD Classification | CLASS A | CLASS A | THORACIC AORTA | TRANSTHORACIC ECHOCARDIOGRAPHY | 2 | BASELINE | 2015-06-09T14:20 |", "figure_ref": null, "candidates": [{"md_atom_id": "md_dmCV_ex_a008", "md_file": "knowledge_base/domains/CV/examples.md", "md_atom_type": "TABLE_ROW", "md_parent_section": "§CV.1 [Example 1]", "md_verbatim": "| 3 | ABC123 | CV | 002-2004 | 3 | 2 | STANFADC | Stanford AoD Classification | CLASS A | CLASS A | THORACIC AORTA | TRANSTHORACIC ECHOCARDIOGRAPHY | 2 | BASELINE | 2015-06-09T14:20 |", "score": 1.0, "match_basis": "verbatim_token+domain_route:CV"}, {"md_atom_id": "md_dmCV_ex_a007", "md_file": "knowledge_base/domains/CV/examples.md", "md_atom_type": "TABLE_ROW", "md_parent_section": "§CV.1 [Example 1]", "md_verbatim": "| 2 | ABC123 | CV | 002-2004 | 2 | 2 | DISECIND | Dissection Indicator | Y | Y | THORACIC AORTA | TRANSTHORACIC ECHOCARDIOGRAPHY | 2 | BASELINE | 2015-06-09T14:20 |", "score": 0.7659, "match_basis": "verbatim_token+domain_route:CV"}, {"md_atom_id": "md_dmCV_ex_a006", "md_file": "knowledge_base/domains/CV/examples.md", "md_atom_type": "TABLE_ROW", "md_parent_section": "§CV.1 [Example 1]", "md_verbatim": "| 1 | ABC123 | CV | 002-2004 | 1 | 2 | ANEURIND | Aneurysm Indicator | Y | Y | THORACIC AORTA | TRANSTHORACIC ECHOCARDIOGRAPHY | 2 | BASELINE | 2015-06-09T14:20 |", "score": 0.7556, "match_basis": "verbatim_token+domain_route:CV"}, {"md_atom_id": "md_dmCV_ex_a009", "md_file": "knowledge_base/domains/CV/examples.md", "md_atom_type": "TABLE_ROW", "md_parent_section": "§CV.1 [Example 1]", "md_verbatim": "| 4 | ABC123 | CV | 002-2004 | 4 | | ANEURIND | Aneurysm Indicator | N | N | SUPRARENAL AORTA | TRANSTHORACIC ECHOCARDIOGRAPHY | 2 | BASELINE | 2015-06-09T14:20 |", "score": 0.7236, "match_basis": "verbatim_token+domain_route:CV"}, {"md_atom_id": "md_dmCV_ex_a010", "md_file": "knowledge_base/domains/CV/examples.md", "md_atom_type": "TABLE_ROW", "md_parent_section": "§CV.1 [Example 1]", "md_verbatim": "| 5 | ABC123 | CV | 002-2004 | 5 | | ANEURIND | Aneurysm Indicator | N | N | INFRARENAL AORTA | TRANSTHORACIC ECHOCARDIOGRAPHY | 2 | BASELINE | 2015-06-09T14:20 |", "score": 0.7236, "match_basis": "verbatim_token+domain_route:CV"}], "candidate_count": 5, "zero_candidate": false}
{"pdf_atom_id": "ig34_p0289_a012", "pdf_atom_type": "TABLE_ROW", "pdf_source": "SDTMIG_v3.4", "pdf_page": 289, "pdf_parent_section": "§6.3.7.2 Cardiovascular System Findings (CV)", "pdf_verbatim": "| 4 | ABC123 | CV | 002-2004 | 4 | | ANEURIND | Aneurysm Indicator | N | N | SUPRARENAL AORTA | TRANSTHORACIC ECHOCARDIOGRAPHY | 2 | BASELINE | 2015-06-09T14:20 |", "figure_ref": null, "candidates": [{"md_atom_id": "md_dmCV_ex_a009", "md_file": "knowledge_base/domains/CV/examples.md", "md_atom_type": "TABLE_ROW", "md_parent_section": "§CV.1 [Example 1]", "md_verbatim": "| 4 | ABC123 | CV | 002-2004 | 4 | | ANEURIND | Aneurysm Indicator | N | N | SUPRARENAL AORTA | TRANSTHORACIC ECHOCARDIOGRAPHY | 2 | BASELINE | 2015-06-09T14:20 |", "score": 1.0, "match_basis": "verbatim_token+domain_route:CV"}, {"md_atom_id": "md_dmCV_ex_a010", "md_file": "knowledge_base/domains/CV/examples.md", "md_atom_type": "TABLE_ROW", "md_parent_section": "§CV.1 [Example 1]", "md_verbatim": "| 5 | ABC123 | CV | 002-2004 | 5 | | ANEURIND | Aneurysm Indicator | N | N | INFRARENAL AORTA | TRANSTHORACIC ECHOCARDIOGRAPHY | 2 | BASELINE | 2015-06-09T14:20 |", "score": 0.95, "match_basis": "verbatim_token+domain_route:CV"}, {"md_atom_id": "md_dmCV_ex_a006", "md_file": "knowledge_base/domains/CV/examples.md", "md_atom_type": "TABLE_ROW", "md_parent_section": "§CV.1 [Example 1]", "md_verbatim": "| 1 | ABC123 | CV | 002-2004 | 1 | 2 | ANEURIND | Aneurysm Indicator | Y | Y | THORACIC AORTA | TRANSTHORACIC ECHOCARDIOGRAPHY | 2 | BASELINE | 2015-06-09T14:20 |", "score": 0.9304, "match_basis": "verbatim_token+domain_route:CV"}, {"md_atom_id": "md_dmCV_ex_a007", "md_file": "knowledge_base/domains/CV/examples.md", "md_atom_type": "TABLE_ROW", "md_parent_section": "§CV.1 [Example 1]", "md_verbatim": "| 2 | ABC123 | CV | 002-2004 | 2 | 2 | DISECIND | Dissection Indicator | Y | Y | THORACIC AORTA | TRANSTHORACIC ECHOCARDIOGRAPHY | 2 | BASELINE | 2015-06-09T14:20 |", "score": 0.7975, "match_basis": "verbatim_token+domain_route:CV"}, {"md_atom_id": "md_dmCV_ex_a008", "md_file": "knowledge_base/domains/CV/examples.md", "md_atom_type": "TABLE_ROW", "md_parent_section": "§CV.1 [Example 1]", "md_verbatim": "| 3 | ABC123 | CV | 002-2004 | 3 | 2 | STANFADC | Stanford AoD Classification | CLASS A | CLASS A | THORACIC AORTA | TRANSTHORACIC ECHOCARDIOGRAPHY | 2 | BASELINE | 2015-06-09T14:20 |", "score": 0.7236, "match_basis": "verbatim_token+domain_route:CV"}], "candidate_count": 5, "zero_candidate": false}
{"pdf_atom_id": "ig34_p0289_a013", "pdf_atom_type": "TABLE_ROW", "pdf_source": "SDTMIG_v3.4", "pdf_page": 289, "pdf_parent_section": "§6.3.7.2 Cardiovascular System Findings (CV)", "pdf_verbatim": "| 5 | ABC123 | CV | 002-2004 | 5 | | ANEURIND | Aneurysm Indicator | N | N | INFRARENAL AORTA | TRANSTHORACIC ECHOCARDIOGRAPHY | 2 | BASELINE | 2015-06-09T14:20 |", "figure_ref": null, "candidates": [{"md_atom_id": "md_dmCV_ex_a010", "md_file": "knowledge_base/domains/CV/examples.md", "md_atom_type": "TABLE_ROW", "md_parent_section": "§CV.1 [Example 1]", "md_verbatim": "| 5 | ABC123 | CV | 002-2004 | 5 | | ANEURIND | Aneurysm Indicator | N | N | INFRARENAL AORTA | TRANSTHORACIC ECHOCARDIOGRAPHY | 2 | BASELINE | 2015-06-09T14:20 |", "score": 1.0, "match_basis": "verbatim_token+domain_route:CV"}, {"md_atom_id": "md_dmCV_ex_a009", "md_file": "knowledge_base/domains/CV/examples.md", "md_atom_type": "TABLE_ROW", "md_parent_section": "§CV.1 [Example 1]", "md_verbatim": "| 4 | ABC123 | CV | 002-2004 | 4 | | ANEURIND | Aneurysm Indicator | N | N | SUPRARENAL AORTA | TRANSTHORACIC ECHOCARDIOGRAPHY | 2 | BASELINE | 2015-06-09T14:20 |", "score": 0.95, "match_basis": "verbatim_token+domain_route:CV"}, {"md_atom_id": "md_dmCV_ex_a006", "md_file": "knowledge_base/domains/CV/examples.md", "md_atom_type": "TABLE_ROW", "md_parent_section": "§CV.1 [Example 1]", "md_verbatim": "| 1 | ABC123 | CV | 002-2004 | 1 | 2 | ANEURIND | Aneurysm Indicator | Y | Y | THORACIC AORTA | TRANSTHORACIC ECHOCARDIOGRAPHY | 2 | BASELINE | 2015-06-09T14:20 |", "score": 0.9304, "match_basis": "verbatim_token+domain_route:CV"}, {"md_atom_id": "md_dmCV_ex_a007", "md_file": "knowledge_base/domains/CV/examples.md", "md_atom_type": "TABLE_ROW", "md_parent_section": "§CV.1 [Example 1]", "md_verbatim": "| 2 | ABC123 | CV | 002-2004 | 2 | 2 | DISECIND | Dissection Indicator | Y | Y | THORACIC AORTA | TRANSTHORACIC ECHOCARDIOGRAPHY | 2 | BASELINE | 2015-06-09T14:20 |", "score": 0.7975, "match_basis": "verbatim_token+domain_route:CV"}, {"md_atom_id": "md_dmCV_ex_a008", "md_file": "knowledge_base/domains/CV/examples.md", "md_atom_type": "TABLE_ROW", "md_parent_section": "§CV.1 [Example 1]", "md_verbatim": "| 3 | ABC123 | CV | 002-2004 | 3 | 2 | STANFADC | Stanford AoD Classification | CLASS A | CLASS A | THORACIC AORTA | TRANSTHORACIC ECHOCARDIOGRAPHY | 2 | BASELINE | 2015-06-09T14:20 |", "score": 0.7236, "match_basis": "verbatim_token+domain_route:CV"}], "candidate_count": 5, "zero_candidate": false}
{"pdf_atom_id": "ig34_p0289_a014", "pdf_atom_type": "HEADING", "pdf_source": "SDTMIG_v3.4", "pdf_page": 289, "pdf_parent_section": "§6.3.7.2 Cardiovascular System Findings (CV)", "pdf_verbatim": "Example 2", "figure_ref": null, "candidates": [{"md_atom_id": "md_dmCV_ex_a002", "md_file": "knowledge_base/domains/CV/examples.md", "md_atom_type": "HEADING", "md_parent_section": "§CV [CV — Examples]", "md_verbatim": "## Example 1", "score": 1.0, "match_basis": "verbatim_token+domain_route:CV"}, {"md_atom_id": "md_dmCV_ex_a011", "md_file": "knowledge_base/domains/CV/examples.md", "md_atom_type": "HEADING", "md_parent_section": "§CV [CV — Examples]", "md_verbatim": "## Example 2", "score": 1.0, "match_basis": "verbatim_token+domain_route:CV"}, {"md_atom_id": "md_dmCV_ex_a001", "md_file": "knowledge_base/domains/CV/examples.md", "md_atom_type": "HEADING", "md_parent_section": "§CV [CV — Examples]", "md_verbatim": "# CV — Examples", "score": 0.9, "match_basis": "verbatim_token+domain_route:CV"}, {"md_atom_id": "md_dmCV_assn_a001", "md_file": "knowledge_base/domains/CV/assumptions.md", "md_atom_type": "HEADING", "md_parent_section": "§CV [CV — Assumptions]", "md_verbatim": "# CV — Assumptions", "score": 0.4, "match_basis": "verbatim_token+domain_route:CV"}], "candidate_count": 4, "zero_candidate": false}
{"pdf_atom_id": "ig34_p0289_a015", "pdf_atom_type": "SENTENCE", "pdf_source": "SDTMIG_v3.4", "pdf_page": 289, "pdf_parent_section": "§6.3.7.2 Cardiovascular System Findings (CV)", "pdf_verbatim": "In this example CVTEST represents the structure of the aortic valve evaluated during a transthoracic echocardiography procedure.", "figure_ref": null, "candidates": [{"md_atom_id": "md_dmCV_ex_a012", "md_file": "knowledge_base/domains/CV/examples.md", "md_atom_type": "SENTENCE", "md_parent_section": "§CV.2 [Example 2]", "md_verbatim": "In this example CVTEST represents the structure of the aortic valve evaluated during a transthoracic echocardiography procedure.", "score": 1.0, "match_basis": "verbatim_token+domain_route:CV"}, {"md_atom_id": "md_dmCV_ex_a003", "md_file": "knowledge_base/domains/CV/examples.md", "md_atom_type": "SENTENCE", "md_parent_section": "§CV.1 [Example 1]", "md_verbatim": "This example shows various findings related to the aortic artery, along with evaluation for the presence or absence of abdominal aortic aneurysms. The suprarenal, infrarenal, and thoracic sections of the aorta were examined for aneurysms. This level of anatomical location detail can be found in CVLOC. The records in rows 1 to 3 are related assessments regarding an aneurysm in the thoracic aorta and are grouped together using the CVGRPID variable.", "score": 0.5045, "match_basis": "verbatim_token+domain_route:CV"}, {"md_atom_id": "md_dmCV_ex_a016", "md_file": "knowledge_base/domains/CV/examples.md", "md_atom_type": "TABLE_ROW", "md_parent_section": "§CV.2 [Example 2]", "md_verbatim": "| 2 | ABC123 | CV | 1001 | 2 | SIZE | Size | VALVULAR STRUCTURE, COMMON | REDUCED | | REDUCED | | | AORTIC VALVE ANNULUS | TRANSTHORACIC ECHOCARDIOGRAPHY | 5 | MONTH 2 | 2015-08-05T11:15 |", "score": 0.4543, "match_basis": "verbatim_token+domain_route:CV"}, {"md_atom_id": "md_dmCV_ex_a015", "md_file": "knowledge_base/domains/CV/examples.md", "md_atom_type": "TABLE_ROW", "md_parent_section": "§CV.2 [Example 2]", "md_verbatim": "| 1 | ABC123 | CV | 1001 | 1 | NCVALTYP | Native Cardiac Valve Structure Without Intervention Type | VALVULAR STRUCTURE, COMMON | NATIVE, WITHOUT INTERVENTION | | NATIVE, WITHOUT INTERVENTION | | | AORTIC VALVE | TRANSTHORACIC ECHOCARDIOGRAPHY | 5 | MONTH 2 | 2015-08-05T11:15 |", "score": 0.42, "match_basis": "verbatim_token+domain_route:CV"}, {"md_atom_id": "md_dmCV_ex_a021", "md_file": "knowledge_base/domains/CV/examples.md", "md_atom_type": "TABLE_ROW", "md_parent_section": "§CV.2 [Example 2]", "md_verbatim": "| 7 | ABC123 | CV | 1001 | 7 | MNDIAMVS | Minor Axis Cross-sec Diameter, MVS | VALVULAR STRUCTURE, COMMON | 2.11 | cm | 2.11 | 2.11 | cm | AORTIC VALVE ANNULUS | TRANSTHORACIC ECHOCARDIOGRAPHY | 5 | MONTH 2 | 2015-08-05T11:15 |", "score": 0.4166, "match_basis": "verbatim_token+domain_route:CV"}], "candidate_count": 5, "zero_candidate": false}
{"pdf_atom_id": "ig34_p0289_a016", "pdf_atom_type": "CODE_LITERAL", "pdf_source": "SDTMIG_v3.4", "pdf_page": 289, "pdf_parent_section": "§6.3.7.2 Cardiovascular System Findings (CV)", "pdf_verbatim": "cv.xpt", "figure_ref": null, "candidates": [{"md_atom_id": "md_dmCV_ex_a004", "md_file": "knowledge_base/domains/CV/examples.md", "md_atom_type": "SENTENCE", "md_parent_section": "§CV.1 [Example 1]", "md_verbatim": "**cv.xpt**", "score": 0.79, "match_basis": "verbatim_token+domain_route:CV"}, {"md_atom_id": "md_dmCV_ex_a013", "md_file": "knowledge_base/domains/CV/examples.md", "md_atom_type": "SENTENCE", "md_parent_section": "§CV.2 [Example 2]", "md_verbatim": "**cv.xpt**", "score": 0.79, "match_basis": "verbatim_token+domain_route:CV"}, {"md_atom_id": "md_dmCV_assn_a001", "md_file": "knowledge_base/domains/CV/assumptions.md", "md_atom_type": "HEADING", "md_parent_section": "§CV [CV — Assumptions]", "md_verbatim": "# CV — Assumptions", "score": 0.19, "match_basis": "verbatim_token+domain_route:CV"}, {"md_atom_id": "md_dmCV_assn_a002", "md_file": "knowledge_base/domains/CV/assumptions.md", "md_atom_type": "LIST_ITEM", "md_parent_section": "§CV [CV — Assumptions]", "md_verbatim": "1. The Cardiovascular System Findings domain is used to represent results and findings of cardiovascular diagnostic procedures. Information about the conduct of the procedure(s), if collected, is submitted in the Procedures (PR) domain.", "score": 0.19, "match_basis": "verbatim_token+domain_route:CV"}, {"md_atom_id": "md_dmCV_assn_a003", "md_file": "knowledge_base/domains/CV/assumptions.md", "md_atom_type": "LIST_ITEM", "md_parent_section": "§CV [CV — Assumptions]", "md_verbatim": "2. Any Identifiers, Timing variables, or Findings general observation class qualifiers may be added to the CV domain, but the following qualifiers would generally not be used: --MODIFY, --BODSYS, --FAST, --ORNRLO, --ORNRHI, --TNRLO, --STNRHI, and --LOINC.", "score": 0.19, "match_basis": "verbatim_token+domain_route:CV"}, {"md_atom_id": "md_dmCV_ex_a001", "md_file": "knowledge_base/domains/CV/examples.md", "md_atom_type": "HEADING", "md_parent_section": "§CV [CV — Examples]", "md_verbatim": "# CV — Examples", "score": 0.19, "match_basis": "verbatim_token+domain_route:CV"}, {"md_atom_id": "md_dmCV_ex_a002", "md_file": "knowledge_base/domains/CV/examples.md", "md_atom_type": "HEADING", "md_parent_section": "§CV [CV — Examples]", "md_verbatim": "## Example 1", "score": 0.19, "match_basis": "verbatim_token+domain_route:CV"}, {"md_atom_id": "md_dmCV_ex_a003", "md_file": "knowledge_base/domains/CV/examples.md", "md_atom_type": "SENTENCE", "md_parent_section": "§CV.1 [Example 1]", "md_verbatim": "This example shows various findings related to the aortic artery, along with evaluation for the presence or absence of abdominal aortic aneurysms. The suprarenal, infrarenal, and thoracic sections of the aorta were examined for aneurysms. This level of anatomical location detail can be found in CVLOC. The records in rows 1 to 3 are related assessments regarding an aneurysm in the thoracic aorta and are grouped together using the CVGRPID variable.", "score": 0.19, "match_basis": "verbatim_token+domain_route:CV"}, {"md_atom_id": "md_dmCV_ex_a005", "md_file": "knowledge_base/domains/CV/examples.md", "md_atom_type": "TABLE_HEADER", "md_parent_section": "§CV.1 [Example 1]", "md_verbatim": "| Row | STUDYID | DOMAIN | USUBJID | CVSEQ | CVGRPID | CVTESTCD | CVTEST | CVORRES | CVSTRESC | CVLOC | CVMETHOD | VISITNUM | VISIT | CVDTC |\n|-----|---------|--------|---------|-------|---------|----------|--------|---------|----------|-------|----------|----------|-------|-------|", "score": 0.19, "match_basis": "verbatim_token+domain_route:CV"}, {"md_atom_id": "md_dmCV_ex_a006", "md_file": "knowledge_base/domains/CV/examples.md", "md_atom_type": "TABLE_ROW", "md_parent_section": "§CV.1 [Example 1]", "md_verbatim": "| 1 | ABC123 | CV | 002-2004 | 1 | 2 | ANEURIND | Aneurysm Indicator | Y | Y | THORACIC AORTA | TRANSTHORACIC ECHOCARDIOGRAPHY | 2 | BASELINE | 2015-06-09T14:20 |", "score": 0.19, "match_basis": "verbatim_token+domain_route:CV"}], "candidate_count": 10, "zero_candidate": false}
{"pdf_atom_id": "ig34_p0289_a017", "pdf_atom_type": "TABLE_HEADER", "pdf_source": "SDTMIG_v3.4", "pdf_page": 289, "pdf_parent_section": "§6.3.7.2 Cardiovascular System Findings (CV)", "pdf_verbatim": "| Row | STUDYID | DOMAIN | USUBJID | CVSEQ | CVTESTCD | CVTEST | CVCAT | CVORRES | CVORRESU | CVSTRESC | CVSTRESN | CVSTRESU | CVLOC | CVMETHOD | VISITNUM | VISIT | CVDTC |", "figure_ref": null, "candidates": [{"md_atom_id": "md_dmCV_ex_a014", "md_file": "knowledge_base/domains/CV/examples.md", "md_atom_type": "TABLE_HEADER", "md_parent_section": "§CV.2 [Example 2]", "md_verbatim": "| Row | STUDYID | DOMAIN | USUBJID | CVSEQ | CVTESTCD | CVTEST | CVCAT | CVORRES | CVORRESU | CVSTRESC | CVSTRESN | CVSTRESU | CVLOC | CVMETHOD | VISITNUM | VISIT | CVDTC |\n|-----|---------|--------|---------|-------|----------|--------|-------|---------|----------|----------|----------|----------|-------|----------|----------|-------|-------|", "score": 1.0, "match_basis": "verbatim_token+domain_route:CV"}, {"md_atom_id": "md_dmCV_ex_a005", "md_file": "knowledge_base/domains/CV/examples.md", "md_atom_type": "TABLE_HEADER", "md_parent_section": "§CV.1 [Example 1]", "md_verbatim": "| Row | STUDYID | DOMAIN | USUBJID | CVSEQ | CVGRPID | CVTESTCD | CVTEST | CVORRES | CVSTRESC | CVLOC | CVMETHOD | VISITNUM | VISIT | CVDTC |\n|-----|---------|--------|---------|-------|---------|----------|--------|---------|----------|-------|----------|----------|-------|-------|", "score": 0.9016, "match_basis": "verbatim_token+domain_route:CV"}, {"md_atom_id": "md_dmCV_ex_a021", "md_file": "knowledge_base/domains/CV/examples.md", "md_atom_type": "TABLE_ROW", "md_parent_section": "§CV.2 [Example 2]", "md_verbatim": "| 7 | ABC123 | CV | 1001 | 7 | MNDIAMVS | Minor Axis Cross-sec Diameter, MVS | VALVULAR STRUCTURE, COMMON | 2.11 | cm | 2.11 | 2.11 | cm | AORTIC VALVE ANNULUS | TRANSTHORACIC ECHOCARDIOGRAPHY | 5 | MONTH 2 | 2015-08-05T11:15 |", "score": 0.3531, "match_basis": "verbatim_token+domain_route:CV"}, {"md_atom_id": "md_dmCV_ex_a022", "md_file": "knowledge_base/domains/CV/examples.md", "md_atom_type": "TABLE_ROW", "md_parent_section": "§CV.2 [Example 2]", "md_verbatim": "| 8 | ABC123 | CV | 1001 | 8 | MJDIAMVS | Major Axis Cross-sec Diameter, MVS | VALVULAR STRUCTURE, COMMON | 2.39 | cm | 2.39 | 2.39 | cm | AORTIC VALVE ANNULUS | TRANSTHORACIC ECHOCARDIOGRAPHY | 5 | MONTH 2 | 2015-08-05T11:15 |", "score": 0.3531, "match_basis": "verbatim_token+domain_route:CV"}, {"md_atom_id": "md_dmCV_ex_a017", "md_file": "knowledge_base/domains/CV/examples.md", "md_atom_type": "TABLE_ROW", "md_parent_section": "§CV.2 [Example 2]", "md_verbatim": "| 3 | ABC123 | CV | 1001 | 3 | MNDIAEVS | Minor Axis Cross-sec Diameter, EVS | VALVULAR STRUCTURE, COMMON | 2.18 | cm | 2.18 | 2.18 | cm | AORTIC VALVE ANNULUS | TRANSTHORACIC ECHOCARDIOGRAPHY | 5 | MONTH 2 | 2015-08-05T11:15 |", "score": 0.353, "match_basis": "verbatim_token+domain_route:CV"}], "candidate_count": 5, "zero_candidate": false}
{"pdf_atom_id": "ig34_p0289_a018", "pdf_atom_type": "TABLE_ROW", "pdf_source": "SDTMIG_v3.4", "pdf_page": 289, "pdf_parent_section": "§6.3.7.2 Cardiovascular System Findings (CV)", "pdf_verbatim": "| 1 | ABC123 | CV | 1001 | 1 | NCVALTYP | Native Cardiac Valve Intervention Type | VALVULAR STRUCTURE, COMMON | NATIVE WITHOUT INTERVENTION | | NATIVE WITHOUT INTERVENTION | | | AORTIC VALVE | TRANSTHORACIC ECHOCARDIOGRAPHY | 5 | MONTH 2 | 2015-08-05T11:15 |", "figure_ref": null, "candidates": [{"md_atom_id": "md_dmCV_ex_a015", "md_file": "knowledge_base/domains/CV/examples.md", "md_atom_type": "TABLE_ROW", "md_parent_section": "§CV.2 [Example 2]", "md_verbatim": "| 1 | ABC123 | CV | 1001 | 1 | NCVALTYP | Native Cardiac Valve Structure Without Intervention Type | VALVULAR STRUCTURE, COMMON | NATIVE, WITHOUT INTERVENTION | | NATIVE, WITHOUT INTERVENTION | | | AORTIC VALVE | TRANSTHORACIC ECHOCARDIOGRAPHY | 5 | MONTH 2 | 2015-08-05T11:15 |", "score": 1.0, "match_basis": "verbatim_token+domain_route:CV"}, {"md_atom_id": "md_dmCV_ex_a016", "md_file": "knowledge_base/domains/CV/examples.md", "md_atom_type": "TABLE_ROW", "md_parent_section": "§CV.2 [Example 2]", "md_verbatim": "| 2 | ABC123 | CV | 1001 | 2 | SIZE | Size | VALVULAR STRUCTURE, COMMON | REDUCED | | REDUCED | | | AORTIC VALVE ANNULUS | TRANSTHORACIC ECHOCARDIOGRAPHY | 5 | MONTH 2 | 2015-08-05T11:15 |", "score": 0.7673, "match_basis": "verbatim_token+domain_route:CV"}, {"md_atom_id": "md_dmCV_ex_a021", "md_file": "knowledge_base/domains/CV/examples.md", "md_atom_type": "TABLE_ROW", "md_parent_section": "§CV.2 [Example 2]", "md_verbatim": "| 7 | ABC123 | CV | 1001 | 7 | MNDIAMVS | Minor Axis Cross-sec Diameter, MVS | VALVULAR STRUCTURE, COMMON | 2.11 | cm | 2.11 | 2.11 | cm | AORTIC VALVE ANNULUS | TRANSTHORACIC ECHOCARDIOGRAPHY | 5 | MONTH 2 | 2015-08-05T11:15 |", "score": 0.7444, "match_basis": "verbatim_token+domain_route:CV"}, {"md_atom_id": "md_dmCV_ex_a022", "md_file": "knowledge_base/domains/CV/examples.md", "md_atom_type": "TABLE_ROW", "md_parent_section": "§CV.2 [Example 2]", "md_verbatim": "| 8 | ABC123 | CV | 1001 | 8 | MJDIAMVS | Major Axis Cross-sec Diameter, MVS | VALVULAR STRUCTURE, COMMON | 2.39 | cm | 2.39 | 2.39 | cm | AORTIC VALVE ANNULUS | TRANSTHORACIC ECHOCARDIOGRAPHY | 5 | MONTH 2 | 2015-08-05T11:15 |", "score": 0.7444, "match_basis": "verbatim_token+domain_route:CV"}, {"md_atom_id": "md_dmCV_ex_a017", "md_file": "knowledge_base/domains/CV/examples.md", "md_atom_type": "TABLE_ROW", "md_parent_section": "§CV.2 [Example 2]", "md_verbatim": "| 3 | ABC123 | CV | 1001 | 3 | MNDIAEVS | Minor Axis Cross-sec Diameter, EVS | VALVULAR STRUCTURE, COMMON | 2.18 | cm | 2.18 | 2.18 | cm | AORTIC VALVE ANNULUS | TRANSTHORACIC ECHOCARDIOGRAPHY | 5 | MONTH 2 | 2015-08-05T11:15 |", "score": 0.7413, "match_basis": "verbatim_token+domain_route:CV"}], "candidate_count": 5, "zero_candidate": false}
{"pdf_atom_id": "ig34_p0289_a019", "pdf_atom_type": "TABLE_ROW", "pdf_source": "SDTMIG_v3.4", "pdf_page": 289, "pdf_parent_section": "§6.3.7.2 Cardiovascular System Findings (CV)", "pdf_verbatim": "| 2 | ABC123 | CV | 1001 | 2 | SIZE | Size | VALVULAR STRUCTURE, COMMON | REDUCED | | REDUCED | | | AORTIC VALVE ANNULUS | TRANSTHORACIC ECHOCARDIOGRAPHY | 5 | MONTH 2 | 2015-08-05T11:15 |", "figure_ref": null, "candidates": [{"md_atom_id": "md_dmCV_ex_a016", "md_file": "knowledge_base/domains/CV/examples.md", "md_atom_type": "TABLE_ROW", "md_parent_section": "§CV.2 [Example 2]", "md_verbatim": "| 2 | ABC123 | CV | 1001 | 2 | SIZE | Size | VALVULAR STRUCTURE, COMMON | REDUCED | | REDUCED | | | AORTIC VALVE ANNULUS | TRANSTHORACIC ECHOCARDIOGRAPHY | 5 | MONTH 2 | 2015-08-05T11:15 |", "score": 1.0, "match_basis": "verbatim_token+domain_route:CV"}, {"md_atom_id": "md_dmCV_ex_a021", "md_file": "knowledge_base/domains/CV/examples.md", "md_atom_type": "TABLE_ROW", "md_parent_section": "§CV.2 [Example 2]", "md_verbatim": "| 7 | ABC123 | CV | 1001 | 7 | MNDIAMVS | Minor Axis Cross-sec Diameter, MVS | VALVULAR STRUCTURE, COMMON | 2.11 | cm | 2.11 | 2.11 | cm | AORTIC VALVE ANNULUS | TRANSTHORACIC ECHOCARDIOGRAPHY | 5 | MONTH 2 | 2015-08-05T11:15 |", "score": 0.8286, "match_basis": "verbatim_token+domain_route:CV"}, {"md_atom_id": "md_dmCV_ex_a022", "md_file": "knowledge_base/domains/CV/examples.md", "md_atom_type": "TABLE_ROW", "md_parent_section": "§CV.2 [Example 2]", "md_verbatim": "| 8 | ABC123 | CV | 1001 | 8 | MJDIAMVS | Major Axis Cross-sec Diameter, MVS | VALVULAR STRUCTURE, COMMON | 2.39 | cm | 2.39 | 2.39 | cm | AORTIC VALVE ANNULUS | TRANSTHORACIC ECHOCARDIOGRAPHY | 5 | MONTH 2 | 2015-08-05T11:15 |", "score": 0.8286, "match_basis": "verbatim_token+domain_route:CV"}, {"md_atom_id": "md_dmCV_ex_a017", "md_file": "knowledge_base/domains/CV/examples.md", "md_atom_type": "TABLE_ROW", "md_parent_section": "§CV.2 [Example 2]", "md_verbatim": "| 3 | ABC123 | CV | 1001 | 3 | MNDIAEVS | Minor Axis Cross-sec Diameter, EVS | VALVULAR STRUCTURE, COMMON | 2.18 | cm | 2.18 | 2.18 | cm | AORTIC VALVE ANNULUS | TRANSTHORACIC ECHOCARDIOGRAPHY | 5 | MONTH 2 | 2015-08-05T11:15 |", "score": 0.8239, "match_basis": "verbatim_token+domain_route:CV"}, {"md_atom_id": "md_dmCV_ex_a018", "md_file": "knowledge_base/domains/CV/examples.md", "md_atom_type": "TABLE_ROW", "md_parent_section": "§CV.2 [Example 2]", "md_verbatim": "| 4 | ABC123 | CV | 1001 | 4 | MJDIAEVS | Major Axis Cross-sec Diameter, EVS | VALVULAR STRUCTURE, COMMON | 2.48 | cm | 2.48 | 2.48 | cm | AORTIC VALVE ANNULUS | TRANSTHORACIC ECHOCARDIOGRAPHY | 5 | MONTH 2 | 2015-08-05T11:15 |", "score": 0.8239, "match_basis": "verbatim_token+domain_route:CV"}], "candidate_count": 5, "zero_candidate": false}
{"pdf_atom_id": "ig34_p0289_a020", "pdf_atom_type": "TABLE_ROW", "pdf_source": "SDTMIG_v3.4", "pdf_page": 289, "pdf_parent_section": "§6.3.7.2 Cardiovascular System Findings (CV)", "pdf_verbatim": "| 3 | ABC123 | CV | 1001 | 3 | MNDIAEVS | Minor Axis Cross-sec Diameter, EVS | VALVULAR STRUCTURE, COMMON | 2.18 | cm | 2.18 | 2.18 | cm | AORTIC VALVE ANNULUS | TRANSTHORACIC ECHOCARDIOGRAPHY | 5 | MONTH 2 | 2015-08-05T11:15 |", "figure_ref": null, "candidates": [{"md_atom_id": "md_dmCV_ex_a017", "md_file": "knowledge_base/domains/CV/examples.md", "md_atom_type": "TABLE_ROW", "md_parent_section": "§CV.2 [Example 2]", "md_verbatim": "| 3 | ABC123 | CV | 1001 | 3 | MNDIAEVS | Minor Axis Cross-sec Diameter, EVS | VALVULAR STRUCTURE, COMMON | 2.18 | cm | 2.18 | 2.18 | cm | AORTIC VALVE ANNULUS | TRANSTHORACIC ECHOCARDIOGRAPHY | 5 | MONTH 2 | 2015-08-05T11:15 |", "score": 1.0, "match_basis": "verbatim_token+domain_route:CV"}, {"md_atom_id": "md_dmCV_ex_a019", "md_file": "knowledge_base/domains/CV/examples.md", "md_atom_type": "TABLE_ROW", "md_parent_section": "§CV.2 [Example 2]", "md_verbatim": "| 5 | ABC123 | CV | 1001 | 5 | MNDIAEVD | Minor Axis Cross-sec Diameter, EVD | VALVULAR STRUCTURE, COMMON | 1.92 | cm | 1.92 | 1.92 | cm | AORTIC VALVE ANNULUS | TRANSTHORACIC ECHOCARDIOGRAPHY | 5 | MONTH 2 | 2015-08-05T11:15 |", "score": 0.986, "match_basis": "verbatim_token+domain_route:CV"}, {"md_atom_id": "md_dmCV_ex_a021", "md_file": "knowledge_base/domains/CV/examples.md", "md_atom_type": "TABLE_ROW", "md_parent_section": "§CV.2 [Example 2]", "md_verbatim": "| 7 | ABC123 | CV | 1001 | 7 | MNDIAMVS | Minor Axis Cross-sec Diameter, MVS | VALVULAR STRUCTURE, COMMON | 2.11 | cm | 2.11 | 2.11 | cm | AORTIC VALVE ANNULUS | TRANSTHORACIC ECHOCARDIOGRAPHY | 5 | MONTH 2 | 2015-08-05T11:15 |", "score": 0.9655, "match_basis": "verbatim_token+domain_route:CV"}, {"md_atom_id": "md_dmCV_ex_a018", "md_file": "knowledge_base/domains/CV/examples.md", "md_atom_type": "TABLE_ROW", "md_parent_section": "§CV.2 [Example 2]", "md_verbatim": "| 4 | ABC123 | CV | 1001 | 4 | MJDIAEVS | Major Axis Cross-sec Diameter, EVS | VALVULAR STRUCTURE, COMMON | 2.48 | cm | 2.48 | 2.48 | cm | AORTIC VALVE ANNULUS | TRANSTHORACIC ECHOCARDIOGRAPHY | 5 | MONTH 2 | 2015-08-05T11:15 |", "score": 0.9333, "match_basis": "verbatim_token+domain_route:CV"}, {"md_atom_id": "md_dmCV_ex_a020", "md_file": "knowledge_base/domains/CV/examples.md", "md_atom_type": "TABLE_ROW", "md_parent_section": "§CV.2 [Example 2]", "md_verbatim": "| 6 | ABC123 | CV | 1001 | 6 | MJDIAEVD | Major Axis Cross-sec Diameter, EVD | VALVULAR STRUCTURE, COMMON | 2.58 | cm | 2.58 | 2.58 | cm | AORTIC VALVE ANNULUS | TRANSTHORACIC ECHOCARDIOGRAPHY | 5 | MONTH 2 | 2015-08-05T11:15 |", "score": 0.9209, "match_basis": "verbatim_token+domain_route:CV"}], "candidate_count": 5, "zero_candidate": false}
{"pdf_atom_id": "ig34_p0289_a021", "pdf_atom_type": "TABLE_ROW", "pdf_source": "SDTMIG_v3.4", "pdf_page": 289, "pdf_parent_section": "§6.3.7.2 Cardiovascular System Findings (CV)", "pdf_verbatim": "| 4 | ABC123 | CV | 1001 | 4 | MJDIAEVS | Major Axis Cross-sec Diameter, EVS | VALVULAR STRUCTURE, COMMON | 2.48 | cm | 2.48 | 2.48 | cm | AORTIC VALVE ANNULUS | TRANSTHORACIC ECHOCARDIOGRAPHY | 5 | MONTH 2 | 2015-08-05T11:15 |", "figure_ref": null, "candidates": [{"md_atom_id": "md_dmCV_ex_a018", "md_file": "knowledge_base/domains/CV/examples.md", "md_atom_type": "TABLE_ROW", "md_parent_section": "§CV.2 [Example 2]", "md_verbatim": "| 4 | ABC123 | CV | 1001 | 4 | MJDIAEVS | Major Axis Cross-sec Diameter, EVS | VALVULAR STRUCTURE, COMMON | 2.48 | cm | 2.48 | 2.48 | cm | AORTIC VALVE ANNULUS | TRANSTHORACIC ECHOCARDIOGRAPHY | 5 | MONTH 2 | 2015-08-05T11:15 |", "score": 1.0, "match_basis": "verbatim_token+domain_route:CV"}, {"md_atom_id": "md_dmCV_ex_a020", "md_file": "knowledge_base/domains/CV/examples.md", "md_atom_type": "TABLE_ROW", "md_parent_section": "§CV.2 [Example 2]", "md_verbatim": "| 6 | ABC123 | CV | 1001 | 6 | MJDIAEVD | Major Axis Cross-sec Diameter, EVD | VALVULAR STRUCTURE, COMMON | 2.58 | cm | 2.58 | 2.58 | cm | AORTIC VALVE ANNULUS | TRANSTHORACIC ECHOCARDIOGRAPHY | 5 | MONTH 2 | 2015-08-05T11:15 |", "score": 0.986, "match_basis": "verbatim_token+domain_route:CV"}, {"md_atom_id": "md_dmCV_ex_a022", "md_file": "knowledge_base/domains/CV/examples.md", "md_atom_type": "TABLE_ROW", "md_parent_section": "§CV.2 [Example 2]", "md_verbatim": "| 8 | ABC123 | CV | 1001 | 8 | MJDIAMVS | Major Axis Cross-sec Diameter, MVS | VALVULAR STRUCTURE, COMMON | 2.39 | cm | 2.39 | 2.39 | cm | AORTIC VALVE ANNULUS | TRANSTHORACIC ECHOCARDIOGRAPHY | 5 | MONTH 2 | 2015-08-05T11:15 |", "score": 0.9655, "match_basis": "verbatim_token+domain_route:CV"}, {"md_atom_id": "md_dmCV_ex_a017", "md_file": "knowledge_base/domains/CV/examples.md", "md_atom_type": "TABLE_ROW", "md_parent_section": "§CV.2 [Example 2]", "md_verbatim": "| 3 | ABC123 | CV | 1001 | 3 | MNDIAEVS | Minor Axis Cross-sec Diameter, EVS | VALVULAR STRUCTURE, COMMON | 2.18 | cm | 2.18 | 2.18 | cm | AORTIC VALVE ANNULUS | TRANSTHORACIC ECHOCARDIOGRAPHY | 5 | MONTH 2 | 2015-08-05T11:15 |", "score": 0.9333, "match_basis": "verbatim_token+domain_route:CV"}, {"md_atom_id": "md_dmCV_ex_a019", "md_file": "knowledge_base/domains/CV/examples.md", "md_atom_type": "TABLE_ROW", "md_parent_section": "§CV.2 [Example 2]", "md_verbatim": "| 5 | ABC123 | CV | 1001 | 5 | MNDIAEVD | Minor Axis Cross-sec Diameter, EVD | VALVULAR STRUCTURE, COMMON | 1.92 | cm | 1.92 | 1.92 | cm | AORTIC VALVE ANNULUS | TRANSTHORACIC ECHOCARDIOGRAPHY | 5 | MONTH 2 | 2015-08-05T11:15 |", "score": 0.9209, "match_basis": "verbatim_token+domain_route:CV"}], "candidate_count": 5, "zero_candidate": false}
