{"pdf_atom_id": "ig34_p0225_a011", "pdf_atom_type": "HEADING", "pdf_source": "SDTMIG_v3.4", "pdf_page": 225, "pdf_parent_section": "§6.3.5.4 Genomics Findings (GF)", "pdf_verbatim": "Example 2", "figure_ref": null, "candidates": [{"md_atom_id": "md_dmGF_ex_a002", "md_file": "knowledge_base/domains/GF/examples.md", "md_atom_type": "HEADING", "md_parent_section": "§GF [GF — Examples]", "md_verbatim": "## Example 1", "score": 1.0, "match_basis": "verbatim_token+domain_route:GF"}, {"md_atom_id": "md_dmGF_ex_a029", "md_file": "knowledge_base/domains/GF/examples.md", "md_atom_type": "HEADING", "md_parent_section": "§GF [GF — Examples]", "md_verbatim": "## Example 2", "score": 1.0, "match_basis": "verbatim_token+domain_route:GF"}, {"md_atom_id": "md_dmGF_ex_a039", "md_file": "knowledge_base/domains/GF/examples.md", "md_atom_type": "HEADING", "md_parent_section": "§GF [GF — Examples]", "md_verbatim": "## Example 3", "score": 1.0, "match_basis": "verbatim_token+domain_route:GF"}, {"md_atom_id": "md_dmGF_ex_a071", "md_file": "knowledge_base/domains/GF/examples.md", "md_atom_type": "HEADING", "md_parent_section": "§GF [GF — Examples]", "md_verbatim": "## Example 4", "score": 1.0, "match_basis": "verbatim_token+domain_route:GF"}, {"md_atom_id": "md_dmGF_ex_a083", "md_file": "knowledge_base/domains/GF/examples.md", "md_atom_type": "HEADING", "md_parent_section": "§GF [GF — Examples]", "md_verbatim": "## Example 5", "score": 1.0, "match_basis": "verbatim_token+domain_route:GF"}, {"md_atom_id": "md_dmGF_ex_a001", "md_file": "knowledge_base/domains/GF/examples.md", "md_atom_type": "HEADING", "md_parent_section": "§GF [GF — Examples]", "md_verbatim": "# GF — Examples", "score": 0.9, "match_basis": "verbatim_token+domain_route:GF"}, {"md_atom_id": "md_dmGF_assn_a001", "md_file": "knowledge_base/domains/GF/assumptions.md", "md_atom_type": "HEADING", "md_parent_section": "§GF [GF — Assumptions]", "md_verbatim": "# GF — Assumptions", "score": 0.4, "match_basis": "verbatim_token+domain_route:GF"}], "candidate_count": 7, "zero_candidate": false}
{"pdf_atom_id": "ig34_p0225_a012", "pdf_atom_type": "SENTENCE", "pdf_source": "SDTMIG_v3.4", "pdf_page": 225, "pdf_parent_section": "§6.3.5.4 Genomics Findings (GF)", "pdf_verbatim": "This example shows findings from an assessment of a known single nucleotide variant in gene ABCG2 using wet laboratory methodology real-time polymerase chain reaction. Findings from this assessment show the genotypes from DNA extracted from the blood of 3 individuals, each with a different genotype at the genetic locus of interest. Because the DNA specimen was extracted from normal blood, the inheritability of the variation is considered to be in the germline.", "figure_ref": null, "candidates": [{"md_atom_id": "md_dmGF_ex_a030", "md_file": "knowledge_base/domains/GF/examples.md", "md_atom_type": "SENTENCE", "md_parent_section": "§GF.2 [Example 2]", "md_verbatim": "This example shows findings from an assessment of a known single nucleotide variant in gene ABCG2 using wet laboratory methodology real-time polymerase chain reaction. Findings from this assessment show the genotypes from DNA extracted from the blood of 3 individuals, each with a different genotype at the genetic locus of interest. Because the DNA specimen was extracted from normal blood, the inheritability of the variation is considered to be in the germline.", "score": 1.0, "match_basis": "verbatim_token+domain_route:GF"}, {"md_atom_id": "md_dmGF_ex_a003", "md_file": "knowledge_base/domains/GF/examples.md", "md_atom_type": "SENTENCE", "md_parent_section": "§GF.1 [Example 1]", "md_verbatim": "This example shows findings from an assessment of single nucleotide and copy number variation generated from biocomputational analysis with wet laboratory methodology targeted genome sequencing. Findings from this assessment show variation from DNA extracted from an individual's tumor tissue. As the DNA specimen was extracted from tumor tissue, the inheritability of the variation is considered to be somatic.", "score": 0.6946, "match_basis": "verbatim_token+domain_route:GF"}, {"md_atom_id": "md_dmGF_ex_a072", "md_file": "knowledge_base/domains/GF/examples.md", "md_atom_type": "SENTENCE", "md_parent_section": "§GF.4 [Example 4]", "md_verbatim": "This example shows findings from an assessment of microsatellite instability for genetic subregions that are known to be unstable. DNA extracted from tumor tissue is amplified and the resulting amplicons are resolved using wet laboratory methodology capillary electrophoresis.", "score": 0.5795, "match_basis": "verbatim_token+domain_route:GF"}, {"md_atom_id": "md_dmGF_ex_a089", "md_file": "knowledge_base/domains/GF/examples.md", "md_atom_type": "SENTENCE", "md_parent_section": "§GF.5 [Example 5]", "md_verbatim": "Next, a series of virus samples extracted from the subject underwent targeted single nucleotide polymorphism (SNP) testing to determine the feasibility of using the neuraminidase inhibitor oseltamivir to treat the infection (i.e., drug susceptibility testing). Findings from this testing provide both genetic data in the form of the genotype identified and the susceptibility/resistance data as inferred phenotype. Genotypic findings are represented in the GF domain, and inferred susceptibility/resistance in MS.", "score": 0.5516, "match_basis": "verbatim_token+domain_route:GF"}, {"md_atom_id": "md_dmGF_ex_a040", "md_file": "knowledge_base/domains/GF/examples.md", "md_atom_type": "SENTENCE", "md_parent_section": "§GF.3 [Example 3]", "md_verbatim": "This example shows transcription levels of genes ACTB and GAPDH and summarized scores from the transcription levels. Transcription levels and scores were determined using biocomputational analysis with wet laboratory methodology targeted transcriptome sequencing. Specific formulas used in biocomputational analyses to generate normalized and summarized score results are respresented when applicable.", "score": 0.5373, "match_basis": "verbatim_token+domain_route:GF"}], "candidate_count": 5, "zero_candidate": false}
{"pdf_atom_id": "ig34_p0225_a013", "pdf_atom_type": "LIST_ITEM", "pdf_source": "SDTMIG_v3.4", "pdf_page": 225, "pdf_parent_section": "§6.3.5.4 Genomics Findings (GF)", "pdf_verbatim": "Row 1: Shows a subject genotype which is homozygous for the variant nucleotide in the reference sequence.", "figure_ref": null, "candidates": [{"md_atom_id": "md_dmGF_ex_a031", "md_file": "knowledge_base/domains/GF/examples.md", "md_atom_type": "SENTENCE", "md_parent_section": "§GF.2 [Example 2]", "md_verbatim": "**Row 1:** Shows a subject genotype which is homozygous for the variant nucleotide in the reference sequence.", "score": 0.91, "match_basis": "verbatim_token+domain_route:GF"}, {"md_atom_id": "md_dmGF_ex_a033", "md_file": "knowledge_base/domains/GF/examples.md", "md_atom_type": "SENTENCE", "md_parent_section": "§GF.2 [Example 2]", "md_verbatim": "**Row 3:** Shows a subject genotype which is homozygous for the nucleotide in the reference sequence.", "score": 0.8523, "match_basis": "verbatim_token+domain_route:GF"}, {"md_atom_id": "md_dmGF_ex_a032", "md_file": "knowledge_base/domains/GF/examples.md", "md_atom_type": "SENTENCE", "md_parent_section": "§GF.2 [Example 2]", "md_verbatim": "**Row 2:** Shows a subject genotype which is heterozygous for the nucleotide in the reference sequence.", "score": 0.7732, "match_basis": "verbatim_token+domain_route:GF"}, {"md_atom_id": "md_dmGF_ex_a005", "md_file": "knowledge_base/domains/GF/examples.md", "md_atom_type": "SENTENCE", "md_parent_section": "§GF.1 [Example 1]", "md_verbatim": "**Row 2:** Shows the predicted coding sequence change due to the single nucleotide variant.", "score": 0.5128, "match_basis": "verbatim_token+domain_route:GF"}, {"md_atom_id": "md_dmGF_assn_a002", "md_file": "knowledge_base/domains/GF/assumptions.md", "md_atom_type": "LIST_ITEM", "md_parent_section": "§GF [GF — Assumptions]", "md_verbatim": "1. The Genomics Findings domain is used to represent findings related to the structure, function, evolution, mapping, and editing of subject and non-host organism genomic material of interest. This domain includes but is not limited to assessments and results for genetic variation and transcription, and summary measures derived from these assessments. The GF domain is used for findings from characteristics assessed from nucleic acids and may include subsequent inferences and/or predictions about related proteins/amino acids. However, direct assessments of proteins (e.g., assessments of amino acids) are out of scope for this domain.", "score": 0.469, "match_basis": "verbatim_token+domain_route:GF"}], "candidate_count": 5, "zero_candidate": false}
{"pdf_atom_id": "ig34_p0225_a014", "pdf_atom_type": "LIST_ITEM", "pdf_source": "SDTMIG_v3.4", "pdf_page": 225, "pdf_parent_section": "§6.3.5.4 Genomics Findings (GF)", "pdf_verbatim": "Row 2: Shows a subject genotype which is heterozygous for the nucleotide in the reference sequence.", "figure_ref": null, "candidates": [{"md_atom_id": "md_dmGF_ex_a032", "md_file": "knowledge_base/domains/GF/examples.md", "md_atom_type": "SENTENCE", "md_parent_section": "§GF.2 [Example 2]", "md_verbatim": "**Row 2:** Shows a subject genotype which is heterozygous for the nucleotide in the reference sequence.", "score": 0.91, "match_basis": "verbatim_token+domain_route:GF"}, {"md_atom_id": "md_dmGF_ex_a033", "md_file": "knowledge_base/domains/GF/examples.md", "md_atom_type": "SENTENCE", "md_parent_section": "§GF.2 [Example 2]", "md_verbatim": "**Row 3:** Shows a subject genotype which is homozygous for the nucleotide in the reference sequence.", "score": 0.8177, "match_basis": "verbatim_token+domain_route:GF"}, {"md_atom_id": "md_dmGF_ex_a031", "md_file": "knowledge_base/domains/GF/examples.md", "md_atom_type": "SENTENCE", "md_parent_section": "§GF.2 [Example 2]", "md_verbatim": "**Row 1:** Shows a subject genotype which is homozygous for the variant nucleotide in the reference sequence.", "score": 0.7732, "match_basis": "verbatim_token+domain_route:GF"}, {"md_atom_id": "md_dmGF_ex_a005", "md_file": "knowledge_base/domains/GF/examples.md", "md_atom_type": "SENTENCE", "md_parent_section": "§GF.1 [Example 1]", "md_verbatim": "**Row 2:** Shows the predicted coding sequence change due to the single nucleotide variant.", "score": 0.4662, "match_basis": "verbatim_token+domain_route:GF"}, {"md_atom_id": "md_dmGF_assn_a002", "md_file": "knowledge_base/domains/GF/assumptions.md", "md_atom_type": "LIST_ITEM", "md_parent_section": "§GF [GF — Assumptions]", "md_verbatim": "1. The Genomics Findings domain is used to represent findings related to the structure, function, evolution, mapping, and editing of subject and non-host organism genomic material of interest. This domain includes but is not limited to assessments and results for genetic variation and transcription, and summary measures derived from these assessments. The GF domain is used for findings from characteristics assessed from nucleic acids and may include subsequent inferences and/or predictions about related proteins/amino acids. However, direct assessments of proteins (e.g., assessments of amino acids) are out of scope for this domain.", "score": 0.464, "match_basis": "verbatim_token+domain_route:GF"}], "candidate_count": 5, "zero_candidate": false}
{"pdf_atom_id": "ig34_p0225_a015", "pdf_atom_type": "LIST_ITEM", "pdf_source": "SDTMIG_v3.4", "pdf_page": 225, "pdf_parent_section": "§6.3.5.4 Genomics Findings (GF)", "pdf_verbatim": "Row 3: Shows a subject genotype which is homozygous for the nucleotide in the reference sequence.", "figure_ref": null, "candidates": [{"md_atom_id": "md_dmGF_ex_a033", "md_file": "knowledge_base/domains/GF/examples.md", "md_atom_type": "SENTENCE", "md_parent_section": "§GF.2 [Example 2]", "md_verbatim": "**Row 3:** Shows a subject genotype which is homozygous for the nucleotide in the reference sequence.", "score": 0.91, "match_basis": "verbatim_token+domain_route:GF"}, {"md_atom_id": "md_dmGF_ex_a031", "md_file": "knowledge_base/domains/GF/examples.md", "md_atom_type": "SENTENCE", "md_parent_section": "§GF.2 [Example 2]", "md_verbatim": "**Row 1:** Shows a subject genotype which is homozygous for the variant nucleotide in the reference sequence.", "score": 0.8523, "match_basis": "verbatim_token+domain_route:GF"}, {"md_atom_id": "md_dmGF_ex_a032", "md_file": "knowledge_base/domains/GF/examples.md", "md_atom_type": "SENTENCE", "md_parent_section": "§GF.2 [Example 2]", "md_verbatim": "**Row 2:** Shows a subject genotype which is heterozygous for the nucleotide in the reference sequence.", "score": 0.8177, "match_basis": "verbatim_token+domain_route:GF"}, {"md_atom_id": "md_dmGF_ex_a005", "md_file": "knowledge_base/domains/GF/examples.md", "md_atom_type": "SENTENCE", "md_parent_section": "§GF.1 [Example 1]", "md_verbatim": "**Row 2:** Shows the predicted coding sequence change due to the single nucleotide variant.", "score": 0.4706, "match_basis": "verbatim_token+domain_route:GF"}, {"md_atom_id": "md_dmGF_assn_a002", "md_file": "knowledge_base/domains/GF/assumptions.md", "md_atom_type": "LIST_ITEM", "md_parent_section": "§GF [GF — Assumptions]", "md_verbatim": "1. The Genomics Findings domain is used to represent findings related to the structure, function, evolution, mapping, and editing of subject and non-host organism genomic material of interest. This domain includes but is not limited to assessments and results for genetic variation and transcription, and summary measures derived from these assessments. The GF domain is used for findings from characteristics assessed from nucleic acids and may include subsequent inferences and/or predictions about related proteins/amino acids. However, direct assessments of proteins (e.g., assessments of amino acids) are out of scope for this domain.", "score": 0.4616, "match_basis": "verbatim_token+domain_route:GF"}], "candidate_count": 5, "zero_candidate": false}
{"pdf_atom_id": "ig34_p0225_a016", "pdf_atom_type": "CODE_LITERAL", "pdf_source": "SDTMIG_v3.4", "pdf_page": 225, "pdf_parent_section": "§6.3.5.4 Genomics Findings (GF)", "pdf_verbatim": "gf.xpt", "figure_ref": null, "candidates": [{"md_atom_id": "md_dmGF_ex_a013", "md_file": "knowledge_base/domains/GF/examples.md", "md_atom_type": "SENTENCE", "md_parent_section": "§GF.1 [Example 1]", "md_verbatim": "**gf.xpt**", "score": 0.79, "match_basis": "verbatim_token+domain_route:GF"}, {"md_atom_id": "md_dmGF_ex_a025", "md_file": "knowledge_base/domains/GF/examples.md", "md_atom_type": "SENTENCE", "md_parent_section": "§GF.1 [Example 1]", "md_verbatim": "**di.xpt**", "score": 0.79, "match_basis": "verbatim_token+domain_route:GF"}, {"md_atom_id": "md_dmGF_ex_a034", "md_file": "knowledge_base/domains/GF/examples.md", "md_atom_type": "SENTENCE", "md_parent_section": "§GF.2 [Example 2]", "md_verbatim": "**gf.xpt**", "score": 0.79, "match_basis": "verbatim_token+domain_route:GF"}, {"md_atom_id": "md_dmGF_ex_a047", "md_file": "knowledge_base/domains/GF/examples.md", "md_atom_type": "SENTENCE", "md_parent_section": "§GF.3 [Example 3]", "md_verbatim": "**gf.xpt**", "score": 0.79, "match_basis": "verbatim_token+domain_route:GF"}, {"md_atom_id": "md_dmGF_ex_a067", "md_file": "knowledge_base/domains/GF/examples.md", "md_atom_type": "SENTENCE", "md_parent_section": "§GF.3 [Example 3]", "md_verbatim": "**di.xpt**", "score": 0.79, "match_basis": "verbatim_token+domain_route:GF"}, {"md_atom_id": "md_dmGF_ex_a075", "md_file": "knowledge_base/domains/GF/examples.md", "md_atom_type": "SENTENCE", "md_parent_section": "§GF.4 [Example 4]", "md_verbatim": "**gf.xpt**", "score": 0.79, "match_basis": "verbatim_token+domain_route:GF"}, {"md_atom_id": "md_dmGF_ex_a086", "md_file": "knowledge_base/domains/GF/examples.md", "md_atom_type": "SENTENCE", "md_parent_section": "§GF.5 [Example 5]", "md_verbatim": "**mb.xpt**", "score": 0.79, "match_basis": "verbatim_token+domain_route:GF"}, {"md_atom_id": "md_dmGF_ex_a093", "md_file": "knowledge_base/domains/GF/examples.md", "md_atom_type": "SENTENCE", "md_parent_section": "§GF.5 [Example 5]", "md_verbatim": "**gf.xpt**", "score": 0.79, "match_basis": "verbatim_token+domain_route:GF"}, {"md_atom_id": "md_dmGF_ex_a101", "md_file": "knowledge_base/domains/GF/examples.md", "md_atom_type": "SENTENCE", "md_parent_section": "§GF.5 [Example 5]", "md_verbatim": "**ms.xpt**", "score": 0.79, "match_basis": "verbatim_token+domain_route:GF"}, {"md_atom_id": "md_dmGF_ex_a107", "md_file": "knowledge_base/domains/GF/examples.md", "md_atom_type": "SENTENCE", "md_parent_section": "§GF.5 [Example 5]", "md_verbatim": "**relrec.xpt**", "score": 0.31, "match_basis": "verbatim_token+domain_route:GF"}], "candidate_count": 10, "zero_candidate": false}
{"pdf_atom_id": "ig34_p0225_a017", "pdf_atom_type": "FIGURE", "pdf_source": "SDTMIG_v3.4", "pdf_page": 225, "pdf_parent_section": "§6.3.5.4 Genomics Findings (GF)", "pdf_verbatim": "gf.xpt Example 2 dataset table: 3 rows showing STUDYID, DOMAIN, USUBJID, GFSEQ, GFREFID, GFTESTCD, GFTEST, GFTSDTL, GFORRES, GFORREF, GFSTRESC, GFSTRESN, GFINHERT, GFGENREF, GFCHROM, GFSYM, GFSYMTYP,  [TRUNCATED:FIGURE]", "figure_ref": "pdf_p0225+bottom", "candidates": [{"md_atom_id": "md_model01_a013", "md_file": "knowledge_base/model/01_concepts_and_terms.md", "md_atom_type": "FIGURE", "md_parent_section": "§2.1 [Model Concepts and Terms — Variables]", "md_verbatim": "```mermaid\ngraph TD\n    %% Key:\n    %% Plain rounded box = Group of individually specified datasets\n    %% Filled box (:::extensible) = Extensible set of domains based on a common model\n\n    SDTM[\"Stu [TRUNCATED:FIGURE]", "score": 0.3598, "match_basis": "verbatim_token+global_figure"}, {"md_atom_id": "md_dmTV_ex_a009", "md_file": "knowledge_base/domains/TV/examples.md", "md_atom_type": "FIGURE", "md_parent_section": "§TV.1 [Example 1]", "md_verbatim": "```mermaid\ngraph TD\n    subgraph Epochs\n        direction LR\n        SE[\"Screening<br/>Epoch\"] --- RE[\"Run-In<br/>Epoch\"] --- TE[\"Treatment<br/>Epoch\"]\n    end\n\n    V1((\"V1\")) -.->|\"Start of<br/>Scree [TRUNCATED:FIGURE]", "score": 0.3439, "match_basis": "verbatim_token+global_figure"}, {"md_atom_id": "md_ch04_a714", "md_file": "knowledge_base/chapters/ch04_general_assumptions.md", "md_atom_type": "FIGURE", "md_parent_section": "§4.4.10 [Representing Time Points]", "md_verbatim": "```mermaid\ngraph LR\n    REF[\"Reference Time Point (Usually a Dose) --TPTREF (Description) --RFTDTC (Date/Time)\"]\n    CTP[\"Collection Time Point --TPT (Description) --TPTNUM (Number) --DTC (Date/Time)\" [TRUNCATED:FIGURE]", "score": 0.3434, "match_basis": "verbatim_token+global_figure"}, {"md_atom_id": "md_dmTA_ex_a126", "md_file": "knowledge_base/domains/TA/examples.md", "md_atom_type": "FIGURE", "md_parent_section": "§TA.4 [Example 4]", "md_verbatim": "```mermaid\ngraph LR\n    subgraph SE[\"Screening Epoch\"]\n        s1[Screen]\n        s2[Screen]\n    end\n    subgraph TE[\"Treatment Epoch\"]\n        a1[A] --> r1[Rest] --> a2[A] --> r2[Rest] --> a3[A] -->  [TRUNCATED:FIGURE]", "score": 0.3425, "match_basis": "verbatim_token+global_figure"}, {"md_atom_id": "md_dmTA_ex_a024", "md_file": "knowledge_base/domains/TA/examples.md", "md_atom_type": "FIGURE", "md_parent_section": "§TA.1 [Example 1]", "md_verbatim": "```mermaid\ngraph LR\n    subgraph SE[\"Screening Epoch\"]\n        S[Screen]\n    end\n    subgraph RE[\"Run-In Epoch\"]\n        RI[Run-In]\n    end\n    subgraph TE[\"Treatment Epoch\"]\n        SD[Study Drug]\n   [TRUNCATED:FIGURE]", "score": 0.3421, "match_basis": "verbatim_token+global_figure"}], "candidate_count": 5, "zero_candidate": false}
{"pdf_atom_id": "ig34_p0225_a018", "pdf_atom_type": "HEADING", "pdf_source": "SDTMIG_v3.4", "pdf_page": 225, "pdf_parent_section": "§6.3.5.4 Genomics Findings (GF)", "pdf_verbatim": "Example 3", "figure_ref": null, "candidates": [{"md_atom_id": "md_dmGF_ex_a002", "md_file": "knowledge_base/domains/GF/examples.md", "md_atom_type": "HEADING", "md_parent_section": "§GF [GF — Examples]", "md_verbatim": "## Example 1", "score": 1.0, "match_basis": "verbatim_token+domain_route:GF"}, {"md_atom_id": "md_dmGF_ex_a029", "md_file": "knowledge_base/domains/GF/examples.md", "md_atom_type": "HEADING", "md_parent_section": "§GF [GF — Examples]", "md_verbatim": "## Example 2", "score": 1.0, "match_basis": "verbatim_token+domain_route:GF"}, {"md_atom_id": "md_dmGF_ex_a039", "md_file": "knowledge_base/domains/GF/examples.md", "md_atom_type": "HEADING", "md_parent_section": "§GF [GF — Examples]", "md_verbatim": "## Example 3", "score": 1.0, "match_basis": "verbatim_token+domain_route:GF"}, {"md_atom_id": "md_dmGF_ex_a071", "md_file": "knowledge_base/domains/GF/examples.md", "md_atom_type": "HEADING", "md_parent_section": "§GF [GF — Examples]", "md_verbatim": "## Example 4", "score": 1.0, "match_basis": "verbatim_token+domain_route:GF"}, {"md_atom_id": "md_dmGF_ex_a083", "md_file": "knowledge_base/domains/GF/examples.md", "md_atom_type": "HEADING", "md_parent_section": "§GF [GF — Examples]", "md_verbatim": "## Example 5", "score": 1.0, "match_basis": "verbatim_token+domain_route:GF"}, {"md_atom_id": "md_dmGF_ex_a001", "md_file": "knowledge_base/domains/GF/examples.md", "md_atom_type": "HEADING", "md_parent_section": "§GF [GF — Examples]", "md_verbatim": "# GF — Examples", "score": 0.9, "match_basis": "verbatim_token+domain_route:GF"}, {"md_atom_id": "md_dmGF_assn_a001", "md_file": "knowledge_base/domains/GF/assumptions.md", "md_atom_type": "HEADING", "md_parent_section": "§GF [GF — Assumptions]", "md_verbatim": "# GF — Assumptions", "score": 0.4, "match_basis": "verbatim_token+domain_route:GF"}], "candidate_count": 7, "zero_candidate": false}
{"pdf_atom_id": "ig34_p0225_a019", "pdf_atom_type": "SENTENCE", "pdf_source": "SDTMIG_v3.4", "pdf_page": 225, "pdf_parent_section": "§6.3.5.4 Genomics Findings (GF)", "pdf_verbatim": "This example shows transcription levels of genes ACTB and GAPDH and summarized scores from the transcription levels. Transcription levels and scores were determined using biocomputational analysis with wet laboratory methodology targeted transcriptome sequencing. Specific formulas used in biocomputational analyses to generate normalized and summarized score results are rerspresented when applicable.", "figure_ref": null, "candidates": [{"md_atom_id": "md_dmGF_ex_a040", "md_file": "knowledge_base/domains/GF/examples.md", "md_atom_type": "SENTENCE", "md_parent_section": "§GF.3 [Example 3]", "md_verbatim": "This example shows transcription levels of genes ACTB and GAPDH and summarized scores from the transcription levels. Transcription levels and scores were determined using biocomputational analysis with wet laboratory methodology targeted transcriptome sequencing. Specific formulas used in biocomputational analyses to generate normalized and summarized score results are respresented when applicable.", "score": 0.9853, "match_basis": "verbatim_token+domain_route:GF"}, {"md_atom_id": "md_dmGF_ex_a003", "md_file": "knowledge_base/domains/GF/examples.md", "md_atom_type": "SENTENCE", "md_parent_section": "§GF.1 [Example 1]", "md_verbatim": "This example shows findings from an assessment of single nucleotide and copy number variation generated from biocomputational analysis with wet laboratory methodology targeted genome sequencing. Findings from this assessment show variation from DNA extracted from an individual's tumor tissue. As the DNA specimen was extracted from tumor tissue, the inheritability of the variation is considered to be somatic.", "score": 0.6101, "match_basis": "verbatim_token+domain_route:GF"}, {"md_atom_id": "md_dmGF_ex_a072", "md_file": "knowledge_base/domains/GF/examples.md", "md_atom_type": "SENTENCE", "md_parent_section": "§GF.4 [Example 4]", "md_verbatim": "This example shows findings from an assessment of microsatellite instability for genetic subregions that are known to be unstable. DNA extracted from tumor tissue is amplified and the resulting amplicons are resolved using wet laboratory methodology capillary electrophoresis.", "score": 0.5373, "match_basis": "verbatim_token+domain_route:GF"}, {"md_atom_id": "md_dmGF_ex_a030", "md_file": "knowledge_base/domains/GF/examples.md", "md_atom_type": "SENTENCE", "md_parent_section": "§GF.2 [Example 2]", "md_verbatim": "This example shows findings from an assessment of a known single nucleotide variant in gene ABCG2 using wet laboratory methodology real-time polymerase chain reaction. Findings from this assessment show the genotypes from DNA extracted from the blood of 3 individuals, each with a different genotype at the genetic locus of interest. Because the DNA specimen was extracted from normal blood, the inheritability of the variation is considered to be in the germline.", "score": 0.5363, "match_basis": "verbatim_token+domain_route:GF"}, {"md_atom_id": "md_dmGF_ex_a024", "md_file": "knowledge_base/domains/GF/examples.md", "md_atom_type": "SENTENCE", "md_parent_section": "§GF.1 [Example 1]", "md_verbatim": "Identifying information for the gene panel used to generate the result is in the DI domain. The gene panel is represented in SDTM, as the panel used as part of the wet laboratory methodology may change and affects interpretation of the result. The platform in which the gene panel was used is not represented, because it does not provide additional context for the result.", "score": 0.5269, "match_basis": "verbatim_token+domain_route:GF"}], "candidate_count": 5, "zero_candidate": false}
{"pdf_atom_id": "ig34_p0226_a001", "pdf_atom_type": "LIST_ITEM", "pdf_source": "SDTMIG_v3.4", "pdf_page": 226, "pdf_parent_section": "§6.3.5.4 Genomics Findings (GF)", "pdf_verbatim": "Rows 1, 7:\tShow the number of fragments counted corresponding to the indicated gene.", "figure_ref": null, "candidates": [{"md_atom_id": "md_dmGF_ex_a041", "md_file": "knowledge_base/domains/GF/examples.md", "md_atom_type": "SENTENCE", "md_parent_section": "§GF.3 [Example 3]", "md_verbatim": "**Rows 1, 7:** Show the number of fragments counted corresponding to the indicated gene.", "score": 0.91, "match_basis": "verbatim_token+domain_route:GF"}, {"md_atom_id": "md_dmGF_assn_a015", "md_file": "knowledge_base/domains/GF/assumptions.md", "md_atom_type": "LIST_ITEM", "md_parent_section": "§GF [GF — Assumptions]", "md_verbatim": "8. GFMETHOD lists wet lab techniques for the execution of genomics or genetic testing. Methods related to specimen processing or reagents are not represented in GFMETHOD.", "score": 0.4635, "match_basis": "verbatim_token+domain_route:GF"}, {"md_atom_id": "md_dmGF_assn_a008", "md_file": "knowledge_base/domains/GF/assumptions.md", "md_atom_type": "LIST_ITEM", "md_parent_section": "§GF [GF — Assumptions]", "md_verbatim": "3. The platform used to detect the finding may be represented in SPDEVID. Attributes used in conjunction with a platform (e.g., assay panel, reagents) may be represented in the Device Identifiers (DI) domain and other associated device domains. See the SDTM Implementation Guide for Medical Devices (SDTMIG-MD) for further information about SPDEVID and the device domains.", "score": 0.4629, "match_basis": "verbatim_token+domain_route:GF"}, {"md_atom_id": "md_dmGF_assn_a010", "md_file": "knowledge_base/domains/GF/assumptions.md", "md_atom_type": "LIST_ITEM", "md_parent_section": "§GF [GF — Assumptions]", "md_verbatim": "5. Genomic symbols are represented in GFSYM.", "score": 0.4536, "match_basis": "verbatim_token+domain_route:GF"}, {"md_atom_id": "md_dmGF_ex_a043", "md_file": "knowledge_base/domains/GF/examples.md", "md_atom_type": "SENTENCE", "md_parent_section": "§GF.3 [Example 3]", "md_verbatim": "**Rows 5, 11:** Show the percentile rank of the indicated gene among those genes reported in the indicated panel.", "score": 0.4529, "match_basis": "verbatim_token+domain_route:GF"}], "candidate_count": 5, "zero_candidate": false}
{"pdf_atom_id": "ig34_p0226_a002", "pdf_atom_type": "LIST_ITEM", "pdf_source": "SDTMIG_v3.4", "pdf_page": 226, "pdf_parent_section": "§6.3.5.4 Genomics Findings (GF)", "pdf_verbatim": "Rows 2-4, 8-10:\tShow normalized transcription levels based on the normalization methods noted in variable GFANMETH and the raw fragment count reported in rows 1 and 7.", "figure_ref": null, "candidates": [{"md_atom_id": "md_dmGF_ex_a042", "md_file": "knowledge_base/domains/GF/examples.md", "md_atom_type": "SENTENCE", "md_parent_section": "§GF.3 [Example 3]", "md_verbatim": "**Rows 2-4, 8-10:** Show normalized transcription levels based on the normalization methods noted in variable GFANMETH and the raw fragment count reported in rows 1 and 7.", "score": 0.91, "match_basis": "verbatim_token+domain_route:GF"}, {"md_atom_id": "md_dmGF_ex_a045", "md_file": "knowledge_base/domains/GF/examples.md", "md_atom_type": "SENTENCE", "md_parent_section": "§GF.3 [Example 3]", "md_verbatim": "**Rows 13-14:** Show normalized transcription levels based on the normalization methods noted in variable GFANMETH and the raw fragment count reported in rows 1 and 7.", "score": 0.91, "match_basis": "verbatim_token+domain_route:GF"}, {"md_atom_id": "md_dmGF_ex_a046", "md_file": "knowledge_base/domains/GF/examples.md", "md_atom_type": "SENTENCE", "md_parent_section": "§GF.3 [Example 3]", "md_verbatim": "**Rows 15-16:** Show gene signature scores from summarization of genetic data based on the methods noted in variable GFANMETH.", "score": 0.51, "match_basis": "verbatim_token+domain_route:GF"}, {"md_atom_id": "md_dmGF_assn_a014", "md_file": "knowledge_base/domains/GF/assumptions.md", "md_atom_type": "LIST_ITEM", "md_parent_section": "§GF [GF — Assumptions]", "md_verbatim": "7. Values populated in GFGENREF, GFSEQID, and GFPVRID should reflect the level of granularity collected (e.g., version, build, patch, release) to support interpretation of the reported result.", "score": 0.4766, "match_basis": "verbatim_token+domain_route:GF"}, {"md_atom_id": "md_dmGF_assn_a002", "md_file": "knowledge_base/domains/GF/assumptions.md", "md_atom_type": "LIST_ITEM", "md_parent_section": "§GF [GF — Assumptions]", "md_verbatim": "1. The Genomics Findings domain is used to represent findings related to the structure, function, evolution, mapping, and editing of subject and non-host organism genomic material of interest. This domain includes but is not limited to assessments and results for genetic variation and transcription, and summary measures derived from these assessments. The GF domain is used for findings from characteristics assessed from nucleic acids and may include subsequent inferences and/or predictions about related proteins/amino acids. However, direct assessments of proteins (e.g., assessments of amino acids) are out of scope for this domain.", "score": 0.4645, "match_basis": "verbatim_token+domain_route:GF"}], "candidate_count": 5, "zero_candidate": false}
{"pdf_atom_id": "ig34_p0226_a003", "pdf_atom_type": "LIST_ITEM", "pdf_source": "SDTMIG_v3.4", "pdf_page": 226, "pdf_parent_section": "§6.3.5.4 Genomics Findings (GF)", "pdf_verbatim": "Rows 5, 11:\tShow the percentile rank of the indicated gene among those genes reported in the indicated panel.", "figure_ref": null, "candidates": [{"md_atom_id": "md_dmGF_ex_a043", "md_file": "knowledge_base/domains/GF/examples.md", "md_atom_type": "SENTENCE", "md_parent_section": "§GF.3 [Example 3]", "md_verbatim": "**Rows 5, 11:** Show the percentile rank of the indicated gene among those genes reported in the indicated panel.", "score": 0.91, "match_basis": "verbatim_token+domain_route:GF"}, {"md_atom_id": "md_dmGF_assn_a008", "md_file": "knowledge_base/domains/GF/assumptions.md", "md_atom_type": "LIST_ITEM", "md_parent_section": "§GF [GF — Assumptions]", "md_verbatim": "3. The platform used to detect the finding may be represented in SPDEVID. Attributes used in conjunction with a platform (e.g., assay panel, reagents) may be represented in the Device Identifiers (DI) domain and other associated device domains. See the SDTM Implementation Guide for Medical Devices (SDTMIG-MD) for further information about SPDEVID and the device domains.", "score": 0.4583, "match_basis": "verbatim_token+domain_route:GF"}, {"md_atom_id": "md_dmGF_assn_a014", "md_file": "knowledge_base/domains/GF/assumptions.md", "md_atom_type": "LIST_ITEM", "md_parent_section": "§GF [GF — Assumptions]", "md_verbatim": "7. Values populated in GFGENREF, GFSEQID, and GFPVRID should reflect the level of granularity collected (e.g., version, build, patch, release) to support interpretation of the reported result.", "score": 0.4555, "match_basis": "verbatim_token+domain_route:GF"}, {"md_atom_id": "md_dmGF_ex_a041", "md_file": "knowledge_base/domains/GF/examples.md", "md_atom_type": "SENTENCE", "md_parent_section": "§GF.3 [Example 3]", "md_verbatim": "**Rows 1, 7:** Show the number of fragments counted corresponding to the indicated gene.", "score": 0.4529, "match_basis": "verbatim_token+domain_route:GF"}, {"md_atom_id": "md_dmGF_assn_a005", "md_file": "knowledge_base/domains/GF/assumptions.md", "md_atom_type": "LIST_ITEM", "md_parent_section": "§GF [GF — Assumptions]", "md_verbatim": "   b. If the purpose of the test is to detect or determine the identity of a viable, non-host organism or infectious agent in a subject sample, data should be represented in the Microbiology Specimen (MB) domain.", "score": 0.4462, "match_basis": "verbatim_token+domain_route:GF"}], "candidate_count": 5, "zero_candidate": false}
{"pdf_atom_id": "ig34_p0226_a004", "pdf_atom_type": "LIST_ITEM", "pdf_source": "SDTMIG_v3.4", "pdf_page": 226, "pdf_parent_section": "§6.3.5.4 Genomics Findings (GF)", "pdf_verbatim": "Rows 6, 12:\tShow the predicted expression status of the indicated gene based on a threshold established by the assay.", "figure_ref": null, "candidates": [{"md_atom_id": "md_dmGF_ex_a044", "md_file": "knowledge_base/domains/GF/examples.md", "md_atom_type": "SENTENCE", "md_parent_section": "§GF.3 [Example 3]", "md_verbatim": "**Rows 6, 12:** Show the predicted expression status of the indicated gene based on a threshold established by the assay.", "score": 0.91, "match_basis": "verbatim_token+domain_route:GF"}, {"md_atom_id": "md_dmGF_assn_a008", "md_file": "knowledge_base/domains/GF/assumptions.md", "md_atom_type": "LIST_ITEM", "md_parent_section": "§GF [GF — Assumptions]", "md_verbatim": "3. The platform used to detect the finding may be represented in SPDEVID. Attributes used in conjunction with a platform (e.g., assay panel, reagents) may be represented in the Device Identifiers (DI) domain and other associated device domains. See the SDTM Implementation Guide for Medical Devices (SDTMIG-MD) for further information about SPDEVID and the device domains.", "score": 0.4675, "match_basis": "verbatim_token+domain_route:GF"}, {"md_atom_id": "md_dmGF_assn_a004", "md_file": "knowledge_base/domains/GF/assumptions.md", "md_atom_type": "LIST_ITEM", "md_parent_section": "§GF [GF — Assumptions]", "md_verbatim": "   a. Tests that give genetic results (e.g., expressed in terms of genetic variation, specific sequence information) on non-host organisms that have been identified in subject samples should be represented in GF. To distinguish these findings from subject genetic data, the variable NHOID must be populated to identify the non-host organism as the focus of the record (see Section 9.2, Non-host Organism Identifiers, assumption 2 for more information).", "score": 0.4644, "match_basis": "verbatim_token+domain_route:GF"}, {"md_atom_id": "md_dmGF_assn_a015", "md_file": "knowledge_base/domains/GF/assumptions.md", "md_atom_type": "LIST_ITEM", "md_parent_section": "§GF [GF — Assumptions]", "md_verbatim": "8. GFMETHOD lists wet lab techniques for the execution of genomics or genetic testing. Methods related to specimen processing or reagents are not represented in GFMETHOD.", "score": 0.4637, "match_basis": "verbatim_token+domain_route:GF"}, {"md_atom_id": "md_dmGF_assn_a012", "md_file": "knowledge_base/domains/GF/assumptions.md", "md_atom_type": "LIST_ITEM", "md_parent_section": "§GF [GF — Assumptions]", "md_verbatim": "   b. For human genetic data, standard nomenclature populated in variable GFSYM must be obtained from the genomic symbol list maintained in the HUGO Gene Nomenclature Committee (HGNC) database (www.genenames.org).", "score": 0.4585, "match_basis": "verbatim_token+domain_route:GF"}], "candidate_count": 5, "zero_candidate": false}
{"pdf_atom_id": "ig34_p0226_a005", "pdf_atom_type": "LIST_ITEM", "pdf_source": "SDTMIG_v3.4", "pdf_page": 226, "pdf_parent_section": "§6.3.5.4 Genomics Findings (GF)", "pdf_verbatim": "Rows 13-14:\tShow normalized transcription levels based on the normalization methods noted in variable GFANMETH and the raw fragment count reported in rows 1 and 7.", "figure_ref": null, "candidates": [{"md_atom_id": "md_dmGF_ex_a042", "md_file": "knowledge_base/domains/GF/examples.md", "md_atom_type": "SENTENCE", "md_parent_section": "§GF.3 [Example 3]", "md_verbatim": "**Rows 2-4, 8-10:** Show normalized transcription levels based on the normalization methods noted in variable GFANMETH and the raw fragment count reported in rows 1 and 7.", "score": 0.91, "match_basis": "verbatim_token+domain_route:GF"}, {"md_atom_id": "md_dmGF_ex_a045", "md_file": "knowledge_base/domains/GF/examples.md", "md_atom_type": "SENTENCE", "md_parent_section": "§GF.3 [Example 3]", "md_verbatim": "**Rows 13-14:** Show normalized transcription levels based on the normalization methods noted in variable GFANMETH and the raw fragment count reported in rows 1 and 7.", "score": 0.91, "match_basis": "verbatim_token+domain_route:GF"}, {"md_atom_id": "md_dmGF_ex_a046", "md_file": "knowledge_base/domains/GF/examples.md", "md_atom_type": "SENTENCE", "md_parent_section": "§GF.3 [Example 3]", "md_verbatim": "**Rows 15-16:** Show gene signature scores from summarization of genetic data based on the methods noted in variable GFANMETH.", "score": 0.51, "match_basis": "verbatim_token+domain_route:GF"}, {"md_atom_id": "md_dmGF_assn_a014", "md_file": "knowledge_base/domains/GF/assumptions.md", "md_atom_type": "LIST_ITEM", "md_parent_section": "§GF [GF — Assumptions]", "md_verbatim": "7. Values populated in GFGENREF, GFSEQID, and GFPVRID should reflect the level of granularity collected (e.g., version, build, patch, release) to support interpretation of the reported result.", "score": 0.4766, "match_basis": "verbatim_token+domain_route:GF"}, {"md_atom_id": "md_dmGF_assn_a002", "md_file": "knowledge_base/domains/GF/assumptions.md", "md_atom_type": "LIST_ITEM", "md_parent_section": "§GF [GF — Assumptions]", "md_verbatim": "1. The Genomics Findings domain is used to represent findings related to the structure, function, evolution, mapping, and editing of subject and non-host organism genomic material of interest. This domain includes but is not limited to assessments and results for genetic variation and transcription, and summary measures derived from these assessments. The GF domain is used for findings from characteristics assessed from nucleic acids and may include subsequent inferences and/or predictions about related proteins/amino acids. However, direct assessments of proteins (e.g., assessments of amino acids) are out of scope for this domain.", "score": 0.4645, "match_basis": "verbatim_token+domain_route:GF"}], "candidate_count": 5, "zero_candidate": false}
{"pdf_atom_id": "ig34_p0226_a006", "pdf_atom_type": "LIST_ITEM", "pdf_source": "SDTMIG_v3.4", "pdf_page": 226, "pdf_parent_section": "§6.3.5.4 Genomics Findings (GF)", "pdf_verbatim": "Rows 15-16:\tShow gene signature scores from summarization of genetic data based on the methods noted in variable GFANMETH.", "figure_ref": null, "candidates": [{"md_atom_id": "md_dmGF_ex_a046", "md_file": "knowledge_base/domains/GF/examples.md", "md_atom_type": "SENTENCE", "md_parent_section": "§GF.3 [Example 3]", "md_verbatim": "**Rows 15-16:** Show gene signature scores from summarization of genetic data based on the methods noted in variable GFANMETH.", "score": 0.91, "match_basis": "verbatim_token+domain_route:GF"}, {"md_atom_id": "md_dmGF_assn_a012", "md_file": "knowledge_base/domains/GF/assumptions.md", "md_atom_type": "LIST_ITEM", "md_parent_section": "§GF [GF — Assumptions]", "md_verbatim": "   b. For human genetic data, standard nomenclature populated in variable GFSYM must be obtained from the genomic symbol list maintained in the HUGO Gene Nomenclature Committee (HGNC) database (www.genenames.org).", "score": 0.51, "match_basis": "verbatim_token+domain_route:GF"}, {"md_atom_id": "md_dmGF_ex_a042", "md_file": "knowledge_base/domains/GF/examples.md", "md_atom_type": "SENTENCE", "md_parent_section": "§GF.3 [Example 3]", "md_verbatim": "**Rows 2-4, 8-10:** Show normalized transcription levels based on the normalization methods noted in variable GFANMETH and the raw fragment count reported in rows 1 and 7.", "score": 0.51, "match_basis": "verbatim_token+domain_route:GF"}, {"md_atom_id": "md_dmGF_ex_a045", "md_file": "knowledge_base/domains/GF/examples.md", "md_atom_type": "SENTENCE", "md_parent_section": "§GF.3 [Example 3]", "md_verbatim": "**Rows 13-14:** Show normalized transcription levels based on the normalization methods noted in variable GFANMETH and the raw fragment count reported in rows 1 and 7.", "score": 0.51, "match_basis": "verbatim_token+domain_route:GF"}, {"md_atom_id": "md_dmGF_assn_a004", "md_file": "knowledge_base/domains/GF/assumptions.md", "md_atom_type": "LIST_ITEM", "md_parent_section": "§GF [GF — Assumptions]", "md_verbatim": "   a. Tests that give genetic results (e.g., expressed in terms of genetic variation, specific sequence information) on non-host organisms that have been identified in subject samples should be represented in GF. To distinguish these findings from subject genetic data, the variable NHOID must be populated to identify the non-host organism as the focus of the record (see Section 9.2, Non-host Organism Identifiers, assumption 2 for more information).", "score": 0.4881, "match_basis": "verbatim_token+domain_route:GF"}], "candidate_count": 5, "zero_candidate": false}
{"pdf_atom_id": "ig34_p0226_a007", "pdf_atom_type": "CODE_LITERAL", "pdf_source": "SDTMIG_v3.4", "pdf_page": 226, "pdf_parent_section": "§6.3.5.4 Genomics Findings (GF)", "pdf_verbatim": "gf.xpt", "figure_ref": null, "candidates": [{"md_atom_id": "md_dmGF_ex_a013", "md_file": "knowledge_base/domains/GF/examples.md", "md_atom_type": "SENTENCE", "md_parent_section": "§GF.1 [Example 1]", "md_verbatim": "**gf.xpt**", "score": 0.79, "match_basis": "verbatim_token+domain_route:GF"}, {"md_atom_id": "md_dmGF_ex_a025", "md_file": "knowledge_base/domains/GF/examples.md", "md_atom_type": "SENTENCE", "md_parent_section": "§GF.1 [Example 1]", "md_verbatim": "**di.xpt**", "score": 0.79, "match_basis": "verbatim_token+domain_route:GF"}, {"md_atom_id": "md_dmGF_ex_a034", "md_file": "knowledge_base/domains/GF/examples.md", "md_atom_type": "SENTENCE", "md_parent_section": "§GF.2 [Example 2]", "md_verbatim": "**gf.xpt**", "score": 0.79, "match_basis": "verbatim_token+domain_route:GF"}, {"md_atom_id": "md_dmGF_ex_a047", "md_file": "knowledge_base/domains/GF/examples.md", "md_atom_type": "SENTENCE", "md_parent_section": "§GF.3 [Example 3]", "md_verbatim": "**gf.xpt**", "score": 0.79, "match_basis": "verbatim_token+domain_route:GF"}, {"md_atom_id": "md_dmGF_ex_a067", "md_file": "knowledge_base/domains/GF/examples.md", "md_atom_type": "SENTENCE", "md_parent_section": "§GF.3 [Example 3]", "md_verbatim": "**di.xpt**", "score": 0.79, "match_basis": "verbatim_token+domain_route:GF"}, {"md_atom_id": "md_dmGF_ex_a075", "md_file": "knowledge_base/domains/GF/examples.md", "md_atom_type": "SENTENCE", "md_parent_section": "§GF.4 [Example 4]", "md_verbatim": "**gf.xpt**", "score": 0.79, "match_basis": "verbatim_token+domain_route:GF"}, {"md_atom_id": "md_dmGF_ex_a086", "md_file": "knowledge_base/domains/GF/examples.md", "md_atom_type": "SENTENCE", "md_parent_section": "§GF.5 [Example 5]", "md_verbatim": "**mb.xpt**", "score": 0.79, "match_basis": "verbatim_token+domain_route:GF"}, {"md_atom_id": "md_dmGF_ex_a093", "md_file": "knowledge_base/domains/GF/examples.md", "md_atom_type": "SENTENCE", "md_parent_section": "§GF.5 [Example 5]", "md_verbatim": "**gf.xpt**", "score": 0.79, "match_basis": "verbatim_token+domain_route:GF"}, {"md_atom_id": "md_dmGF_ex_a101", "md_file": "knowledge_base/domains/GF/examples.md", "md_atom_type": "SENTENCE", "md_parent_section": "§GF.5 [Example 5]", "md_verbatim": "**ms.xpt**", "score": 0.79, "match_basis": "verbatim_token+domain_route:GF"}, {"md_atom_id": "md_dmGF_ex_a107", "md_file": "knowledge_base/domains/GF/examples.md", "md_atom_type": "SENTENCE", "md_parent_section": "§GF.5 [Example 5]", "md_verbatim": "**relrec.xpt**", "score": 0.31, "match_basis": "verbatim_token+domain_route:GF"}], "candidate_count": 10, "zero_candidate": false}
{"pdf_atom_id": "ig34_p0226_a008", "pdf_atom_type": "TABLE_HEADER", "pdf_source": "SDTMIG_v3.4", "pdf_page": 226, "pdf_parent_section": "§6.3.5.4 Genomics Findings (GF)", "pdf_verbatim": "| Row | STUDYID | DOMAIN | USUBJID | GFSEQ | GFSRPD | GFREFID | GFSPID | GFTESTCD | GFTEST | GFTSTOTL | GFORRES | GFORRESC | GFSTRESC | GFSTRESU | GFSEMREF | GFCHRCN | GFSYM | GFSTMYTP | GFSEQID | GFXFN | GFNAM | GFSPEC | GFMETHOD | GFANMETH | VISITNUM | VISIT | VISITDY | GFDTC | GFDY |", "figure_ref": "pdf_p226+middle", "candidates": [{"md_atom_id": "md_dmGF_ex_a048", "md_file": "knowledge_base/domains/GF/examples.md", "md_atom_type": "TABLE_HEADER", "md_parent_section": "§GF.3 [Example 3]", "md_verbatim": "| Row | STUDYID | DOMAIN | USUBJID | SPDEVID | GFSEQ | GFGRPID | GFREFID | GFSPID | GFTESTCD | GFTEST | GFTSTDTL | GFORRES | GFORRESU | GFSTRESC | GFSTRESN | GFSTRESU | GFGENREF | GFCHROM | GFSYM | GFSYMTYP | GFSEQID | GFXFN | GFNAM | GFSPEC | GFMETHOD | GFANMETH | VISITNUM | VISIT | VISITDY | GFDTC | GFDY |\n|-----|---------|--------|---------|---------|-------|---------|---------|--------|----------|--------|----------|---------|----------|----------|----------|----------|----------|---------|-------|----------|---------|-------|-------|--------|----------|----------|----------|-------|---------|-------|------|", "score": 0.8119, "match_basis": "verbatim_token+domain_route:GF"}, {"md_atom_id": "md_dmGF_ex_a076", "md_file": "knowledge_base/domains/GF/examples.md", "md_atom_type": "TABLE_HEADER", "md_parent_section": "§GF.4 [Example 4]", "md_verbatim": "| Row | STUDYID | DOMAIN | USUBJID | GFSEQ | GFREFID | GFTESTCD | GFTEST | GFTSTDTL | GFORRES | GFSTRESC | GFXFN | GFNAM | GFSPEC | GFMETHOD | GFRUNID | VISITNUM | VISIT | VISITDY | GFDTC | GFDY |\n|-----|---------|--------|---------|-------|---------|----------|--------|----------|---------|----------|-------|-------|--------|----------|---------|----------|-------|---------|-------|------|", "score": 0.7903, "match_basis": "verbatim_token+domain_route:GF"}, {"md_atom_id": "md_dmGF_ex_a035", "md_file": "knowledge_base/domains/GF/examples.md", "md_atom_type": "TABLE_HEADER", "md_parent_section": "§GF.2 [Example 2]", "md_verbatim": "| Row | STUDYID | DOMAIN | USUBJID | GFSEQ | GFREFID | GFTESTCD | GFTEST | GFTSTDTL | GFORRES | GFSTRESC | GFSTREFN | GFINHERTG | GFGENREF | GFCHROM | GFSYM | GFGENLOC | GFGENSR | GFSEQID | GFPVRID | GFNAM | GFSPEC | GFMETHOD | VISITNUM | VISIT | VISITDY | GFDTC | GFDY |\n|-----|---------|--------|---------|-------|---------|----------|--------|----------|---------|----------|----------|-----------|----------|---------|-------|----------|---------|---------|---------|-------|--------|----------|----------|-------|---------|-------|------|", "score": 0.7435, "match_basis": "verbatim_token+domain_route:GF"}, {"md_atom_id": "md_dmGF_ex_a094", "md_file": "knowledge_base/domains/GF/examples.md", "md_atom_type": "TABLE_HEADER", "md_parent_section": "§GF.5 [Example 5]", "md_verbatim": "| Row | STUDYID | DOMAIN | USUBJID | GFSEQ | GFREFID | NHOID | GFLNKID | GFTESTCD | GFTEST | GFTSTDTL | GFORRES | GFSTRESC | GFSYM | GFGENLOC | GFSEQID | GFSPEC | GFMETHOD | VISITNUM | VISIT | GFDTC |\n|-----|---------|--------|---------|-------|---------|-------|---------|----------|--------|----------|---------|----------|-------|----------|---------|--------|----------|----------|-------|-------|", "score": 0.7292, "match_basis": "verbatim_token+domain_route:GF"}, {"md_atom_id": "md_dmGF_ex_a014", "md_file": "knowledge_base/domains/GF/examples.md", "md_atom_type": "TABLE_HEADER", "md_parent_section": "§GF.1 [Example 1]", "md_verbatim": "| Row | STUDYID | DOMAIN | USUBJID | GFSEQ | GFREFID | GFTESTCD | GFTEST | GFTSTDTL | GFORRES | GFSTRESC | GFSTREFN | GFSTRESU | GFINHERTG | GFGENREF | GFCHROM | GFSYM | GFSYMTYP | GFGENLOC | GFGENSR | GFSEQID | GFPVRID | GFCOPYID | GFNAM | GFSPEC | GFMETHOD | GFRUNID | VISITNUM | VISIT | VISITDY | GFDTC | GFDY |\n|-----|---------|--------|---------|-------|---------|----------|--------|----------|---------|----------|----------|----------|-----------|----------|---------|-------|----------|----------|---------|---------|---------|----------|-------|--------|----------|---------|----------|-------|---------|-------|------|", "score": 0.72, "match_basis": "verbatim_token+domain_route:GF"}], "candidate_count": 5, "zero_candidate": false}
{"pdf_atom_id": "ig34_p0226_a009", "pdf_atom_type": "TABLE_ROW", "pdf_source": "SDTMIG_v3.4", "pdf_page": 226, "pdf_parent_section": "§6.3.5.4 Genomics Findings (GF)", "pdf_verbatim": "| 1 | ABC-123 | GF | 123101 | 1 | | ABU3908AS2 | AH749754 | TRNSCPTN | Transcription | FRAGMENT COUNT | 36 | | 36 | | 1s37d5 | | ACTB | GENE WITH PROTEIN PRODUCT | ENST00000466554.1 | AH749754.fasta.gz | ACME | RNA | TARGETED TRANSCRIPTOME SEQUENCING | | 1 | VISIT 1 | | 2018-09-04 | 2 |", "figure_ref": "pdf_p226+middle", "candidates": [{"md_atom_id": "md_dmGF_ex_a049", "md_file": "knowledge_base/domains/GF/examples.md", "md_atom_type": "TABLE_ROW", "md_parent_section": "§GF.3 [Example 3]", "md_verbatim": "| 1 | ABC-123 | GF | 123101 | ACME GenePanel 250 | 1 | 1 | ABU3908A52 | AH749754 | TRNSCPTN | Transcription | FRAGMENT COUNT | 36 | | 36 | 36 | | hs37d5 | 7 | ACTB | GENE WITH PROTEIN PRODUCT | ENST00000646664.1 | AH749754.fastq.gz | ACME | RNA | TARGETED TRANSCRIPTOME SEQUENCING | | 1 | VISIT 1 | 1 | 2018-09-04 | 2 |", "score": 0.8769, "match_basis": "verbatim_token+domain_route:GF"}, {"md_atom_id": "md_dmGF_ex_a055", "md_file": "knowledge_base/domains/GF/examples.md", "md_atom_type": "TABLE_ROW", "md_parent_section": "§GF.3 [Example 3]", "md_verbatim": "| 7 | ABC-123 | GF | 123101 | ACME GenePanel 250 | 7 | 2 | ABU3908A52 | AH749754 | TRNSCPTN | Transcription | FRAGMENT COUNT | 23658 | | 23658 | 23658 | | hs37d5 | 12 | GAPDH | GENE WITH PROTEIN PRODUCT | ENST00000396861.5 | AH749754.fastq.gz | ACME | RNA | TARGETED TRANSCRIPTOME SEQUENCING | | 1 | VISIT 1 | 1 | 2018-09-18 | 2 |", "score": 0.8355, "match_basis": "verbatim_token+domain_route:GF"}, {"md_atom_id": "md_dmGF_ex_a053", "md_file": "knowledge_base/domains/GF/examples.md", "md_atom_type": "TABLE_ROW", "md_parent_section": "§GF.3 [Example 3]", "md_verbatim": "| 5 | ABC-123 | GF | 123101 | ACME GenePanel 250 | 5 | 1 | ABU3908A52 | AH749754 | TRNSCPTN | Transcription | PERCENTILE RANK | 0.37 | % | 0.37 | 0.37 | % | hs37d5 | 7 | ACTB | GENE WITH PROTEIN PRODUCT | ENST00000646664.1 | AH749754.fastq.gz | ACME | RNA | TARGETED TRANSCRIPTOME SEQUENCING | | 1 | VISIT 1 | 1 | 2018-09-04 | 2 |", "score": 0.808, "match_basis": "verbatim_token+domain_route:GF"}, {"md_atom_id": "md_dmGF_ex_a054", "md_file": "knowledge_base/domains/GF/examples.md", "md_atom_type": "TABLE_ROW", "md_parent_section": "§GF.3 [Example 3]", "md_verbatim": "| 6 | ABC-123 | GF | 123101 | ACME GenePanel 250 | 6 | 1 | ABU3908A52 | AH749754 | TRNSCPTN | Transcription | GENETIC TRANSCRIPTION INDICATOR | no | | no | | | hs37d5 | 7 | ACTB | GENE WITH PROTEIN PRODUCT | ENST00000646664.1 | AH749754.fastq.gz | ACME | RNA | TARGETED TRANSCRIPTOME SEQUENCING | | 1 | VISIT 1 | 1 | 2018-09-04 | 2 |", "score": 0.7969, "match_basis": "verbatim_token+domain_route:GF"}, {"md_atom_id": "md_dmGF_ex_a059", "md_file": "knowledge_base/domains/GF/examples.md", "md_atom_type": "TABLE_ROW", "md_parent_section": "§GF.3 [Example 3]", "md_verbatim": "| 11 | ABC-123 | GF | 123101 | ACME GenePanel 250 | 11 | 2 | ABU3908A52 | AH749754 | TRNSCPTN | Transcription | PERCENTILE RANK | 0.99 | % | 0.99 | 0.99 | % | hs37d5 | 12 | GAPDH | GENE WITH PROTEIN PRODUCT | ENST00000396861.5 | AH749754.fastq.gz | ACME | RNA | TARGETED TRANSCRIPTOME SEQUENCING | | 1 | VISIT 1 | 1 | 2018-09-18 | 2 |", "score": 0.7814, "match_basis": "verbatim_token+domain_route:GF"}], "candidate_count": 5, "zero_candidate": false}
{"pdf_atom_id": "ig34_p0226_a010", "pdf_atom_type": "TABLE_ROW", "pdf_source": "SDTMIG_v3.4", "pdf_page": 226, "pdf_parent_section": "§6.3.5.4 Genomics Findings (GF)", "pdf_verbatim": "| 2 | ABC-123 | GF | 123101 | 2 | | ABU3908AS2 | AH749754 | TRNSCPTN | Transcription | NORMALIZED LEVEL | 0.5679 | -MBP | 0.5679 | 0.5679 | MBP | 1s37d5 | | ACTB | GENE WITH PROTEIN PRODUCT | ENST00000466554.1 | AH749754.fasta.gz | ACME | RNA | TARGETED TRANSCRIPTOME SEQUENCING | FRAGMENTS PER KILOBASE MILLION FORMULA | 1 | VISIT 1 | | 2018-09-04 | 2 |", "figure_ref": "pdf_p226+middle", "candidates": [{"md_atom_id": "md_dmGF_ex_a050", "md_file": "knowledge_base/domains/GF/examples.md", "md_atom_type": "TABLE_ROW", "md_parent_section": "§GF.3 [Example 3]", "md_verbatim": "| 2 | ABC-123 | GF | 123101 | ACME GenePanel 250 | 2 | 1 | ABU3908A52 | AH749754 | TRNSCPTN | Transcription | NORMALIZED LEVEL | 0.5679 | /MBP | 0.5679 | 0.5679 | /MBP | hs37d5 | 7 | ACTB | GENE WITH PROTEIN PRODUCT | ENST00000646664.1 | AH749754.fastq.gz | ACME | RNA | TARGETED TRANSCRIPTOME SEQUENCING | FRAGMENTS PER KILOBASE MILLION FORMULA | 1 | VISIT 1 | 1 | 2018-09-04 | 2 |", "score": 0.9, "match_basis": "verbatim_token+domain_route:GF"}, {"md_atom_id": "md_dmGF_ex_a056", "md_file": "knowledge_base/domains/GF/examples.md", "md_atom_type": "TABLE_ROW", "md_parent_section": "§GF.3 [Example 3]", "md_verbatim": "| 8 | ABC-123 | GF | 123101 | ACME GenePanel 250 | 8 | 2 | ABU3908A52 | AH749754 | TRNSCPTN | Transcription | NORMALIZED LEVEL | 148.6268 | /MBP | 148.6268 | 148.6268 | /MBP | hs37d5 | 12 | GAPDH | GENE WITH PROTEIN PRODUCT | ENST00000396861.5 | AH749754.fastq.gz | ACME | RNA | TARGETED TRANSCRIPTOME SEQUENCING | FRAGMENTS PER KILOBASE MILLION FORMULA | 1 | VISIT 1 | 1 | 2018-09-18 | 2 |", "score": 0.857, "match_basis": "verbatim_token+domain_route:GF"}, {"md_atom_id": "md_dmGF_ex_a052", "md_file": "knowledge_base/domains/GF/examples.md", "md_atom_type": "TABLE_ROW", "md_parent_section": "§GF.3 [Example 3]", "md_verbatim": "| 4 | ABC-123 | GF | 123101 | ACME GenePanel 250 | 4 | 1 | ABU3908A52 | AH749754 | TRNSCPTN | Transcription | NORMALIZED LEVEL | 1.9935 | /MBP | 1.9935 | 1.9935 | /MBP | hs37d5 | 7 | ACTB | GENE WITH PROTEIN PRODUCT | ENST00000646664.1 | AH749754.fastq.gz | ACME | RNA | TARGETED TRANSCRIPTOME SEQUENCING | TRANSCRIPTS PER MILLION FORMULA | 1 | VISIT 1 | 1 | 2018-09-04 | 2 |", "score": 0.8286, "match_basis": "verbatim_token+domain_route:GF"}, {"md_atom_id": "md_dmGF_ex_a051", "md_file": "knowledge_base/domains/GF/examples.md", "md_atom_type": "TABLE_ROW", "md_parent_section": "§GF.3 [Example 3]", "md_verbatim": "| 3 | ABC-123 | GF | 123101 | ACME GenePanel 250 | 3 | 1 | ABU3908A52 | AH749754 | TRNSCPTN | Transcription | NORMALIZED LEVEL | 1.0523 | /10^6 | 1.0523 | 1.0523 | /10^6 | hs37d5 | 7 | ACTB | GENE WITH PROTEIN PRODUCT | ENST00000646664.1 | AH749754.fastq.gz | ACME | RNA | TARGETED TRANSCRIPTOME SEQUENCING | COUNTS PER MILLION FORMULA | 1 | VISIT 1 | 1 | 2018-09-04 | 2 |", "score": 0.8228, "match_basis": "verbatim_token+domain_route:GF"}, {"md_atom_id": "md_dmGF_ex_a058", "md_file": "knowledge_base/domains/GF/examples.md", "md_atom_type": "TABLE_ROW", "md_parent_section": "§GF.3 [Example 3]", "md_verbatim": "| 10 | ABC-123 | GF | 123101 | ACME GenePanel 250 | 10 | 2 | ABU3908A52 | AH749754 | TRNSCPTN | Transcription | NORMALIZED LEVEL | 521.716 | /MBP | 521.716 | 521.716 | /MBP | hs37d5 | 12 | GAPDH | GENE WITH PROTEIN PRODUCT | ENST00000396861.5 | AH749754.fastq.gz | ACME | RNA | TARGETED TRANSCRIPTOME SEQUENCING | TRANSCRIPTS PER MILLION FORMULA | 1 | VISIT 1 | 1 | 2018-09-18 | 2 |", "score": 0.8053, "match_basis": "verbatim_token+domain_route:GF"}], "candidate_count": 5, "zero_candidate": false}
{"pdf_atom_id": "ig34_p0226_a011", "pdf_atom_type": "TABLE_ROW", "pdf_source": "SDTMIG_v3.4", "pdf_page": 226, "pdf_parent_section": "§6.3.5.4 Genomics Findings (GF)", "pdf_verbatim": "| 3 | ABC-123 | GF | 123101 | 3 | | ABU3908AS2 | AH749754 | TRNSCPTN | Transcription | NORMALIZED LEVEL | 1.0523 | 71P4 | 1.0523 | 1.0523 | 71P4 | 1s37d5 | | ACTB | GENE WITH PROTEIN PRODUCT | ENST00000466554.1 | AH749754.fasta.gz | ACME | RNA | TARGETED TRANSCRIPTOME SEQUENCING | COUNTS PER MILLION FORMULA | 1 | VISIT 1 | | 2018-09-04 | 2 |", "figure_ref": "pdf_p226+middle", "candidates": [{"md_atom_id": "md_dmGF_ex_a051", "md_file": "knowledge_base/domains/GF/examples.md", "md_atom_type": "TABLE_ROW", "md_parent_section": "§GF.3 [Example 3]", "md_verbatim": "| 3 | ABC-123 | GF | 123101 | ACME GenePanel 250 | 3 | 1 | ABU3908A52 | AH749754 | TRNSCPTN | Transcription | NORMALIZED LEVEL | 1.0523 | /10^6 | 1.0523 | 1.0523 | /10^6 | hs37d5 | 7 | ACTB | GENE WITH PROTEIN PRODUCT | ENST00000646664.1 | AH749754.fastq.gz | ACME | RNA | TARGETED TRANSCRIPTOME SEQUENCING | COUNTS PER MILLION FORMULA | 1 | VISIT 1 | 1 | 2018-09-04 | 2 |", "score": 0.8853, "match_basis": "verbatim_token+domain_route:GF"}, {"md_atom_id": "md_dmGF_ex_a052", "md_file": "knowledge_base/domains/GF/examples.md", "md_atom_type": "TABLE_ROW", "md_parent_section": "§GF.3 [Example 3]", "md_verbatim": "| 4 | ABC-123 | GF | 123101 | ACME GenePanel 250 | 4 | 1 | ABU3908A52 | AH749754 | TRNSCPTN | Transcription | NORMALIZED LEVEL | 1.9935 | /MBP | 1.9935 | 1.9935 | /MBP | hs37d5 | 7 | ACTB | GENE WITH PROTEIN PRODUCT | ENST00000646664.1 | AH749754.fastq.gz | ACME | RNA | TARGETED TRANSCRIPTOME SEQUENCING | TRANSCRIPTS PER MILLION FORMULA | 1 | VISIT 1 | 1 | 2018-09-04 | 2 |", "score": 0.8457, "match_basis": "verbatim_token+domain_route:GF"}, {"md_atom_id": "md_dmGF_ex_a057", "md_file": "knowledge_base/domains/GF/examples.md", "md_atom_type": "TABLE_ROW", "md_parent_section": "§GF.3 [Example 3]", "md_verbatim": "| 9 | ABC-123 | GF | 123101 | ACME GenePanel 250 | 9 | 2 | ABU3908A52 | AH749754 | TRNSCPTN | Transcription | NORMALIZED LEVEL | 691.5607 | /10^6 | 691.5607 | 691.5607 | /10^6 | hs37d5 | 12 | GAPDH | GENE WITH PROTEIN PRODUCT | ENST00000396861.5 | AH749754.fastq.gz | ACME | RNA | TARGETED TRANSCRIPTOME SEQUENCING | COUNTS PER MILLION FORMULA | 1 | VISIT 1 | 1 | 2018-09-18 | 2 |", "score": 0.8406, "match_basis": "verbatim_token+domain_route:GF"}, {"md_atom_id": "md_dmGF_ex_a058", "md_file": "knowledge_base/domains/GF/examples.md", "md_atom_type": "TABLE_ROW", "md_parent_section": "§GF.3 [Example 3]", "md_verbatim": "| 10 | ABC-123 | GF | 123101 | ACME GenePanel 250 | 10 | 2 | ABU3908A52 | AH749754 | TRNSCPTN | Transcription | NORMALIZED LEVEL | 521.716 | /MBP | 521.716 | 521.716 | /MBP | hs37d5 | 12 | GAPDH | GENE WITH PROTEIN PRODUCT | ENST00000396861.5 | AH749754.fastq.gz | ACME | RNA | TARGETED TRANSCRIPTOME SEQUENCING | TRANSCRIPTS PER MILLION FORMULA | 1 | VISIT 1 | 1 | 2018-09-18 | 2 |", "score": 0.8208, "match_basis": "verbatim_token+domain_route:GF"}, {"md_atom_id": "md_dmGF_ex_a050", "md_file": "knowledge_base/domains/GF/examples.md", "md_atom_type": "TABLE_ROW", "md_parent_section": "§GF.3 [Example 3]", "md_verbatim": "| 2 | ABC-123 | GF | 123101 | ACME GenePanel 250 | 2 | 1 | ABU3908A52 | AH749754 | TRNSCPTN | Transcription | NORMALIZED LEVEL | 0.5679 | /MBP | 0.5679 | 0.5679 | /MBP | hs37d5 | 7 | ACTB | GENE WITH PROTEIN PRODUCT | ENST00000646664.1 | AH749754.fastq.gz | ACME | RNA | TARGETED TRANSCRIPTOME SEQUENCING | FRAGMENTS PER KILOBASE MILLION FORMULA | 1 | VISIT 1 | 1 | 2018-09-04 | 2 |", "score": 0.8172, "match_basis": "verbatim_token+domain_route:GF"}], "candidate_count": 5, "zero_candidate": false}
{"pdf_atom_id": "ig34_p0226_a012", "pdf_atom_type": "TABLE_ROW", "pdf_source": "SDTMIG_v3.4", "pdf_page": 226, "pdf_parent_section": "§6.3.5.4 Genomics Findings (GF)", "pdf_verbatim": "| 4 | ABC-123 | GF | 123101 | 4 | | ABU3908AS2 | AH749754 | TRNSCPTN | Transcription | NORMALIZED LEVEL | 1.9935 | -MBP | 1.9935 | 1.9935 | MBP | 1s37d5 | | ACTB | GENE WITH PROTEIN PRODUCT | ENST00000466554.1 | AH749754.fasta.gz | ACME | RNA | TARGETED TRANSCRIPTOME SEQUENCING | TRANSCRIPTS PER MILLION FORMULA | 1 | VISIT 1 | | 2018-09-04 | 2 |", "figure_ref": "pdf_p226+middle", "candidates": [{"md_atom_id": "md_dmGF_ex_a052", "md_file": "knowledge_base/domains/GF/examples.md", "md_atom_type": "TABLE_ROW", "md_parent_section": "§GF.3 [Example 3]", "md_verbatim": "| 4 | ABC-123 | GF | 123101 | ACME GenePanel 250 | 4 | 1 | ABU3908A52 | AH749754 | TRNSCPTN | Transcription | NORMALIZED LEVEL | 1.9935 | /MBP | 1.9935 | 1.9935 | /MBP | hs37d5 | 7 | ACTB | GENE WITH PROTEIN PRODUCT | ENST00000646664.1 | AH749754.fastq.gz | ACME | RNA | TARGETED TRANSCRIPTOME SEQUENCING | TRANSCRIPTS PER MILLION FORMULA | 1 | VISIT 1 | 1 | 2018-09-04 | 2 |", "score": 0.8909, "match_basis": "verbatim_token+domain_route:GF"}, {"md_atom_id": "md_dmGF_ex_a051", "md_file": "knowledge_base/domains/GF/examples.md", "md_atom_type": "TABLE_ROW", "md_parent_section": "§GF.3 [Example 3]", "md_verbatim": "| 3 | ABC-123 | GF | 123101 | ACME GenePanel 250 | 3 | 1 | ABU3908A52 | AH749754 | TRNSCPTN | Transcription | NORMALIZED LEVEL | 1.0523 | /10^6 | 1.0523 | 1.0523 | /10^6 | hs37d5 | 7 | ACTB | GENE WITH PROTEIN PRODUCT | ENST00000646664.1 | AH749754.fastq.gz | ACME | RNA | TARGETED TRANSCRIPTOME SEQUENCING | COUNTS PER MILLION FORMULA | 1 | VISIT 1 | 1 | 2018-09-04 | 2 |", "score": 0.8522, "match_basis": "verbatim_token+domain_route:GF"}, {"md_atom_id": "md_dmGF_ex_a058", "md_file": "knowledge_base/domains/GF/examples.md", "md_atom_type": "TABLE_ROW", "md_parent_section": "§GF.3 [Example 3]", "md_verbatim": "| 10 | ABC-123 | GF | 123101 | ACME GenePanel 250 | 10 | 2 | ABU3908A52 | AH749754 | TRNSCPTN | Transcription | NORMALIZED LEVEL | 521.716 | /MBP | 521.716 | 521.716 | /MBP | hs37d5 | 12 | GAPDH | GENE WITH PROTEIN PRODUCT | ENST00000396861.5 | AH749754.fastq.gz | ACME | RNA | TARGETED TRANSCRIPTOME SEQUENCING | TRANSCRIPTS PER MILLION FORMULA | 1 | VISIT 1 | 1 | 2018-09-18 | 2 |", "score": 0.8478, "match_basis": "verbatim_token+domain_route:GF"}, {"md_atom_id": "md_dmGF_ex_a050", "md_file": "knowledge_base/domains/GF/examples.md", "md_atom_type": "TABLE_ROW", "md_parent_section": "§GF.3 [Example 3]", "md_verbatim": "| 2 | ABC-123 | GF | 123101 | ACME GenePanel 250 | 2 | 1 | ABU3908A52 | AH749754 | TRNSCPTN | Transcription | NORMALIZED LEVEL | 0.5679 | /MBP | 0.5679 | 0.5679 | /MBP | hs37d5 | 7 | ACTB | GENE WITH PROTEIN PRODUCT | ENST00000646664.1 | AH749754.fastq.gz | ACME | RNA | TARGETED TRANSCRIPTOME SEQUENCING | FRAGMENTS PER KILOBASE MILLION FORMULA | 1 | VISIT 1 | 1 | 2018-09-04 | 2 |", "score": 0.8286, "match_basis": "verbatim_token+domain_route:GF"}, {"md_atom_id": "md_dmGF_ex_a057", "md_file": "knowledge_base/domains/GF/examples.md", "md_atom_type": "TABLE_ROW", "md_parent_section": "§GF.3 [Example 3]", "md_verbatim": "| 9 | ABC-123 | GF | 123101 | ACME GenePanel 250 | 9 | 2 | ABU3908A52 | AH749754 | TRNSCPTN | Transcription | NORMALIZED LEVEL | 691.5607 | /10^6 | 691.5607 | 691.5607 | /10^6 | hs37d5 | 12 | GAPDH | GENE WITH PROTEIN PRODUCT | ENST00000396861.5 | AH749754.fastq.gz | ACME | RNA | TARGETED TRANSCRIPTOME SEQUENCING | COUNTS PER MILLION FORMULA | 1 | VISIT 1 | 1 | 2018-09-18 | 2 |", "score": 0.8238, "match_basis": "verbatim_token+domain_route:GF"}], "candidate_count": 5, "zero_candidate": false}
{"pdf_atom_id": "ig34_p0226_a013", "pdf_atom_type": "TABLE_ROW", "pdf_source": "SDTMIG_v3.4", "pdf_page": 226, "pdf_parent_section": "§6.3.5.4 Genomics Findings (GF)", "pdf_verbatim": "| 5 | ABC-123 | GF | 123101 | 5 | | ABU3908AS2 | AH749754 | TRNSCPTN | Transcription | PERCENTILE RANK | 0.37 | % | 0.37 | % | 1s37d5 | | ACTB | GENE WITH PROTEIN PRODUCT | ENST00000466554.1 | AH749754.fasta.gz | ACME | RNA | TARGETED TRANSCRIPTOME SEQUENCING | | 1 | VISIT 1 | | 2018-09-04 | 2 |", "figure_ref": "pdf_p226+middle", "candidates": [{"md_atom_id": "md_dmGF_ex_a053", "md_file": "knowledge_base/domains/GF/examples.md", "md_atom_type": "TABLE_ROW", "md_parent_section": "§GF.3 [Example 3]", "md_verbatim": "| 5 | ABC-123 | GF | 123101 | ACME GenePanel 250 | 5 | 1 | ABU3908A52 | AH749754 | TRNSCPTN | Transcription | PERCENTILE RANK | 0.37 | % | 0.37 | 0.37 | % | hs37d5 | 7 | ACTB | GENE WITH PROTEIN PRODUCT | ENST00000646664.1 | AH749754.fastq.gz | ACME | RNA | TARGETED TRANSCRIPTOME SEQUENCING | | 1 | VISIT 1 | 1 | 2018-09-04 | 2 |", "score": 0.8769, "match_basis": "verbatim_token+domain_route:GF"}, {"md_atom_id": "md_dmGF_ex_a059", "md_file": "knowledge_base/domains/GF/examples.md", "md_atom_type": "TABLE_ROW", "md_parent_section": "§GF.3 [Example 3]", "md_verbatim": "| 11 | ABC-123 | GF | 123101 | ACME GenePanel 250 | 11 | 2 | ABU3908A52 | AH749754 | TRNSCPTN | Transcription | PERCENTILE RANK | 0.99 | % | 0.99 | 0.99 | % | hs37d5 | 12 | GAPDH | GENE WITH PROTEIN PRODUCT | ENST00000396861.5 | AH749754.fastq.gz | ACME | RNA | TARGETED TRANSCRIPTOME SEQUENCING | | 1 | VISIT 1 | 1 | 2018-09-18 | 2 |", "score": 0.8463, "match_basis": "verbatim_token+domain_route:GF"}, {"md_atom_id": "md_dmGF_ex_a049", "md_file": "knowledge_base/domains/GF/examples.md", "md_atom_type": "TABLE_ROW", "md_parent_section": "§GF.3 [Example 3]", "md_verbatim": "| 1 | ABC-123 | GF | 123101 | ACME GenePanel 250 | 1 | 1 | ABU3908A52 | AH749754 | TRNSCPTN | Transcription | FRAGMENT COUNT | 36 | | 36 | 36 | | hs37d5 | 7 | ACTB | GENE WITH PROTEIN PRODUCT | ENST00000646664.1 | AH749754.fastq.gz | ACME | RNA | TARGETED TRANSCRIPTOME SEQUENCING | | 1 | VISIT 1 | 1 | 2018-09-04 | 2 |", "score": 0.808, "match_basis": "verbatim_token+domain_route:GF"}, {"md_atom_id": "md_dmGF_ex_a054", "md_file": "knowledge_base/domains/GF/examples.md", "md_atom_type": "TABLE_ROW", "md_parent_section": "§GF.3 [Example 3]", "md_verbatim": "| 6 | ABC-123 | GF | 123101 | ACME GenePanel 250 | 6 | 1 | ABU3908A52 | AH749754 | TRNSCPTN | Transcription | GENETIC TRANSCRIPTION INDICATOR | no | | no | | | hs37d5 | 7 | ACTB | GENE WITH PROTEIN PRODUCT | ENST00000646664.1 | AH749754.fastq.gz | ACME | RNA | TARGETED TRANSCRIPTOME SEQUENCING | | 1 | VISIT 1 | 1 | 2018-09-04 | 2 |", "score": 0.7969, "match_basis": "verbatim_token+domain_route:GF"}, {"md_atom_id": "md_dmGF_ex_a055", "md_file": "knowledge_base/domains/GF/examples.md", "md_atom_type": "TABLE_ROW", "md_parent_section": "§GF.3 [Example 3]", "md_verbatim": "| 7 | ABC-123 | GF | 123101 | ACME GenePanel 250 | 7 | 2 | ABU3908A52 | AH749754 | TRNSCPTN | Transcription | FRAGMENT COUNT | 23658 | | 23658 | 23658 | | hs37d5 | 12 | GAPDH | GENE WITH PROTEIN PRODUCT | ENST00000396861.5 | AH749754.fastq.gz | ACME | RNA | TARGETED TRANSCRIPTOME SEQUENCING | | 1 | VISIT 1 | 1 | 2018-09-18 | 2 |", "score": 0.7727, "match_basis": "verbatim_token+domain_route:GF"}], "candidate_count": 5, "zero_candidate": false}
{"pdf_atom_id": "ig34_p0226_a014", "pdf_atom_type": "TABLE_ROW", "pdf_source": "SDTMIG_v3.4", "pdf_page": 226, "pdf_parent_section": "§6.3.5.4 Genomics Findings (GF)", "pdf_verbatim": "| 6 | ABC-123 | GF | 123101 | 6 | | ABU3908AS2 | AH749754 | TRNSCPTN | Transcription | GENETIC TRANSCRIPTION INDICATOR | no | | no | | 1s37d5 | | ACTB | GENE WITH PROTEIN PRODUCT | ENST00000466554.1 | AH749754.fasta.gz | ACME | RNA | TARGETED TRANSCRIPTOME SEQUENCING | | 1 | VISIT 1 | | 2018-09-04 | 2 |", "figure_ref": "pdf_p226+middle", "candidates": [{"md_atom_id": "md_dmGF_ex_a054", "md_file": "knowledge_base/domains/GF/examples.md", "md_atom_type": "TABLE_ROW", "md_parent_section": "§GF.3 [Example 3]", "md_verbatim": "| 6 | ABC-123 | GF | 123101 | ACME GenePanel 250 | 6 | 1 | ABU3908A52 | AH749754 | TRNSCPTN | Transcription | GENETIC TRANSCRIPTION INDICATOR | no | | no | | | hs37d5 | 7 | ACTB | GENE WITH PROTEIN PRODUCT | ENST00000646664.1 | AH749754.fastq.gz | ACME | RNA | TARGETED TRANSCRIPTOME SEQUENCING | | 1 | VISIT 1 | 1 | 2018-09-04 | 2 |", "score": 0.878, "match_basis": "verbatim_token+domain_route:GF"}, {"md_atom_id": "md_dmGF_ex_a060", "md_file": "knowledge_base/domains/GF/examples.md", "md_atom_type": "TABLE_ROW", "md_parent_section": "§GF.3 [Example 3]", "md_verbatim": "| 12 | ABC-123 | GF | 123101 | ACME GenePanel 250 | 12 | 2 | ABU3908A52 | AH749754 | TRNSCPTN | Transcription | GENETIC TRANSCRIPTION INDICATOR | yes | | yes | | | hs37d5 | 12 | GAPDH | GENE WITH PROTEIN PRODUCT | ENST00000396861.5 | AH749754.fastq.gz | ACME | RNA | TARGETED TRANSCRIPTOME SEQUENCING | | 1 | VISIT 1 | 1 | 2018-09-18 | 2 |", "score": 0.8439, "match_basis": "verbatim_token+domain_route:GF"}, {"md_atom_id": "md_dmGF_ex_a049", "md_file": "knowledge_base/domains/GF/examples.md", "md_atom_type": "TABLE_ROW", "md_parent_section": "§GF.3 [Example 3]", "md_verbatim": "| 1 | ABC-123 | GF | 123101 | ACME GenePanel 250 | 1 | 1 | ABU3908A52 | AH749754 | TRNSCPTN | Transcription | FRAGMENT COUNT | 36 | | 36 | 36 | | hs37d5 | 7 | ACTB | GENE WITH PROTEIN PRODUCT | ENST00000646664.1 | AH749754.fastq.gz | ACME | RNA | TARGETED TRANSCRIPTOME SEQUENCING | | 1 | VISIT 1 | 1 | 2018-09-04 | 2 |", "score": 0.7969, "match_basis": "verbatim_token+domain_route:GF"}, {"md_atom_id": "md_dmGF_ex_a053", "md_file": "knowledge_base/domains/GF/examples.md", "md_atom_type": "TABLE_ROW", "md_parent_section": "§GF.3 [Example 3]", "md_verbatim": "| 5 | ABC-123 | GF | 123101 | ACME GenePanel 250 | 5 | 1 | ABU3908A52 | AH749754 | TRNSCPTN | Transcription | PERCENTILE RANK | 0.37 | % | 0.37 | 0.37 | % | hs37d5 | 7 | ACTB | GENE WITH PROTEIN PRODUCT | ENST00000646664.1 | AH749754.fastq.gz | ACME | RNA | TARGETED TRANSCRIPTOME SEQUENCING | | 1 | VISIT 1 | 1 | 2018-09-04 | 2 |", "score": 0.7969, "match_basis": "verbatim_token+domain_route:GF"}, {"md_atom_id": "md_dmGF_ex_a059", "md_file": "knowledge_base/domains/GF/examples.md", "md_atom_type": "TABLE_ROW", "md_parent_section": "§GF.3 [Example 3]", "md_verbatim": "| 11 | ABC-123 | GF | 123101 | ACME GenePanel 250 | 11 | 2 | ABU3908A52 | AH749754 | TRNSCPTN | Transcription | PERCENTILE RANK | 0.99 | % | 0.99 | 0.99 | % | hs37d5 | 12 | GAPDH | GENE WITH PROTEIN PRODUCT | ENST00000396861.5 | AH749754.fastq.gz | ACME | RNA | TARGETED TRANSCRIPTOME SEQUENCING | | 1 | VISIT 1 | 1 | 2018-09-18 | 2 |", "score": 0.771, "match_basis": "verbatim_token+domain_route:GF"}], "candidate_count": 5, "zero_candidate": false}
{"pdf_atom_id": "ig34_p0226_a015", "pdf_atom_type": "TABLE_ROW", "pdf_source": "SDTMIG_v3.4", "pdf_page": 226, "pdf_parent_section": "§6.3.5.4 Genomics Findings (GF)", "pdf_verbatim": "| 7 | ABC-123 | GF | 123101 | 7 | 2 | ABU3908AS2 | AH749754 | TRNSCPTN | Transcription | FRAGMENT COUNT | 23658 | | 23658 | | 1s37d5 | 12 | GAPDH | GENE WITH PROTEIN PRODUCT | ENST00000396615.5 | AH749754.fasta.gz | ACME | RNA | TARGETED TRANSCRIPTOME SEQUENCING | | 1 | VISIT 1 | | 2018-09-18 | 2 |", "figure_ref": "pdf_p226+middle", "candidates": [{"md_atom_id": "md_dmGF_ex_a055", "md_file": "knowledge_base/domains/GF/examples.md", "md_atom_type": "TABLE_ROW", "md_parent_section": "§GF.3 [Example 3]", "md_verbatim": "| 7 | ABC-123 | GF | 123101 | ACME GenePanel 250 | 7 | 2 | ABU3908A52 | AH749754 | TRNSCPTN | Transcription | FRAGMENT COUNT | 23658 | | 23658 | 23658 | | hs37d5 | 12 | GAPDH | GENE WITH PROTEIN PRODUCT | ENST00000396861.5 | AH749754.fastq.gz | ACME | RNA | TARGETED TRANSCRIPTOME SEQUENCING | | 1 | VISIT 1 | 1 | 2018-09-18 | 2 |", "score": 0.8992, "match_basis": "verbatim_token+domain_route:GF"}, {"md_atom_id": "md_dmGF_ex_a049", "md_file": "knowledge_base/domains/GF/examples.md", "md_atom_type": "TABLE_ROW", "md_parent_section": "§GF.3 [Example 3]", "md_verbatim": "| 1 | ABC-123 | GF | 123101 | ACME GenePanel 250 | 1 | 1 | ABU3908A52 | AH749754 | TRNSCPTN | Transcription | FRAGMENT COUNT | 36 | | 36 | 36 | | hs37d5 | 7 | ACTB | GENE WITH PROTEIN PRODUCT | ENST00000646664.1 | AH749754.fastq.gz | ACME | RNA | TARGETED TRANSCRIPTOME SEQUENCING | | 1 | VISIT 1 | 1 | 2018-09-04 | 2 |", "score": 0.8355, "match_basis": "verbatim_token+domain_route:GF"}, {"md_atom_id": "md_dmGF_ex_a059", "md_file": "knowledge_base/domains/GF/examples.md", "md_atom_type": "TABLE_ROW", "md_parent_section": "§GF.3 [Example 3]", "md_verbatim": "| 11 | ABC-123 | GF | 123101 | ACME GenePanel 250 | 11 | 2 | ABU3908A52 | AH749754 | TRNSCPTN | Transcription | PERCENTILE RANK | 0.99 | % | 0.99 | 0.99 | % | hs37d5 | 12 | GAPDH | GENE WITH PROTEIN PRODUCT | ENST00000396861.5 | AH749754.fastq.gz | ACME | RNA | TARGETED TRANSCRIPTOME SEQUENCING | | 1 | VISIT 1 | 1 | 2018-09-18 | 2 |", "score": 0.8157, "match_basis": "verbatim_token+domain_route:GF"}, {"md_atom_id": "md_dmGF_ex_a060", "md_file": "knowledge_base/domains/GF/examples.md", "md_atom_type": "TABLE_ROW", "md_parent_section": "§GF.3 [Example 3]", "md_verbatim": "| 12 | ABC-123 | GF | 123101 | ACME GenePanel 250 | 12 | 2 | ABU3908A52 | AH749754 | TRNSCPTN | Transcription | GENETIC TRANSCRIPTION INDICATOR | yes | | yes | | | hs37d5 | 12 | GAPDH | GENE WITH PROTEIN PRODUCT | ENST00000396861.5 | AH749754.fastq.gz | ACME | RNA | TARGETED TRANSCRIPTOME SEQUENCING | | 1 | VISIT 1 | 1 | 2018-09-18 | 2 |", "score": 0.8015, "match_basis": "verbatim_token+domain_route:GF"}, {"md_atom_id": "md_dmGF_ex_a057", "md_file": "knowledge_base/domains/GF/examples.md", "md_atom_type": "TABLE_ROW", "md_parent_section": "§GF.3 [Example 3]", "md_verbatim": "| 9 | ABC-123 | GF | 123101 | ACME GenePanel 250 | 9 | 2 | ABU3908A52 | AH749754 | TRNSCPTN | Transcription | NORMALIZED LEVEL | 691.5607 | /10^6 | 691.5607 | 691.5607 | /10^6 | hs37d5 | 12 | GAPDH | GENE WITH PROTEIN PRODUCT | ENST00000396861.5 | AH749754.fastq.gz | ACME | RNA | TARGETED TRANSCRIPTOME SEQUENCING | COUNTS PER MILLION FORMULA | 1 | VISIT 1 | 1 | 2018-09-18 | 2 |", "score": 0.7776, "match_basis": "verbatim_token+domain_route:GF"}], "candidate_count": 5, "zero_candidate": false}
{"pdf_atom_id": "ig34_p0226_a016", "pdf_atom_type": "TABLE_ROW", "pdf_source": "SDTMIG_v3.4", "pdf_page": 226, "pdf_parent_section": "§6.3.5.4 Genomics Findings (GF)", "pdf_verbatim": "| 8 | ABC-123 | GF | 123101 | 8 | 2 | ABU3908AS2 | AH749754 | TRNSCPTN | Transcription | NORMALIZED LEVEL | 148.6268 | -MBP | 148.6268 | 148.6268 | MBP | 1s37d5 | 12 | GAPDH | GENE WITH PROTEIN PRODUCT | ENST00000396615.5 | AH749754.fasta.gz | ACME | RNA | TARGETED TRANSCRIPTOME SEQUENCING | FRAGMENTS PER KILOBASE MILLION FORMULA | 1 | VISIT 1 | | 2018-09-18 | 2 |", "figure_ref": "pdf_p226+middle", "candidates": [{"md_atom_id": "md_dmGF_ex_a056", "md_file": "knowledge_base/domains/GF/examples.md", "md_atom_type": "TABLE_ROW", "md_parent_section": "§GF.3 [Example 3]", "md_verbatim": "| 8 | ABC-123 | GF | 123101 | ACME GenePanel 250 | 8 | 2 | ABU3908A52 | AH749754 | TRNSCPTN | Transcription | NORMALIZED LEVEL | 148.6268 | /MBP | 148.6268 | 148.6268 | /MBP | hs37d5 | 12 | GAPDH | GENE WITH PROTEIN PRODUCT | ENST00000396861.5 | AH749754.fastq.gz | ACME | RNA | TARGETED TRANSCRIPTOME SEQUENCING | FRAGMENTS PER KILOBASE MILLION FORMULA | 1 | VISIT 1 | 1 | 2018-09-18 | 2 |", "score": 0.9167, "match_basis": "verbatim_token+domain_route:GF"}, {"md_atom_id": "md_dmGF_ex_a050", "md_file": "knowledge_base/domains/GF/examples.md", "md_atom_type": "TABLE_ROW", "md_parent_section": "§GF.3 [Example 3]", "md_verbatim": "| 2 | ABC-123 | GF | 123101 | ACME GenePanel 250 | 2 | 1 | ABU3908A52 | AH749754 | TRNSCPTN | Transcription | NORMALIZED LEVEL | 0.5679 | /MBP | 0.5679 | 0.5679 | /MBP | hs37d5 | 7 | ACTB | GENE WITH PROTEIN PRODUCT | ENST00000646664.1 | AH749754.fastq.gz | ACME | RNA | TARGETED TRANSCRIPTOME SEQUENCING | FRAGMENTS PER KILOBASE MILLION FORMULA | 1 | VISIT 1 | 1 | 2018-09-04 | 2 |", "score": 0.857, "match_basis": "verbatim_token+domain_route:GF"}, {"md_atom_id": "md_dmGF_ex_a058", "md_file": "knowledge_base/domains/GF/examples.md", "md_atom_type": "TABLE_ROW", "md_parent_section": "§GF.3 [Example 3]", "md_verbatim": "| 10 | ABC-123 | GF | 123101 | ACME GenePanel 250 | 10 | 2 | ABU3908A52 | AH749754 | TRNSCPTN | Transcription | NORMALIZED LEVEL | 521.716 | /MBP | 521.716 | 521.716 | /MBP | hs37d5 | 12 | GAPDH | GENE WITH PROTEIN PRODUCT | ENST00000396861.5 | AH749754.fastq.gz | ACME | RNA | TARGETED TRANSCRIPTOME SEQUENCING | TRANSCRIPTS PER MILLION FORMULA | 1 | VISIT 1 | 1 | 2018-09-18 | 2 |", "score": 0.8408, "match_basis": "verbatim_token+domain_route:GF"}, {"md_atom_id": "md_dmGF_ex_a057", "md_file": "knowledge_base/domains/GF/examples.md", "md_atom_type": "TABLE_ROW", "md_parent_section": "§GF.3 [Example 3]", "md_verbatim": "| 9 | ABC-123 | GF | 123101 | ACME GenePanel 250 | 9 | 2 | ABU3908A52 | AH749754 | TRNSCPTN | Transcription | NORMALIZED LEVEL | 691.5607 | /10^6 | 691.5607 | 691.5607 | /10^6 | hs37d5 | 12 | GAPDH | GENE WITH PROTEIN PRODUCT | ENST00000396861.5 | AH749754.fastq.gz | ACME | RNA | TARGETED TRANSCRIPTOME SEQUENCING | COUNTS PER MILLION FORMULA | 1 | VISIT 1 | 1 | 2018-09-18 | 2 |", "score": 0.832, "match_basis": "verbatim_token+domain_route:GF"}, {"md_atom_id": "md_dmGF_ex_a052", "md_file": "knowledge_base/domains/GF/examples.md", "md_atom_type": "TABLE_ROW", "md_parent_section": "§GF.3 [Example 3]", "md_verbatim": "| 4 | ABC-123 | GF | 123101 | ACME GenePanel 250 | 4 | 1 | ABU3908A52 | AH749754 | TRNSCPTN | Transcription | NORMALIZED LEVEL | 1.9935 | /MBP | 1.9935 | 1.9935 | /MBP | hs37d5 | 7 | ACTB | GENE WITH PROTEIN PRODUCT | ENST00000646664.1 | AH749754.fastq.gz | ACME | RNA | TARGETED TRANSCRIPTOME SEQUENCING | TRANSCRIPTS PER MILLION FORMULA | 1 | VISIT 1 | 1 | 2018-09-04 | 2 |", "score": 0.8026, "match_basis": "verbatim_token+domain_route:GF"}], "candidate_count": 5, "zero_candidate": false}
{"pdf_atom_id": "ig34_p0226_a017", "pdf_atom_type": "TABLE_ROW", "pdf_source": "SDTMIG_v3.4", "pdf_page": 226, "pdf_parent_section": "§6.3.5.4 Genomics Findings (GF)", "pdf_verbatim": "| 9 | ABC-123 | GF | 123101 | 9 | 2 | ABU3908AS2 | AH749754 | TRNSCPTN | Transcription | NORMALIZED LEVEL | 691.5607 | 71P4 | 691.5607 | 691.5607 | 71P4 | 1s37d5 | 12 | GAPDH | GENE WITH PROTEIN PRODUCT | ENST00000396615.5 | AH749754.fasta.gz | ACME | RNA | TARGETED TRANSCRIPTOME SEQUENCING | COUNTS PER MILLION FORMULA | 1 | VISIT 1 | | 2018-09-18 | 2 |", "figure_ref": "pdf_p226+middle", "candidates": [{"md_atom_id": "md_dmGF_ex_a057", "md_file": "knowledge_base/domains/GF/examples.md", "md_atom_type": "TABLE_ROW", "md_parent_section": "§GF.3 [Example 3]", "md_verbatim": "| 9 | ABC-123 | GF | 123101 | ACME GenePanel 250 | 9 | 2 | ABU3908A52 | AH749754 | TRNSCPTN | Transcription | NORMALIZED LEVEL | 691.5607 | /10^6 | 691.5607 | 691.5607 | /10^6 | hs37d5 | 12 | GAPDH | GENE WITH PROTEIN PRODUCT | ENST00000396861.5 | AH749754.fastq.gz | ACME | RNA | TARGETED TRANSCRIPTOME SEQUENCING | COUNTS PER MILLION FORMULA | 1 | VISIT 1 | 1 | 2018-09-18 | 2 |", "score": 0.9029, "match_basis": "verbatim_token+domain_route:GF"}, {"md_atom_id": "md_dmGF_ex_a058", "md_file": "knowledge_base/domains/GF/examples.md", "md_atom_type": "TABLE_ROW", "md_parent_section": "§GF.3 [Example 3]", "md_verbatim": "| 10 | ABC-123 | GF | 123101 | ACME GenePanel 250 | 10 | 2 | ABU3908A52 | AH749754 | TRNSCPTN | Transcription | NORMALIZED LEVEL | 521.716 | /MBP | 521.716 | 521.716 | /MBP | hs37d5 | 12 | GAPDH | GENE WITH PROTEIN PRODUCT | ENST00000396861.5 | AH749754.fastq.gz | ACME | RNA | TARGETED TRANSCRIPTOME SEQUENCING | TRANSCRIPTS PER MILLION FORMULA | 1 | VISIT 1 | 1 | 2018-09-18 | 2 |", "score": 0.8586, "match_basis": "verbatim_token+domain_route:GF"}, {"md_atom_id": "md_dmGF_ex_a051", "md_file": "knowledge_base/domains/GF/examples.md", "md_atom_type": "TABLE_ROW", "md_parent_section": "§GF.3 [Example 3]", "md_verbatim": "| 3 | ABC-123 | GF | 123101 | ACME GenePanel 250 | 3 | 1 | ABU3908A52 | AH749754 | TRNSCPTN | Transcription | NORMALIZED LEVEL | 1.0523 | /10^6 | 1.0523 | 1.0523 | /10^6 | hs37d5 | 7 | ACTB | GENE WITH PROTEIN PRODUCT | ENST00000646664.1 | AH749754.fastq.gz | ACME | RNA | TARGETED TRANSCRIPTOME SEQUENCING | COUNTS PER MILLION FORMULA | 1 | VISIT 1 | 1 | 2018-09-04 | 2 |", "score": 0.8406, "match_basis": "verbatim_token+domain_route:GF"}, {"md_atom_id": "md_dmGF_ex_a056", "md_file": "knowledge_base/domains/GF/examples.md", "md_atom_type": "TABLE_ROW", "md_parent_section": "§GF.3 [Example 3]", "md_verbatim": "| 8 | ABC-123 | GF | 123101 | ACME GenePanel 250 | 8 | 2 | ABU3908A52 | AH749754 | TRNSCPTN | Transcription | NORMALIZED LEVEL | 148.6268 | /MBP | 148.6268 | 148.6268 | /MBP | hs37d5 | 12 | GAPDH | GENE WITH PROTEIN PRODUCT | ENST00000396861.5 | AH749754.fastq.gz | ACME | RNA | TARGETED TRANSCRIPTOME SEQUENCING | FRAGMENTS PER KILOBASE MILLION FORMULA | 1 | VISIT 1 | 1 | 2018-09-18 | 2 |", "score": 0.8263, "match_basis": "verbatim_token+domain_route:GF"}, {"md_atom_id": "md_dmGF_ex_a052", "md_file": "knowledge_base/domains/GF/examples.md", "md_atom_type": "TABLE_ROW", "md_parent_section": "§GF.3 [Example 3]", "md_verbatim": "| 4 | ABC-123 | GF | 123101 | ACME GenePanel 250 | 4 | 1 | ABU3908A52 | AH749754 | TRNSCPTN | Transcription | NORMALIZED LEVEL | 1.9935 | /MBP | 1.9935 | 1.9935 | /MBP | hs37d5 | 7 | ACTB | GENE WITH PROTEIN PRODUCT | ENST00000646664.1 | AH749754.fastq.gz | ACME | RNA | TARGETED TRANSCRIPTOME SEQUENCING | TRANSCRIPTS PER MILLION FORMULA | 1 | VISIT 1 | 1 | 2018-09-04 | 2 |", "score": 0.8179, "match_basis": "verbatim_token+domain_route:GF"}], "candidate_count": 5, "zero_candidate": false}
{"pdf_atom_id": "ig34_p0226_a018", "pdf_atom_type": "TABLE_ROW", "pdf_source": "SDTMIG_v3.4", "pdf_page": 226, "pdf_parent_section": "§6.3.5.4 Genomics Findings (GF)", "pdf_verbatim": "| 10 | ABC-123 | GF | 123101 | 10 | 2 | ABU3908AS2 | AH749754 | TRNSCPTN | Transcription | NORMALIZED LEVEL | 521.716 | -MBP | 521.716 | 521.716 | MBP | 1s37d5 | 12 | GAPDH | GENE WITH PROTEIN PRODUCT | ENST00000396615.5 | AH749754.fasta.gz | ACME | RNA | TARGETED TRANSCRIPTOME SEQUENCING | TRANSCRIPTS PER MILLION FORMULA | 1 | VISIT 1 | | 2018-09-18 | 2 |", "figure_ref": "pdf_p226+middle", "candidates": [{"md_atom_id": "md_dmGF_ex_a058", "md_file": "knowledge_base/domains/GF/examples.md", "md_atom_type": "TABLE_ROW", "md_parent_section": "§GF.3 [Example 3]", "md_verbatim": "| 10 | ABC-123 | GF | 123101 | ACME GenePanel 250 | 10 | 2 | ABU3908A52 | AH749754 | TRNSCPTN | Transcription | NORMALIZED LEVEL | 521.716 | /MBP | 521.716 | 521.716 | /MBP | hs37d5 | 12 | GAPDH | GENE WITH PROTEIN PRODUCT | ENST00000396861.5 | AH749754.fastq.gz | ACME | RNA | TARGETED TRANSCRIPTOME SEQUENCING | TRANSCRIPTS PER MILLION FORMULA | 1 | VISIT 1 | 1 | 2018-09-18 | 2 |", "score": 0.9084, "match_basis": "verbatim_token+domain_route:GF"}, {"md_atom_id": "md_dmGF_ex_a057", "md_file": "knowledge_base/domains/GF/examples.md", "md_atom_type": "TABLE_ROW", "md_parent_section": "§GF.3 [Example 3]", "md_verbatim": "| 9 | ABC-123 | GF | 123101 | ACME GenePanel 250 | 9 | 2 | ABU3908A52 | AH749754 | TRNSCPTN | Transcription | NORMALIZED LEVEL | 691.5607 | /10^6 | 691.5607 | 691.5607 | /10^6 | hs37d5 | 12 | GAPDH | GENE WITH PROTEIN PRODUCT | ENST00000396861.5 | AH749754.fastq.gz | ACME | RNA | TARGETED TRANSCRIPTOME SEQUENCING | COUNTS PER MILLION FORMULA | 1 | VISIT 1 | 1 | 2018-09-18 | 2 |", "score": 0.8652, "match_basis": "verbatim_token+domain_route:GF"}, {"md_atom_id": "md_dmGF_ex_a052", "md_file": "knowledge_base/domains/GF/examples.md", "md_atom_type": "TABLE_ROW", "md_parent_section": "§GF.3 [Example 3]", "md_verbatim": "| 4 | ABC-123 | GF | 123101 | ACME GenePanel 250 | 4 | 1 | ABU3908A52 | AH749754 | TRNSCPTN | Transcription | NORMALIZED LEVEL | 1.9935 | /MBP | 1.9935 | 1.9935 | /MBP | hs37d5 | 7 | ACTB | GENE WITH PROTEIN PRODUCT | ENST00000646664.1 | AH749754.fastq.gz | ACME | RNA | TARGETED TRANSCRIPTOME SEQUENCING | TRANSCRIPTS PER MILLION FORMULA | 1 | VISIT 1 | 1 | 2018-09-04 | 2 |", "score": 0.8478, "match_basis": "verbatim_token+domain_route:GF"}, {"md_atom_id": "md_dmGF_ex_a056", "md_file": "knowledge_base/domains/GF/examples.md", "md_atom_type": "TABLE_ROW", "md_parent_section": "§GF.3 [Example 3]", "md_verbatim": "| 8 | ABC-123 | GF | 123101 | ACME GenePanel 250 | 8 | 2 | ABU3908A52 | AH749754 | TRNSCPTN | Transcription | NORMALIZED LEVEL | 148.6268 | /MBP | 148.6268 | 148.6268 | /MBP | hs37d5 | 12 | GAPDH | GENE WITH PROTEIN PRODUCT | ENST00000396861.5 | AH749754.fastq.gz | ACME | RNA | TARGETED TRANSCRIPTOME SEQUENCING | FRAGMENTS PER KILOBASE MILLION FORMULA | 1 | VISIT 1 | 1 | 2018-09-18 | 2 |", "score": 0.8408, "match_basis": "verbatim_token+domain_route:GF"}, {"md_atom_id": "md_dmGF_ex_a051", "md_file": "knowledge_base/domains/GF/examples.md", "md_atom_type": "TABLE_ROW", "md_parent_section": "§GF.3 [Example 3]", "md_verbatim": "| 3 | ABC-123 | GF | 123101 | ACME GenePanel 250 | 3 | 1 | ABU3908A52 | AH749754 | TRNSCPTN | Transcription | NORMALIZED LEVEL | 1.0523 | /10^6 | 1.0523 | 1.0523 | /10^6 | hs37d5 | 7 | ACTB | GENE WITH PROTEIN PRODUCT | ENST00000646664.1 | AH749754.fastq.gz | ACME | RNA | TARGETED TRANSCRIPTOME SEQUENCING | COUNTS PER MILLION FORMULA | 1 | VISIT 1 | 1 | 2018-09-04 | 2 |", "score": 0.8268, "match_basis": "verbatim_token+domain_route:GF"}], "candidate_count": 5, "zero_candidate": false}
{"pdf_atom_id": "ig34_p0226_a019", "pdf_atom_type": "TABLE_ROW", "pdf_source": "SDTMIG_v3.4", "pdf_page": 226, "pdf_parent_section": "§6.3.5.4 Genomics Findings (GF)", "pdf_verbatim": "| 11 | ABC-123 | GF | 123101 | 11 | 2 | ABU3908AS2 | AH749754 | TRNSCPTN | Transcription | PERCENTILE RANK | 0.99 | % | 0.99 | 0.99 | % | 1s37d5 | 12 | GAPDH | GENE WITH PROTEIN PRODUCT | ENST00000396615.5 | AH749754.fasta.gz | ACME | RNA | TARGETED TRANSCRIPTOME SEQUENCING | | 1 | VISIT 1 | | 2018-09-18 | 2 |", "figure_ref": "pdf_p226+middle", "candidates": [{"md_atom_id": "md_dmGF_ex_a059", "md_file": "knowledge_base/domains/GF/examples.md", "md_atom_type": "TABLE_ROW", "md_parent_section": "§GF.3 [Example 3]", "md_verbatim": "| 11 | ABC-123 | GF | 123101 | ACME GenePanel 250 | 11 | 2 | ABU3908A52 | AH749754 | TRNSCPTN | Transcription | PERCENTILE RANK | 0.99 | % | 0.99 | 0.99 | % | hs37d5 | 12 | GAPDH | GENE WITH PROTEIN PRODUCT | ENST00000396861.5 | AH749754.fastq.gz | ACME | RNA | TARGETED TRANSCRIPTOME SEQUENCING | | 1 | VISIT 1 | 1 | 2018-09-18 | 2 |", "score": 0.8966, "match_basis": "verbatim_token+domain_route:GF"}, {"md_atom_id": "md_dmGF_ex_a053", "md_file": "knowledge_base/domains/GF/examples.md", "md_atom_type": "TABLE_ROW", "md_parent_section": "§GF.3 [Example 3]", "md_verbatim": "| 5 | ABC-123 | GF | 123101 | ACME GenePanel 250 | 5 | 1 | ABU3908A52 | AH749754 | TRNSCPTN | Transcription | PERCENTILE RANK | 0.37 | % | 0.37 | 0.37 | % | hs37d5 | 7 | ACTB | GENE WITH PROTEIN PRODUCT | ENST00000646664.1 | AH749754.fastq.gz | ACME | RNA | TARGETED TRANSCRIPTOME SEQUENCING | | 1 | VISIT 1 | 1 | 2018-09-04 | 2 |", "score": 0.8463, "match_basis": "verbatim_token+domain_route:GF"}, {"md_atom_id": "md_dmGF_ex_a055", "md_file": "knowledge_base/domains/GF/examples.md", "md_atom_type": "TABLE_ROW", "md_parent_section": "§GF.3 [Example 3]", "md_verbatim": "| 7 | ABC-123 | GF | 123101 | ACME GenePanel 250 | 7 | 2 | ABU3908A52 | AH749754 | TRNSCPTN | Transcription | FRAGMENT COUNT | 23658 | | 23658 | 23658 | | hs37d5 | 12 | GAPDH | GENE WITH PROTEIN PRODUCT | ENST00000396861.5 | AH749754.fastq.gz | ACME | RNA | TARGETED TRANSCRIPTOME SEQUENCING | | 1 | VISIT 1 | 1 | 2018-09-18 | 2 |", "score": 0.8157, "match_basis": "verbatim_token+domain_route:GF"}, {"md_atom_id": "md_dmGF_ex_a060", "md_file": "knowledge_base/domains/GF/examples.md", "md_atom_type": "TABLE_ROW", "md_parent_section": "§GF.3 [Example 3]", "md_verbatim": "| 12 | ABC-123 | GF | 123101 | ACME GenePanel 250 | 12 | 2 | ABU3908A52 | AH749754 | TRNSCPTN | Transcription | GENETIC TRANSCRIPTION INDICATOR | yes | | yes | | | hs37d5 | 12 | GAPDH | GENE WITH PROTEIN PRODUCT | ENST00000396861.5 | AH749754.fastq.gz | ACME | RNA | TARGETED TRANSCRIPTOME SEQUENCING | | 1 | VISIT 1 | 1 | 2018-09-18 | 2 |", "score": 0.811, "match_basis": "verbatim_token+domain_route:GF"}, {"md_atom_id": "md_dmGF_ex_a049", "md_file": "knowledge_base/domains/GF/examples.md", "md_atom_type": "TABLE_ROW", "md_parent_section": "§GF.3 [Example 3]", "md_verbatim": "| 1 | ABC-123 | GF | 123101 | ACME GenePanel 250 | 1 | 1 | ABU3908A52 | AH749754 | TRNSCPTN | Transcription | FRAGMENT COUNT | 36 | | 36 | 36 | | hs37d5 | 7 | ACTB | GENE WITH PROTEIN PRODUCT | ENST00000646664.1 | AH749754.fastq.gz | ACME | RNA | TARGETED TRANSCRIPTOME SEQUENCING | | 1 | VISIT 1 | 1 | 2018-09-04 | 2 |", "score": 0.7814, "match_basis": "verbatim_token+domain_route:GF"}], "candidate_count": 5, "zero_candidate": false}
{"pdf_atom_id": "ig34_p0226_a020", "pdf_atom_type": "TABLE_ROW", "pdf_source": "SDTMIG_v3.4", "pdf_page": 226, "pdf_parent_section": "§6.3.5.4 Genomics Findings (GF)", "pdf_verbatim": "| 12 | ABC-123 | GF | 123101 | 12 | 2 | ABU3908AS2 | AH749754 | TRNSCPTN | Transcription | GENETIC TRANSCRIPTION INDICATOR | yes | | yes | | 1s37d5 | 12 | GAPDH | GENE WITH PROTEIN PRODUCT | ENST00000396615.5 | AH749754.fasta.gz | ACME | RNA | TARGETED TRANSCRIPTOME SEQUENCING | | 1 | VISIT 1 | | 2018-09-18 | 2 |", "figure_ref": "pdf_p226+middle", "candidates": [{"md_atom_id": "md_dmGF_ex_a060", "md_file": "knowledge_base/domains/GF/examples.md", "md_atom_type": "TABLE_ROW", "md_parent_section": "§GF.3 [Example 3]", "md_verbatim": "| 12 | ABC-123 | GF | 123101 | ACME GenePanel 250 | 12 | 2 | ABU3908A52 | AH749754 | TRNSCPTN | Transcription | GENETIC TRANSCRIPTION INDICATOR | yes | | yes | | | hs37d5 | 12 | GAPDH | GENE WITH PROTEIN PRODUCT | ENST00000396861.5 | AH749754.fastq.gz | ACME | RNA | TARGETED TRANSCRIPTOME SEQUENCING | | 1 | VISIT 1 | 1 | 2018-09-18 | 2 |", "score": 0.8983, "match_basis": "verbatim_token+domain_route:GF"}, {"md_atom_id": "md_dmGF_ex_a054", "md_file": "knowledge_base/domains/GF/examples.md", "md_atom_type": "TABLE_ROW", "md_parent_section": "§GF.3 [Example 3]", "md_verbatim": "| 6 | ABC-123 | GF | 123101 | ACME GenePanel 250 | 6 | 1 | ABU3908A52 | AH749754 | TRNSCPTN | Transcription | GENETIC TRANSCRIPTION INDICATOR | no | | no | | | hs37d5 | 7 | ACTB | GENE WITH PROTEIN PRODUCT | ENST00000646664.1 | AH749754.fastq.gz | ACME | RNA | TARGETED TRANSCRIPTOME SEQUENCING | | 1 | VISIT 1 | 1 | 2018-09-04 | 2 |", "score": 0.8439, "match_basis": "verbatim_token+domain_route:GF"}, {"md_atom_id": "md_dmGF_ex_a059", "md_file": "knowledge_base/domains/GF/examples.md", "md_atom_type": "TABLE_ROW", "md_parent_section": "§GF.3 [Example 3]", "md_verbatim": "| 11 | ABC-123 | GF | 123101 | ACME GenePanel 250 | 11 | 2 | ABU3908A52 | AH749754 | TRNSCPTN | Transcription | PERCENTILE RANK | 0.99 | % | 0.99 | 0.99 | % | hs37d5 | 12 | GAPDH | GENE WITH PROTEIN PRODUCT | ENST00000396861.5 | AH749754.fastq.gz | ACME | RNA | TARGETED TRANSCRIPTOME SEQUENCING | | 1 | VISIT 1 | 1 | 2018-09-18 | 2 |", "score": 0.811, "match_basis": "verbatim_token+domain_route:GF"}, {"md_atom_id": "md_dmGF_ex_a055", "md_file": "knowledge_base/domains/GF/examples.md", "md_atom_type": "TABLE_ROW", "md_parent_section": "§GF.3 [Example 3]", "md_verbatim": "| 7 | ABC-123 | GF | 123101 | ACME GenePanel 250 | 7 | 2 | ABU3908A52 | AH749754 | TRNSCPTN | Transcription | FRAGMENT COUNT | 23658 | | 23658 | 23658 | | hs37d5 | 12 | GAPDH | GENE WITH PROTEIN PRODUCT | ENST00000396861.5 | AH749754.fastq.gz | ACME | RNA | TARGETED TRANSCRIPTOME SEQUENCING | | 1 | VISIT 1 | 1 | 2018-09-18 | 2 |", "score": 0.8015, "match_basis": "verbatim_token+domain_route:GF"}, {"md_atom_id": "md_dmGF_ex_a049", "md_file": "knowledge_base/domains/GF/examples.md", "md_atom_type": "TABLE_ROW", "md_parent_section": "§GF.3 [Example 3]", "md_verbatim": "| 1 | ABC-123 | GF | 123101 | ACME GenePanel 250 | 1 | 1 | ABU3908A52 | AH749754 | TRNSCPTN | Transcription | FRAGMENT COUNT | 36 | | 36 | 36 | | hs37d5 | 7 | ACTB | GENE WITH PROTEIN PRODUCT | ENST00000646664.1 | AH749754.fastq.gz | ACME | RNA | TARGETED TRANSCRIPTOME SEQUENCING | | 1 | VISIT 1 | 1 | 2018-09-04 | 2 |", "score": 0.7682, "match_basis": "verbatim_token+domain_route:GF"}], "candidate_count": 5, "zero_candidate": false}
{"pdf_atom_id": "ig34_p0226_a021", "pdf_atom_type": "TABLE_ROW", "pdf_source": "SDTMIG_v3.4", "pdf_page": 226, "pdf_parent_section": "§6.3.5.4 Genomics Findings (GF)", "pdf_verbatim": "| 13 | ABC-123 | GF | 123101 | 13 | 3 | ABC1234567 | AP483910 | TRNSCPTN | Transcription | NORMALIZED LEVEL | 0.056299177 | | 0.056299177 | 0.056299177 | | GRCH38g12 | | ACTB | GENE WITH PROTEIN PRODUCT | NM_001101.5 | | ACME | RNA | TARGETED TRANSCRIPTOME SEQUENCING | DIFFERENCES OF LOG2 INTENSITIES FORMULA | 1 | VISIT 1 | | 2018-09-18 | 2 |", "figure_ref": "pdf_p226+middle", "candidates": [{"md_atom_id": "md_dmGF_ex_a061", "md_file": "knowledge_base/domains/GF/examples.md", "md_atom_type": "TABLE_ROW", "md_parent_section": "§GF.3 [Example 3]", "md_verbatim": "| 13 | ABC-123 | GF | 123101 | ACME GenePanel 250 | 13 | 1 | ABC1234567 | AP483910 | TRNSCPTN | Transcription | NORMALIZED LEVEL | -0.056299177 | | -0.056299177 | -0.056299177 | | GRCh38.p12 | | ACTB | GENE WITH PROTEIN PRODUCT | NM_001101.5 | | ACME | RNA | TARGETED TRANSCRIPTOME SEQUENCING | DIFFERENCES OF LOG2 INTENSITIES FORMULA | 1 | VISIT 1 | 1 | 2018-09-18 | 2 |", "score": 0.9538, "match_basis": "verbatim_token+domain_route:GF"}, {"md_atom_id": "md_dmGF_ex_a062", "md_file": "knowledge_base/domains/GF/examples.md", "md_atom_type": "TABLE_ROW", "md_parent_section": "§GF.3 [Example 3]", "md_verbatim": "| 14 | ABC-123 | GF | 123101 | ACME GenePanel 250 | 14 | 1 | ABC1234567 | AP483910 | TRNSCPTN | Transcription | NORMALIZED LEVEL | -0.046787999 | | -0.046787999 | -0.046787999 | | GRCh38.p12 | | GAPDH | GENE WITH PROTEIN PRODUCT | NM_001256799.3 | | ACME | RNA | TARGETED TRANSCRIPTOME SEQUENCING | DIFFERENCES OF LOG2 INTENSITIES FORMULA | 1 | VISIT 1 | 1 | 2018-09-18 | 2 |", "score": 0.8542, "match_basis": "verbatim_token+domain_route:GF"}, {"md_atom_id": "md_dmGF_ex_a063", "md_file": "knowledge_base/domains/GF/examples.md", "md_atom_type": "TABLE_ROW", "md_parent_section": "§GF.3 [Example 3]", "md_verbatim": "| 15 | ABC-123 | GF | 123101 | ACME GenePanel 250 | 15 | 2 | ABC1234567 | AP483910 | GENESIG | Gene Signature | GENETIC TRANSCRIPTION INTERPRETATION | LOW | | LOW | | | GRCh38.p12 | | ACTB | GENE WITH PROTEIN PRODUCT | NM_001101.5 | | ACME | RNA | TARGETED TRANSCRIPTOME SEQUENCING | IFN-1 GENE SIGNATURE | 1 | VISIT 1 | 1 | 2018-09-18 | 2 |", "score": 0.7039, "match_basis": "verbatim_token+domain_route:GF"}, {"md_atom_id": "md_dmGF_ex_a064", "md_file": "knowledge_base/domains/GF/examples.md", "md_atom_type": "TABLE_ROW", "md_parent_section": "§GF.3 [Example 3]", "md_verbatim": "| 16 | ABC-123 | GF | 123101 | ACME GenePanel 250 | 16 | 3 | ABC1234567 | AP483910 | GENESIG | Gene Signature | SCORE | -1.126819661 | | -1.126819661 | -1.126819661 | | GRCh38.p12 | | ACTB | GENE WITH PROTEIN PRODUCT | NM_001101.5 | | ACME | RNA | TARGETED TRANSCRIPTOME SEQUENCING | IFN-1 GENE SIGNATURE | 1 | VISIT 1 | 1 | 2018-09-18 | 2 |", "score": 0.688, "match_basis": "verbatim_token+domain_route:GF"}, {"md_atom_id": "md_dmGF_ex_a052", "md_file": "knowledge_base/domains/GF/examples.md", "md_atom_type": "TABLE_ROW", "md_parent_section": "§GF.3 [Example 3]", "md_verbatim": "| 4 | ABC-123 | GF | 123101 | ACME GenePanel 250 | 4 | 1 | ABU3908A52 | AH749754 | TRNSCPTN | Transcription | NORMALIZED LEVEL | 1.9935 | /MBP | 1.9935 | 1.9935 | /MBP | hs37d5 | 7 | ACTB | GENE WITH PROTEIN PRODUCT | ENST00000646664.1 | AH749754.fastq.gz | ACME | RNA | TARGETED TRANSCRIPTOME SEQUENCING | TRANSCRIPTS PER MILLION FORMULA | 1 | VISIT 1 | 1 | 2018-09-04 | 2 |", "score": 0.6734, "match_basis": "verbatim_token+domain_route:GF"}], "candidate_count": 5, "zero_candidate": false}
{"pdf_atom_id": "ig34_p0226_a022", "pdf_atom_type": "TABLE_ROW", "pdf_source": "SDTMIG_v3.4", "pdf_page": 226, "pdf_parent_section": "§6.3.5.4 Genomics Findings (GF)", "pdf_verbatim": "| 14 | ABC-123 | GF | 123101 | 14 | 3 | ABC1234567 | AP483910 | TRNSCPTN | Transcription | NORMALIZED LEVEL | 0.046787999 | | 0.046787999 | 0.046787999 | | GRCH38g12 | GAPDH | GENE WITH PROTEIN PRODUCT | NM_001256799.3 | | ACME | RNA | TARGETED TRANSCRIPTOME SEQUENCING | DIFFERENCES OF LOG2 INTENSITIES FORMULA | 1 | VISIT 1 | | 2018-09-18 | 2 |", "figure_ref": "pdf_p226+middle", "candidates": [{"md_atom_id": "md_dmGF_ex_a062", "md_file": "knowledge_base/domains/GF/examples.md", "md_atom_type": "TABLE_ROW", "md_parent_section": "§GF.3 [Example 3]", "md_verbatim": "| 14 | ABC-123 | GF | 123101 | ACME GenePanel 250 | 14 | 1 | ABC1234567 | AP483910 | TRNSCPTN | Transcription | NORMALIZED LEVEL | -0.046787999 | | -0.046787999 | -0.046787999 | | GRCh38.p12 | | GAPDH | GENE WITH PROTEIN PRODUCT | NM_001256799.3 | | ACME | RNA | TARGETED TRANSCRIPTOME SEQUENCING | DIFFERENCES OF LOG2 INTENSITIES FORMULA | 1 | VISIT 1 | 1 | 2018-09-18 | 2 |", "score": 0.9549, "match_basis": "verbatim_token+domain_route:GF"}, {"md_atom_id": "md_dmGF_ex_a061", "md_file": "knowledge_base/domains/GF/examples.md", "md_atom_type": "TABLE_ROW", "md_parent_section": "§GF.3 [Example 3]", "md_verbatim": "| 13 | ABC-123 | GF | 123101 | ACME GenePanel 250 | 13 | 1 | ABC1234567 | AP483910 | TRNSCPTN | Transcription | NORMALIZED LEVEL | -0.056299177 | | -0.056299177 | -0.056299177 | | GRCh38.p12 | | ACTB | GENE WITH PROTEIN PRODUCT | NM_001101.5 | | ACME | RNA | TARGETED TRANSCRIPTOME SEQUENCING | DIFFERENCES OF LOG2 INTENSITIES FORMULA | 1 | VISIT 1 | 1 | 2018-09-18 | 2 |", "score": 0.8542, "match_basis": "verbatim_token+domain_route:GF"}, {"md_atom_id": "md_dmGF_ex_a063", "md_file": "knowledge_base/domains/GF/examples.md", "md_atom_type": "TABLE_ROW", "md_parent_section": "§GF.3 [Example 3]", "md_verbatim": "| 15 | ABC-123 | GF | 123101 | ACME GenePanel 250 | 15 | 2 | ABC1234567 | AP483910 | GENESIG | Gene Signature | GENETIC TRANSCRIPTION INTERPRETATION | LOW | | LOW | | | GRCh38.p12 | | ACTB | GENE WITH PROTEIN PRODUCT | NM_001101.5 | | ACME | RNA | TARGETED TRANSCRIPTOME SEQUENCING | IFN-1 GENE SIGNATURE | 1 | VISIT 1 | 1 | 2018-09-18 | 2 |", "score": 0.6755, "match_basis": "verbatim_token+domain_route:GF"}, {"md_atom_id": "md_dmGF_ex_a058", "md_file": "knowledge_base/domains/GF/examples.md", "md_atom_type": "TABLE_ROW", "md_parent_section": "§GF.3 [Example 3]", "md_verbatim": "| 10 | ABC-123 | GF | 123101 | ACME GenePanel 250 | 10 | 2 | ABU3908A52 | AH749754 | TRNSCPTN | Transcription | NORMALIZED LEVEL | 521.716 | /MBP | 521.716 | 521.716 | /MBP | hs37d5 | 12 | GAPDH | GENE WITH PROTEIN PRODUCT | ENST00000396861.5 | AH749754.fastq.gz | ACME | RNA | TARGETED TRANSCRIPTOME SEQUENCING | TRANSCRIPTS PER MILLION FORMULA | 1 | VISIT 1 | 1 | 2018-09-18 | 2 |", "score": 0.6721, "match_basis": "verbatim_token+domain_route:GF"}, {"md_atom_id": "md_dmGF_ex_a057", "md_file": "knowledge_base/domains/GF/examples.md", "md_atom_type": "TABLE_ROW", "md_parent_section": "§GF.3 [Example 3]", "md_verbatim": "| 9 | ABC-123 | GF | 123101 | ACME GenePanel 250 | 9 | 2 | ABU3908A52 | AH749754 | TRNSCPTN | Transcription | NORMALIZED LEVEL | 691.5607 | /10^6 | 691.5607 | 691.5607 | /10^6 | hs37d5 | 12 | GAPDH | GENE WITH PROTEIN PRODUCT | ENST00000396861.5 | AH749754.fastq.gz | ACME | RNA | TARGETED TRANSCRIPTOME SEQUENCING | COUNTS PER MILLION FORMULA | 1 | VISIT 1 | 1 | 2018-09-18 | 2 |", "score": 0.6674, "match_basis": "verbatim_token+domain_route:GF"}], "candidate_count": 5, "zero_candidate": false}
{"pdf_atom_id": "ig34_p0226_a023", "pdf_atom_type": "TABLE_ROW", "pdf_source": "SDTMIG_v3.4", "pdf_page": 226, "pdf_parent_section": "§6.3.5.4 Genomics Findings (GF)", "pdf_verbatim": "| 15 | ABC-123 | GF | 123101 | 15 | 2 | ABC1234567 | AP483910 | GENESIG | Gene Signature | GENETIC TRANSCRIPTION INDICATOR | LOW | | LOW | | GRCH38g12 | | ACTB | GENE WITH PROTEIN PRODUCT | NM_001101.5 | | ACME | RNA | TARGETED TRANSCRIPTOME SEQUENCING | GENE SIGNATURE | 1 | VISIT 1 | | 2018-09-18 | 2 |", "figure_ref": "pdf_p226+middle", "candidates": [{"md_atom_id": "md_dmGF_ex_a063", "md_file": "knowledge_base/domains/GF/examples.md", "md_atom_type": "TABLE_ROW", "md_parent_section": "§GF.3 [Example 3]", "md_verbatim": "| 15 | ABC-123 | GF | 123101 | ACME GenePanel 250 | 15 | 2 | ABC1234567 | AP483910 | GENESIG | Gene Signature | GENETIC TRANSCRIPTION INTERPRETATION | LOW | | LOW | | | GRCh38.p12 | | ACTB | GENE WITH PROTEIN PRODUCT | NM_001101.5 | | ACME | RNA | TARGETED TRANSCRIPTOME SEQUENCING | IFN-1 GENE SIGNATURE | 1 | VISIT 1 | 1 | 2018-09-18 | 2 |", "score": 0.8552, "match_basis": "verbatim_token+domain_route:GF"}, {"md_atom_id": "md_dmGF_ex_a064", "md_file": "knowledge_base/domains/GF/examples.md", "md_atom_type": "TABLE_ROW", "md_parent_section": "§GF.3 [Example 3]", "md_verbatim": "| 16 | ABC-123 | GF | 123101 | ACME GenePanel 250 | 16 | 3 | ABC1234567 | AP483910 | GENESIG | Gene Signature | SCORE | -1.126819661 | | -1.126819661 | -1.126819661 | | GRCh38.p12 | | ACTB | GENE WITH PROTEIN PRODUCT | NM_001101.5 | | ACME | RNA | TARGETED TRANSCRIPTOME SEQUENCING | IFN-1 GENE SIGNATURE | 1 | VISIT 1 | 1 | 2018-09-18 | 2 |", "score": 0.819, "match_basis": "verbatim_token+domain_route:GF"}, {"md_atom_id": "md_dmGF_ex_a061", "md_file": "knowledge_base/domains/GF/examples.md", "md_atom_type": "TABLE_ROW", "md_parent_section": "§GF.3 [Example 3]", "md_verbatim": "| 13 | ABC-123 | GF | 123101 | ACME GenePanel 250 | 13 | 1 | ABC1234567 | AP483910 | TRNSCPTN | Transcription | NORMALIZED LEVEL | -0.056299177 | | -0.056299177 | -0.056299177 | | GRCh38.p12 | | ACTB | GENE WITH PROTEIN PRODUCT | NM_001101.5 | | ACME | RNA | TARGETED TRANSCRIPTOME SEQUENCING | DIFFERENCES OF LOG2 INTENSITIES FORMULA | 1 | VISIT 1 | 1 | 2018-09-18 | 2 |", "score": 0.7, "match_basis": "verbatim_token+domain_route:GF"}, {"md_atom_id": "md_dmGF_ex_a054", "md_file": "knowledge_base/domains/GF/examples.md", "md_atom_type": "TABLE_ROW", "md_parent_section": "§GF.3 [Example 3]", "md_verbatim": "| 6 | ABC-123 | GF | 123101 | ACME GenePanel 250 | 6 | 1 | ABU3908A52 | AH749754 | TRNSCPTN | Transcription | GENETIC TRANSCRIPTION INDICATOR | no | | no | | | hs37d5 | 7 | ACTB | GENE WITH PROTEIN PRODUCT | ENST00000646664.1 | AH749754.fastq.gz | ACME | RNA | TARGETED TRANSCRIPTOME SEQUENCING | | 1 | VISIT 1 | 1 | 2018-09-04 | 2 |", "score": 0.6809, "match_basis": "verbatim_token+domain_route:GF"}, {"md_atom_id": "md_dmGF_ex_a062", "md_file": "knowledge_base/domains/GF/examples.md", "md_atom_type": "TABLE_ROW", "md_parent_section": "§GF.3 [Example 3]", "md_verbatim": "| 14 | ABC-123 | GF | 123101 | ACME GenePanel 250 | 14 | 1 | ABC1234567 | AP483910 | TRNSCPTN | Transcription | NORMALIZED LEVEL | -0.046787999 | | -0.046787999 | -0.046787999 | | GRCh38.p12 | | GAPDH | GENE WITH PROTEIN PRODUCT | NM_001256799.3 | | ACME | RNA | TARGETED TRANSCRIPTOME SEQUENCING | DIFFERENCES OF LOG2 INTENSITIES FORMULA | 1 | VISIT 1 | 1 | 2018-09-18 | 2 |", "score": 0.6713, "match_basis": "verbatim_token+domain_route:GF"}], "candidate_count": 5, "zero_candidate": false}
{"pdf_atom_id": "ig34_p0226_a024", "pdf_atom_type": "TABLE_ROW", "pdf_source": "SDTMIG_v3.4", "pdf_page": 226, "pdf_parent_section": "§6.3.5.4 Genomics Findings (GF)", "pdf_verbatim": "| 16 | ABC-123 | GF | 123101 | 16 | 3 | ABC1234567 | AP483910 | GENESIG | Gene Signature | GENETIC TRANSCRIPTION SCORE | | | 1.120819661 | 1.120819661 | | GRCH38g12 | | ACTB | GENE WITH PROTEIN PRODUCT | NM_001101.5 | | ACME | RNA | TARGETED TRANSCRIPTOME SEQUENCING | 8N-1 GENE SIGNATURE | 1 | VISIT 1 | | 2018-09-18 | 2 |", "figure_ref": "pdf_p226+middle", "candidates": [{"md_atom_id": "md_dmGF_ex_a064", "md_file": "knowledge_base/domains/GF/examples.md", "md_atom_type": "TABLE_ROW", "md_parent_section": "§GF.3 [Example 3]", "md_verbatim": "| 16 | ABC-123 | GF | 123101 | ACME GenePanel 250 | 16 | 3 | ABC1234567 | AP483910 | GENESIG | Gene Signature | SCORE | -1.126819661 | | -1.126819661 | -1.126819661 | | GRCh38.p12 | | ACTB | GENE WITH PROTEIN PRODUCT | NM_001101.5 | | ACME | RNA | TARGETED TRANSCRIPTOME SEQUENCING | IFN-1 GENE SIGNATURE | 1 | VISIT 1 | 1 | 2018-09-18 | 2 |", "score": 0.8757, "match_basis": "verbatim_token+domain_route:GF"}, {"md_atom_id": "md_dmGF_ex_a063", "md_file": "knowledge_base/domains/GF/examples.md", "md_atom_type": "TABLE_ROW", "md_parent_section": "§GF.3 [Example 3]", "md_verbatim": "| 15 | ABC-123 | GF | 123101 | ACME GenePanel 250 | 15 | 2 | ABC1234567 | AP483910 | GENESIG | Gene Signature | GENETIC TRANSCRIPTION INTERPRETATION | LOW | | LOW | | | GRCh38.p12 | | ACTB | GENE WITH PROTEIN PRODUCT | NM_001101.5 | | ACME | RNA | TARGETED TRANSCRIPTOME SEQUENCING | IFN-1 GENE SIGNATURE | 1 | VISIT 1 | 1 | 2018-09-18 | 2 |", "score": 0.8387, "match_basis": "verbatim_token+domain_route:GF"}, {"md_atom_id": "md_dmGF_ex_a061", "md_file": "knowledge_base/domains/GF/examples.md", "md_atom_type": "TABLE_ROW", "md_parent_section": "§GF.3 [Example 3]", "md_verbatim": "| 13 | ABC-123 | GF | 123101 | ACME GenePanel 250 | 13 | 1 | ABC1234567 | AP483910 | TRNSCPTN | Transcription | NORMALIZED LEVEL | -0.056299177 | | -0.056299177 | -0.056299177 | | GRCh38.p12 | | ACTB | GENE WITH PROTEIN PRODUCT | NM_001101.5 | | ACME | RNA | TARGETED TRANSCRIPTOME SEQUENCING | DIFFERENCES OF LOG2 INTENSITIES FORMULA | 1 | VISIT 1 | 1 | 2018-09-18 | 2 |", "score": 0.6961, "match_basis": "verbatim_token+domain_route:GF"}, {"md_atom_id": "md_dmGF_ex_a062", "md_file": "knowledge_base/domains/GF/examples.md", "md_atom_type": "TABLE_ROW", "md_parent_section": "§GF.3 [Example 3]", "md_verbatim": "| 14 | ABC-123 | GF | 123101 | ACME GenePanel 250 | 14 | 1 | ABC1234567 | AP483910 | TRNSCPTN | Transcription | NORMALIZED LEVEL | -0.046787999 | | -0.046787999 | -0.046787999 | | GRCh38.p12 | | GAPDH | GENE WITH PROTEIN PRODUCT | NM_001256799.3 | | ACME | RNA | TARGETED TRANSCRIPTOME SEQUENCING | DIFFERENCES OF LOG2 INTENSITIES FORMULA | 1 | VISIT 1 | 1 | 2018-09-18 | 2 |", "score": 0.6679, "match_basis": "verbatim_token+domain_route:GF"}, {"md_atom_id": "md_dmGF_ex_a054", "md_file": "knowledge_base/domains/GF/examples.md", "md_atom_type": "TABLE_ROW", "md_parent_section": "§GF.3 [Example 3]", "md_verbatim": "| 6 | ABC-123 | GF | 123101 | ACME GenePanel 250 | 6 | 1 | ABU3908A52 | AH749754 | TRNSCPTN | Transcription | GENETIC TRANSCRIPTION INDICATOR | no | | no | | | hs37d5 | 7 | ACTB | GENE WITH PROTEIN PRODUCT | ENST00000646664.1 | AH749754.fastq.gz | ACME | RNA | TARGETED TRANSCRIPTOME SEQUENCING | | 1 | VISIT 1 | 1 | 2018-09-04 | 2 |", "score": 0.636, "match_basis": "verbatim_token+domain_route:GF"}], "candidate_count": 5, "zero_candidate": false}
{"pdf_atom_id": "ig34_p0226_a025", "pdf_atom_type": "SENTENCE", "pdf_source": "SDTMIG_v3.4", "pdf_page": 226, "pdf_parent_section": "§6.3.5.4 Genomics Findings (GF)", "pdf_verbatim": "Identifying information for the gene panel used to generate the result is in the DI domain. The gene panel is represented in SDTM, as the panel used as part of the wet laboratory methodology may change and affects interpretation of the result. The platform in which the gene panel was used is not represented, because it does not provide additional context for the result.", "figure_ref": null, "candidates": [{"md_atom_id": "md_dmGF_ex_a024", "md_file": "knowledge_base/domains/GF/examples.md", "md_atom_type": "SENTENCE", "md_parent_section": "§GF.1 [Example 1]", "md_verbatim": "Identifying information for the gene panel used to generate the result is in the DI domain. The gene panel is represented in SDTM, as the panel used as part of the wet laboratory methodology may change and affects interpretation of the result. The platform in which the gene panel was used is not represented, because it does not provide additional context for the result.", "score": 1.0, "match_basis": "verbatim_token+domain_route:GF"}, {"md_atom_id": "md_dmGF_ex_a065", "md_file": "knowledge_base/domains/GF/examples.md", "md_atom_type": "SENTENCE", "md_parent_section": "§GF.3 [Example 3]", "md_verbatim": "Identifying information for the gene panel used to generate the result is in the DI domain. The gene panel is represented in SDTM, as the panel used as part of the wet laboratory methodology may change and affects interpretation of the result. The platform in which the gene panel was used is not represented, because it does not provide additional context for the result.", "score": 1.0, "match_basis": "verbatim_token+domain_route:GF"}, {"md_atom_id": "md_dmGF_ex_a040", "md_file": "knowledge_base/domains/GF/examples.md", "md_atom_type": "SENTENCE", "md_parent_section": "§GF.3 [Example 3]", "md_verbatim": "This example shows transcription levels of genes ACTB and GAPDH and summarized scores from the transcription levels. Transcription levels and scores were determined using biocomputational analysis with wet laboratory methodology targeted transcriptome sequencing. Specific formulas used in biocomputational analyses to generate normalized and summarized score results are respresented when applicable.", "score": 0.528, "match_basis": "verbatim_token+domain_route:GF"}, {"md_atom_id": "md_dmGF_ex_a085", "md_file": "knowledge_base/domains/GF/examples.md", "md_atom_type": "SENTENCE", "md_parent_section": "§GF.5 [Example 5]", "md_verbatim": "Tests that diagnose or identify the presence of an infectious agent in a subject sample are represented in the MB domain, regardless of the methodology used. In this example, the subject was diagnosed with influenza A H3N2 via a nucleic acid amplification test (NAAT) at the baseline visit. MBTEST = \"Microbial Organism Identification\" because the assay does not specifically test for the presence of 1 organism or subtype to the exclusion of all others.", "score": 0.5227, "match_basis": "verbatim_token+domain_route:GF"}, {"md_atom_id": "md_dmGF_ex_a030", "md_file": "knowledge_base/domains/GF/examples.md", "md_atom_type": "SENTENCE", "md_parent_section": "§GF.2 [Example 2]", "md_verbatim": "This example shows findings from an assessment of a known single nucleotide variant in gene ABCG2 using wet laboratory methodology real-time polymerase chain reaction. Findings from this assessment show the genotypes from DNA extracted from the blood of 3 individuals, each with a different genotype at the genetic locus of interest. Because the DNA specimen was extracted from normal blood, the inheritability of the variation is considered to be in the germline.", "score": 0.521, "match_basis": "verbatim_token+domain_route:GF"}], "candidate_count": 5, "zero_candidate": false}
{"pdf_atom_id": "ig34_p0226_a026", "pdf_atom_type": "SENTENCE", "pdf_source": "SDTMIG_v3.4", "pdf_page": 226, "pdf_parent_section": "§6.3.5.4 Genomics Findings (GF)", "pdf_verbatim": "The DI example shows the device type and manufacturer for the device identified as ACME GenePanel 250.", "figure_ref": null, "candidates": [{"md_atom_id": "md_dmGF_ex_a066", "md_file": "knowledge_base/domains/GF/examples.md", "md_atom_type": "SENTENCE", "md_parent_section": "§GF.3 [Example 3]", "md_verbatim": "The DI example shows the device type and manufacturer for the device identified as ACME GenePanel 250.", "score": 1.0, "match_basis": "verbatim_token+domain_route:GF"}, {"md_atom_id": "md_dmGF_ex_a043", "md_file": "knowledge_base/domains/GF/examples.md", "md_atom_type": "SENTENCE", "md_parent_section": "§GF.3 [Example 3]", "md_verbatim": "**Rows 5, 11:** Show the percentile rank of the indicated gene among those genes reported in the indicated panel.", "score": 0.4904, "match_basis": "verbatim_token+domain_route:GF"}, {"md_atom_id": "md_dmGF_ex_a106", "md_file": "knowledge_base/domains/GF/examples.md", "md_atom_type": "SENTENCE", "md_parent_section": "§GF.5 [Example 5]", "md_verbatim": "The relrec dataset example shows the relationship between the genetic assessment in GF and the resistance/susceptibility data in MS.", "score": 0.4796, "match_basis": "verbatim_token+domain_route:GF"}, {"md_atom_id": "md_dmGF_ex_a070", "md_file": "knowledge_base/domains/GF/examples.md", "md_atom_type": "TABLE_ROW", "md_parent_section": "§GF.3 [Example 3]", "md_verbatim": "| 2 | ABC-123 | DI | ACME GenePanel 250 | 2 | MANUF | Manufacturer | ACME |", "score": 0.4753, "match_basis": "verbatim_token+domain_route:GF"}, {"md_atom_id": "md_dmGF_ex_a007", "md_file": "knowledge_base/domains/GF/examples.md", "md_atom_type": "SENTENCE", "md_parent_section": "§GF.1 [Example 1]", "md_verbatim": "**Row 4:** Shows the number of times the locus specified in variables GFCHROM and GFGENLOC was observed.", "score": 0.4651, "match_basis": "verbatim_token+domain_route:GF"}], "candidate_count": 5, "zero_candidate": false}
{"pdf_atom_id": "ig34_p0226_a027", "pdf_atom_type": "CODE_LITERAL", "pdf_source": "SDTMIG_v3.4", "pdf_page": 226, "pdf_parent_section": "§6.3.5.4 Genomics Findings (GF)", "pdf_verbatim": "di.xpt", "figure_ref": null, "candidates": [{"md_atom_id": "md_dmGF_ex_a013", "md_file": "knowledge_base/domains/GF/examples.md", "md_atom_type": "SENTENCE", "md_parent_section": "§GF.1 [Example 1]", "md_verbatim": "**gf.xpt**", "score": 0.79, "match_basis": "verbatim_token+domain_route:GF"}, {"md_atom_id": "md_dmGF_ex_a025", "md_file": "knowledge_base/domains/GF/examples.md", "md_atom_type": "SENTENCE", "md_parent_section": "§GF.1 [Example 1]", "md_verbatim": "**di.xpt**", "score": 0.79, "match_basis": "verbatim_token+domain_route:GF"}, {"md_atom_id": "md_dmGF_ex_a034", "md_file": "knowledge_base/domains/GF/examples.md", "md_atom_type": "SENTENCE", "md_parent_section": "§GF.2 [Example 2]", "md_verbatim": "**gf.xpt**", "score": 0.79, "match_basis": "verbatim_token+domain_route:GF"}, {"md_atom_id": "md_dmGF_ex_a047", "md_file": "knowledge_base/domains/GF/examples.md", "md_atom_type": "SENTENCE", "md_parent_section": "§GF.3 [Example 3]", "md_verbatim": "**gf.xpt**", "score": 0.79, "match_basis": "verbatim_token+domain_route:GF"}, {"md_atom_id": "md_dmGF_ex_a067", "md_file": "knowledge_base/domains/GF/examples.md", "md_atom_type": "SENTENCE", "md_parent_section": "§GF.3 [Example 3]", "md_verbatim": "**di.xpt**", "score": 0.79, "match_basis": "verbatim_token+domain_route:GF"}, {"md_atom_id": "md_dmGF_ex_a075", "md_file": "knowledge_base/domains/GF/examples.md", "md_atom_type": "SENTENCE", "md_parent_section": "§GF.4 [Example 4]", "md_verbatim": "**gf.xpt**", "score": 0.79, "match_basis": "verbatim_token+domain_route:GF"}, {"md_atom_id": "md_dmGF_ex_a086", "md_file": "knowledge_base/domains/GF/examples.md", "md_atom_type": "SENTENCE", "md_parent_section": "§GF.5 [Example 5]", "md_verbatim": "**mb.xpt**", "score": 0.79, "match_basis": "verbatim_token+domain_route:GF"}, {"md_atom_id": "md_dmGF_ex_a093", "md_file": "knowledge_base/domains/GF/examples.md", "md_atom_type": "SENTENCE", "md_parent_section": "§GF.5 [Example 5]", "md_verbatim": "**gf.xpt**", "score": 0.79, "match_basis": "verbatim_token+domain_route:GF"}, {"md_atom_id": "md_dmGF_ex_a101", "md_file": "knowledge_base/domains/GF/examples.md", "md_atom_type": "SENTENCE", "md_parent_section": "§GF.5 [Example 5]", "md_verbatim": "**ms.xpt**", "score": 0.79, "match_basis": "verbatim_token+domain_route:GF"}, {"md_atom_id": "md_dmGF_ex_a107", "md_file": "knowledge_base/domains/GF/examples.md", "md_atom_type": "SENTENCE", "md_parent_section": "§GF.5 [Example 5]", "md_verbatim": "**relrec.xpt**", "score": 0.31, "match_basis": "verbatim_token+domain_route:GF"}], "candidate_count": 10, "zero_candidate": false}
{"pdf_atom_id": "ig34_p0226_a028", "pdf_atom_type": "TABLE_HEADER", "pdf_source": "SDTMIG_v3.4", "pdf_page": 226, "pdf_parent_section": "§6.3.5.4 Genomics Findings (GF)", "pdf_verbatim": "| Row | STUDYID | DOMAIN | SPDEVID | DISEQ | DIPARMCD | DIPARM | DIVAL |", "figure_ref": "pdf_p226+bottom", "candidates": [{"md_atom_id": "md_dmGF_ex_a026", "md_file": "knowledge_base/domains/GF/examples.md", "md_atom_type": "TABLE_HEADER", "md_parent_section": "§GF.1 [Example 1]", "md_verbatim": "| Row | STUDYID | DOMAIN | SPDEVID | DISEQ | DIPARMCD | DIPARM | DIVAL |\n|-----|---------|--------|---------|-------|----------|--------|-------|", "score": 1.0, "match_basis": "verbatim_token+domain_route:GF"}, {"md_atom_id": "md_dmGF_ex_a068", "md_file": "knowledge_base/domains/GF/examples.md", "md_atom_type": "TABLE_HEADER", "md_parent_section": "§GF.3 [Example 3]", "md_verbatim": "| Row | STUDYID | DOMAIN | SPDEVID | DISEQ | DIPARMCD | DIPARM | DIVAL |\n|-----|---------|--------|---------|-------|----------|--------|-------|", "score": 1.0, "match_basis": "verbatim_token+domain_route:GF"}, {"md_atom_id": "md_dmGF_ex_a108", "md_file": "knowledge_base/domains/GF/examples.md", "md_atom_type": "TABLE_HEADER", "md_parent_section": "§GF.5 [Example 5]", "md_verbatim": "| Row | STUDYID | RDOMAIN | USUBJID | IDVAR | IDVARVAL | RELTYPE | RELID |\n|-----|---------|---------|---------|-------|----------|---------|-------|", "score": 0.5467, "match_basis": "verbatim_token+domain_route:GF"}, {"md_atom_id": "md_dmGF_ex_a087", "md_file": "knowledge_base/domains/GF/examples.md", "md_atom_type": "TABLE_HEADER", "md_parent_section": "§GF.5 [Example 5]", "md_verbatim": "| Row | STUDYID | DOMAIN | USUBJID | MBSEQ | MBREFID | MBTESTCD | MBTEST | MBORRES | MBSTRESC | MBSPEC | MBLOC | MBMETHOD | VISITNUM | VISIT | MBDTC |\n|-----|---------|--------|---------|-------|---------|----------|--------|---------|----------|--------|-------|----------|----------|-------|-------|", "score": 0.488, "match_basis": "verbatim_token+domain_route:GF"}, {"md_atom_id": "md_dmGF_ex_a048", "md_file": "knowledge_base/domains/GF/examples.md", "md_atom_type": "TABLE_HEADER", "md_parent_section": "§GF.3 [Example 3]", "md_verbatim": "| Row | STUDYID | DOMAIN | USUBJID | SPDEVID | GFSEQ | GFGRPID | GFREFID | GFSPID | GFTESTCD | GFTEST | GFTSTDTL | GFORRES | GFORRESU | GFSTRESC | GFSTRESN | GFSTRESU | GFGENREF | GFCHROM | GFSYM | GFSYMTYP | GFSEQID | GFXFN | GFNAM | GFSPEC | GFMETHOD | GFANMETH | VISITNUM | VISIT | VISITDY | GFDTC | GFDY |\n|-----|---------|--------|---------|---------|-------|---------|---------|--------|----------|--------|----------|---------|----------|----------|----------|----------|----------|---------|-------|----------|---------|-------|-------|--------|----------|----------|----------|-------|---------|-------|------|", "score": 0.4842, "match_basis": "verbatim_token+domain_route:GF"}], "candidate_count": 5, "zero_candidate": false}
{"pdf_atom_id": "ig34_p0226_a029", "pdf_atom_type": "TABLE_ROW", "pdf_source": "SDTMIG_v3.4", "pdf_page": 226, "pdf_parent_section": "§6.3.5.4 Genomics Findings (GF)", "pdf_verbatim": "| 1 | ABC-123 | DI | ACME GenePanel 250 | 1 | DEVTYPE | Device Type | Gene Panel |", "figure_ref": "pdf_p226+bottom", "candidates": [{"md_atom_id": "md_dmGF_ex_a069", "md_file": "knowledge_base/domains/GF/examples.md", "md_atom_type": "TABLE_ROW", "md_parent_section": "§GF.3 [Example 3]", "md_verbatim": "| 1 | ABC-123 | DI | ACME GenePanel 250 | 1 | DEVTYPE | Device Type | Gene Panel |", "score": 1.0, "match_basis": "verbatim_token+domain_route:GF"}, {"md_atom_id": "md_dmGF_ex_a027", "md_file": "knowledge_base/domains/GF/examples.md", "md_atom_type": "TABLE_ROW", "md_parent_section": "§GF.1 [Example 1]", "md_verbatim": "| 1 | ABC-123 | DI | ACME GenePanel 500 | 1 | DEVTYPE | Device Type | Gene Panel |", "score": 0.9429, "match_basis": "verbatim_token+domain_route:GF"}, {"md_atom_id": "md_dmGF_ex_a070", "md_file": "knowledge_base/domains/GF/examples.md", "md_atom_type": "TABLE_ROW", "md_parent_section": "§GF.3 [Example 3]", "md_verbatim": "| 2 | ABC-123 | DI | ACME GenePanel 250 | 2 | MANUF | Manufacturer | ACME |", "score": 0.64, "match_basis": "verbatim_token+domain_route:GF"}, {"md_atom_id": "md_dmGF_ex_a028", "md_file": "knowledge_base/domains/GF/examples.md", "md_atom_type": "TABLE_ROW", "md_parent_section": "§GF.1 [Example 1]", "md_verbatim": "| 2 | ABC-123 | DI | ACME GenePanel 500 | 2 | MANUF | Manufacturer | ACME |", "score": 0.6129, "match_basis": "verbatim_token+domain_route:GF"}, {"md_atom_id": "md_dmGF_ex_a064", "md_file": "knowledge_base/domains/GF/examples.md", "md_atom_type": "TABLE_ROW", "md_parent_section": "§GF.3 [Example 3]", "md_verbatim": "| 16 | ABC-123 | GF | 123101 | ACME GenePanel 250 | 16 | 3 | ABC1234567 | AP483910 | GENESIG | Gene Signature | SCORE | -1.126819661 | | -1.126819661 | -1.126819661 | | GRCh38.p12 | | ACTB | GENE WITH PROTEIN PRODUCT | NM_001101.5 | | ACME | RNA | TARGETED TRANSCRIPTOME SEQUENCING | IFN-1 GENE SIGNATURE | 1 | VISIT 1 | 1 | 2018-09-18 | 2 |", "score": 0.4673, "match_basis": "verbatim_token+domain_route:GF"}], "candidate_count": 5, "zero_candidate": false}
{"pdf_atom_id": "ig34_p0226_a030", "pdf_atom_type": "TABLE_ROW", "pdf_source": "SDTMIG_v3.4", "pdf_page": 226, "pdf_parent_section": "§6.3.5.4 Genomics Findings (GF)", "pdf_verbatim": "| 2 | ABC-123 | DI | ACME GenePanel 250 | 2 | MANUF | Manufacturer | ACME |", "figure_ref": "pdf_p226+bottom", "candidates": [{"md_atom_id": "md_dmGF_ex_a070", "md_file": "knowledge_base/domains/GF/examples.md", "md_atom_type": "TABLE_ROW", "md_parent_section": "§GF.3 [Example 3]", "md_verbatim": "| 2 | ABC-123 | DI | ACME GenePanel 250 | 2 | MANUF | Manufacturer | ACME |", "score": 1.0, "match_basis": "verbatim_token+domain_route:GF"}, {"md_atom_id": "md_dmGF_ex_a028", "md_file": "knowledge_base/domains/GF/examples.md", "md_atom_type": "TABLE_ROW", "md_parent_section": "§GF.1 [Example 1]", "md_verbatim": "| 2 | ABC-123 | DI | ACME GenePanel 500 | 2 | MANUF | Manufacturer | ACME |", "score": 0.9478, "match_basis": "verbatim_token+domain_route:GF"}, {"md_atom_id": "md_dmGF_ex_a069", "md_file": "knowledge_base/domains/GF/examples.md", "md_atom_type": "TABLE_ROW", "md_parent_section": "§GF.3 [Example 3]", "md_verbatim": "| 1 | ABC-123 | DI | ACME GenePanel 250 | 1 | DEVTYPE | Device Type | Gene Panel |", "score": 0.64, "match_basis": "verbatim_token+domain_route:GF"}, {"md_atom_id": "md_dmGF_ex_a027", "md_file": "knowledge_base/domains/GF/examples.md", "md_atom_type": "TABLE_ROW", "md_parent_section": "§GF.1 [Example 1]", "md_verbatim": "| 1 | ABC-123 | DI | ACME GenePanel 500 | 1 | DEVTYPE | Device Type | Gene Panel |", "score": 0.6129, "match_basis": "verbatim_token+domain_route:GF"}, {"md_atom_id": "md_dmGF_ex_a064", "md_file": "knowledge_base/domains/GF/examples.md", "md_atom_type": "TABLE_ROW", "md_parent_section": "§GF.3 [Example 3]", "md_verbatim": "| 16 | ABC-123 | GF | 123101 | ACME GenePanel 250 | 16 | 3 | ABC1234567 | AP483910 | GENESIG | Gene Signature | SCORE | -1.126819661 | | -1.126819661 | -1.126819661 | | GRCh38.p12 | | ACTB | GENE WITH PROTEIN PRODUCT | NM_001101.5 | | ACME | RNA | TARGETED TRANSCRIPTOME SEQUENCING | IFN-1 GENE SIGNATURE | 1 | VISIT 1 | 1 | 2018-09-18 | 2 |", "score": 0.4849, "match_basis": "verbatim_token+domain_route:GF"}], "candidate_count": 5, "zero_candidate": false}
{"pdf_atom_id": "ig34_p0227_a001", "pdf_atom_type": "HEADING", "pdf_source": "SDTMIG_v3.4", "pdf_page": 227, "pdf_parent_section": "§6.3.5.4 Genomics Findings (GF)", "pdf_verbatim": "Example 4", "figure_ref": null, "candidates": [{"md_atom_id": "md_dmGF_ex_a002", "md_file": "knowledge_base/domains/GF/examples.md", "md_atom_type": "HEADING", "md_parent_section": "§GF [GF — Examples]", "md_verbatim": "## Example 1", "score": 1.0, "match_basis": "verbatim_token+domain_route:GF"}, {"md_atom_id": "md_dmGF_ex_a029", "md_file": "knowledge_base/domains/GF/examples.md", "md_atom_type": "HEADING", "md_parent_section": "§GF [GF — Examples]", "md_verbatim": "## Example 2", "score": 1.0, "match_basis": "verbatim_token+domain_route:GF"}, {"md_atom_id": "md_dmGF_ex_a039", "md_file": "knowledge_base/domains/GF/examples.md", "md_atom_type": "HEADING", "md_parent_section": "§GF [GF — Examples]", "md_verbatim": "## Example 3", "score": 1.0, "match_basis": "verbatim_token+domain_route:GF"}, {"md_atom_id": "md_dmGF_ex_a071", "md_file": "knowledge_base/domains/GF/examples.md", "md_atom_type": "HEADING", "md_parent_section": "§GF [GF — Examples]", "md_verbatim": "## Example 4", "score": 1.0, "match_basis": "verbatim_token+domain_route:GF"}, {"md_atom_id": "md_dmGF_ex_a083", "md_file": "knowledge_base/domains/GF/examples.md", "md_atom_type": "HEADING", "md_parent_section": "§GF [GF — Examples]", "md_verbatim": "## Example 5", "score": 1.0, "match_basis": "verbatim_token+domain_route:GF"}, {"md_atom_id": "md_dmGF_ex_a001", "md_file": "knowledge_base/domains/GF/examples.md", "md_atom_type": "HEADING", "md_parent_section": "§GF [GF — Examples]", "md_verbatim": "# GF — Examples", "score": 0.9, "match_basis": "verbatim_token+domain_route:GF"}, {"md_atom_id": "md_dmGF_assn_a001", "md_file": "knowledge_base/domains/GF/assumptions.md", "md_atom_type": "HEADING", "md_parent_section": "§GF [GF — Assumptions]", "md_verbatim": "# GF — Assumptions", "score": 0.4, "match_basis": "verbatim_token+domain_route:GF"}], "candidate_count": 7, "zero_candidate": false}
{"pdf_atom_id": "ig34_p0227_a002", "pdf_atom_type": "SENTENCE", "pdf_source": "SDTMIG_v3.4", "pdf_page": 227, "pdf_parent_section": "§6.3.5.4 Genomics Findings (GF)", "pdf_verbatim": "This example shows findings from an assessment of microsatellite instability for genetic subregions that are known to be unstable. DNA extracted from tumor tissue is amplified and the resulting amplicons are resolved using wet laboratory methodology capillary electrophoresis.", "figure_ref": null, "candidates": [{"md_atom_id": "md_dmGF_ex_a072", "md_file": "knowledge_base/domains/GF/examples.md", "md_atom_type": "SENTENCE", "md_parent_section": "§GF.4 [Example 4]", "md_verbatim": "This example shows findings from an assessment of microsatellite instability for genetic subregions that are known to be unstable. DNA extracted from tumor tissue is amplified and the resulting amplicons are resolved using wet laboratory methodology capillary electrophoresis.", "score": 1.0, "match_basis": "verbatim_token+domain_route:GF"}, {"md_atom_id": "md_dmGF_ex_a003", "md_file": "knowledge_base/domains/GF/examples.md", "md_atom_type": "SENTENCE", "md_parent_section": "§GF.1 [Example 1]", "md_verbatim": "This example shows findings from an assessment of single nucleotide and copy number variation generated from biocomputational analysis with wet laboratory methodology targeted genome sequencing. Findings from this assessment show variation from DNA extracted from an individual's tumor tissue. As the DNA specimen was extracted from tumor tissue, the inheritability of the variation is considered to be somatic.", "score": 0.6018, "match_basis": "verbatim_token+domain_route:GF"}, {"md_atom_id": "md_dmGF_ex_a030", "md_file": "knowledge_base/domains/GF/examples.md", "md_atom_type": "SENTENCE", "md_parent_section": "§GF.2 [Example 2]", "md_verbatim": "This example shows findings from an assessment of a known single nucleotide variant in gene ABCG2 using wet laboratory methodology real-time polymerase chain reaction. Findings from this assessment show the genotypes from DNA extracted from the blood of 3 individuals, each with a different genotype at the genetic locus of interest. Because the DNA specimen was extracted from normal blood, the inheritability of the variation is considered to be in the germline.", "score": 0.5795, "match_basis": "verbatim_token+domain_route:GF"}, {"md_atom_id": "md_dmGF_ex_a074", "md_file": "knowledge_base/domains/GF/examples.md", "md_atom_type": "SENTENCE", "md_parent_section": "§GF.4 [Example 4]", "md_verbatim": "**Rows 2-6:** Show whether microsatellite instability is detected in the genetic subregions indicated.", "score": 0.5675, "match_basis": "verbatim_token+domain_route:GF"}, {"md_atom_id": "md_dmGF_ex_a040", "md_file": "knowledge_base/domains/GF/examples.md", "md_atom_type": "SENTENCE", "md_parent_section": "§GF.3 [Example 3]", "md_verbatim": "This example shows transcription levels of genes ACTB and GAPDH and summarized scores from the transcription levels. Transcription levels and scores were determined using biocomputational analysis with wet laboratory methodology targeted transcriptome sequencing. Specific formulas used in biocomputational analyses to generate normalized and summarized score results are respresented when applicable.", "score": 0.5385, "match_basis": "verbatim_token+domain_route:GF"}], "candidate_count": 5, "zero_candidate": false}
{"pdf_atom_id": "ig34_p0227_a003", "pdf_atom_type": "LIST_ITEM", "pdf_source": "SDTMIG_v3.4", "pdf_page": 227, "pdf_parent_section": "§6.3.5.4 Genomics Findings (GF)", "pdf_verbatim": "Row 1:\tShows the summarized interpretation of overall microsatellite instability.", "figure_ref": null, "candidates": [{"md_atom_id": "md_dmGF_ex_a073", "md_file": "knowledge_base/domains/GF/examples.md", "md_atom_type": "SENTENCE", "md_parent_section": "§GF.4 [Example 4]", "md_verbatim": "**Row 1:** Shows the summarized interpretation of overall microsatellite instability.", "score": 0.91, "match_basis": "verbatim_token+domain_route:GF"}, {"md_atom_id": "md_dmGF_ex_a074", "md_file": "knowledge_base/domains/GF/examples.md", "md_atom_type": "SENTENCE", "md_parent_section": "§GF.4 [Example 4]", "md_verbatim": "**Rows 2-6:** Show whether microsatellite instability is detected in the genetic subregions indicated.", "score": 0.5126, "match_basis": "verbatim_token+domain_route:GF"}, {"md_atom_id": "md_dmGF_assn_a014", "md_file": "knowledge_base/domains/GF/assumptions.md", "md_atom_type": "LIST_ITEM", "md_parent_section": "§GF [GF — Assumptions]", "md_verbatim": "7. Values populated in GFGENREF, GFSEQID, and GFPVRID should reflect the level of granularity collected (e.g., version, build, patch, release) to support interpretation of the reported result.", "score": 0.4878, "match_basis": "verbatim_token+domain_route:GF"}, {"md_atom_id": "md_dmGF_assn_a007", "md_file": "knowledge_base/domains/GF/assumptions.md", "md_atom_type": "LIST_ITEM", "md_parent_section": "§GF [GF — Assumptions]", "md_verbatim": "   d. If the test provides both genetic data and susceptibility/resistance data, genetic data should be represented in GF and the susceptibility/resistance data should be represented in the MS domain (See Section 6.3.5.7.2, Microbiology Susceptibility, assumption 1b for more information).", "score": 0.4807, "match_basis": "verbatim_token+domain_route:GF"}, {"md_atom_id": "md_dmGF_assn_a006", "md_file": "knowledge_base/domains/GF/assumptions.md", "md_atom_type": "LIST_ITEM", "md_parent_section": "§GF [GF — Assumptions]", "md_verbatim": "   c. Tests that are used to determine the resistance/susceptibility of a non-host organism to a drug on a genetic basis should be represented in the Microbiology Susceptibility (MS) domain.", "score": 0.4667, "match_basis": "verbatim_token+domain_route:GF"}], "candidate_count": 5, "zero_candidate": false}
{"pdf_atom_id": "ig34_p0227_a004", "pdf_atom_type": "LIST_ITEM", "pdf_source": "SDTMIG_v3.4", "pdf_page": 227, "pdf_parent_section": "§6.3.5.4 Genomics Findings (GF)", "pdf_verbatim": "Rows 2-6:\tShow whether microsatellite instability is detected in the genetic subregions indicated.", "figure_ref": null, "candidates": [{"md_atom_id": "md_dmGF_ex_a074", "md_file": "knowledge_base/domains/GF/examples.md", "md_atom_type": "SENTENCE", "md_parent_section": "§GF.4 [Example 4]", "md_verbatim": "**Rows 2-6:** Show whether microsatellite instability is detected in the genetic subregions indicated.", "score": 0.91, "match_basis": "verbatim_token+domain_route:GF"}, {"md_atom_id": "md_dmGF_ex_a073", "md_file": "knowledge_base/domains/GF/examples.md", "md_atom_type": "SENTENCE", "md_parent_section": "§GF.4 [Example 4]", "md_verbatim": "**Row 1:** Shows the summarized interpretation of overall microsatellite instability.", "score": 0.5126, "match_basis": "verbatim_token+domain_route:GF"}, {"md_atom_id": "md_dmGF_assn_a006", "md_file": "knowledge_base/domains/GF/assumptions.md", "md_atom_type": "LIST_ITEM", "md_parent_section": "§GF [GF — Assumptions]", "md_verbatim": "   c. Tests that are used to determine the resistance/susceptibility of a non-host organism to a drug on a genetic basis should be represented in the Microbiology Susceptibility (MS) domain.", "score": 0.4939, "match_basis": "verbatim_token+domain_route:GF"}, {"md_atom_id": "md_dmGF_assn_a007", "md_file": "knowledge_base/domains/GF/assumptions.md", "md_atom_type": "LIST_ITEM", "md_parent_section": "§GF [GF — Assumptions]", "md_verbatim": "   d. If the test provides both genetic data and susceptibility/resistance data, genetic data should be represented in GF and the susceptibility/resistance data should be represented in the MS domain (See Section 6.3.5.7.2, Microbiology Susceptibility, assumption 1b for more information).", "score": 0.49, "match_basis": "verbatim_token+domain_route:GF"}, {"md_atom_id": "md_dmGF_ex_a072", "md_file": "knowledge_base/domains/GF/examples.md", "md_atom_type": "SENTENCE", "md_parent_section": "§GF.4 [Example 4]", "md_verbatim": "This example shows findings from an assessment of microsatellite instability for genetic subregions that are known to be unstable. DNA extracted from tumor tissue is amplified and the resulting amplicons are resolved using wet laboratory methodology capillary electrophoresis.", "score": 0.4775, "match_basis": "verbatim_token+domain_route:GF"}], "candidate_count": 5, "zero_candidate": false}
{"pdf_atom_id": "ig34_p0227_a005", "pdf_atom_type": "CODE_LITERAL", "pdf_source": "SDTMIG_v3.4", "pdf_page": 227, "pdf_parent_section": "§6.3.5.4 Genomics Findings (GF)", "pdf_verbatim": "gf.xpt", "figure_ref": null, "candidates": [{"md_atom_id": "md_dmGF_ex_a013", "md_file": "knowledge_base/domains/GF/examples.md", "md_atom_type": "SENTENCE", "md_parent_section": "§GF.1 [Example 1]", "md_verbatim": "**gf.xpt**", "score": 0.79, "match_basis": "verbatim_token+domain_route:GF"}, {"md_atom_id": "md_dmGF_ex_a025", "md_file": "knowledge_base/domains/GF/examples.md", "md_atom_type": "SENTENCE", "md_parent_section": "§GF.1 [Example 1]", "md_verbatim": "**di.xpt**", "score": 0.79, "match_basis": "verbatim_token+domain_route:GF"}, {"md_atom_id": "md_dmGF_ex_a034", "md_file": "knowledge_base/domains/GF/examples.md", "md_atom_type": "SENTENCE", "md_parent_section": "§GF.2 [Example 2]", "md_verbatim": "**gf.xpt**", "score": 0.79, "match_basis": "verbatim_token+domain_route:GF"}, {"md_atom_id": "md_dmGF_ex_a047", "md_file": "knowledge_base/domains/GF/examples.md", "md_atom_type": "SENTENCE", "md_parent_section": "§GF.3 [Example 3]", "md_verbatim": "**gf.xpt**", "score": 0.79, "match_basis": "verbatim_token+domain_route:GF"}, {"md_atom_id": "md_dmGF_ex_a067", "md_file": "knowledge_base/domains/GF/examples.md", "md_atom_type": "SENTENCE", "md_parent_section": "§GF.3 [Example 3]", "md_verbatim": "**di.xpt**", "score": 0.79, "match_basis": "verbatim_token+domain_route:GF"}, {"md_atom_id": "md_dmGF_ex_a075", "md_file": "knowledge_base/domains/GF/examples.md", "md_atom_type": "SENTENCE", "md_parent_section": "§GF.4 [Example 4]", "md_verbatim": "**gf.xpt**", "score": 0.79, "match_basis": "verbatim_token+domain_route:GF"}, {"md_atom_id": "md_dmGF_ex_a086", "md_file": "knowledge_base/domains/GF/examples.md", "md_atom_type": "SENTENCE", "md_parent_section": "§GF.5 [Example 5]", "md_verbatim": "**mb.xpt**", "score": 0.79, "match_basis": "verbatim_token+domain_route:GF"}, {"md_atom_id": "md_dmGF_ex_a093", "md_file": "knowledge_base/domains/GF/examples.md", "md_atom_type": "SENTENCE", "md_parent_section": "§GF.5 [Example 5]", "md_verbatim": "**gf.xpt**", "score": 0.79, "match_basis": "verbatim_token+domain_route:GF"}, {"md_atom_id": "md_dmGF_ex_a101", "md_file": "knowledge_base/domains/GF/examples.md", "md_atom_type": "SENTENCE", "md_parent_section": "§GF.5 [Example 5]", "md_verbatim": "**ms.xpt**", "score": 0.79, "match_basis": "verbatim_token+domain_route:GF"}, {"md_atom_id": "md_dmGF_ex_a107", "md_file": "knowledge_base/domains/GF/examples.md", "md_atom_type": "SENTENCE", "md_parent_section": "§GF.5 [Example 5]", "md_verbatim": "**relrec.xpt**", "score": 0.31, "match_basis": "verbatim_token+domain_route:GF"}], "candidate_count": 10, "zero_candidate": false}
{"pdf_atom_id": "ig34_p0227_a006", "pdf_atom_type": "TABLE_HEADER", "pdf_source": "SDTMIG_v3.4", "pdf_page": 227, "pdf_parent_section": "§6.3.5.4 Genomics Findings (GF)", "pdf_verbatim": "| Row | STUDYID | DOMAIN | USUBJID | GFSEQ | GFREFID | GFTESTCD | GFTEST | GFTSTDTL | GFORRES | GFSTRESC | GFGENSER | GFXFN | GFNAM | GFSPEC | GFMETHOD | GFRUNID | VISITNUM | VISIT | GFDTC | GFDY |", "figure_ref": "pdf_p227+top", "candidates": [{"md_atom_id": "md_dmGF_ex_a076", "md_file": "knowledge_base/domains/GF/examples.md", "md_atom_type": "TABLE_HEADER", "md_parent_section": "§GF.4 [Example 4]", "md_verbatim": "| Row | STUDYID | DOMAIN | USUBJID | GFSEQ | GFREFID | GFTESTCD | GFTEST | GFTSTDTL | GFORRES | GFSTRESC | GFXFN | GFNAM | GFSPEC | GFMETHOD | GFRUNID | VISITNUM | VISIT | VISITDY | GFDTC | GFDY |\n|-----|---------|--------|---------|-------|---------|----------|--------|----------|---------|----------|-------|-------|--------|----------|---------|----------|-------|---------|-------|------|", "score": 0.94, "match_basis": "verbatim_token+domain_route:GF"}, {"md_atom_id": "md_dmGF_ex_a094", "md_file": "knowledge_base/domains/GF/examples.md", "md_atom_type": "TABLE_HEADER", "md_parent_section": "§GF.5 [Example 5]", "md_verbatim": "| Row | STUDYID | DOMAIN | USUBJID | GFSEQ | GFREFID | NHOID | GFLNKID | GFTESTCD | GFTEST | GFTSTDTL | GFORRES | GFSTRESC | GFSYM | GFGENLOC | GFSEQID | GFSPEC | GFMETHOD | VISITNUM | VISIT | GFDTC |\n|-----|---------|--------|---------|-------|---------|-------|---------|----------|--------|----------|---------|----------|-------|----------|---------|--------|----------|----------|-------|-------|", "score": 0.8129, "match_basis": "verbatim_token+domain_route:GF"}, {"md_atom_id": "md_dmGF_ex_a048", "md_file": "knowledge_base/domains/GF/examples.md", "md_atom_type": "TABLE_HEADER", "md_parent_section": "§GF.3 [Example 3]", "md_verbatim": "| Row | STUDYID | DOMAIN | USUBJID | SPDEVID | GFSEQ | GFGRPID | GFREFID | GFSPID | GFTESTCD | GFTEST | GFTSTDTL | GFORRES | GFORRESU | GFSTRESC | GFSTRESN | GFSTRESU | GFGENREF | GFCHROM | GFSYM | GFSYMTYP | GFSEQID | GFXFN | GFNAM | GFSPEC | GFMETHOD | GFANMETH | VISITNUM | VISIT | VISITDY | GFDTC | GFDY |\n|-----|---------|--------|---------|---------|-------|---------|---------|--------|----------|--------|----------|---------|----------|----------|----------|----------|----------|---------|-------|----------|---------|-------|-------|--------|----------|----------|----------|-------|---------|-------|------|", "score": 0.7873, "match_basis": "verbatim_token+domain_route:GF"}, {"md_atom_id": "md_dmGF_ex_a035", "md_file": "knowledge_base/domains/GF/examples.md", "md_atom_type": "TABLE_HEADER", "md_parent_section": "§GF.2 [Example 2]", "md_verbatim": "| Row | STUDYID | DOMAIN | USUBJID | GFSEQ | GFREFID | GFTESTCD | GFTEST | GFTSTDTL | GFORRES | GFSTRESC | GFSTREFN | GFINHERTG | GFGENREF | GFCHROM | GFSYM | GFGENLOC | GFGENSR | GFSEQID | GFPVRID | GFNAM | GFSPEC | GFMETHOD | VISITNUM | VISIT | VISITDY | GFDTC | GFDY |\n|-----|---------|--------|---------|-------|---------|----------|--------|----------|---------|----------|----------|-----------|----------|---------|-------|----------|---------|---------|---------|-------|--------|----------|----------|-------|---------|-------|------|", "score": 0.7833, "match_basis": "verbatim_token+domain_route:GF"}, {"md_atom_id": "md_dmGF_ex_a014", "md_file": "knowledge_base/domains/GF/examples.md", "md_atom_type": "TABLE_HEADER", "md_parent_section": "§GF.1 [Example 1]", "md_verbatim": "| Row | STUDYID | DOMAIN | USUBJID | GFSEQ | GFREFID | GFTESTCD | GFTEST | GFTSTDTL | GFORRES | GFSTRESC | GFSTREFN | GFSTRESU | GFINHERTG | GFGENREF | GFCHROM | GFSYM | GFSYMTYP | GFGENLOC | GFGENSR | GFSEQID | GFPVRID | GFCOPYID | GFNAM | GFSPEC | GFMETHOD | GFRUNID | VISITNUM | VISIT | VISITDY | GFDTC | GFDY |\n|-----|---------|--------|---------|-------|---------|----------|--------|----------|---------|----------|----------|----------|-----------|----------|---------|-------|----------|----------|---------|---------|---------|----------|-------|--------|----------|---------|----------|-------|---------|-------|------|", "score": 0.7776, "match_basis": "verbatim_token+domain_route:GF"}], "candidate_count": 5, "zero_candidate": false}
{"pdf_atom_id": "ig34_p0227_a007", "pdf_atom_type": "TABLE_ROW", "pdf_source": "SDTMIG_v3.4", "pdf_page": 227, "pdf_parent_section": "§6.3.5.4 Genomics Findings (GF)", "pdf_verbatim": "| 1 | ABC123 | GF | 123101 | 1 | 4401470-2-6 | MICRISTB | Microsatellite Instability | MICROSATELLITE INSTABILITY OVERALL STATUS | MSI-Stable | MSI-Stable | | msi_abc_gf.csv | ACME Laboratories | DNA | CAPILLARY ELECTROPHORESIS | MSI-010418 | 1 | VISIT | 1 | 2020-02-04 | -2 |", "figure_ref": "pdf_p227+top", "candidates": [{"md_atom_id": "md_dmGF_ex_a077", "md_file": "knowledge_base/domains/GF/examples.md", "md_atom_type": "TABLE_ROW", "md_parent_section": "§GF.4 [Example 4]", "md_verbatim": "| 1 | ABC123 | GF | 123101 | 1 | 4401470-2-6 | MICRISTB | Microsatellite Instability | MSI-Stable | MSI-Stable | | ACME Laboratories | DNA | CAPILLARY ELECTROPHORESIS | MS-D10418 | 1 | VISIT 1 | 1 | 2020-02-04 | -2 |", "score": 0.9275, "match_basis": "verbatim_token+domain_route:GF"}, {"md_atom_id": "md_dmGF_ex_a081", "md_file": "knowledge_base/domains/GF/examples.md", "md_atom_type": "TABLE_ROW", "md_parent_section": "§GF.4 [Example 4]", "md_verbatim": "| 5 | ABC123 | GF | 123101 | 5 | 4401470-2-6 | MICRISTB | Microsatellite Instability | DETECTION | Not Detected | Not Detected | NR-21 | msi_abc_gf.csv | ACME Laboratories | DNA | CAPILLARY ELECTROPHORESIS | MS-D10418 | 1 | VISIT 1 | 1 | 2020-02-04 | -2 |", "score": 0.874, "match_basis": "verbatim_token+domain_route:GF"}, {"md_atom_id": "md_dmGF_ex_a082", "md_file": "knowledge_base/domains/GF/examples.md", "md_atom_type": "TABLE_ROW", "md_parent_section": "§GF.4 [Example 4]", "md_verbatim": "| 6 | ABC123 | GF | 123101 | 6 | 4401470-2-6 | MICRISTB | Microsatellite Instability | DETECTION | Not Detected | Not Detected | NR-24 | msi_abc_gf.csv | ACME Laboratories | DNA | CAPILLARY ELECTROPHORESIS | MS-D10418 | 1 | VISIT 1 | 1 | 2020-02-04 | -2 |", "score": 0.874, "match_basis": "verbatim_token+domain_route:GF"}, {"md_atom_id": "md_dmGF_ex_a078", "md_file": "knowledge_base/domains/GF/examples.md", "md_atom_type": "TABLE_ROW", "md_parent_section": "§GF.4 [Example 4]", "md_verbatim": "| 2 | ABC123 | GF | 123101 | 2 | 4401470-2-6 | MICRISTB | Microsatellite Instability | DETECTION | Not Detected | Not Detected | BAT-25 | msi_abc_gf.csv | ACME Laboratories | DNA | CAPILLARY ELECTROPHORESIS | MS-D10418 | 1 | VISIT 1 | 1 | 2020-02-04 | -2 |", "score": 0.8693, "match_basis": "verbatim_token+domain_route:GF"}, {"md_atom_id": "md_dmGF_ex_a079", "md_file": "knowledge_base/domains/GF/examples.md", "md_atom_type": "TABLE_ROW", "md_parent_section": "§GF.4 [Example 4]", "md_verbatim": "| 3 | ABC123 | GF | 123101 | 3 | 4401470-2-6 | MICRISTB | Microsatellite Instability | DETECTION | Not Detected | Not Detected | BAT-26 | msi_abc_gf.csv | ACME Laboratories | DNA | CAPILLARY ELECTROPHORESIS | MS-D10418 | 1 | VISIT 1 | 1 | 2020-02-04 | -2 |", "score": 0.8693, "match_basis": "verbatim_token+domain_route:GF"}], "candidate_count": 5, "zero_candidate": false}
{"pdf_atom_id": "ig34_p0227_a008", "pdf_atom_type": "TABLE_ROW", "pdf_source": "SDTMIG_v3.4", "pdf_page": 227, "pdf_parent_section": "§6.3.5.4 Genomics Findings (GF)", "pdf_verbatim": "| 2 | ABC123 | GF | 123101 | 2 | 4401470-2-6 | MICRISTB | Microsatellite Instability | DETECTION | Not Detected | Not Detected | BAT-25 | msi_abc_gf.csv | ACME Laboratories | DNA | CAPILLARY ELECTROPHORESIS | MSI-010418 | 1 | VISIT | 1 | 2020-02-04 | -2 |", "figure_ref": "pdf_p227+top", "candidates": [{"md_atom_id": "md_dmGF_ex_a078", "md_file": "knowledge_base/domains/GF/examples.md", "md_atom_type": "TABLE_ROW", "md_parent_section": "§GF.4 [Example 4]", "md_verbatim": "| 2 | ABC123 | GF | 123101 | 2 | 4401470-2-6 | MICRISTB | Microsatellite Instability | DETECTION | Not Detected | Not Detected | BAT-25 | msi_abc_gf.csv | ACME Laboratories | DNA | CAPILLARY ELECTROPHORESIS | MS-D10418 | 1 | VISIT 1 | 1 | 2020-02-04 | -2 |", "score": 0.9868, "match_basis": "verbatim_token+domain_route:GF"}, {"md_atom_id": "md_dmGF_ex_a079", "md_file": "knowledge_base/domains/GF/examples.md", "md_atom_type": "TABLE_ROW", "md_parent_section": "§GF.4 [Example 4]", "md_verbatim": "| 3 | ABC123 | GF | 123101 | 3 | 4401470-2-6 | MICRISTB | Microsatellite Instability | DETECTION | Not Detected | Not Detected | BAT-26 | msi_abc_gf.csv | ACME Laboratories | DNA | CAPILLARY ELECTROPHORESIS | MS-D10418 | 1 | VISIT 1 | 1 | 2020-02-04 | -2 |", "score": 0.9868, "match_basis": "verbatim_token+domain_route:GF"}, {"md_atom_id": "md_dmGF_ex_a081", "md_file": "knowledge_base/domains/GF/examples.md", "md_atom_type": "TABLE_ROW", "md_parent_section": "§GF.4 [Example 4]", "md_verbatim": "| 5 | ABC123 | GF | 123101 | 5 | 4401470-2-6 | MICRISTB | Microsatellite Instability | DETECTION | Not Detected | Not Detected | NR-21 | msi_abc_gf.csv | ACME Laboratories | DNA | CAPILLARY ELECTROPHORESIS | MS-D10418 | 1 | VISIT 1 | 1 | 2020-02-04 | -2 |", "score": 0.9802, "match_basis": "verbatim_token+domain_route:GF"}, {"md_atom_id": "md_dmGF_ex_a082", "md_file": "knowledge_base/domains/GF/examples.md", "md_atom_type": "TABLE_ROW", "md_parent_section": "§GF.4 [Example 4]", "md_verbatim": "| 6 | ABC123 | GF | 123101 | 6 | 4401470-2-6 | MICRISTB | Microsatellite Instability | DETECTION | Not Detected | Not Detected | NR-24 | msi_abc_gf.csv | ACME Laboratories | DNA | CAPILLARY ELECTROPHORESIS | MS-D10418 | 1 | VISIT 1 | 1 | 2020-02-04 | -2 |", "score": 0.9802, "match_basis": "verbatim_token+domain_route:GF"}, {"md_atom_id": "md_dmGF_ex_a080", "md_file": "knowledge_base/domains/GF/examples.md", "md_atom_type": "TABLE_ROW", "md_parent_section": "§GF.4 [Example 4]", "md_verbatim": "| 4 | ABC123 | GF | 123101 | 4 | 4401470-2-6 | MICRISTB | Microsatellite Instability | DETECTION | Not Detected | Not Detected | MONO-27 | msi_abc_gf.csv | ACME Laboratories | DNA | CAPILLARY ELECTROPHORESIS | MS-D10418 | 1 | VISIT 1 | 1 | 2020-02-04 | -2 |", "score": 0.9677, "match_basis": "verbatim_token+domain_route:GF"}], "candidate_count": 5, "zero_candidate": false}
{"pdf_atom_id": "ig34_p0227_a009", "pdf_atom_type": "TABLE_ROW", "pdf_source": "SDTMIG_v3.4", "pdf_page": 227, "pdf_parent_section": "§6.3.5.4 Genomics Findings (GF)", "pdf_verbatim": "| 3 | ABC123 | GF | 123101 | 3 | 4401470-2-6 | MICRISTB | Microsatellite Instability | DETECTION | Not Detected | Not Detected | BAT-26 | msi_abc_gf.csv | ACME Laboratories | DNA | CAPILLARY ELECTROPHORESIS | MSI-010418 | 1 | VISIT | 1 | 2020-02-04 | -2 |", "figure_ref": "pdf_p227+top", "candidates": [{"md_atom_id": "md_dmGF_ex_a078", "md_file": "knowledge_base/domains/GF/examples.md", "md_atom_type": "TABLE_ROW", "md_parent_section": "§GF.4 [Example 4]", "md_verbatim": "| 2 | ABC123 | GF | 123101 | 2 | 4401470-2-6 | MICRISTB | Microsatellite Instability | DETECTION | Not Detected | Not Detected | BAT-25 | msi_abc_gf.csv | ACME Laboratories | DNA | CAPILLARY ELECTROPHORESIS | MS-D10418 | 1 | VISIT 1 | 1 | 2020-02-04 | -2 |", "score": 0.9868, "match_basis": "verbatim_token+domain_route:GF"}, {"md_atom_id": "md_dmGF_ex_a079", "md_file": "knowledge_base/domains/GF/examples.md", "md_atom_type": "TABLE_ROW", "md_parent_section": "§GF.4 [Example 4]", "md_verbatim": "| 3 | ABC123 | GF | 123101 | 3 | 4401470-2-6 | MICRISTB | Microsatellite Instability | DETECTION | Not Detected | Not Detected | BAT-26 | msi_abc_gf.csv | ACME Laboratories | DNA | CAPILLARY ELECTROPHORESIS | MS-D10418 | 1 | VISIT 1 | 1 | 2020-02-04 | -2 |", "score": 0.9868, "match_basis": "verbatim_token+domain_route:GF"}, {"md_atom_id": "md_dmGF_ex_a081", "md_file": "knowledge_base/domains/GF/examples.md", "md_atom_type": "TABLE_ROW", "md_parent_section": "§GF.4 [Example 4]", "md_verbatim": "| 5 | ABC123 | GF | 123101 | 5 | 4401470-2-6 | MICRISTB | Microsatellite Instability | DETECTION | Not Detected | Not Detected | NR-21 | msi_abc_gf.csv | ACME Laboratories | DNA | CAPILLARY ELECTROPHORESIS | MS-D10418 | 1 | VISIT 1 | 1 | 2020-02-04 | -2 |", "score": 0.9802, "match_basis": "verbatim_token+domain_route:GF"}, {"md_atom_id": "md_dmGF_ex_a082", "md_file": "knowledge_base/domains/GF/examples.md", "md_atom_type": "TABLE_ROW", "md_parent_section": "§GF.4 [Example 4]", "md_verbatim": "| 6 | ABC123 | GF | 123101 | 6 | 4401470-2-6 | MICRISTB | Microsatellite Instability | DETECTION | Not Detected | Not Detected | NR-24 | msi_abc_gf.csv | ACME Laboratories | DNA | CAPILLARY ELECTROPHORESIS | MS-D10418 | 1 | VISIT 1 | 1 | 2020-02-04 | -2 |", "score": 0.9802, "match_basis": "verbatim_token+domain_route:GF"}, {"md_atom_id": "md_dmGF_ex_a080", "md_file": "knowledge_base/domains/GF/examples.md", "md_atom_type": "TABLE_ROW", "md_parent_section": "§GF.4 [Example 4]", "md_verbatim": "| 4 | ABC123 | GF | 123101 | 4 | 4401470-2-6 | MICRISTB | Microsatellite Instability | DETECTION | Not Detected | Not Detected | MONO-27 | msi_abc_gf.csv | ACME Laboratories | DNA | CAPILLARY ELECTROPHORESIS | MS-D10418 | 1 | VISIT 1 | 1 | 2020-02-04 | -2 |", "score": 0.9677, "match_basis": "verbatim_token+domain_route:GF"}], "candidate_count": 5, "zero_candidate": false}
{"pdf_atom_id": "ig34_p0227_a010", "pdf_atom_type": "TABLE_ROW", "pdf_source": "SDTMIG_v3.4", "pdf_page": 227, "pdf_parent_section": "§6.3.5.4 Genomics Findings (GF)", "pdf_verbatim": "| 4 | ABC123 | GF | 123101 | 4 | 4401470-2-6 | MICRISTB | Microsatellite Instability | DETECTION | Not Detected | Not Detected | MONO-27 | msi_abc_gf.csv | ACME Laboratories | DNA | CAPILLARY ELECTROPHORESIS | MSI-010418 | 1 | VISIT | 1 | 2020-02-04 | -2 |", "figure_ref": "pdf_p227+top", "candidates": [{"md_atom_id": "md_dmGF_ex_a080", "md_file": "knowledge_base/domains/GF/examples.md", "md_atom_type": "TABLE_ROW", "md_parent_section": "§GF.4 [Example 4]", "md_verbatim": "| 4 | ABC123 | GF | 123101 | 4 | 4401470-2-6 | MICRISTB | Microsatellite Instability | DETECTION | Not Detected | Not Detected | MONO-27 | msi_abc_gf.csv | ACME Laboratories | DNA | CAPILLARY ELECTROPHORESIS | MS-D10418 | 1 | VISIT 1 | 1 | 2020-02-04 | -2 |", "score": 0.987, "match_basis": "verbatim_token+domain_route:GF"}, {"md_atom_id": "md_dmGF_ex_a081", "md_file": "knowledge_base/domains/GF/examples.md", "md_atom_type": "TABLE_ROW", "md_parent_section": "§GF.4 [Example 4]", "md_verbatim": "| 5 | ABC123 | GF | 123101 | 5 | 4401470-2-6 | MICRISTB | Microsatellite Instability | DETECTION | Not Detected | Not Detected | NR-21 | msi_abc_gf.csv | ACME Laboratories | DNA | CAPILLARY ELECTROPHORESIS | MS-D10418 | 1 | VISIT 1 | 1 | 2020-02-04 | -2 |", "score": 0.9739, "match_basis": "verbatim_token+domain_route:GF"}, {"md_atom_id": "md_dmGF_ex_a082", "md_file": "knowledge_base/domains/GF/examples.md", "md_atom_type": "TABLE_ROW", "md_parent_section": "§GF.4 [Example 4]", "md_verbatim": "| 6 | ABC123 | GF | 123101 | 6 | 4401470-2-6 | MICRISTB | Microsatellite Instability | DETECTION | Not Detected | Not Detected | NR-24 | msi_abc_gf.csv | ACME Laboratories | DNA | CAPILLARY ELECTROPHORESIS | MS-D10418 | 1 | VISIT 1 | 1 | 2020-02-04 | -2 |", "score": 0.9739, "match_basis": "verbatim_token+domain_route:GF"}, {"md_atom_id": "md_dmGF_ex_a078", "md_file": "knowledge_base/domains/GF/examples.md", "md_atom_type": "TABLE_ROW", "md_parent_section": "§GF.4 [Example 4]", "md_verbatim": "| 2 | ABC123 | GF | 123101 | 2 | 4401470-2-6 | MICRISTB | Microsatellite Instability | DETECTION | Not Detected | Not Detected | BAT-25 | msi_abc_gf.csv | ACME Laboratories | DNA | CAPILLARY ELECTROPHORESIS | MS-D10418 | 1 | VISIT 1 | 1 | 2020-02-04 | -2 |", "score": 0.9677, "match_basis": "verbatim_token+domain_route:GF"}, {"md_atom_id": "md_dmGF_ex_a079", "md_file": "knowledge_base/domains/GF/examples.md", "md_atom_type": "TABLE_ROW", "md_parent_section": "§GF.4 [Example 4]", "md_verbatim": "| 3 | ABC123 | GF | 123101 | 3 | 4401470-2-6 | MICRISTB | Microsatellite Instability | DETECTION | Not Detected | Not Detected | BAT-26 | msi_abc_gf.csv | ACME Laboratories | DNA | CAPILLARY ELECTROPHORESIS | MS-D10418 | 1 | VISIT 1 | 1 | 2020-02-04 | -2 |", "score": 0.9677, "match_basis": "verbatim_token+domain_route:GF"}], "candidate_count": 5, "zero_candidate": false}
{"pdf_atom_id": "ig34_p0227_a011", "pdf_atom_type": "TABLE_ROW", "pdf_source": "SDTMIG_v3.4", "pdf_page": 227, "pdf_parent_section": "§6.3.5.4 Genomics Findings (GF)", "pdf_verbatim": "| 5 | ABC123 | GF | 123101 | 5 | 4401470-2-6 | MICRISTB | Microsatellite Instability | DETECTION | Not Detected | Not Detected | NR-21 | msi_abc_gf.csv | ACME Laboratories | DNA | CAPILLARY ELECTROPHORESIS | MSI-010418 | 1 | VISIT | 1 | 2020-02-04 | -2 |", "figure_ref": "pdf_p227+top", "candidates": [{"md_atom_id": "md_dmGF_ex_a081", "md_file": "knowledge_base/domains/GF/examples.md", "md_atom_type": "TABLE_ROW", "md_parent_section": "§GF.4 [Example 4]", "md_verbatim": "| 5 | ABC123 | GF | 123101 | 5 | 4401470-2-6 | MICRISTB | Microsatellite Instability | DETECTION | Not Detected | Not Detected | NR-21 | msi_abc_gf.csv | ACME Laboratories | DNA | CAPILLARY ELECTROPHORESIS | MS-D10418 | 1 | VISIT 1 | 1 | 2020-02-04 | -2 |", "score": 0.9867, "match_basis": "verbatim_token+domain_route:GF"}, {"md_atom_id": "md_dmGF_ex_a082", "md_file": "knowledge_base/domains/GF/examples.md", "md_atom_type": "TABLE_ROW", "md_parent_section": "§GF.4 [Example 4]", "md_verbatim": "| 6 | ABC123 | GF | 123101 | 6 | 4401470-2-6 | MICRISTB | Microsatellite Instability | DETECTION | Not Detected | Not Detected | NR-24 | msi_abc_gf.csv | ACME Laboratories | DNA | CAPILLARY ELECTROPHORESIS | MS-D10418 | 1 | VISIT 1 | 1 | 2020-02-04 | -2 |", "score": 0.9867, "match_basis": "verbatim_token+domain_route:GF"}, {"md_atom_id": "md_dmGF_ex_a078", "md_file": "knowledge_base/domains/GF/examples.md", "md_atom_type": "TABLE_ROW", "md_parent_section": "§GF.4 [Example 4]", "md_verbatim": "| 2 | ABC123 | GF | 123101 | 2 | 4401470-2-6 | MICRISTB | Microsatellite Instability | DETECTION | Not Detected | Not Detected | BAT-25 | msi_abc_gf.csv | ACME Laboratories | DNA | CAPILLARY ELECTROPHORESIS | MS-D10418 | 1 | VISIT 1 | 1 | 2020-02-04 | -2 |", "score": 0.9802, "match_basis": "verbatim_token+domain_route:GF"}, {"md_atom_id": "md_dmGF_ex_a079", "md_file": "knowledge_base/domains/GF/examples.md", "md_atom_type": "TABLE_ROW", "md_parent_section": "§GF.4 [Example 4]", "md_verbatim": "| 3 | ABC123 | GF | 123101 | 3 | 4401470-2-6 | MICRISTB | Microsatellite Instability | DETECTION | Not Detected | Not Detected | BAT-26 | msi_abc_gf.csv | ACME Laboratories | DNA | CAPILLARY ELECTROPHORESIS | MS-D10418 | 1 | VISIT 1 | 1 | 2020-02-04 | -2 |", "score": 0.9802, "match_basis": "verbatim_token+domain_route:GF"}, {"md_atom_id": "md_dmGF_ex_a080", "md_file": "knowledge_base/domains/GF/examples.md", "md_atom_type": "TABLE_ROW", "md_parent_section": "§GF.4 [Example 4]", "md_verbatim": "| 4 | ABC123 | GF | 123101 | 4 | 4401470-2-6 | MICRISTB | Microsatellite Instability | DETECTION | Not Detected | Not Detected | MONO-27 | msi_abc_gf.csv | ACME Laboratories | DNA | CAPILLARY ELECTROPHORESIS | MS-D10418 | 1 | VISIT 1 | 1 | 2020-02-04 | -2 |", "score": 0.9739, "match_basis": "verbatim_token+domain_route:GF"}], "candidate_count": 5, "zero_candidate": false}
{"pdf_atom_id": "ig34_p0227_a012", "pdf_atom_type": "TABLE_ROW", "pdf_source": "SDTMIG_v3.4", "pdf_page": 227, "pdf_parent_section": "§6.3.5.4 Genomics Findings (GF)", "pdf_verbatim": "| 6 | ABC123 | GF | 123101 | 6 | 4401470-2-6 | MICRISTB | Microsatellite Instability | DETECTION | Not Detected | Not Detected | NR-24 | msi_abc_gf.csv | ACME Laboratories | DNA | CAPILLARY ELECTROPHORESIS | MSI-010418 | 1 | VISIT | 1 | 2020-02-04 | -2 |", "figure_ref": "pdf_p227+top", "candidates": [{"md_atom_id": "md_dmGF_ex_a081", "md_file": "knowledge_base/domains/GF/examples.md", "md_atom_type": "TABLE_ROW", "md_parent_section": "§GF.4 [Example 4]", "md_verbatim": "| 5 | ABC123 | GF | 123101 | 5 | 4401470-2-6 | MICRISTB | Microsatellite Instability | DETECTION | Not Detected | Not Detected | NR-21 | msi_abc_gf.csv | ACME Laboratories | DNA | CAPILLARY ELECTROPHORESIS | MS-D10418 | 1 | VISIT 1 | 1 | 2020-02-04 | -2 |", "score": 0.9867, "match_basis": "verbatim_token+domain_route:GF"}, {"md_atom_id": "md_dmGF_ex_a082", "md_file": "knowledge_base/domains/GF/examples.md", "md_atom_type": "TABLE_ROW", "md_parent_section": "§GF.4 [Example 4]", "md_verbatim": "| 6 | ABC123 | GF | 123101 | 6 | 4401470-2-6 | MICRISTB | Microsatellite Instability | DETECTION | Not Detected | Not Detected | NR-24 | msi_abc_gf.csv | ACME Laboratories | DNA | CAPILLARY ELECTROPHORESIS | MS-D10418 | 1 | VISIT 1 | 1 | 2020-02-04 | -2 |", "score": 0.9867, "match_basis": "verbatim_token+domain_route:GF"}, {"md_atom_id": "md_dmGF_ex_a078", "md_file": "knowledge_base/domains/GF/examples.md", "md_atom_type": "TABLE_ROW", "md_parent_section": "§GF.4 [Example 4]", "md_verbatim": "| 2 | ABC123 | GF | 123101 | 2 | 4401470-2-6 | MICRISTB | Microsatellite Instability | DETECTION | Not Detected | Not Detected | BAT-25 | msi_abc_gf.csv | ACME Laboratories | DNA | CAPILLARY ELECTROPHORESIS | MS-D10418 | 1 | VISIT 1 | 1 | 2020-02-04 | -2 |", "score": 0.9802, "match_basis": "verbatim_token+domain_route:GF"}, {"md_atom_id": "md_dmGF_ex_a079", "md_file": "knowledge_base/domains/GF/examples.md", "md_atom_type": "TABLE_ROW", "md_parent_section": "§GF.4 [Example 4]", "md_verbatim": "| 3 | ABC123 | GF | 123101 | 3 | 4401470-2-6 | MICRISTB | Microsatellite Instability | DETECTION | Not Detected | Not Detected | BAT-26 | msi_abc_gf.csv | ACME Laboratories | DNA | CAPILLARY ELECTROPHORESIS | MS-D10418 | 1 | VISIT 1 | 1 | 2020-02-04 | -2 |", "score": 0.9802, "match_basis": "verbatim_token+domain_route:GF"}, {"md_atom_id": "md_dmGF_ex_a080", "md_file": "knowledge_base/domains/GF/examples.md", "md_atom_type": "TABLE_ROW", "md_parent_section": "§GF.4 [Example 4]", "md_verbatim": "| 4 | ABC123 | GF | 123101 | 4 | 4401470-2-6 | MICRISTB | Microsatellite Instability | DETECTION | Not Detected | Not Detected | MONO-27 | msi_abc_gf.csv | ACME Laboratories | DNA | CAPILLARY ELECTROPHORESIS | MS-D10418 | 1 | VISIT 1 | 1 | 2020-02-04 | -2 |", "score": 0.9739, "match_basis": "verbatim_token+domain_route:GF"}], "candidate_count": 5, "zero_candidate": false}
{"pdf_atom_id": "ig34_p0227_a013", "pdf_atom_type": "HEADING", "pdf_source": "SDTMIG_v3.4", "pdf_page": 227, "pdf_parent_section": "§6.3.5.4 Genomics Findings (GF)", "pdf_verbatim": "Example 5", "figure_ref": null, "candidates": [{"md_atom_id": "md_dmGF_ex_a002", "md_file": "knowledge_base/domains/GF/examples.md", "md_atom_type": "HEADING", "md_parent_section": "§GF [GF — Examples]", "md_verbatim": "## Example 1", "score": 1.0, "match_basis": "verbatim_token+domain_route:GF"}, {"md_atom_id": "md_dmGF_ex_a029", "md_file": "knowledge_base/domains/GF/examples.md", "md_atom_type": "HEADING", "md_parent_section": "§GF [GF — Examples]", "md_verbatim": "## Example 2", "score": 1.0, "match_basis": "verbatim_token+domain_route:GF"}, {"md_atom_id": "md_dmGF_ex_a039", "md_file": "knowledge_base/domains/GF/examples.md", "md_atom_type": "HEADING", "md_parent_section": "§GF [GF — Examples]", "md_verbatim": "## Example 3", "score": 1.0, "match_basis": "verbatim_token+domain_route:GF"}, {"md_atom_id": "md_dmGF_ex_a071", "md_file": "knowledge_base/domains/GF/examples.md", "md_atom_type": "HEADING", "md_parent_section": "§GF [GF — Examples]", "md_verbatim": "## Example 4", "score": 1.0, "match_basis": "verbatim_token+domain_route:GF"}, {"md_atom_id": "md_dmGF_ex_a083", "md_file": "knowledge_base/domains/GF/examples.md", "md_atom_type": "HEADING", "md_parent_section": "§GF [GF — Examples]", "md_verbatim": "## Example 5", "score": 1.0, "match_basis": "verbatim_token+domain_route:GF"}, {"md_atom_id": "md_dmGF_ex_a001", "md_file": "knowledge_base/domains/GF/examples.md", "md_atom_type": "HEADING", "md_parent_section": "§GF [GF — Examples]", "md_verbatim": "# GF — Examples", "score": 0.9, "match_basis": "verbatim_token+domain_route:GF"}, {"md_atom_id": "md_dmGF_assn_a001", "md_file": "knowledge_base/domains/GF/assumptions.md", "md_atom_type": "HEADING", "md_parent_section": "§GF [GF — Assumptions]", "md_verbatim": "# GF — Assumptions", "score": 0.4, "match_basis": "verbatim_token+domain_route:GF"}], "candidate_count": 7, "zero_candidate": false}
{"pdf_atom_id": "ig34_p0227_a014", "pdf_atom_type": "SENTENCE", "pdf_source": "SDTMIG_v3.4", "pdf_page": 227, "pdf_parent_section": "§6.3.5.4 Genomics Findings (GF)", "pdf_verbatim": "This example includes 3 datasets (i.e., MB and MS in addition to GF). The purpose of this 3-part example is to illustrate how these domains are appropriately used in cases where the concepts in each domain are very closely related. Specifically, the example demonstrates the use of these domains by following a subject through a hypothetical scenario of influenza diagnosis, genetic evaluation of the virus, and interpretation of drug susceptibility resulting from genetic testing.", "figure_ref": null, "candidates": [{"md_atom_id": "md_dmGF_ex_a084", "md_file": "knowledge_base/domains/GF/examples.md", "md_atom_type": "SENTENCE", "md_parent_section": "§GF.5 [Example 5]", "md_verbatim": "This example includes 3 datasets (i.e., MB and MS in addition to GF). The purpose of this 3-part example is to illustrate how these domains are appropriately used in cases where the concepts in each domain are very closely related. Specifically, the example demonstrates the use of these domains by following a subject through a hypothetical scenario of influenza diagnosis, genetic evaluation of the virus, and interpretation of drug susceptibility resulting from genetic testing.", "score": 1.0, "match_basis": "verbatim_token+domain_route:GF"}, {"md_atom_id": "md_dmGF_ex_a089", "md_file": "knowledge_base/domains/GF/examples.md", "md_atom_type": "SENTENCE", "md_parent_section": "§GF.5 [Example 5]", "md_verbatim": "Next, a series of virus samples extracted from the subject underwent targeted single nucleotide polymorphism (SNP) testing to determine the feasibility of using the neuraminidase inhibitor oseltamivir to treat the infection (i.e., drug susceptibility testing). Findings from this testing provide both genetic data in the form of the genotype identified and the susceptibility/resistance data as inferred phenotype. Genotypic findings are represented in the GF domain, and inferred susceptibility/resistance in MS.", "score": 0.5298, "match_basis": "verbatim_token+domain_route:GF"}, {"md_atom_id": "md_dmGF_ex_a098", "md_file": "knowledge_base/domains/GF/examples.md", "md_atom_type": "SENTENCE", "md_parent_section": "§GF.5 [Example 5]", "md_verbatim": "The susceptibility data stemming from this genetic testing above are represented in MS (see Section 6.3.5.7.2, Microbiology Susceptibility, assumption 1b). GFLINKID matches MSLNKID to connect the records in GF with the corresponding conclusion regarding susceptibility in MS. As above, NHOID is used to indicate that influenza A H3N2 is the focus of these records. MSAGENT represents the drug to which the results of susceptible or resistant pertain.", "score": 0.5296, "match_basis": "verbatim_token+domain_route:GF"}, {"md_atom_id": "md_dmGF_ex_a085", "md_file": "knowledge_base/domains/GF/examples.md", "md_atom_type": "SENTENCE", "md_parent_section": "§GF.5 [Example 5]", "md_verbatim": "Tests that diagnose or identify the presence of an infectious agent in a subject sample are represented in the MB domain, regardless of the methodology used. In this example, the subject was diagnosed with influenza A H3N2 via a nucleic acid amplification test (NAAT) at the baseline visit. MBTEST = \"Microbial Organism Identification\" because the assay does not specifically test for the presence of 1 organism or subtype to the exclusion of all others.", "score": 0.5289, "match_basis": "verbatim_token+domain_route:GF"}, {"md_atom_id": "md_dmGF_ex_a106", "md_file": "knowledge_base/domains/GF/examples.md", "md_atom_type": "SENTENCE", "md_parent_section": "§GF.5 [Example 5]", "md_verbatim": "The relrec dataset example shows the relationship between the genetic assessment in GF and the resistance/susceptibility data in MS.", "score": 0.516, "match_basis": "verbatim_token+domain_route:GF"}], "candidate_count": 5, "zero_candidate": false}
{"pdf_atom_id": "ig34_p0227_a015", "pdf_atom_type": "SENTENCE", "pdf_source": "SDTMIG_v3.4", "pdf_page": 227, "pdf_parent_section": "§6.3.5.4 Genomics Findings (GF)", "pdf_verbatim": "Tests that diagnose or identify the presence of an infectious agent in a subject sample are represented in the MB domain, regardless of the methodology used. In this example, the subject was diagnosed with influenza A H3N2 via a nucleic acid amplification test (NAAT) at the baseline visit. MBTEST = \"Microbial Organism Identification\" because the assay does not specifically test for the presence of 1 organism or subtype to the exclusion of all others.", "figure_ref": null, "candidates": [{"md_atom_id": "md_dmGF_ex_a085", "md_file": "knowledge_base/domains/GF/examples.md", "md_atom_type": "SENTENCE", "md_parent_section": "§GF.5 [Example 5]", "md_verbatim": "Tests that diagnose or identify the presence of an infectious agent in a subject sample are represented in the MB domain, regardless of the methodology used. In this example, the subject was diagnosed with influenza A H3N2 via a nucleic acid amplification test (NAAT) at the baseline visit. MBTEST = \"Microbial Organism Identification\" because the assay does not specifically test for the presence of 1 organism or subtype to the exclusion of all others.", "score": 1.0, "match_basis": "verbatim_token+domain_route:GF"}, {"md_atom_id": "md_dmGF_ex_a098", "md_file": "knowledge_base/domains/GF/examples.md", "md_atom_type": "SENTENCE", "md_parent_section": "§GF.5 [Example 5]", "md_verbatim": "The susceptibility data stemming from this genetic testing above are represented in MS (see Section 6.3.5.7.2, Microbiology Susceptibility, assumption 1b). GFLINKID matches MSLNKID to connect the records in GF with the corresponding conclusion regarding susceptibility in MS. As above, NHOID is used to indicate that influenza A H3N2 is the focus of these records. MSAGENT represents the drug to which the results of susceptible or resistant pertain.", "score": 0.53, "match_basis": "verbatim_token+domain_route:GF"}, {"md_atom_id": "md_dmGF_ex_a084", "md_file": "knowledge_base/domains/GF/examples.md", "md_atom_type": "SENTENCE", "md_parent_section": "§GF.5 [Example 5]", "md_verbatim": "This example includes 3 datasets (i.e., MB and MS in addition to GF). The purpose of this 3-part example is to illustrate how these domains are appropriately used in cases where the concepts in each domain are very closely related. Specifically, the example demonstrates the use of these domains by following a subject through a hypothetical scenario of influenza diagnosis, genetic evaluation of the virus, and interpretation of drug susceptibility resulting from genetic testing.", "score": 0.5289, "match_basis": "verbatim_token+domain_route:GF"}, {"md_atom_id": "md_dmGF_ex_a024", "md_file": "knowledge_base/domains/GF/examples.md", "md_atom_type": "SENTENCE", "md_parent_section": "§GF.1 [Example 1]", "md_verbatim": "Identifying information for the gene panel used to generate the result is in the DI domain. The gene panel is represented in SDTM, as the panel used as part of the wet laboratory methodology may change and affects interpretation of the result. The platform in which the gene panel was used is not represented, because it does not provide additional context for the result.", "score": 0.5227, "match_basis": "verbatim_token+domain_route:GF"}, {"md_atom_id": "md_dmGF_ex_a065", "md_file": "knowledge_base/domains/GF/examples.md", "md_atom_type": "SENTENCE", "md_parent_section": "§GF.3 [Example 3]", "md_verbatim": "Identifying information for the gene panel used to generate the result is in the DI domain. The gene panel is represented in SDTM, as the panel used as part of the wet laboratory methodology may change and affects interpretation of the result. The platform in which the gene panel was used is not represented, because it does not provide additional context for the result.", "score": 0.5227, "match_basis": "verbatim_token+domain_route:GF"}], "candidate_count": 5, "zero_candidate": false}
{"pdf_atom_id": "ig34_p0227_a016", "pdf_atom_type": "CODE_LITERAL", "pdf_source": "SDTMIG_v3.4", "pdf_page": 227, "pdf_parent_section": "§6.3.5.4 Genomics Findings (GF)", "pdf_verbatim": "mb.xpt", "figure_ref": null, "candidates": [{"md_atom_id": "md_dmGF_ex_a013", "md_file": "knowledge_base/domains/GF/examples.md", "md_atom_type": "SENTENCE", "md_parent_section": "§GF.1 [Example 1]", "md_verbatim": "**gf.xpt**", "score": 0.79, "match_basis": "verbatim_token+domain_route:GF"}, {"md_atom_id": "md_dmGF_ex_a025", "md_file": "knowledge_base/domains/GF/examples.md", "md_atom_type": "SENTENCE", "md_parent_section": "§GF.1 [Example 1]", "md_verbatim": "**di.xpt**", "score": 0.79, "match_basis": "verbatim_token+domain_route:GF"}, {"md_atom_id": "md_dmGF_ex_a034", "md_file": "knowledge_base/domains/GF/examples.md", "md_atom_type": "SENTENCE", "md_parent_section": "§GF.2 [Example 2]", "md_verbatim": "**gf.xpt**", "score": 0.79, "match_basis": "verbatim_token+domain_route:GF"}, {"md_atom_id": "md_dmGF_ex_a047", "md_file": "knowledge_base/domains/GF/examples.md", "md_atom_type": "SENTENCE", "md_parent_section": "§GF.3 [Example 3]", "md_verbatim": "**gf.xpt**", "score": 0.79, "match_basis": "verbatim_token+domain_route:GF"}, {"md_atom_id": "md_dmGF_ex_a067", "md_file": "knowledge_base/domains/GF/examples.md", "md_atom_type": "SENTENCE", "md_parent_section": "§GF.3 [Example 3]", "md_verbatim": "**di.xpt**", "score": 0.79, "match_basis": "verbatim_token+domain_route:GF"}, {"md_atom_id": "md_dmGF_ex_a075", "md_file": "knowledge_base/domains/GF/examples.md", "md_atom_type": "SENTENCE", "md_parent_section": "§GF.4 [Example 4]", "md_verbatim": "**gf.xpt**", "score": 0.79, "match_basis": "verbatim_token+domain_route:GF"}, {"md_atom_id": "md_dmGF_ex_a086", "md_file": "knowledge_base/domains/GF/examples.md", "md_atom_type": "SENTENCE", "md_parent_section": "§GF.5 [Example 5]", "md_verbatim": "**mb.xpt**", "score": 0.79, "match_basis": "verbatim_token+domain_route:GF"}, {"md_atom_id": "md_dmGF_ex_a093", "md_file": "knowledge_base/domains/GF/examples.md", "md_atom_type": "SENTENCE", "md_parent_section": "§GF.5 [Example 5]", "md_verbatim": "**gf.xpt**", "score": 0.79, "match_basis": "verbatim_token+domain_route:GF"}, {"md_atom_id": "md_dmGF_ex_a101", "md_file": "knowledge_base/domains/GF/examples.md", "md_atom_type": "SENTENCE", "md_parent_section": "§GF.5 [Example 5]", "md_verbatim": "**ms.xpt**", "score": 0.79, "match_basis": "verbatim_token+domain_route:GF"}, {"md_atom_id": "md_dmGF_ex_a107", "md_file": "knowledge_base/domains/GF/examples.md", "md_atom_type": "SENTENCE", "md_parent_section": "§GF.5 [Example 5]", "md_verbatim": "**relrec.xpt**", "score": 0.31, "match_basis": "verbatim_token+domain_route:GF"}], "candidate_count": 10, "zero_candidate": false}
{"pdf_atom_id": "ig34_p0227_a017", "pdf_atom_type": "TABLE_HEADER", "pdf_source": "SDTMIG_v3.4", "pdf_page": 227, "pdf_parent_section": "§6.3.5.4 Genomics Findings (GF)", "pdf_verbatim": "| Row | STUDYID | DOMAIN | USUBJID | MBSEQ | MBREFID | MBTESTCD | MBTEST | MBORRES | MBSTRESC | MBSPEC | MBLOC | MBMETHOD | VISITNUM | VISIT | MBDTC |", "figure_ref": "pdf_p227+middle", "candidates": [{"md_atom_id": "md_dmGF_ex_a087", "md_file": "knowledge_base/domains/GF/examples.md", "md_atom_type": "TABLE_HEADER", "md_parent_section": "§GF.5 [Example 5]", "md_verbatim": "| Row | STUDYID | DOMAIN | USUBJID | MBSEQ | MBREFID | MBTESTCD | MBTEST | MBORRES | MBSTRESC | MBSPEC | MBLOC | MBMETHOD | VISITNUM | VISIT | MBDTC |\n|-----|---------|--------|---------|-------|---------|----------|--------|---------|----------|--------|-------|----------|----------|-------|-------|", "score": 1.0, "match_basis": "verbatim_token+domain_route:GF"}, {"md_atom_id": "md_dmGF_ex_a102", "md_file": "knowledge_base/domains/GF/examples.md", "md_atom_type": "TABLE_HEADER", "md_parent_section": "§GF.5 [Example 5]", "md_verbatim": "| Row | STUDYID | DOMAIN | USUBJID | MSSEQ | MSREFID | NHOID | MSLNKID | MSTESTCD | MSTEST | MSAGENT | MSORRES | MSSTRESC | MSMETHOD | VISITNUM | VISIT | MSDTC |\n|-----|---------|--------|---------|-------|---------|-------|---------|----------|--------|---------|---------|----------|----------|----------|-------|-------|", "score": 0.6824, "match_basis": "verbatim_token+domain_route:GF"}, {"md_atom_id": "md_dmGF_ex_a076", "md_file": "knowledge_base/domains/GF/examples.md", "md_atom_type": "TABLE_HEADER", "md_parent_section": "§GF.4 [Example 4]", "md_verbatim": "| Row | STUDYID | DOMAIN | USUBJID | GFSEQ | GFREFID | GFTESTCD | GFTEST | GFTSTDTL | GFORRES | GFSTRESC | GFXFN | GFNAM | GFSPEC | GFMETHOD | GFRUNID | VISITNUM | VISIT | VISITDY | GFDTC | GFDY |\n|-----|---------|--------|---------|-------|---------|----------|--------|----------|---------|----------|-------|-------|--------|----------|---------|----------|-------|---------|-------|------|", "score": 0.6769, "match_basis": "verbatim_token+domain_route:GF"}, {"md_atom_id": "md_dmGF_ex_a094", "md_file": "knowledge_base/domains/GF/examples.md", "md_atom_type": "TABLE_HEADER", "md_parent_section": "§GF.5 [Example 5]", "md_verbatim": "| Row | STUDYID | DOMAIN | USUBJID | GFSEQ | GFREFID | NHOID | GFLNKID | GFTESTCD | GFTEST | GFTSTDTL | GFORRES | GFSTRESC | GFSYM | GFGENLOC | GFSEQID | GFSPEC | GFMETHOD | VISITNUM | VISIT | GFDTC |\n|-----|---------|--------|---------|-------|---------|-------|---------|----------|--------|----------|---------|----------|-------|----------|---------|--------|----------|----------|-------|-------|", "score": 0.6716, "match_basis": "verbatim_token+domain_route:GF"}, {"md_atom_id": "md_dmGF_ex_a035", "md_file": "knowledge_base/domains/GF/examples.md", "md_atom_type": "TABLE_HEADER", "md_parent_section": "§GF.2 [Example 2]", "md_verbatim": "| Row | STUDYID | DOMAIN | USUBJID | GFSEQ | GFREFID | GFTESTCD | GFTEST | GFTSTDTL | GFORRES | GFSTRESC | GFSTREFN | GFINHERTG | GFGENREF | GFCHROM | GFSYM | GFGENLOC | GFGENSR | GFSEQID | GFPVRID | GFNAM | GFSPEC | GFMETHOD | VISITNUM | VISIT | VISITDY | GFDTC | GFDY |\n|-----|---------|--------|---------|-------|---------|----------|--------|----------|---------|----------|----------|-----------|----------|---------|-------|----------|---------|---------|---------|-------|--------|----------|----------|-------|---------|-------|------|", "score": 0.6243, "match_basis": "verbatim_token+domain_route:GF"}], "candidate_count": 5, "zero_candidate": false}
{"pdf_atom_id": "ig34_p0227_a018", "pdf_atom_type": "TABLE_ROW", "pdf_source": "SDTMIG_v3.4", "pdf_page": 227, "pdf_parent_section": "§6.3.5.4 Genomics Findings (GF)", "pdf_verbatim": "| 1 | INFLU122 | MB | INF01-01 | 1 | INFLU0101 | MCORGIDN | Microbial Organism Identification | INFLUENZA A VIRUS SUBTYPE H3N2 | INFLUENZA A VIRUS SUBTYPE H3N2 | MUCUS | NOSTRIL | NUCLEIC ACID AMPLIFICATION TEST | 1 | BASELINE | 2020-06-11 |", "figure_ref": "pdf_p227+middle", "candidates": [{"md_atom_id": "md_dmGF_ex_a088", "md_file": "knowledge_base/domains/GF/examples.md", "md_atom_type": "TABLE_ROW", "md_parent_section": "§GF.5 [Example 5]", "md_verbatim": "| 1 | INFLU122 | MB | INF01-01 | 1 | INFLU0101.1 | MCORGIDN | Microbial Organism Identification | INFLUENZA A VIRUS SUBTYPE | INFLUENZA A VIRUS SUBTYPE H3N2 | MUCUS | NOSTRIL | NUCLEIC ACID AMPLIFICATION TEST | 1 | BASELINE | 2020-06-11 |", "score": 1.0, "match_basis": "verbatim_token+domain_route:GF"}, {"md_atom_id": "md_dmGF_ex_a103", "md_file": "knowledge_base/domains/GF/examples.md", "md_atom_type": "TABLE_ROW", "md_parent_section": "§GF.5 [Example 5]", "md_verbatim": "| 1 | INFLU122 | MS | INF01-01 | 1 | INFLU0101.1 | INFLUENZA A H3N2 | GF-MS-01 | MICROSUS | Microbial Susceptibility | OSELTAMIVIR | SUSCEPTIBLE | SUSCEPTIBLE | | 1 | BASELINE | 2020-06-11 |", "score": 0.5889, "match_basis": "verbatim_token+domain_route:GF"}, {"md_atom_id": "md_dmGF_ex_a095", "md_file": "knowledge_base/domains/GF/examples.md", "md_atom_type": "TABLE_ROW", "md_parent_section": "§GF.5 [Example 5]", "md_verbatim": "| 1 | INFLU122 | GF | INF01-01 | 1 | INFLU0101.1 | INFLUENZA A H3N2 | GF-MS-01 | SNV | Single Nucleotide Variation | PREDICTED AMINO ACID CHANGE | R292R | R292R | NA | 292 | U43427 | RNA | | 1 | BASELINE | 2020-06-11 |", "score": 0.575, "match_basis": "verbatim_token+domain_route:GF"}, {"md_atom_id": "md_dmGF_ex_a104", "md_file": "knowledge_base/domains/GF/examples.md", "md_atom_type": "TABLE_ROW", "md_parent_section": "§GF.5 [Example 5]", "md_verbatim": "| 2 | INFLU122 | MS | INF01-01 | 2 | INFLU0102 | INFLUENZA A H3N2 | GF-MS-02 | MICROSUS | Microbial Susceptibility | OSELTAMIVIR | RESISTANT | RESISTANT | | 2 | DAY 2 | 2020-06-12 |", "score": 0.5461, "match_basis": "verbatim_token+domain_route:GF"}, {"md_atom_id": "md_dmGF_ex_a105", "md_file": "knowledge_base/domains/GF/examples.md", "md_atom_type": "TABLE_ROW", "md_parent_section": "§GF.5 [Example 5]", "md_verbatim": "| 3 | INFLU122 | MS | INF01-01 | 3 | INFLU0103 | INFLUENZA A H3N2 | GF-MS-03 | MICROSUS | Microbial Susceptibility | OSELTAMIVIR | RESISTANT | RESISTANT | | 3 | DAY 5 | 2020-06-15 |", "score": 0.5461, "match_basis": "verbatim_token+domain_route:GF"}], "candidate_count": 5, "zero_candidate": false}
{"pdf_atom_id": "ig34_p0227_a019", "pdf_atom_type": "SENTENCE", "pdf_source": "SDTMIG_v3.4", "pdf_page": 227, "pdf_parent_section": "§6.3.5.4 Genomics Findings (GF)", "pdf_verbatim": "Next, a series of virus samples extracted from the subject underwent targeted single nucleotide polymorphism (SNP) testing to determine the feasibility of using the neuraminidase inhibitor oseltamivir to treat the infection (i.e., drug susceptibility testing).", "figure_ref": null, "candidates": [{"md_atom_id": "md_dmGF_ex_a089", "md_file": "knowledge_base/domains/GF/examples.md", "md_atom_type": "SENTENCE", "md_parent_section": "§GF.5 [Example 5]", "md_verbatim": "Next, a series of virus samples extracted from the subject underwent targeted single nucleotide polymorphism (SNP) testing to determine the feasibility of using the neuraminidase inhibitor oseltamivir to treat the infection (i.e., drug susceptibility testing). Findings from this testing provide both genetic data in the form of the genotype identified and the susceptibility/resistance data as inferred phenotype. Genotypic findings are represented in the GF domain, and inferred susceptibility/resistance in MS.", "score": 0.8043, "match_basis": "verbatim_token+domain_route:GF"}, {"md_atom_id": "md_dmGF_ex_a091", "md_file": "knowledge_base/domains/GF/examples.md", "md_atom_type": "SENTENCE", "md_parent_section": "§GF.5 [Example 5]", "md_verbatim": "**Row 1:** Shows the result of a targeted test to detect a single nucleotide polymorphism in the influenza neuraminidase gene known to confer resistance to the drug oseltamivir. The result (R292R) indicates that the amino acid residue R (arginine) at position 292 remains unchanged at the baseline visit.", "score": 0.5815, "match_basis": "verbatim_token+domain_route:GF"}, {"md_atom_id": "md_dmGF_ex_a099", "md_file": "knowledge_base/domains/GF/examples.md", "md_atom_type": "SENTENCE", "md_parent_section": "§GF.5 [Example 5]", "md_verbatim": "**Row 1:** Shows the influenza extracted from the subject at the baseline visit is susceptible to oseltamivir.", "score": 0.5437, "match_basis": "verbatim_token+domain_route:GF"}, {"md_atom_id": "md_dmGF_ex_a030", "md_file": "knowledge_base/domains/GF/examples.md", "md_atom_type": "SENTENCE", "md_parent_section": "§GF.2 [Example 2]", "md_verbatim": "This example shows findings from an assessment of a known single nucleotide variant in gene ABCG2 using wet laboratory methodology real-time polymerase chain reaction. Findings from this assessment show the genotypes from DNA extracted from the blood of 3 individuals, each with a different genotype at the genetic locus of interest. Because the DNA specimen was extracted from normal blood, the inheritability of the variation is considered to be in the germline.", "score": 0.5185, "match_basis": "verbatim_token+domain_route:GF"}, {"md_atom_id": "md_dmGF_ex_a003", "md_file": "knowledge_base/domains/GF/examples.md", "md_atom_type": "SENTENCE", "md_parent_section": "§GF.1 [Example 1]", "md_verbatim": "This example shows findings from an assessment of single nucleotide and copy number variation generated from biocomputational analysis with wet laboratory methodology targeted genome sequencing. Findings from this assessment show variation from DNA extracted from an individual's tumor tissue. As the DNA specimen was extracted from tumor tissue, the inheritability of the variation is considered to be somatic.", "score": 0.5109, "match_basis": "verbatim_token+domain_route:GF"}], "candidate_count": 5, "zero_candidate": false}
{"pdf_atom_id": "ig34_p0227_a020", "pdf_atom_type": "SENTENCE", "pdf_source": "SDTMIG_v3.4", "pdf_page": 227, "pdf_parent_section": "§6.3.5.4 Genomics Findings (GF)", "pdf_verbatim": "Findings from this testing provide both genetic data in the form of the genotype identified and the susceptibility/resistance data as inferred phenotype. Genotypic findings are represented in the GF domain, and inferred susceptibility/resistance in MS.", "figure_ref": null, "candidates": [{"md_atom_id": "md_dmGF_ex_a089", "md_file": "knowledge_base/domains/GF/examples.md", "md_atom_type": "SENTENCE", "md_parent_section": "§GF.5 [Example 5]", "md_verbatim": "Next, a series of virus samples extracted from the subject underwent targeted single nucleotide polymorphism (SNP) testing to determine the feasibility of using the neuraminidase inhibitor oseltamivir to treat the infection (i.e., drug susceptibility testing). Findings from this testing provide both genetic data in the form of the genotype identified and the susceptibility/resistance data as inferred phenotype. Genotypic findings are represented in the GF domain, and inferred susceptibility/resistance in MS.", "score": 0.6804, "match_basis": "verbatim_token+domain_route:GF"}, {"md_atom_id": "md_dmGF_assn_a007", "md_file": "knowledge_base/domains/GF/assumptions.md", "md_atom_type": "LIST_ITEM", "md_parent_section": "§GF [GF — Assumptions]", "md_verbatim": "   d. If the test provides both genetic data and susceptibility/resistance data, genetic data should be represented in GF and the susceptibility/resistance data should be represented in the MS domain (See Section 6.3.5.7.2, Microbiology Susceptibility, assumption 1b for more information).", "score": 0.5795, "match_basis": "verbatim_token+domain_route:GF"}, {"md_atom_id": "md_dmGF_ex_a098", "md_file": "knowledge_base/domains/GF/examples.md", "md_atom_type": "SENTENCE", "md_parent_section": "§GF.5 [Example 5]", "md_verbatim": "The susceptibility data stemming from this genetic testing above are represented in MS (see Section 6.3.5.7.2, Microbiology Susceptibility, assumption 1b). GFLINKID matches MSLNKID to connect the records in GF with the corresponding conclusion regarding susceptibility in MS. As above, NHOID is used to indicate that influenza A H3N2 is the focus of these records. MSAGENT represents the drug to which the results of susceptible or resistant pertain.", "score": 0.5515, "match_basis": "verbatim_token+domain_route:GF"}, {"md_atom_id": "md_dmGF_ex_a106", "md_file": "knowledge_base/domains/GF/examples.md", "md_atom_type": "SENTENCE", "md_parent_section": "§GF.5 [Example 5]", "md_verbatim": "The relrec dataset example shows the relationship between the genetic assessment in GF and the resistance/susceptibility data in MS.", "score": 0.5475, "match_basis": "verbatim_token+domain_route:GF"}, {"md_atom_id": "md_dmGF_ex_a084", "md_file": "knowledge_base/domains/GF/examples.md", "md_atom_type": "SENTENCE", "md_parent_section": "§GF.5 [Example 5]", "md_verbatim": "This example includes 3 datasets (i.e., MB and MS in addition to GF). The purpose of this 3-part example is to illustrate how these domains are appropriately used in cases where the concepts in each domain are very closely related. Specifically, the example demonstrates the use of these domains by following a subject through a hypothetical scenario of influenza diagnosis, genetic evaluation of the virus, and interpretation of drug susceptibility resulting from genetic testing.", "score": 0.5216, "match_basis": "verbatim_token+domain_route:GF"}], "candidate_count": 5, "zero_candidate": false}
{"pdf_atom_id": "ig34_p0227_a021", "pdf_atom_type": "SENTENCE", "pdf_source": "SDTMIG_v3.4", "pdf_page": 227, "pdf_parent_section": "§6.3.5.4 Genomics Findings (GF)", "pdf_verbatim": "The GFTEST \"Single Nucleotide Variation\" is used for SNP tests. GFTSTDTL indicates that the results are expressed as predicted amino acid change instead of nucleotide change. GFSYM = \"NA\", the published gene symbol for the influenza neuraminidase gene. GFGENLOC represents the position in the protein sequence where the targeted variation which confers resistance to oseltamivir occurs. GFSEQID is the reference sequence/segment to which the results are compared.", "figure_ref": null, "candidates": [{"md_atom_id": "md_dmGF_ex_a091", "md_file": "knowledge_base/domains/GF/examples.md", "md_atom_type": "SENTENCE", "md_parent_section": "§GF.5 [Example 5]", "md_verbatim": "**Row 1:** Shows the result of a targeted test to detect a single nucleotide polymorphism in the influenza neuraminidase gene known to confer resistance to the drug oseltamivir. The result (R292R) indicates that the amino acid residue R (arginine) at position 292 remains unchanged at the baseline visit.", "score": 0.6345, "match_basis": "verbatim_token+domain_route:GF"}, {"md_atom_id": "md_dmGF_ex_a089", "md_file": "knowledge_base/domains/GF/examples.md", "md_atom_type": "SENTENCE", "md_parent_section": "§GF.5 [Example 5]", "md_verbatim": "Next, a series of virus samples extracted from the subject underwent targeted single nucleotide polymorphism (SNP) testing to determine the feasibility of using the neuraminidase inhibitor oseltamivir to treat the infection (i.e., drug susceptibility testing). Findings from this testing provide both genetic data in the form of the genotype identified and the susceptibility/resistance data as inferred phenotype. Genotypic findings are represented in the GF domain, and inferred susceptibility/resistance in MS.", "score": 0.5423, "match_basis": "verbatim_token+domain_route:GF"}, {"md_atom_id": "md_dmGF_ex_a005", "md_file": "knowledge_base/domains/GF/examples.md", "md_atom_type": "SENTENCE", "md_parent_section": "§GF.1 [Example 1]", "md_verbatim": "**Row 2:** Shows the predicted coding sequence change due to the single nucleotide variant.", "score": 0.5065, "match_basis": "verbatim_token+domain_route:GF"}, {"md_atom_id": "md_dmGF_ex_a004", "md_file": "knowledge_base/domains/GF/examples.md", "md_atom_type": "SENTENCE", "md_parent_section": "§GF.1 [Example 1]", "md_verbatim": "**Row 1:** Shows the predicted amino acid change due to the single nucleotide variant.", "score": 0.5049, "match_basis": "verbatim_token+domain_route:GF"}, {"md_atom_id": "md_dmGF_ex_a098", "md_file": "knowledge_base/domains/GF/examples.md", "md_atom_type": "SENTENCE", "md_parent_section": "§GF.5 [Example 5]", "md_verbatim": "The susceptibility data stemming from this genetic testing above are represented in MS (see Section 6.3.5.7.2, Microbiology Susceptibility, assumption 1b). GFLINKID matches MSLNKID to connect the records in GF with the corresponding conclusion regarding susceptibility in MS. As above, NHOID is used to indicate that influenza A H3N2 is the focus of these records. MSAGENT represents the drug to which the results of susceptible or resistant pertain.", "score": 0.5042, "match_basis": "verbatim_token+domain_route:GF"}], "candidate_count": 5, "zero_candidate": false}
{"pdf_atom_id": "ig34_p0227_a022", "pdf_atom_type": "NOTE", "pdf_source": "SDTMIG_v3.4", "pdf_page": 227, "pdf_parent_section": "§6.3.5.4 Genomics Findings (GF)", "pdf_verbatim": "Note the use of NHOID, which is populated with the name of the organism to which the testing applies. Note: It is important to use this identifier to distinguish between tests that apply to a non-host organism and tests that apply to the study subject/host.", "figure_ref": null, "candidates": [{"md_atom_id": "md_dmGF_assn_a004", "md_file": "knowledge_base/domains/GF/assumptions.md", "md_atom_type": "LIST_ITEM", "md_parent_section": "§GF [GF — Assumptions]", "md_verbatim": "   a. Tests that give genetic results (e.g., expressed in terms of genetic variation, specific sequence information) on non-host organisms that have been identified in subject samples should be represented in GF. To distinguish these findings from subject genetic data, the variable NHOID must be populated to identify the non-host organism as the focus of the record (see Section 9.2, Non-host Organism Identifiers, assumption 2 for more information).", "score": 0.41, "match_basis": "verbatim_token+domain_route:GF"}, {"md_atom_id": "md_dmGF_ex_a085", "md_file": "knowledge_base/domains/GF/examples.md", "md_atom_type": "SENTENCE", "md_parent_section": "§GF.5 [Example 5]", "md_verbatim": "Tests that diagnose or identify the presence of an infectious agent in a subject sample are represented in the MB domain, regardless of the methodology used. In this example, the subject was diagnosed with influenza A H3N2 via a nucleic acid amplification test (NAAT) at the baseline visit. MBTEST = \"Microbial Organism Identification\" because the assay does not specifically test for the presence of 1 organism or subtype to the exclusion of all others.", "score": 0.3994, "match_basis": "verbatim_token+domain_route:GF"}, {"md_atom_id": "md_dmGF_ex_a098", "md_file": "knowledge_base/domains/GF/examples.md", "md_atom_type": "SENTENCE", "md_parent_section": "§GF.5 [Example 5]", "md_verbatim": "The susceptibility data stemming from this genetic testing above are represented in MS (see Section 6.3.5.7.2, Microbiology Susceptibility, assumption 1b). GFLINKID matches MSLNKID to connect the records in GF with the corresponding conclusion regarding susceptibility in MS. As above, NHOID is used to indicate that influenza A H3N2 is the focus of these records. MSAGENT represents the drug to which the results of susceptible or resistant pertain.", "score": 0.385, "match_basis": "verbatim_token+domain_route:GF"}, {"md_atom_id": "md_dmGF_ex_a090", "md_file": "knowledge_base/domains/GF/examples.md", "md_atom_type": "SENTENCE", "md_parent_section": "§GF.5 [Example 5]", "md_verbatim": "GFLNKID serves as the link between this dataset and the MS dataset which follows.", "score": 0.3806, "match_basis": "verbatim_token+domain_route:GF"}, {"md_atom_id": "md_dmGF_ex_a089", "md_file": "knowledge_base/domains/GF/examples.md", "md_atom_type": "SENTENCE", "md_parent_section": "§GF.5 [Example 5]", "md_verbatim": "Next, a series of virus samples extracted from the subject underwent targeted single nucleotide polymorphism (SNP) testing to determine the feasibility of using the neuraminidase inhibitor oseltamivir to treat the infection (i.e., drug susceptibility testing). Findings from this testing provide both genetic data in the form of the genotype identified and the susceptibility/resistance data as inferred phenotype. Genotypic findings are represented in the GF domain, and inferred susceptibility/resistance in MS.", "score": 0.3781, "match_basis": "verbatim_token+domain_route:GF"}], "candidate_count": 5, "zero_candidate": false}
{"pdf_atom_id": "ig34_p0228_a001", "pdf_atom_type": "SENTENCE", "pdf_source": "SDTMIG_v3.4", "pdf_page": 228, "pdf_parent_section": "§6.3.5.4 Genomics Findings (GF)", "pdf_verbatim": "GFLNKID serves as the link between this dataset and the MS dataset which follows.", "figure_ref": null, "candidates": [{"md_atom_id": "md_dmGF_ex_a090", "md_file": "knowledge_base/domains/GF/examples.md", "md_atom_type": "SENTENCE", "md_parent_section": "§GF.5 [Example 5]", "md_verbatim": "GFLNKID serves as the link between this dataset and the MS dataset which follows.", "score": 1.0, "match_basis": "verbatim_token+domain_route:GF"}, {"md_atom_id": "md_dmGF_ex_a106", "md_file": "knowledge_base/domains/GF/examples.md", "md_atom_type": "SENTENCE", "md_parent_section": "§GF.5 [Example 5]", "md_verbatim": "The relrec dataset example shows the relationship between the genetic assessment in GF and the resistance/susceptibility data in MS.", "score": 0.4907, "match_basis": "verbatim_token+domain_route:GF"}, {"md_atom_id": "md_dmGF_ex_a007", "md_file": "knowledge_base/domains/GF/examples.md", "md_atom_type": "SENTENCE", "md_parent_section": "§GF.1 [Example 1]", "md_verbatim": "**Row 4:** Shows the number of times the locus specified in variables GFCHROM and GFGENLOC was observed.", "score": 0.4486, "match_basis": "verbatim_token+domain_route:GF"}, {"md_atom_id": "md_dmGF_ex_a098", "md_file": "knowledge_base/domains/GF/examples.md", "md_atom_type": "SENTENCE", "md_parent_section": "§GF.5 [Example 5]", "md_verbatim": "The susceptibility data stemming from this genetic testing above are represented in MS (see Section 6.3.5.7.2, Microbiology Susceptibility, assumption 1b). GFLINKID matches MSLNKID to connect the records in GF with the corresponding conclusion regarding susceptibility in MS. As above, NHOID is used to indicate that influenza A H3N2 is the focus of these records. MSAGENT represents the drug to which the results of susceptible or resistant pertain.", "score": 0.4464, "match_basis": "verbatim_token+domain_route:GF"}, {"md_atom_id": "md_dmGF_ex_a033", "md_file": "knowledge_base/domains/GF/examples.md", "md_atom_type": "SENTENCE", "md_parent_section": "§GF.2 [Example 2]", "md_verbatim": "**Row 3:** Shows a subject genotype which is homozygous for the nucleotide in the reference sequence.", "score": 0.44, "match_basis": "verbatim_token+domain_route:GF"}], "candidate_count": 5, "zero_candidate": false}
{"pdf_atom_id": "ig34_p0228_a002", "pdf_atom_type": "LIST_ITEM", "pdf_source": "SDTMIG_v3.4", "pdf_page": 228, "pdf_parent_section": "§6.3.5.4 Genomics Findings (GF)", "pdf_verbatim": "Row 1:\tShows the result of a targeted test to detect a single nucleotide polymorphism in the influenza neuraminidase gene known to confer resistance to the drug oseltamivir. The result (R292R) indicates that the amino acid residue R (arginine) at position 292 remains unchanged at the baseline visit", "figure_ref": null, "candidates": [{"md_atom_id": "md_dmGF_ex_a091", "md_file": "knowledge_base/domains/GF/examples.md", "md_atom_type": "SENTENCE", "md_parent_section": "§GF.5 [Example 5]", "md_verbatim": "**Row 1:** Shows the result of a targeted test to detect a single nucleotide polymorphism in the influenza neuraminidase gene known to confer resistance to the drug oseltamivir. The result (R292R) indicates that the amino acid residue R (arginine) at position 292 remains unchanged at the baseline visit.", "score": 0.91, "match_basis": "verbatim_token+domain_route:GF"}, {"md_atom_id": "md_dmGF_ex_a089", "md_file": "knowledge_base/domains/GF/examples.md", "md_atom_type": "SENTENCE", "md_parent_section": "§GF.5 [Example 5]", "md_verbatim": "Next, a series of virus samples extracted from the subject underwent targeted single nucleotide polymorphism (SNP) testing to determine the feasibility of using the neuraminidase inhibitor oseltamivir to treat the infection (i.e., drug susceptibility testing). Findings from this testing provide both genetic data in the form of the genotype identified and the susceptibility/resistance data as inferred phenotype. Genotypic findings are represented in the GF domain, and inferred susceptibility/resistance in MS.", "score": 0.495, "match_basis": "verbatim_token+domain_route:GF"}, {"md_atom_id": "md_dmGF_assn_a006", "md_file": "knowledge_base/domains/GF/assumptions.md", "md_atom_type": "LIST_ITEM", "md_parent_section": "§GF [GF — Assumptions]", "md_verbatim": "   c. Tests that are used to determine the resistance/susceptibility of a non-host organism to a drug on a genetic basis should be represented in the Microbiology Susceptibility (MS) domain.", "score": 0.4885, "match_basis": "verbatim_token+domain_route:GF"}, {"md_atom_id": "md_dmGF_assn_a002", "md_file": "knowledge_base/domains/GF/assumptions.md", "md_atom_type": "LIST_ITEM", "md_parent_section": "§GF [GF — Assumptions]", "md_verbatim": "1. The Genomics Findings domain is used to represent findings related to the structure, function, evolution, mapping, and editing of subject and non-host organism genomic material of interest. This domain includes but is not limited to assessments and results for genetic variation and transcription, and summary measures derived from these assessments. The GF domain is used for findings from characteristics assessed from nucleic acids and may include subsequent inferences and/or predictions about related proteins/amino acids. However, direct assessments of proteins (e.g., assessments of amino acids) are out of scope for this domain.", "score": 0.4828, "match_basis": "verbatim_token+domain_route:GF"}, {"md_atom_id": "md_dmGF_assn_a007", "md_file": "knowledge_base/domains/GF/assumptions.md", "md_atom_type": "LIST_ITEM", "md_parent_section": "§GF [GF — Assumptions]", "md_verbatim": "   d. If the test provides both genetic data and susceptibility/resistance data, genetic data should be represented in GF and the susceptibility/resistance data should be represented in the MS domain (See Section 6.3.5.7.2, Microbiology Susceptibility, assumption 1b for more information).", "score": 0.4719, "match_basis": "verbatim_token+domain_route:GF"}], "candidate_count": 5, "zero_candidate": false}
