{"pdf_atom_id": "ig34_p0430_a030", "pdf_atom_type": "TABLE_ROW", "pdf_source": "SDTMIG_v3.4", "pdf_page": 430, "pdf_parent_section": "§8.2.2 RELREC Dataset Examples", "pdf_verbatim": "Row 1 | EFC1234 | AE | 123456 | AESEQ | 5 | | 1", "figure_ref": null, "candidates": [{"md_atom_id": "md_dmRELREC_ex_a009", "md_file": "knowledge_base/domains/RELREC/examples.md", "md_atom_type": "TABLE_ROW", "md_parent_section": "§RELREC.1.1 [Example 1]", "md_verbatim": "| 1 | EFC1234 | AE | 123456 | AESEQ | 5 | | 1 |", "score": 0.9455, "match_basis": "verbatim_token+domain_route:RELREC"}, {"md_atom_id": "md_dmRELREC_ex_a012", "md_file": "knowledge_base/domains/RELREC/examples.md", "md_atom_type": "TABLE_ROW", "md_parent_section": "§RELREC.1.1 [Example 1]", "md_verbatim": "| 4 | EFC1234 | AE | 123456 | AESEQ | 5 | | 2 |", "score": 0.9455, "match_basis": "verbatim_token+domain_route:RELREC"}, {"md_atom_id": "md_dmRELREC_ex_a019", "md_file": "knowledge_base/domains/RELREC/examples.md", "md_atom_type": "TABLE_ROW", "md_parent_section": "§RELREC.1.2 [Example 2]", "md_verbatim": "| 1 | EFC1234 | AE | 123456 | AESEQ | 5 | | 1 |", "score": 0.9455, "match_basis": "verbatim_token+domain_route:RELREC"}, {"md_atom_id": "md_dmRELREC_ex_a028", "md_file": "knowledge_base/domains/RELREC/examples.md", "md_atom_type": "TABLE_ROW", "md_parent_section": "§RELREC.1.3 [Example 3]", "md_verbatim": "| 1 | EFC1234 | AE | 123456 | AESEQ | 5 | | 1 |", "score": 0.9455, "match_basis": "verbatim_token+domain_route:RELREC"}, {"md_atom_id": "md_dmRELREC_ex_a010", "md_file": "knowledge_base/domains/RELREC/examples.md", "md_atom_type": "TABLE_ROW", "md_parent_section": "§RELREC.1.1 [Example 1]", "md_verbatim": "| 2 | EFC1234 | CM | 123456 | CMSEQ | 11 | | 1 |", "score": 0.7692, "match_basis": "verbatim_token+domain_route:RELREC"}], "candidate_count": 5, "zero_candidate": false}
{"pdf_atom_id": "ig34_p0430_a031", "pdf_atom_type": "TABLE_ROW", "pdf_source": "SDTMIG_v3.4", "pdf_page": 430, "pdf_parent_section": "§8.2.2 RELREC Dataset Examples", "pdf_verbatim": "Row 2 | EFC1234 | CM | 123456 | CMGRPID | COMBO1 | | 1", "figure_ref": null, "candidates": [{"md_atom_id": "md_dmRELREC_ex_a029", "md_file": "knowledge_base/domains/RELREC/examples.md", "md_atom_type": "TABLE_ROW", "md_parent_section": "§RELREC.1.3 [Example 3]", "md_verbatim": "| 2 | EFC1234 | CM | 123456 | CMGRPID | COMBO1 | | 1 |", "score": 0.9647, "match_basis": "verbatim_token+domain_route:RELREC"}, {"md_atom_id": "md_dmRELREC_ex_a009", "md_file": "knowledge_base/domains/RELREC/examples.md", "md_atom_type": "TABLE_ROW", "md_parent_section": "§RELREC.1.1 [Example 1]", "md_verbatim": "| 1 | EFC1234 | AE | 123456 | AESEQ | 5 | | 1 |", "score": 0.61, "match_basis": "verbatim_token+domain_route:RELREC"}, {"md_atom_id": "md_dmRELREC_ex_a010", "md_file": "knowledge_base/domains/RELREC/examples.md", "md_atom_type": "TABLE_ROW", "md_parent_section": "§RELREC.1.1 [Example 1]", "md_verbatim": "| 2 | EFC1234 | CM | 123456 | CMSEQ | 11 | | 1 |", "score": 0.61, "match_basis": "verbatim_token+domain_route:RELREC"}, {"md_atom_id": "md_dmRELREC_ex_a011", "md_file": "knowledge_base/domains/RELREC/examples.md", "md_atom_type": "TABLE_ROW", "md_parent_section": "§RELREC.1.1 [Example 1]", "md_verbatim": "| 3 | EFC1234 | CM | 123456 | CMSEQ | 12 | | 1 |", "score": 0.61, "match_basis": "verbatim_token+domain_route:RELREC"}, {"md_atom_id": "md_dmRELREC_ex_a012", "md_file": "knowledge_base/domains/RELREC/examples.md", "md_atom_type": "TABLE_ROW", "md_parent_section": "§RELREC.1.1 [Example 1]", "md_verbatim": "| 4 | EFC1234 | AE | 123456 | AESEQ | 5 | | 2 |", "score": 0.61, "match_basis": "verbatim_token+domain_route:RELREC"}], "candidate_count": 5, "zero_candidate": false}
{"pdf_atom_id": "ig34_p0430_a032", "pdf_atom_type": "TABLE_ROW", "pdf_source": "SDTMIG_v3.4", "pdf_page": 430, "pdf_parent_section": "§8.2.2 RELREC Dataset Examples", "pdf_verbatim": "Row 3 | EFC1234 | LB | 123456 | LBSEQ | 47 | | 1", "figure_ref": null, "candidates": [{"md_atom_id": "md_dmRELREC_ex_a013", "md_file": "knowledge_base/domains/RELREC/examples.md", "md_atom_type": "TABLE_ROW", "md_parent_section": "§RELREC.1.1 [Example 1]", "md_verbatim": "| 5 | EFC1234 | LB | 123456 | LBSEQ | 47 | | 2 |", "score": 0.9455, "match_basis": "verbatim_token+domain_route:RELREC"}, {"md_atom_id": "md_dmRELREC_ex_a014", "md_file": "knowledge_base/domains/RELREC/examples.md", "md_atom_type": "TABLE_ROW", "md_parent_section": "§RELREC.1.1 [Example 1]", "md_verbatim": "| 6 | EFC1234 | LB | 123456 | LBSEQ | 48 | | 2 |", "score": 0.9455, "match_basis": "verbatim_token+domain_route:RELREC"}, {"md_atom_id": "md_dmRELREC_ex_a022", "md_file": "knowledge_base/domains/RELREC/examples.md", "md_atom_type": "TABLE_ROW", "md_parent_section": "§RELREC.1.2 [Example 2]", "md_verbatim": "| 4 | EFC1234 | LB | 123456 | LBSEQ | 47 | | 1 |", "score": 0.9455, "match_basis": "verbatim_token+domain_route:RELREC"}, {"md_atom_id": "md_dmRELREC_ex_a023", "md_file": "knowledge_base/domains/RELREC/examples.md", "md_atom_type": "TABLE_ROW", "md_parent_section": "§RELREC.1.2 [Example 2]", "md_verbatim": "| 5 | EFC1234 | LB | 123456 | LBSEQ | 48 | | 1 |", "score": 0.9455, "match_basis": "verbatim_token+domain_route:RELREC"}, {"md_atom_id": "md_dmRELREC_ex_a030", "md_file": "knowledge_base/domains/RELREC/examples.md", "md_atom_type": "TABLE_ROW", "md_parent_section": "§RELREC.1.3 [Example 3]", "md_verbatim": "| 3 | EFC1234 | LB | 123456 | LBSEQ | 47 | | 1 |", "score": 0.9455, "match_basis": "verbatim_token+domain_route:RELREC"}], "candidate_count": 5, "zero_candidate": false}
{"pdf_atom_id": "ig34_p0430_a033", "pdf_atom_type": "TABLE_ROW", "pdf_source": "SDTMIG_v3.4", "pdf_page": 430, "pdf_parent_section": "§8.2.2 RELREC Dataset Examples", "pdf_verbatim": "Row 4 | EFC1234 | LB | 123456 | LBSEQ | 48 | | 1", "figure_ref": null, "candidates": [{"md_atom_id": "md_dmRELREC_ex_a013", "md_file": "knowledge_base/domains/RELREC/examples.md", "md_atom_type": "TABLE_ROW", "md_parent_section": "§RELREC.1.1 [Example 1]", "md_verbatim": "| 5 | EFC1234 | LB | 123456 | LBSEQ | 47 | | 2 |", "score": 0.9455, "match_basis": "verbatim_token+domain_route:RELREC"}, {"md_atom_id": "md_dmRELREC_ex_a014", "md_file": "knowledge_base/domains/RELREC/examples.md", "md_atom_type": "TABLE_ROW", "md_parent_section": "§RELREC.1.1 [Example 1]", "md_verbatim": "| 6 | EFC1234 | LB | 123456 | LBSEQ | 48 | | 2 |", "score": 0.9455, "match_basis": "verbatim_token+domain_route:RELREC"}, {"md_atom_id": "md_dmRELREC_ex_a022", "md_file": "knowledge_base/domains/RELREC/examples.md", "md_atom_type": "TABLE_ROW", "md_parent_section": "§RELREC.1.2 [Example 2]", "md_verbatim": "| 4 | EFC1234 | LB | 123456 | LBSEQ | 47 | | 1 |", "score": 0.9455, "match_basis": "verbatim_token+domain_route:RELREC"}, {"md_atom_id": "md_dmRELREC_ex_a023", "md_file": "knowledge_base/domains/RELREC/examples.md", "md_atom_type": "TABLE_ROW", "md_parent_section": "§RELREC.1.2 [Example 2]", "md_verbatim": "| 5 | EFC1234 | LB | 123456 | LBSEQ | 48 | | 1 |", "score": 0.9455, "match_basis": "verbatim_token+domain_route:RELREC"}, {"md_atom_id": "md_dmRELREC_ex_a030", "md_file": "knowledge_base/domains/RELREC/examples.md", "md_atom_type": "TABLE_ROW", "md_parent_section": "§RELREC.1.3 [Example 3]", "md_verbatim": "| 3 | EFC1234 | LB | 123456 | LBSEQ | 47 | | 1 |", "score": 0.9455, "match_basis": "verbatim_token+domain_route:RELREC"}], "candidate_count": 5, "zero_candidate": false}
{"pdf_atom_id": "ig34_p0430_a034", "pdf_atom_type": "SENTENCE", "pdf_source": "SDTMIG_v3.4", "pdf_page": 430, "pdf_parent_section": "§8.2.2 RELREC Dataset Examples", "pdf_verbatim": "Additional examples may be found in the domain examples such as Section 6.2.4, Disposition, Example 4, and all of the Pharmacokinetics examples in Section 6.3.5.9.3, Relating PP Records to PC Records.", "figure_ref": null, "candidates": [{"md_atom_id": "md_dmRELREC_ex_a032", "md_file": "knowledge_base/domains/RELREC/examples.md", "md_atom_type": "SENTENCE", "md_parent_section": "§RELREC.1.3 [Example 3]", "md_verbatim": "Additional examples may be found in the domain examples such as Section 6.2.4, Disposition, Example 4, and all of the Pharmacokinetics examples in Section 6.3.5.9.3, Relating PP Records to PC Records.", "score": 1.0, "match_basis": "verbatim_token+domain_route:RELREC"}, {"md_atom_id": "md_dmRELREC_ex_a025", "md_file": "knowledge_base/domains/RELREC/examples.md", "md_atom_type": "SENTENCE", "md_parent_section": "§RELREC.1.3 [Example 3]", "md_verbatim": "Example 3 is the same scenario as Example 2. However, the sponsor grouped the 2 concomitant medications in the CM domain using CMGRPID = \"COMBO 1\", allowing the relationship among these 5 records to be represented with 4, rather than 5, records in the RELREC dataset.", "score": 0.5029, "match_basis": "verbatim_token+domain_route:RELREC"}, {"md_atom_id": "md_dmRELREC_ex_a004", "md_file": "knowledge_base/domains/RELREC/examples.md", "md_atom_type": "SENTENCE", "md_parent_section": "§RELREC.1.1 [Example 1]", "md_verbatim": "This example illustrates the use of the RELREC dataset to relate records stored in separate domains for USUBJID = \"123456\". This example represents a situation in which a single adverse event is part of 2 collected relationships, one with 2 concomitant medications and the other with 2 laboratory findings, but there is no collected relationship between the 2 laboratory findings and the 2 concomitant medications.", "score": 0.4872, "match_basis": "verbatim_token+domain_route:RELREC"}, {"md_atom_id": "md_dmRELREC_ex_a035", "md_file": "knowledge_base/domains/RELREC/examples.md", "md_atom_type": "SENTENCE", "md_parent_section": "§RELREC.2.1 [Example 1]", "md_verbatim": "This example illustrates RELREC records used to represent the relationship between records in 2 datasets that have a one-to-many relationship. Note that because this is a dataset-to-dataset relationship, USUBJID and IDVARVAL are null.", "score": 0.4864, "match_basis": "verbatim_token+domain_route:RELREC"}, {"md_atom_id": "md_dmRELREC_ex_a006", "md_file": "knowledge_base/domains/RELREC/examples.md", "md_atom_type": "SENTENCE", "md_parent_section": "§RELREC.1.1 [Example 1]", "md_verbatim": "**Rows 4-6:** Show the representation of a relationship between the same AE record and 2 laboratory findings records.", "score": 0.4857, "match_basis": "verbatim_token+domain_route:RELREC"}], "candidate_count": 5, "zero_candidate": false}
{"pdf_atom_id": "ig34_p0430_a035", "pdf_atom_type": "HEADING", "pdf_source": "SDTMIG_v3.4", "pdf_page": 430, "pdf_parent_section": "§8 [REPRESENTING RELATIONSHIPS AND DATA]", "pdf_verbatim": "8.3 Relating Datasets", "figure_ref": null, "candidates": [{"md_atom_id": "md_ch08_a109", "md_file": "knowledge_base/chapters/ch08_relationships.md", "md_atom_type": "HEADING", "md_parent_section": "§8 [Representing Relationships and Data]", "md_verbatim": "## 8.3 Relating Datasets Using RELREC", "score": 0.7235, "match_basis": "verbatim_token+chapter_route:ch08"}, {"md_atom_id": "md_ch08_a114", "md_file": "knowledge_base/chapters/ch08_relationships.md", "md_atom_type": "HEADING", "md_parent_section": "§8.3 [Relating Datasets Using RELREC]", "md_verbatim": "### 8.3.1 RELREC Dataset Relationship Example", "score": 0.5077, "match_basis": "verbatim_token+chapter_route:ch08"}, {"md_atom_id": "md_ch08_a052", "md_file": "knowledge_base/chapters/ch08_relationships.md", "md_atom_type": "HEADING", "md_parent_section": "§8 [Representing Relationships and Data]", "md_verbatim": "## 8.2 Relating Peer Records", "score": 0.4895, "match_basis": "verbatim_token+chapter_route:ch08"}, {"md_atom_id": "md_ch08_a081", "md_file": "knowledge_base/chapters/ch08_relationships.md", "md_atom_type": "HEADING", "md_parent_section": "§8.2 [Relating Peer Records]", "md_verbatim": "### 8.2.2 RELREC Dataset Examples", "score": 0.4714, "match_basis": "verbatim_token+chapter_route:ch08"}, {"md_atom_id": "md_ch08_a205", "md_file": "knowledge_base/chapters/ch08_relationships.md", "md_atom_type": "HEADING", "md_parent_section": "§8 [Representing Relationships and Data]", "md_verbatim": "## 8.5 Relating Comments to a Parent Domain", "score": 0.444, "match_basis": "verbatim_token+chapter_route:ch08"}], "candidate_count": 5, "zero_candidate": false}
{"pdf_atom_id": "ig34_p0430_a036", "pdf_atom_type": "SENTENCE", "pdf_source": "SDTMIG_v3.4", "pdf_page": 430, "pdf_parent_section": "§8.3 Relating Datasets", "pdf_verbatim": "The Related Records (RELREC) special-purpose dataset can also be used to identify relationships between datasets (e.g., a one-to-many or parent-child relationship).", "figure_ref": null, "candidates": [{"md_atom_id": "md_ch08_a110", "md_file": "knowledge_base/chapters/ch08_relationships.md", "md_atom_type": "SENTENCE", "md_parent_section": "§8.3 [Relating Datasets Using RELREC]", "md_verbatim": "The Related Records (RELREC) special-purpose dataset can also be used to identify relationships between datasets (e.g., a one-to-many or parent-child relationship).", "score": 0.9, "match_basis": "verbatim_token+chapter_route:ch08"}, {"md_atom_id": "md_ch08_a053", "md_file": "knowledge_base/chapters/ch08_relationships.md", "md_atom_type": "SENTENCE", "md_parent_section": "§8.2 [Relating Peer Records]", "md_verbatim": "The Related Records (RELREC) special-purpose dataset is used to describe relationships between records for a subject (as described in this section), and relationships between datasets (as described in Section 8.3, Relating Datasets).", "score": 0.622, "match_basis": "verbatim_token+chapter_route:ch08"}, {"md_atom_id": "md_ch08_a056", "md_file": "knowledge_base/chapters/ch08_relationships.md", "md_atom_type": "SENTENCE", "md_parent_section": "§8.2 [Relating Peer Records]", "md_verbatim": "Each record in the RELREC special-purpose dataset contains keys that identify a record (or group of records) and the relationship identifier, which is stored in the RELID variable.", "score": 0.5437, "match_basis": "verbatim_token+chapter_route:ch08"}, {"md_atom_id": "md_ch08_a317", "md_file": "knowledge_base/chapters/ch08_relationships.md", "md_atom_type": "SENTENCE", "md_parent_section": "§8.8 [Related Specimens (RELSPEC)]", "md_verbatim": "A dataset used to represent relationships between specimens.", "score": 0.525, "match_basis": "verbatim_token+chapter_route:ch08"}, {"md_atom_id": "md_ch08_a125", "md_file": "knowledge_base/chapters/ch08_relationships.md", "md_atom_type": "SENTENCE", "md_parent_section": "§8.3.1 [RELREC Dataset Relationship Example]", "md_verbatim": "The variable RELTYPE identifies the type of relationship between the datasets.", "score": 0.516, "match_basis": "verbatim_token+chapter_route:ch08"}], "candidate_count": 5, "zero_candidate": false}
{"pdf_atom_id": "ig34_p0430_a037", "pdf_atom_type": "SENTENCE", "pdf_source": "SDTMIG_v3.4", "pdf_page": 430, "pdf_parent_section": "§8.3 Relating Datasets", "pdf_verbatim": "The relationship is defined by including a single record for each related dataset that identifies the key(s) of the dataset that can be used to relate the respective records.", "figure_ref": null, "candidates": [{"md_atom_id": "md_ch08_a111", "md_file": "knowledge_base/chapters/ch08_relationships.md", "md_atom_type": "SENTENCE", "md_parent_section": "§8.3 [Relating Datasets Using RELREC]", "md_verbatim": "The relationship is defined by including a single record for each related dataset that identifies the key(s) of the dataset that can be used to relate the respective records.", "score": 0.9, "match_basis": "verbatim_token+chapter_route:ch08"}, {"md_atom_id": "md_ch08_a055", "md_file": "knowledge_base/chapters/ch08_relationships.md", "md_atom_type": "SENTENCE", "md_parent_section": "§8.2 [Relating Peer Records]", "md_verbatim": "A relationship is defined by adding a record to RELREC for each record to be related and by assigning a unique character identifier value for the relationship.", "score": 0.5292, "match_basis": "verbatim_token+chapter_route:ch08"}, {"md_atom_id": "md_ch08_a110", "md_file": "knowledge_base/chapters/ch08_relationships.md", "md_atom_type": "SENTENCE", "md_parent_section": "§8.3 [Relating Datasets Using RELREC]", "md_verbatim": "The Related Records (RELREC) special-purpose dataset can also be used to identify relationships between datasets (e.g., a one-to-many or parent-child relationship).", "score": 0.5152, "match_basis": "verbatim_token+chapter_route:ch08"}, {"md_atom_id": "md_ch08_a056", "md_file": "knowledge_base/chapters/ch08_relationships.md", "md_atom_type": "SENTENCE", "md_parent_section": "§8.2 [Relating Peer Records]", "md_verbatim": "Each record in the RELREC special-purpose dataset contains keys that identify a record (or group of records) and the relationship identifier, which is stored in the RELID variable.", "score": 0.5079, "match_basis": "verbatim_token+chapter_route:ch08"}, {"md_atom_id": "md_ch08_a053", "md_file": "knowledge_base/chapters/ch08_relationships.md", "md_atom_type": "SENTENCE", "md_parent_section": "§8.2 [Relating Peer Records]", "md_verbatim": "The Related Records (RELREC) special-purpose dataset is used to describe relationships between records for a subject (as described in this section), and relationships between datasets (as described in Section 8.3, Relating Datasets).", "score": 0.4938, "match_basis": "verbatim_token+chapter_route:ch08"}], "candidate_count": 5, "zero_candidate": false}
{"pdf_atom_id": "ig34_p0430_a038", "pdf_atom_type": "SENTENCE", "pdf_source": "SDTMIG_v3.4", "pdf_page": 430, "pdf_parent_section": "§8.3 Relating Datasets", "pdf_verbatim": "Relationships between datasets should only be recorded in the RELREC dataset when the sponsor has found it necessary to split information between datasets that are related, and that may need to be examined together for analysis or proper interpretation.", "figure_ref": null, "candidates": [{"md_atom_id": "md_ch08_a112", "md_file": "knowledge_base/chapters/ch08_relationships.md", "md_atom_type": "SENTENCE", "md_parent_section": "§8.3 [Relating Datasets Using RELREC]", "md_verbatim": "Relationships between datasets should only be recorded in the RELREC dataset when the sponsor has found it necessary to split information between datasets that are related, and that may need to be examined together for analysis or proper interpretation.", "score": 0.9, "match_basis": "verbatim_token+chapter_route:ch08"}, {"md_atom_id": "md_ch08_a053", "md_file": "knowledge_base/chapters/ch08_relationships.md", "md_atom_type": "SENTENCE", "md_parent_section": "§8.2 [Relating Peer Records]", "md_verbatim": "The Related Records (RELREC) special-purpose dataset is used to describe relationships between records for a subject (as described in this section), and relationships between datasets (as described in Section 8.3, Relating Datasets).", "score": 0.4489, "match_basis": "verbatim_token+chapter_route:ch08"}, {"md_atom_id": "md_ch08_a115", "md_file": "knowledge_base/chapters/ch08_relationships.md", "md_atom_type": "SENTENCE", "md_parent_section": "§8.3.1 [RELREC Dataset Relationship Example]", "md_verbatim": "**Example 1:** This example illustrates RELREC records used to represent the relationship between records in 2 datasets that have a one-to-many relationship. Note that because this is a dataset-to-dataset relationship, USUBJID and IDVARVAL are null.", "score": 0.4459, "match_basis": "verbatim_token+chapter_route:ch08"}, {"md_atom_id": "md_ch08_a110", "md_file": "knowledge_base/chapters/ch08_relationships.md", "md_atom_type": "SENTENCE", "md_parent_section": "§8.3 [Relating Datasets Using RELREC]", "md_verbatim": "The Related Records (RELREC) special-purpose dataset can also be used to identify relationships between datasets (e.g., a one-to-many or parent-child relationship).", "score": 0.4455, "match_basis": "verbatim_token+chapter_route:ch08"}, {"md_atom_id": "md_ch08_a005", "md_file": "knowledge_base/chapters/ch08_relationships.md", "md_atom_type": "SENTENCE", "md_parent_section": "§8 [Representing Relationships and Data]", "md_verbatim": "Collected data that may not entirely fit includes relationships between records within a domain, records in separate domains, and sponsor-defined \"variables.\"", "score": 0.4397, "match_basis": "verbatim_token+chapter_route:ch08"}], "candidate_count": 5, "zero_candidate": false}
{"pdf_atom_id": "ig34_p0430_a039", "pdf_atom_type": "SENTENCE", "pdf_source": "SDTMIG_v3.4", "pdf_page": 430, "pdf_parent_section": "§8.3 Relating Datasets", "pdf_verbatim": "Note that it is not necessary to use the RELREC dataset to identify associations from data in the SUPP-- datasets or the Comments (CO) dataset to their parent general-observation class dataset records or special-purpose domain records, as both these datasets include the key variable identifiers of the parent record(s) that are necessary to make the association.", "figure_ref": null, "candidates": [{"md_atom_id": "md_ch08_a113", "md_file": "knowledge_base/chapters/ch08_relationships.md", "md_atom_type": "SENTENCE", "md_parent_section": "§8.3 [Relating Datasets Using RELREC]", "md_verbatim": "Note that it is not necessary to use the RELREC dataset to identify associations from data in the SUPP-- datasets or the Comments (CO) dataset to their parent general-observation class dataset records or special-purpose domain records, as both these datasets include the key variable identifiers of the parent record(s) that are necessary to make the association.", "score": 0.9, "match_basis": "verbatim_token+chapter_route:ch08"}, {"md_atom_id": "md_ch08_a136", "md_file": "knowledge_base/chapters/ch08_relationships.md", "md_atom_type": "SENTENCE", "md_parent_section": "§8.4 [Relating Non-standard Variable Values to a Parent Domain]", "md_verbatim": "Therefore, the Supplemental Qualifiers special-purpose dataset model is used to capture non-standard variables (NSVs) and their association to parent records in general-observation class datasets (Events, Findings, Interventions), Demographics (DM), and Subject Visits (SV).", "score": 0.5316, "match_basis": "verbatim_token+chapter_route:ch08"}, {"md_atom_id": "md_ch08_a056", "md_file": "knowledge_base/chapters/ch08_relationships.md", "md_atom_type": "SENTENCE", "md_parent_section": "§8.2 [Relating Peer Records]", "md_verbatim": "Each record in the RELREC special-purpose dataset contains keys that identify a record (or group of records) and the relationship identifier, which is stored in the RELID variable.", "score": 0.5153, "match_basis": "verbatim_token+chapter_route:ch08"}, {"md_atom_id": "md_ch08_a154", "md_file": "knowledge_base/chapters/ch08_relationships.md", "md_atom_type": "SENTENCE", "md_parent_section": "§8.4 [Relating Non-standard Variable Values to a Parent Domain]", "md_verbatim": "Just as use of the optional grouping identifier variable (--GRPID) can be a more efficient method of representing relationships in RELREC, it can also be used in a SUPP-- dataset to identify individual qualifier values (SUPP-- records) related to multiple general-observation class domain records that could be grouped, such as relating an attribution to a group of ECG measurements.", "score": 0.4834, "match_basis": "verbatim_token+chapter_route:ch08"}, {"md_atom_id": "md_ch08_a110", "md_file": "knowledge_base/chapters/ch08_relationships.md", "md_atom_type": "SENTENCE", "md_parent_section": "§8.3 [Relating Datasets Using RELREC]", "md_verbatim": "The Related Records (RELREC) special-purpose dataset can also be used to identify relationships between datasets (e.g., a one-to-many or parent-child relationship).", "score": 0.4828, "match_basis": "verbatim_token+chapter_route:ch08"}], "candidate_count": 5, "zero_candidate": false}
{"pdf_atom_id": "ig34_p0431_a001", "pdf_atom_type": "HEADING", "pdf_source": "SDTMIG_v3.4", "pdf_page": 431, "pdf_parent_section": "§8.3 [RELATING DATASETS]", "pdf_verbatim": "8.3.1 RELREC Dataset Relationship Example", "figure_ref": null, "candidates": [{"md_atom_id": "md_ch08_a114", "md_file": "knowledge_base/chapters/ch08_relationships.md", "md_atom_type": "HEADING", "md_parent_section": "§8.3 [Relating Datasets Using RELREC]", "md_verbatim": "### 8.3.1 RELREC Dataset Relationship Example", "score": 0.9, "match_basis": "verbatim_token+chapter_route:ch08"}, {"md_atom_id": "md_ch08_a081", "md_file": "knowledge_base/chapters/ch08_relationships.md", "md_atom_type": "HEADING", "md_parent_section": "§8.2 [Relating Peer Records]", "md_verbatim": "### 8.2.2 RELREC Dataset Examples", "score": 0.65, "match_basis": "verbatim_token+chapter_route:ch08"}, {"md_atom_id": "md_ch08_a109", "md_file": "knowledge_base/chapters/ch08_relationships.md", "md_atom_type": "HEADING", "md_parent_section": "§8 [Representing Relationships and Data]", "md_verbatim": "## 8.3 Relating Datasets Using RELREC", "score": 0.5571, "match_basis": "verbatim_token+chapter_route:ch08"}, {"md_atom_id": "md_ch08_a001", "md_file": "knowledge_base/chapters/ch08_relationships.md", "md_atom_type": "HEADING", "md_parent_section": "§8 [Representing Relationships and Data]", "md_verbatim": "# SDTMIG v3.4 — Chapter 8: Representing Relationships and Data", "score": 0.4636, "match_basis": "verbatim_token+chapter_route:ch08"}, {"md_atom_id": "md_ch08_a292", "md_file": "knowledge_base/chapters/ch08_relationships.md", "md_atom_type": "HEADING", "md_parent_section": "§8.7 [Related Subjects (RELSUB)]", "md_verbatim": "### Example", "score": 0.4304, "match_basis": "verbatim_token+chapter_route:ch08"}], "candidate_count": 5, "zero_candidate": false}
{"pdf_atom_id": "ig34_p0431_a002", "pdf_atom_type": "HEADING", "pdf_source": "SDTMIG_v3.4", "pdf_page": 431, "pdf_parent_section": "§8.3.1 RELREC Dataset Relationship Example", "pdf_verbatim": "Example 1", "figure_ref": null, "candidates": [{"md_atom_id": "md_dmRELREC_ex_a003", "md_file": "knowledge_base/domains/RELREC/examples.md", "md_atom_type": "HEADING", "md_parent_section": "§RELREC.1 [Peer Record Examples]", "md_verbatim": "### Example 1", "score": 1.0, "match_basis": "verbatim_token+domain_route:RELREC"}, {"md_atom_id": "md_dmRELREC_ex_a015", "md_file": "knowledge_base/domains/RELREC/examples.md", "md_atom_type": "HEADING", "md_parent_section": "§RELREC.1 [Peer Record Examples]", "md_verbatim": "### Example 2", "score": 1.0, "match_basis": "verbatim_token+domain_route:RELREC"}, {"md_atom_id": "md_dmRELREC_ex_a024", "md_file": "knowledge_base/domains/RELREC/examples.md", "md_atom_type": "HEADING", "md_parent_section": "§RELREC.1 [Peer Record Examples]", "md_verbatim": "### Example 3", "score": 1.0, "match_basis": "verbatim_token+domain_route:RELREC"}, {"md_atom_id": "md_dmRELREC_ex_a034", "md_file": "knowledge_base/domains/RELREC/examples.md", "md_atom_type": "HEADING", "md_parent_section": "§RELREC.2 [Dataset Relationship Example]", "md_verbatim": "### Example 1", "score": 1.0, "match_basis": "verbatim_token+domain_route:RELREC"}, {"md_atom_id": "md_dmRELREC_ex_a001", "md_file": "knowledge_base/domains/RELREC/examples.md", "md_atom_type": "HEADING", "md_parent_section": "§RELREC [RELREC — Examples]", "md_verbatim": "# RELREC — Examples", "score": 0.7, "match_basis": "verbatim_token+domain_route:RELREC"}, {"md_atom_id": "md_dmRELREC_ex_a002", "md_file": "knowledge_base/domains/RELREC/examples.md", "md_atom_type": "HEADING", "md_parent_section": "§RELREC [RELREC — Examples]", "md_verbatim": "## Peer Record Examples", "score": 0.65, "match_basis": "verbatim_token+domain_route:RELREC"}, {"md_atom_id": "md_dmRELREC_ex_a033", "md_file": "knowledge_base/domains/RELREC/examples.md", "md_atom_type": "HEADING", "md_parent_section": "§RELREC [RELREC — Examples]", "md_verbatim": "## Dataset Relationship Example", "score": 0.55, "match_basis": "verbatim_token+domain_route:RELREC"}, {"md_atom_id": "md_dmRELREC_assn_a001", "md_file": "knowledge_base/domains/RELREC/assumptions.md", "md_atom_type": "HEADING", "md_parent_section": "§RELREC [RELREC — Assumptions]", "md_verbatim": "# RELREC — Assumptions", "score": 0.4, "match_basis": "verbatim_token+domain_route:RELREC"}, {"md_atom_id": "md_dmRELREC_assn_a004", "md_file": "knowledge_base/domains/RELREC/assumptions.md", "md_atom_type": "HEADING", "md_parent_section": "§RELREC [RELREC — Assumptions]", "md_verbatim": "## Relating Peer Records", "score": 0.4, "match_basis": "verbatim_token+domain_route:RELREC"}, {"md_atom_id": "md_dmRELREC_assn_a013", "md_file": "knowledge_base/domains/RELREC/assumptions.md", "md_atom_type": "HEADING", "md_parent_section": "§RELREC [RELREC — Assumptions]", "md_verbatim": "## Relating Datasets", "score": 0.4, "match_basis": "verbatim_token+domain_route:RELREC"}], "candidate_count": 10, "zero_candidate": false}
{"pdf_atom_id": "ig34_p0431_a003", "pdf_atom_type": "SENTENCE", "pdf_source": "SDTMIG_v3.4", "pdf_page": 431, "pdf_parent_section": "§8.3.1 RELREC Dataset Relationship Example", "pdf_verbatim": "This example illustrates RELREC records used to represent the relationship between records in 2 datasets that have a one-to-many relationship.", "figure_ref": null, "candidates": [{"md_atom_id": "md_dmRELREC_ex_a035", "md_file": "knowledge_base/domains/RELREC/examples.md", "md_atom_type": "SENTENCE", "md_parent_section": "§RELREC.2.1 [Example 1]", "md_verbatim": "This example illustrates RELREC records used to represent the relationship between records in 2 datasets that have a one-to-many relationship. Note that because this is a dataset-to-dataset relationship, USUBJID and IDVARVAL are null.", "score": 0.8463, "match_basis": "verbatim_token+domain_route:RELREC"}, {"md_atom_id": "md_dmRELREC_ex_a004", "md_file": "knowledge_base/domains/RELREC/examples.md", "md_atom_type": "SENTENCE", "md_parent_section": "§RELREC.1.1 [Example 1]", "md_verbatim": "This example illustrates the use of the RELREC dataset to relate records stored in separate domains for USUBJID = \"123456\". This example represents a situation in which a single adverse event is part of 2 collected relationships, one with 2 concomitant medications and the other with 2 laboratory findings, but there is no collected relationship between the 2 laboratory findings and the 2 concomitant medications.", "score": 0.6208, "match_basis": "verbatim_token+domain_route:RELREC"}, {"md_atom_id": "md_dmRELREC_ex_a006", "md_file": "knowledge_base/domains/RELREC/examples.md", "md_atom_type": "SENTENCE", "md_parent_section": "§RELREC.1.1 [Example 1]", "md_verbatim": "**Rows 4-6:** Show the representation of a relationship between the same AE record and 2 laboratory findings records.", "score": 0.6096, "match_basis": "verbatim_token+domain_route:RELREC"}, {"md_atom_id": "md_dmRELREC_assn_a014", "md_file": "knowledge_base/domains/RELREC/assumptions.md", "md_atom_type": "SENTENCE", "md_parent_section": "§RELREC [RELREC — Assumptions]", "md_verbatim": "The Related Records (RELREC) special-purpose dataset can also be used to identify relationships between datasets (e.g., a one-to-many or parent-child relationship). The relationship is defined by including a single record for each related dataset that identifies the key(s) of the dataset that can be used to relate the respective records.", "score": 0.6053, "match_basis": "verbatim_token+domain_route:RELREC"}, {"md_atom_id": "md_dmRELREC_ex_a005", "md_file": "knowledge_base/domains/RELREC/examples.md", "md_atom_type": "SENTENCE", "md_parent_section": "§RELREC.1.1 [Example 1]", "md_verbatim": "**Rows 1-3:** Show the representation of a relationship between an AE record and 2 concomitant medication records.", "score": 0.6049, "match_basis": "verbatim_token+domain_route:RELREC"}], "candidate_count": 5, "zero_candidate": false}
{"pdf_atom_id": "ig34_p0431_a004", "pdf_atom_type": "SENTENCE", "pdf_source": "SDTMIG_v3.4", "pdf_page": 431, "pdf_parent_section": "§8.3.1 RELREC Dataset Relationship Example", "pdf_verbatim": "Note that because this is a dataset-to-dataset relationship, USUBJID and IDVARVAL are null.", "figure_ref": null, "candidates": [{"md_atom_id": "md_dmRELREC_ex_a035", "md_file": "knowledge_base/domains/RELREC/examples.md", "md_atom_type": "SENTENCE", "md_parent_section": "§RELREC.2.1 [Example 1]", "md_verbatim": "This example illustrates RELREC records used to represent the relationship between records in 2 datasets that have a one-to-many relationship. Note that because this is a dataset-to-dataset relationship, USUBJID and IDVARVAL are null.", "score": 0.7, "match_basis": "verbatim_token+domain_route:RELREC"}, {"md_atom_id": "md_dmRELREC_assn_a014", "md_file": "knowledge_base/domains/RELREC/assumptions.md", "md_atom_type": "SENTENCE", "md_parent_section": "§RELREC [RELREC — Assumptions]", "md_verbatim": "The Related Records (RELREC) special-purpose dataset can also be used to identify relationships between datasets (e.g., a one-to-many or parent-child relationship). The relationship is defined by including a single record for each related dataset that identifies the key(s) of the dataset that can be used to relate the respective records.", "score": 0.5, "match_basis": "verbatim_token+domain_route:RELREC"}, {"md_atom_id": "md_dmRELREC_ex_a016", "md_file": "knowledge_base/domains/RELREC/examples.md", "md_atom_type": "SENTENCE", "md_parent_section": "§RELREC.1.2 [Example 2]", "md_verbatim": "Example 2 is the same scenario as Example 1. In this case, however, the way the data were collected indicated that the concomitant medications and laboratory findings were all in a single relationship to each other and the adverse event.", "score": 0.4947, "match_basis": "verbatim_token+domain_route:RELREC"}, {"md_atom_id": "md_dmRELREC_assn_a016", "md_file": "knowledge_base/domains/RELREC/assumptions.md", "md_atom_type": "SENTENCE", "md_parent_section": "§RELREC [RELREC — Assumptions]", "md_verbatim": "The variable RELTYPE identifies the type of relationship between the datasets. The allowable values are ONE and MANY (controlled terminology is expected). This information defines how a merge/join would be written, and what would be the result of the merge/join. The possible combinations are:", "score": 0.4943, "match_basis": "verbatim_token+domain_route:RELREC"}, {"md_atom_id": "md_dmRELREC_ex_a004", "md_file": "knowledge_base/domains/RELREC/examples.md", "md_atom_type": "SENTENCE", "md_parent_section": "§RELREC.1.1 [Example 1]", "md_verbatim": "This example illustrates the use of the RELREC dataset to relate records stored in separate domains for USUBJID = \"123456\". This example represents a situation in which a single adverse event is part of 2 collected relationships, one with 2 concomitant medications and the other with 2 laboratory findings, but there is no collected relationship between the 2 laboratory findings and the 2 concomitant medications.", "score": 0.4941, "match_basis": "verbatim_token+domain_route:RELREC"}], "candidate_count": 5, "zero_candidate": false}
{"pdf_atom_id": "ig34_p0431_a005", "pdf_atom_type": "CODE_LITERAL", "pdf_source": "SDTMIG_v3.4", "pdf_page": 431, "pdf_parent_section": "§8.3.1 RELREC Dataset Relationship Example", "pdf_verbatim": "relrec.xpt", "figure_ref": null, "candidates": [{"md_atom_id": "md_dmRELREC_ex_a007", "md_file": "knowledge_base/domains/RELREC/examples.md", "md_atom_type": "SENTENCE", "md_parent_section": "§RELREC.1.1 [Example 1]", "md_verbatim": "**relrec.xpt**", "score": 0.79, "match_basis": "verbatim_token+domain_route:RELREC"}, {"md_atom_id": "md_dmRELREC_ex_a017", "md_file": "knowledge_base/domains/RELREC/examples.md", "md_atom_type": "SENTENCE", "md_parent_section": "§RELREC.1.2 [Example 2]", "md_verbatim": "**relrec.xpt**", "score": 0.79, "match_basis": "verbatim_token+domain_route:RELREC"}, {"md_atom_id": "md_dmRELREC_ex_a026", "md_file": "knowledge_base/domains/RELREC/examples.md", "md_atom_type": "SENTENCE", "md_parent_section": "§RELREC.1.3 [Example 3]", "md_verbatim": "**relrec.xpt**", "score": 0.79, "match_basis": "verbatim_token+domain_route:RELREC"}, {"md_atom_id": "md_dmRELREC_ex_a036", "md_file": "knowledge_base/domains/RELREC/examples.md", "md_atom_type": "SENTENCE", "md_parent_section": "§RELREC.2.1 [Example 1]", "md_verbatim": "**relrec.xpt**", "score": 0.79, "match_basis": "verbatim_token+domain_route:RELREC"}, {"md_atom_id": "md_dmRELREC_ex_a001", "md_file": "knowledge_base/domains/RELREC/examples.md", "md_atom_type": "HEADING", "md_parent_section": "§RELREC [RELREC — Examples]", "md_verbatim": "# RELREC — Examples", "score": 0.4082, "match_basis": "verbatim_token+domain_route:RELREC"}, {"md_atom_id": "md_dmRELREC_assn_a001", "md_file": "knowledge_base/domains/RELREC/assumptions.md", "md_atom_type": "HEADING", "md_parent_section": "§RELREC [RELREC — Assumptions]", "md_verbatim": "# RELREC — Assumptions", "score": 0.3614, "match_basis": "verbatim_token+domain_route:RELREC"}, {"md_atom_id": "md_dmRELREC_assn_a006", "md_file": "knowledge_base/domains/RELREC/assumptions.md", "md_atom_type": "SENTENCE", "md_parent_section": "§RELREC [RELREC — Assumptions]", "md_verbatim": "The RELREC dataset should be used to represent either:", "score": 0.2789, "match_basis": "verbatim_token+domain_route:RELREC"}, {"md_atom_id": "md_dmRELREC_assn_a004", "md_file": "knowledge_base/domains/RELREC/assumptions.md", "md_atom_type": "HEADING", "md_parent_section": "§RELREC [RELREC — Assumptions]", "md_verbatim": "## Relating Peer Records", "score": 0.265, "match_basis": "verbatim_token+domain_route:RELREC"}, {"md_atom_id": "md_dmRELREC_assn_a013", "md_file": "knowledge_base/domains/RELREC/assumptions.md", "md_atom_type": "HEADING", "md_parent_section": "§RELREC [RELREC — Assumptions]", "md_verbatim": "## Relating Datasets", "score": 0.2275, "match_basis": "verbatim_token+domain_route:RELREC"}, {"md_atom_id": "md_dmRELREC_ex_a002", "md_file": "knowledge_base/domains/RELREC/examples.md", "md_atom_type": "HEADING", "md_parent_section": "§RELREC [RELREC — Examples]", "md_verbatim": "## Peer Record Examples", "score": 0.2275, "match_basis": "verbatim_token+domain_route:RELREC"}], "candidate_count": 10, "zero_candidate": false}
{"pdf_atom_id": "ig34_p0431_a006", "pdf_atom_type": "TABLE_HEADER", "pdf_source": "SDTMIG_v3.4", "pdf_page": 431, "pdf_parent_section": "§8.3.1 RELREC Dataset Relationship Example", "pdf_verbatim": "Row STUDYID RDOMAIN USUBJID IDVAR IDVARVAL RELTYPE RELID", "figure_ref": null, "candidates": [{"md_atom_id": "md_dmRELREC_ex_a008", "md_file": "knowledge_base/domains/RELREC/examples.md", "md_atom_type": "TABLE_HEADER", "md_parent_section": "§RELREC.1.1 [Example 1]", "md_verbatim": "| Row | STUDYID | RDOMAIN | USUBJID | IDVAR | IDVARVAL | RELTYPE | RELID |\n|-----|---------|---------|---------|-------|----------|---------|-------|", "score": 1.0, "match_basis": "verbatim_token+domain_route:RELREC"}, {"md_atom_id": "md_dmRELREC_ex_a018", "md_file": "knowledge_base/domains/RELREC/examples.md", "md_atom_type": "TABLE_HEADER", "md_parent_section": "§RELREC.1.2 [Example 2]", "md_verbatim": "| Row | STUDYID | RDOMAIN | USUBJID | IDVAR | IDVARVAL | RELTYPE | RELID |\n|-----|---------|---------|---------|-------|----------|---------|-------|", "score": 1.0, "match_basis": "verbatim_token+domain_route:RELREC"}, {"md_atom_id": "md_dmRELREC_ex_a027", "md_file": "knowledge_base/domains/RELREC/examples.md", "md_atom_type": "TABLE_HEADER", "md_parent_section": "§RELREC.1.3 [Example 3]", "md_verbatim": "| Row | STUDYID | RDOMAIN | USUBJID | IDVAR | IDVARVAL | RELTYPE | RELID |\n|-----|---------|---------|---------|-------|----------|---------|-------|", "score": 1.0, "match_basis": "verbatim_token+domain_route:RELREC"}, {"md_atom_id": "md_dmRELREC_ex_a037", "md_file": "knowledge_base/domains/RELREC/examples.md", "md_atom_type": "TABLE_HEADER", "md_parent_section": "§RELREC.2.1 [Example 1]", "md_verbatim": "| Row | STUDYID | RDOMAIN | USUBJID | IDVAR | IDVARVAL | RELTYPE | RELID |\n|-----|---------|---------|---------|-------|----------|---------|-------|", "score": 1.0, "match_basis": "verbatim_token+domain_route:RELREC"}, {"md_atom_id": "md_dmRELREC_ex_a009", "md_file": "knowledge_base/domains/RELREC/examples.md", "md_atom_type": "TABLE_ROW", "md_parent_section": "§RELREC.1.1 [Example 1]", "md_verbatim": "| 1 | EFC1234 | AE | 123456 | AESEQ | 5 | | 1 |", "score": 0.34, "match_basis": "verbatim_token+domain_route:RELREC"}], "candidate_count": 5, "zero_candidate": false}
{"pdf_atom_id": "ig34_p0431_a007", "pdf_atom_type": "TABLE_ROW", "pdf_source": "SDTMIG_v3.4", "pdf_page": 431, "pdf_parent_section": "§8.3.1 RELREC Dataset Relationship Example", "pdf_verbatim": "1 | EFC1234 | TU | | TULNKID | | ONE | 1", "figure_ref": null, "candidates": [{"md_atom_id": "md_dmRELREC_ex_a038", "md_file": "knowledge_base/domains/RELREC/examples.md", "md_atom_type": "TABLE_ROW", "md_parent_section": "§RELREC.2.1 [Example 1]", "md_verbatim": "| 1 | EFC1234 | TU | | TULNKID | | ONE | 1 |", "score": 1.0, "match_basis": "verbatim_token+domain_route:RELREC"}, {"md_atom_id": "md_dmRELREC_ex_a039", "md_file": "knowledge_base/domains/RELREC/examples.md", "md_atom_type": "TABLE_ROW", "md_parent_section": "§RELREC.2.1 [Example 1]", "md_verbatim": "| 2 | EFC1234 | TR | | TRLNKID | | MANY | 1 |", "score": 0.72, "match_basis": "verbatim_token+domain_route:RELREC"}, {"md_atom_id": "md_dmRELREC_ex_a009", "md_file": "knowledge_base/domains/RELREC/examples.md", "md_atom_type": "TABLE_ROW", "md_parent_section": "§RELREC.1.1 [Example 1]", "md_verbatim": "| 1 | EFC1234 | AE | 123456 | AESEQ | 5 | | 1 |", "score": 0.5875, "match_basis": "verbatim_token+domain_route:RELREC"}, {"md_atom_id": "md_dmRELREC_ex_a010", "md_file": "knowledge_base/domains/RELREC/examples.md", "md_atom_type": "TABLE_ROW", "md_parent_section": "§RELREC.1.1 [Example 1]", "md_verbatim": "| 2 | EFC1234 | CM | 123456 | CMSEQ | 11 | | 1 |", "score": 0.5875, "match_basis": "verbatim_token+domain_route:RELREC"}, {"md_atom_id": "md_dmRELREC_ex_a011", "md_file": "knowledge_base/domains/RELREC/examples.md", "md_atom_type": "TABLE_ROW", "md_parent_section": "§RELREC.1.1 [Example 1]", "md_verbatim": "| 3 | EFC1234 | CM | 123456 | CMSEQ | 12 | | 1 |", "score": 0.5875, "match_basis": "verbatim_token+domain_route:RELREC"}], "candidate_count": 5, "zero_candidate": false}
{"pdf_atom_id": "ig34_p0431_a008", "pdf_atom_type": "TABLE_ROW", "pdf_source": "SDTMIG_v3.4", "pdf_page": 431, "pdf_parent_section": "§8.3.1 RELREC Dataset Relationship Example", "pdf_verbatim": "2 | EFC1234 | TR | | TRLNKID | | MANY | 1", "figure_ref": null, "candidates": [{"md_atom_id": "md_dmRELREC_ex_a039", "md_file": "knowledge_base/domains/RELREC/examples.md", "md_atom_type": "TABLE_ROW", "md_parent_section": "§RELREC.2.1 [Example 1]", "md_verbatim": "| 2 | EFC1234 | TR | | TRLNKID | | MANY | 1 |", "score": 1.0, "match_basis": "verbatim_token+domain_route:RELREC"}, {"md_atom_id": "md_dmRELREC_ex_a038", "md_file": "knowledge_base/domains/RELREC/examples.md", "md_atom_type": "TABLE_ROW", "md_parent_section": "§RELREC.2.1 [Example 1]", "md_verbatim": "| 1 | EFC1234 | TU | | TULNKID | | ONE | 1 |", "score": 0.72, "match_basis": "verbatim_token+domain_route:RELREC"}, {"md_atom_id": "md_dmRELREC_ex_a009", "md_file": "knowledge_base/domains/RELREC/examples.md", "md_atom_type": "TABLE_ROW", "md_parent_section": "§RELREC.1.1 [Example 1]", "md_verbatim": "| 1 | EFC1234 | AE | 123456 | AESEQ | 5 | | 1 |", "score": 0.5765, "match_basis": "verbatim_token+domain_route:RELREC"}, {"md_atom_id": "md_dmRELREC_ex_a010", "md_file": "knowledge_base/domains/RELREC/examples.md", "md_atom_type": "TABLE_ROW", "md_parent_section": "§RELREC.1.1 [Example 1]", "md_verbatim": "| 2 | EFC1234 | CM | 123456 | CMSEQ | 11 | | 1 |", "score": 0.5765, "match_basis": "verbatim_token+domain_route:RELREC"}, {"md_atom_id": "md_dmRELREC_ex_a011", "md_file": "knowledge_base/domains/RELREC/examples.md", "md_atom_type": "TABLE_ROW", "md_parent_section": "§RELREC.1.1 [Example 1]", "md_verbatim": "| 3 | EFC1234 | CM | 123456 | CMSEQ | 12 | | 1 |", "score": 0.5765, "match_basis": "verbatim_token+domain_route:RELREC"}], "candidate_count": 5, "zero_candidate": false}
{"pdf_atom_id": "ig34_p0431_a009", "pdf_atom_type": "SENTENCE", "pdf_source": "SDTMIG_v3.4", "pdf_page": 431, "pdf_parent_section": "§8.3.1 RELREC Dataset Relationship Example", "pdf_verbatim": "In the sponsor's operational database, these datasets may have existed as either separate datasets that were merged for analysis, or a single dataset that may have included observations from more than 1 general observation class (e.g., Events and Findings).", "figure_ref": null, "candidates": [{"md_atom_id": "md_dmRELREC_ex_a040", "md_file": "knowledge_base/domains/RELREC/examples.md", "md_atom_type": "SENTENCE", "md_parent_section": "§RELREC.2.1 [Example 1]", "md_verbatim": "In the sponsor's operational database, these datasets may have existed as either separate datasets that were merged for analysis, or a single dataset that may have included observations from more than 1 general observation class (e.g., Events and Findings). The value in IDVAR must be the name of the key used to merge/join the 2 datasets. In this example, the --LNKID variable is used as the key to identify the related observations. The values for the --LNKID variable in the 2 datasets are sponsor-defined. Although other variables may also serve as a single merge key when the corresponding values for IDVAR are equal, --GRPID, --SPID, --REFID, --LNKID, or --LNKGRP are typically used for this purpose.", "score": 0.7133, "match_basis": "verbatim_token+domain_route:RELREC"}, {"md_atom_id": "md_dmRELREC_assn_a015", "md_file": "knowledge_base/domains/RELREC/assumptions.md", "md_atom_type": "SENTENCE", "md_parent_section": "§RELREC [RELREC — Assumptions]", "md_verbatim": "Relationships between datasets should only be recorded in the RELREC dataset when the sponsor has found it necessary to split information between datasets that are related, and that may need to be examined together for analysis or proper interpretation. Note that it is not necessary to use the RELREC dataset to identify associations from data in the SUPP-- datasets or the Comments (CO) dataset to their parent general-observation class dataset records or special-purpose domain records, as both these datasets include the key variable identifiers of the parent record(s) that are necessary to make the association.", "score": 0.5619, "match_basis": "verbatim_token+domain_route:RELREC"}, {"md_atom_id": "md_dmRELREC_ex_a004", "md_file": "knowledge_base/domains/RELREC/examples.md", "md_atom_type": "SENTENCE", "md_parent_section": "§RELREC.1.1 [Example 1]", "md_verbatim": "This example illustrates the use of the RELREC dataset to relate records stored in separate domains for USUBJID = \"123456\". This example represents a situation in which a single adverse event is part of 2 collected relationships, one with 2 concomitant medications and the other with 2 laboratory findings, but there is no collected relationship between the 2 laboratory findings and the 2 concomitant medications.", "score": 0.515, "match_basis": "verbatim_token+domain_route:RELREC"}, {"md_atom_id": "md_dmRELREC_ex_a016", "md_file": "knowledge_base/domains/RELREC/examples.md", "md_atom_type": "SENTENCE", "md_parent_section": "§RELREC.1.2 [Example 2]", "md_verbatim": "Example 2 is the same scenario as Example 1. In this case, however, the way the data were collected indicated that the concomitant medications and laboratory findings were all in a single relationship to each other and the adverse event.", "score": 0.5115, "match_basis": "verbatim_token+domain_route:RELREC"}, {"md_atom_id": "md_dmRELREC_assn_a014", "md_file": "knowledge_base/domains/RELREC/assumptions.md", "md_atom_type": "SENTENCE", "md_parent_section": "§RELREC [RELREC — Assumptions]", "md_verbatim": "The Related Records (RELREC) special-purpose dataset can also be used to identify relationships between datasets (e.g., a one-to-many or parent-child relationship). The relationship is defined by including a single record for each related dataset that identifies the key(s) of the dataset that can be used to relate the respective records.", "score": 0.5063, "match_basis": "verbatim_token+domain_route:RELREC"}], "candidate_count": 5, "zero_candidate": false}
{"pdf_atom_id": "ig34_p0431_a010", "pdf_atom_type": "SENTENCE", "pdf_source": "SDTMIG_v3.4", "pdf_page": 431, "pdf_parent_section": "§8.3.1 RELREC Dataset Relationship Example", "pdf_verbatim": "The value in IDVAR must be the name of the key used to merge/join the 2 datasets.", "figure_ref": null, "candidates": [{"md_atom_id": "md_dmRELREC_assn_a006", "md_file": "knowledge_base/domains/RELREC/assumptions.md", "md_atom_type": "SENTENCE", "md_parent_section": "§RELREC [RELREC — Assumptions]", "md_verbatim": "The RELREC dataset should be used to represent either:", "score": 0.5116, "match_basis": "verbatim_token+domain_route:RELREC"}, {"md_atom_id": "md_dmRELREC_ex_a035", "md_file": "knowledge_base/domains/RELREC/examples.md", "md_atom_type": "SENTENCE", "md_parent_section": "§RELREC.2.1 [Example 1]", "md_verbatim": "This example illustrates RELREC records used to represent the relationship between records in 2 datasets that have a one-to-many relationship. Note that because this is a dataset-to-dataset relationship, USUBJID and IDVARVAL are null.", "score": 0.4903, "match_basis": "verbatim_token+domain_route:RELREC"}, {"md_atom_id": "md_dmRELREC_ex_a040", "md_file": "knowledge_base/domains/RELREC/examples.md", "md_atom_type": "SENTENCE", "md_parent_section": "§RELREC.2.1 [Example 1]", "md_verbatim": "In the sponsor's operational database, these datasets may have existed as either separate datasets that were merged for analysis, or a single dataset that may have included observations from more than 1 general observation class (e.g., Events and Findings). The value in IDVAR must be the name of the key used to merge/join the 2 datasets. In this example, the --LNKID variable is used as the key to identify the related observations. The values for the --LNKID variable in the 2 datasets are sponsor-defined. Although other variables may also serve as a single merge key when the corresponding values for IDVAR are equal, --GRPID, --SPID, --REFID, --LNKID, or --LNKGRP are typically used for this purpose.", "score": 0.4833, "match_basis": "verbatim_token+domain_route:RELREC"}, {"md_atom_id": "md_dmRELREC_assn_a016", "md_file": "knowledge_base/domains/RELREC/assumptions.md", "md_atom_type": "SENTENCE", "md_parent_section": "§RELREC [RELREC — Assumptions]", "md_verbatim": "The variable RELTYPE identifies the type of relationship between the datasets. The allowable values are ONE and MANY (controlled terminology is expected). This information defines how a merge/join would be written, and what would be the result of the merge/join. The possible combinations are:", "score": 0.4738, "match_basis": "verbatim_token+domain_route:RELREC"}, {"md_atom_id": "md_dmRELREC_assn_a009", "md_file": "knowledge_base/domains/RELREC/assumptions.md", "md_atom_type": "SENTENCE", "md_parent_section": "§RELREC [RELREC — Assumptions]", "md_verbatim": "The following are examples of variables that could be used in IDVAR:", "score": 0.4735, "match_basis": "verbatim_token+domain_route:RELREC"}], "candidate_count": 5, "zero_candidate": false}
{"pdf_atom_id": "ig34_p0431_a011", "pdf_atom_type": "SENTENCE", "pdf_source": "SDTMIG_v3.4", "pdf_page": 431, "pdf_parent_section": "§8.3.1 RELREC Dataset Relationship Example", "pdf_verbatim": "In this example, the --LNKID variable is used as the key to identify the related observations.", "figure_ref": null, "candidates": [{"md_atom_id": "md_dmRELREC_assn_a009", "md_file": "knowledge_base/domains/RELREC/assumptions.md", "md_atom_type": "SENTENCE", "md_parent_section": "§RELREC [RELREC — Assumptions]", "md_verbatim": "The following are examples of variables that could be used in IDVAR:", "score": 0.5474, "match_basis": "verbatim_token+domain_route:RELREC"}, {"md_atom_id": "md_dmRELREC_ex_a040", "md_file": "knowledge_base/domains/RELREC/examples.md", "md_atom_type": "SENTENCE", "md_parent_section": "§RELREC.2.1 [Example 1]", "md_verbatim": "In the sponsor's operational database, these datasets may have existed as either separate datasets that were merged for analysis, or a single dataset that may have included observations from more than 1 general observation class (e.g., Events and Findings). The value in IDVAR must be the name of the key used to merge/join the 2 datasets. In this example, the --LNKID variable is used as the key to identify the related observations. The values for the --LNKID variable in the 2 datasets are sponsor-defined. Although other variables may also serve as a single merge key when the corresponding values for IDVAR are equal, --GRPID, --SPID, --REFID, --LNKID, or --LNKGRP are typically used for this purpose.", "score": 0.5367, "match_basis": "verbatim_token+domain_route:RELREC"}, {"md_atom_id": "md_dmRELREC_ex_a035", "md_file": "knowledge_base/domains/RELREC/examples.md", "md_atom_type": "SENTENCE", "md_parent_section": "§RELREC.2.1 [Example 1]", "md_verbatim": "This example illustrates RELREC records used to represent the relationship between records in 2 datasets that have a one-to-many relationship. Note that because this is a dataset-to-dataset relationship, USUBJID and IDVARVAL are null.", "score": 0.5235, "match_basis": "verbatim_token+domain_route:RELREC"}, {"md_atom_id": "md_dmRELREC_assn_a015", "md_file": "knowledge_base/domains/RELREC/assumptions.md", "md_atom_type": "SENTENCE", "md_parent_section": "§RELREC [RELREC — Assumptions]", "md_verbatim": "Relationships between datasets should only be recorded in the RELREC dataset when the sponsor has found it necessary to split information between datasets that are related, and that may need to be examined together for analysis or proper interpretation. Note that it is not necessary to use the RELREC dataset to identify associations from data in the SUPP-- datasets or the Comments (CO) dataset to their parent general-observation class dataset records or special-purpose domain records, as both these datasets include the key variable identifiers of the parent record(s) that are necessary to make the association.", "score": 0.5021, "match_basis": "verbatim_token+domain_route:RELREC"}, {"md_atom_id": "md_dmRELREC_ex_a016", "md_file": "knowledge_base/domains/RELREC/examples.md", "md_atom_type": "SENTENCE", "md_parent_section": "§RELREC.1.2 [Example 2]", "md_verbatim": "Example 2 is the same scenario as Example 1. In this case, however, the way the data were collected indicated that the concomitant medications and laboratory findings were all in a single relationship to each other and the adverse event.", "score": 0.5009, "match_basis": "verbatim_token+domain_route:RELREC"}], "candidate_count": 5, "zero_candidate": false}
{"pdf_atom_id": "ig34_p0431_a012", "pdf_atom_type": "SENTENCE", "pdf_source": "SDTMIG_v3.4", "pdf_page": 431, "pdf_parent_section": "§8.3.1 RELREC Dataset Relationship Example", "pdf_verbatim": "The values for the ‑‑LNKID variable in the 2 datasets are sponsor-defined.", "figure_ref": null, "candidates": [{"md_atom_id": "md_dmRELREC_assn_a016", "md_file": "knowledge_base/domains/RELREC/assumptions.md", "md_atom_type": "SENTENCE", "md_parent_section": "§RELREC [RELREC — Assumptions]", "md_verbatim": "The variable RELTYPE identifies the type of relationship between the datasets. The allowable values are ONE and MANY (controlled terminology is expected). This information defines how a merge/join would be written, and what would be the result of the merge/join. The possible combinations are:", "score": 0.5116, "match_basis": "verbatim_token+domain_route:RELREC"}, {"md_atom_id": "md_dmRELREC_ex_a040", "md_file": "knowledge_base/domains/RELREC/examples.md", "md_atom_type": "SENTENCE", "md_parent_section": "§RELREC.2.1 [Example 1]", "md_verbatim": "In the sponsor's operational database, these datasets may have existed as either separate datasets that were merged for analysis, or a single dataset that may have included observations from more than 1 general observation class (e.g., Events and Findings). The value in IDVAR must be the name of the key used to merge/join the 2 datasets. In this example, the --LNKID variable is used as the key to identify the related observations. The values for the --LNKID variable in the 2 datasets are sponsor-defined. Although other variables may also serve as a single merge key when the corresponding values for IDVAR are equal, --GRPID, --SPID, --REFID, --LNKID, or --LNKGRP are typically used for this purpose.", "score": 0.5067, "match_basis": "verbatim_token+domain_route:RELREC"}, {"md_atom_id": "md_dmRELREC_assn_a003", "md_file": "knowledge_base/domains/RELREC/assumptions.md", "md_atom_type": "SENTENCE", "md_parent_section": "§RELREC [RELREC — Assumptions]", "md_verbatim": "A relationship is defined by adding a record to RELREC for each record to be related and by assigning a unique character identifier value for the relationship. Each record in the RELREC special-purpose dataset contains keys that identify a record (or group of records) and the relationship identifier, which is stored in the RELID variable. The value of RELID is chosen by the sponsor, but must be identical for all related records within USUBJID. It is recommended that the sponsor use a standard system or naming convention for RELID (e.g., all letters, all numbers, capitalized).", "score": 0.4897, "match_basis": "verbatim_token+domain_route:RELREC"}, {"md_atom_id": "md_dmRELREC_assn_a009", "md_file": "knowledge_base/domains/RELREC/assumptions.md", "md_atom_type": "SENTENCE", "md_parent_section": "§RELREC [RELREC — Assumptions]", "md_verbatim": "The following are examples of variables that could be used in IDVAR:", "score": 0.4889, "match_basis": "verbatim_token+domain_route:RELREC"}, {"md_atom_id": "md_dmRELREC_assn_a014", "md_file": "knowledge_base/domains/RELREC/assumptions.md", "md_atom_type": "SENTENCE", "md_parent_section": "§RELREC [RELREC — Assumptions]", "md_verbatim": "The Related Records (RELREC) special-purpose dataset can also be used to identify relationships between datasets (e.g., a one-to-many or parent-child relationship). The relationship is defined by including a single record for each related dataset that identifies the key(s) of the dataset that can be used to relate the respective records.", "score": 0.4826, "match_basis": "verbatim_token+domain_route:RELREC"}], "candidate_count": 5, "zero_candidate": false}
{"pdf_atom_id": "ig34_p0431_a013", "pdf_atom_type": "SENTENCE", "pdf_source": "SDTMIG_v3.4", "pdf_page": 431, "pdf_parent_section": "§8.3.1 RELREC Dataset Relationship Example", "pdf_verbatim": "Although other variables may also serve as a single merge key when the corresponding values for IDVAR are equal, --GRPID, --SPID, --REFID, --LNKID, or --LNKGRP are typically used for this purpose.", "figure_ref": null, "candidates": [{"md_atom_id": "md_dmRELREC_ex_a040", "md_file": "knowledge_base/domains/RELREC/examples.md", "md_atom_type": "SENTENCE", "md_parent_section": "§RELREC.2.1 [Example 1]", "md_verbatim": "In the sponsor's operational database, these datasets may have existed as either separate datasets that were merged for analysis, or a single dataset that may have included observations from more than 1 general observation class (e.g., Events and Findings). The value in IDVAR must be the name of the key used to merge/join the 2 datasets. In this example, the --LNKID variable is used as the key to identify the related observations. The values for the --LNKID variable in the 2 datasets are sponsor-defined. Although other variables may also serve as a single merge key when the corresponding values for IDVAR are equal, --GRPID, --SPID, --REFID, --LNKID, or --LNKGRP are typically used for this purpose.", "score": 0.67, "match_basis": "verbatim_token+domain_route:RELREC"}, {"md_atom_id": "md_dmRELREC_assn_a014", "md_file": "knowledge_base/domains/RELREC/assumptions.md", "md_atom_type": "SENTENCE", "md_parent_section": "§RELREC [RELREC — Assumptions]", "md_verbatim": "The Related Records (RELREC) special-purpose dataset can also be used to identify relationships between datasets (e.g., a one-to-many or parent-child relationship). The relationship is defined by including a single record for each related dataset that identifies the key(s) of the dataset that can be used to relate the respective records.", "score": 0.4874, "match_basis": "verbatim_token+domain_route:RELREC"}, {"md_atom_id": "md_dmRELREC_assn_a009", "md_file": "knowledge_base/domains/RELREC/assumptions.md", "md_atom_type": "SENTENCE", "md_parent_section": "§RELREC [RELREC — Assumptions]", "md_verbatim": "The following are examples of variables that could be used in IDVAR:", "score": 0.4866, "match_basis": "verbatim_token+domain_route:RELREC"}, {"md_atom_id": "md_dmRELREC_assn_a005", "md_file": "knowledge_base/domains/RELREC/assumptions.md", "md_atom_type": "SENTENCE", "md_parent_section": "§RELREC [RELREC — Assumptions]", "md_verbatim": "Records expressing a relationship are specified using the key variables STUDYID, RDOMAIN (the domain code of the record in the relationship), and USUBJID, along with IDVAR and IDVARVAL. Single records can be related by using a unique-record-identifier variable such as --SEQ in IDVAR. Groups of records can be related by using grouping variables such as --GRPID in IDVAR. IDVARVAL would contain the value of the variable described in IDVAR. Using --GRPID can be a more efficient method of representing relationships in RELREC, such as when relating an adverse event (or events) to a group of concomitant medications taken to treat the adverse event(s).", "score": 0.4785, "match_basis": "verbatim_token+domain_route:RELREC"}, {"md_atom_id": "md_dmRELREC_assn_a016", "md_file": "knowledge_base/domains/RELREC/assumptions.md", "md_atom_type": "SENTENCE", "md_parent_section": "§RELREC [RELREC — Assumptions]", "md_verbatim": "The variable RELTYPE identifies the type of relationship between the datasets. The allowable values are ONE and MANY (controlled terminology is expected). This information defines how a merge/join would be written, and what would be the result of the merge/join. The possible combinations are:", "score": 0.4771, "match_basis": "verbatim_token+domain_route:RELREC"}], "candidate_count": 5, "zero_candidate": false}
{"pdf_atom_id": "ig34_p0431_a014", "pdf_atom_type": "SENTENCE", "pdf_source": "SDTMIG_v3.4", "pdf_page": 431, "pdf_parent_section": "§8.3.1 RELREC Dataset Relationship Example", "pdf_verbatim": "The variable RELTYPE identifies the type of relationship between the datasets.", "figure_ref": null, "candidates": [{"md_atom_id": "md_dmRELREC_assn_a016", "md_file": "knowledge_base/domains/RELREC/assumptions.md", "md_atom_type": "SENTENCE", "md_parent_section": "§RELREC [RELREC — Assumptions]", "md_verbatim": "The variable RELTYPE identifies the type of relationship between the datasets. The allowable values are ONE and MANY (controlled terminology is expected). This information defines how a merge/join would be written, and what would be the result of the merge/join. The possible combinations are:", "score": 0.5983, "match_basis": "verbatim_token+domain_route:RELREC"}, {"md_atom_id": "md_dmRELREC_assn_a014", "md_file": "knowledge_base/domains/RELREC/assumptions.md", "md_atom_type": "SENTENCE", "md_parent_section": "§RELREC [RELREC — Assumptions]", "md_verbatim": "The Related Records (RELREC) special-purpose dataset can also be used to identify relationships between datasets (e.g., a one-to-many or parent-child relationship). The relationship is defined by including a single record for each related dataset that identifies the key(s) of the dataset that can be used to relate the respective records.", "score": 0.5765, "match_basis": "verbatim_token+domain_route:RELREC"}, {"md_atom_id": "md_dmRELREC_ex_a035", "md_file": "knowledge_base/domains/RELREC/examples.md", "md_atom_type": "SENTENCE", "md_parent_section": "§RELREC.2.1 [Example 1]", "md_verbatim": "This example illustrates RELREC records used to represent the relationship between records in 2 datasets that have a one-to-many relationship. Note that because this is a dataset-to-dataset relationship, USUBJID and IDVARVAL are null.", "score": 0.5469, "match_basis": "verbatim_token+domain_route:RELREC"}, {"md_atom_id": "md_dmRELREC_ex_a005", "md_file": "knowledge_base/domains/RELREC/examples.md", "md_atom_type": "SENTENCE", "md_parent_section": "§RELREC.1.1 [Example 1]", "md_verbatim": "**Rows 1-3:** Show the representation of a relationship between an AE record and 2 concomitant medication records.", "score": 0.5417, "match_basis": "verbatim_token+domain_route:RELREC"}, {"md_atom_id": "md_dmRELREC_ex_a006", "md_file": "knowledge_base/domains/RELREC/examples.md", "md_atom_type": "SENTENCE", "md_parent_section": "§RELREC.1.1 [Example 1]", "md_verbatim": "**Rows 4-6:** Show the representation of a relationship between the same AE record and 2 laboratory findings records.", "score": 0.5378, "match_basis": "verbatim_token+domain_route:RELREC"}], "candidate_count": 5, "zero_candidate": false}
{"pdf_atom_id": "ig34_p0431_a015", "pdf_atom_type": "SENTENCE", "pdf_source": "SDTMIG_v3.4", "pdf_page": 431, "pdf_parent_section": "§8.3.1 RELREC Dataset Relationship Example", "pdf_verbatim": "The allowable values are ONE and MANY (controlled terminology is expected).", "figure_ref": null, "candidates": [{"md_atom_id": "md_dmRELREC_assn_a016", "md_file": "knowledge_base/domains/RELREC/assumptions.md", "md_atom_type": "SENTENCE", "md_parent_section": "§RELREC [RELREC — Assumptions]", "md_verbatim": "The variable RELTYPE identifies the type of relationship between the datasets. The allowable values are ONE and MANY (controlled terminology is expected). This information defines how a merge/join would be written, and what would be the result of the merge/join. The possible combinations are:", "score": 0.5983, "match_basis": "verbatim_token+domain_route:RELREC"}, {"md_atom_id": "md_dmRELREC_assn_a009", "md_file": "knowledge_base/domains/RELREC/assumptions.md", "md_atom_type": "SENTENCE", "md_parent_section": "§RELREC [RELREC — Assumptions]", "md_verbatim": "The following are examples of variables that could be used in IDVAR:", "score": 0.4667, "match_basis": "verbatim_token+domain_route:RELREC"}, {"md_atom_id": "md_dmRELREC_assn_a003", "md_file": "knowledge_base/domains/RELREC/assumptions.md", "md_atom_type": "SENTENCE", "md_parent_section": "§RELREC [RELREC — Assumptions]", "md_verbatim": "A relationship is defined by adding a record to RELREC for each record to be related and by assigning a unique character identifier value for the relationship. Each record in the RELREC special-purpose dataset contains keys that identify a record (or group of records) and the relationship identifier, which is stored in the RELID variable. The value of RELID is chosen by the sponsor, but must be identical for all related records within USUBJID. It is recommended that the sponsor use a standard system or naming convention for RELID (e.g., all letters, all numbers, capitalized).", "score": 0.4466, "match_basis": "verbatim_token+domain_route:RELREC"}, {"md_atom_id": "md_dmRELREC_ex_a016", "md_file": "knowledge_base/domains/RELREC/examples.md", "md_atom_type": "SENTENCE", "md_parent_section": "§RELREC.1.2 [Example 2]", "md_verbatim": "Example 2 is the same scenario as Example 1. In this case, however, the way the data were collected indicated that the concomitant medications and laboratory findings were all in a single relationship to each other and the adverse event.", "score": 0.4443, "match_basis": "verbatim_token+domain_route:RELREC"}, {"md_atom_id": "md_dmRELREC_assn_a005", "md_file": "knowledge_base/domains/RELREC/assumptions.md", "md_atom_type": "SENTENCE", "md_parent_section": "§RELREC [RELREC — Assumptions]", "md_verbatim": "Records expressing a relationship are specified using the key variables STUDYID, RDOMAIN (the domain code of the record in the relationship), and USUBJID, along with IDVAR and IDVARVAL. Single records can be related by using a unique-record-identifier variable such as --SEQ in IDVAR. Groups of records can be related by using grouping variables such as --GRPID in IDVAR. IDVARVAL would contain the value of the variable described in IDVAR. Using --GRPID can be a more efficient method of representing relationships in RELREC, such as when relating an adverse event (or events) to a group of concomitant medications taken to treat the adverse event(s).", "score": 0.4415, "match_basis": "verbatim_token+domain_route:RELREC"}], "candidate_count": 5, "zero_candidate": false}
{"pdf_atom_id": "ig34_p0431_a016", "pdf_atom_type": "SENTENCE", "pdf_source": "SDTMIG_v3.4", "pdf_page": 431, "pdf_parent_section": "§8.3.1 RELREC Dataset Relationship Example", "pdf_verbatim": "This information defines how a merge/join would be written, and what would be the result of the merge/join.", "figure_ref": null, "candidates": [{"md_atom_id": "md_dmRELREC_assn_a016", "md_file": "knowledge_base/domains/RELREC/assumptions.md", "md_atom_type": "SENTENCE", "md_parent_section": "§RELREC [RELREC — Assumptions]", "md_verbatim": "The variable RELTYPE identifies the type of relationship between the datasets. The allowable values are ONE and MANY (controlled terminology is expected). This information defines how a merge/join would be written, and what would be the result of the merge/join. The possible combinations are:", "score": 0.5884, "match_basis": "verbatim_token+domain_route:RELREC"}, {"md_atom_id": "md_dmRELREC_ex_a006", "md_file": "knowledge_base/domains/RELREC/examples.md", "md_atom_type": "SENTENCE", "md_parent_section": "§RELREC.1.1 [Example 1]", "md_verbatim": "**Rows 4-6:** Show the representation of a relationship between the same AE record and 2 laboratory findings records.", "score": 0.4593, "match_basis": "verbatim_token+domain_route:RELREC"}, {"md_atom_id": "md_dmRELREC_ex_a040", "md_file": "knowledge_base/domains/RELREC/examples.md", "md_atom_type": "SENTENCE", "md_parent_section": "§RELREC.2.1 [Example 1]", "md_verbatim": "In the sponsor's operational database, these datasets may have existed as either separate datasets that were merged for analysis, or a single dataset that may have included observations from more than 1 general observation class (e.g., Events and Findings). The value in IDVAR must be the name of the key used to merge/join the 2 datasets. In this example, the --LNKID variable is used as the key to identify the related observations. The values for the --LNKID variable in the 2 datasets are sponsor-defined. Although other variables may also serve as a single merge key when the corresponding values for IDVAR are equal, --GRPID, --SPID, --REFID, --LNKID, or --LNKGRP are typically used for this purpose.", "score": 0.4573, "match_basis": "verbatim_token+domain_route:RELREC"}, {"md_atom_id": "md_dmRELREC_assn_a014", "md_file": "knowledge_base/domains/RELREC/assumptions.md", "md_atom_type": "SENTENCE", "md_parent_section": "§RELREC [RELREC — Assumptions]", "md_verbatim": "The Related Records (RELREC) special-purpose dataset can also be used to identify relationships between datasets (e.g., a one-to-many or parent-child relationship). The relationship is defined by including a single record for each related dataset that identifies the key(s) of the dataset that can be used to relate the respective records.", "score": 0.4555, "match_basis": "verbatim_token+domain_route:RELREC"}, {"md_atom_id": "md_dmRELREC_ex_a005", "md_file": "knowledge_base/domains/RELREC/examples.md", "md_atom_type": "SENTENCE", "md_parent_section": "§RELREC.1.1 [Example 1]", "md_verbatim": "**Rows 1-3:** Show the representation of a relationship between an AE record and 2 concomitant medication records.", "score": 0.4525, "match_basis": "verbatim_token+domain_route:RELREC"}], "candidate_count": 5, "zero_candidate": false}
{"pdf_atom_id": "ig34_p0431_a017", "pdf_atom_type": "SENTENCE", "pdf_source": "SDTMIG_v3.4", "pdf_page": 431, "pdf_parent_section": "§8.3.1 RELREC Dataset Relationship Example", "pdf_verbatim": "The possible combinations are:", "figure_ref": null, "candidates": [{"md_atom_id": "md_dmRELREC_assn_a016", "md_file": "knowledge_base/domains/RELREC/assumptions.md", "md_atom_type": "SENTENCE", "md_parent_section": "§RELREC [RELREC — Assumptions]", "md_verbatim": "The variable RELTYPE identifies the type of relationship between the datasets. The allowable values are ONE and MANY (controlled terminology is expected). This information defines how a merge/join would be written, and what would be the result of the merge/join. The possible combinations are:", "score": 0.4893, "match_basis": "verbatim_token+domain_route:RELREC"}, {"md_atom_id": "md_dmRELREC_ex_a005", "md_file": "knowledge_base/domains/RELREC/examples.md", "md_atom_type": "SENTENCE", "md_parent_section": "§RELREC.1.1 [Example 1]", "md_verbatim": "**Rows 1-3:** Show the representation of a relationship between an AE record and 2 concomitant medication records.", "score": 0.459, "match_basis": "verbatim_token+domain_route:RELREC"}, {"md_atom_id": "md_dmRELREC_ex_a006", "md_file": "knowledge_base/domains/RELREC/examples.md", "md_atom_type": "SENTENCE", "md_parent_section": "§RELREC.1.1 [Example 1]", "md_verbatim": "**Rows 4-6:** Show the representation of a relationship between the same AE record and 2 laboratory findings records.", "score": 0.4469, "match_basis": "verbatim_token+domain_route:RELREC"}, {"md_atom_id": "md_dmRELREC_assn_a014", "md_file": "knowledge_base/domains/RELREC/assumptions.md", "md_atom_type": "SENTENCE", "md_parent_section": "§RELREC [RELREC — Assumptions]", "md_verbatim": "The Related Records (RELREC) special-purpose dataset can also be used to identify relationships between datasets (e.g., a one-to-many or parent-child relationship). The relationship is defined by including a single record for each related dataset that identifies the key(s) of the dataset that can be used to relate the respective records.", "score": 0.4408, "match_basis": "verbatim_token+domain_route:RELREC"}, {"md_atom_id": "md_dmRELREC_ex_a032", "md_file": "knowledge_base/domains/RELREC/examples.md", "md_atom_type": "SENTENCE", "md_parent_section": "§RELREC.1.3 [Example 3]", "md_verbatim": "Additional examples may be found in the domain examples such as Section 6.2.4, Disposition, Example 4, and all of the Pharmacokinetics examples in Section 6.3.5.9.3, Relating PP Records to PC Records.", "score": 0.4405, "match_basis": "verbatim_token+domain_route:RELREC"}], "candidate_count": 5, "zero_candidate": false}
{"pdf_atom_id": "ig34_p0431_a018", "pdf_atom_type": "LIST_ITEM", "pdf_source": "SDTMIG_v3.4", "pdf_page": 431, "pdf_parent_section": "§8.3.1 RELREC Dataset Relationship Example", "pdf_verbatim": "1.   ONE and ONE. This combination indicates that there is NO hierarchical relationship between the datasets and the records in the datasets. Only 1 record from each dataset will potentially have the same value of the IDVAR within USUBJID.", "figure_ref": null, "candidates": [{"md_atom_id": "md_dmRELREC_assn_a017", "md_file": "knowledge_base/domains/RELREC/assumptions.md", "md_atom_type": "LIST_ITEM", "md_parent_section": "§RELREC [RELREC — Assumptions]", "md_verbatim": "1. **ONE and ONE.** This combination indicates that there is **NO** hierarchical relationship between the datasets and the records in the datasets. Only 1 record from each dataset will potentially have the same value of the IDVAR within USUBJID.", "score": 1.0, "match_basis": "verbatim_token+domain_route:RELREC"}, {"md_atom_id": "md_dmRELREC_assn_a018", "md_file": "knowledge_base/domains/RELREC/assumptions.md", "md_atom_type": "LIST_ITEM", "md_parent_section": "§RELREC [RELREC — Assumptions]", "md_verbatim": "2. **ONE and MANY.** This combination indicates that there **IS** a hierarchical (parent-child) relationship between the datasets. One record within USUBJID in the dataset identified by RELTYPE = \"ONE\" will potentially have the same value of the IDVAR with many (1 or more) records in the dataset identified by RELTYPE = \"MANY\".", "score": 0.8649, "match_basis": "verbatim_token+domain_route:RELREC"}, {"md_atom_id": "md_dmRELREC_ex_a035", "md_file": "knowledge_base/domains/RELREC/examples.md", "md_atom_type": "SENTENCE", "md_parent_section": "§RELREC.2.1 [Example 1]", "md_verbatim": "This example illustrates RELREC records used to represent the relationship between records in 2 datasets that have a one-to-many relationship. Note that because this is a dataset-to-dataset relationship, USUBJID and IDVARVAL are null.", "score": 0.5452, "match_basis": "verbatim_token+domain_route:RELREC"}, {"md_atom_id": "md_dmRELREC_assn_a019", "md_file": "knowledge_base/domains/RELREC/assumptions.md", "md_atom_type": "LIST_ITEM", "md_parent_section": "§RELREC [RELREC — Assumptions]", "md_verbatim": "3. **MANY and MANY.** This combination is unusual and challenging to manage in a merge/join, and may represent a relationship that was never intended to convey a usable merge/join, such as described in Section 6.3.5.9.3, Relating PP Records to PC Records.", "score": 0.5192, "match_basis": "verbatim_token+domain_route:RELREC"}, {"md_atom_id": "md_dmRELREC_assn_a012", "md_file": "knowledge_base/domains/RELREC/assumptions.md", "md_atom_type": "LIST_ITEM", "md_parent_section": "§RELREC [RELREC — Assumptions]", "md_verbatim": "- The grouping identifier (--GRPID) variable, used to link related records for a subject within a domain, is explained in Section 8.1, Relating Groups of Records Within a --GRPID Variable.", "score": 0.503, "match_basis": "verbatim_token+domain_route:RELREC"}], "candidate_count": 5, "zero_candidate": false}
{"pdf_atom_id": "ig34_p0431_a019", "pdf_atom_type": "LIST_ITEM", "pdf_source": "SDTMIG_v3.4", "pdf_page": 431, "pdf_parent_section": "§8.3.1 RELREC Dataset Relationship Example", "pdf_verbatim": "2.   ONE and MANY. This combination indicates that there IS a hierarchical (parent-child) relationship between the datasets. One record within USUBJID in the dataset identified by RELTYPE = \"ONE\" will potentially have the same value of the IDVAR with many (1 or more) records in the dataset identified by RELTYPE = \"MANY\".", "figure_ref": null, "candidates": [{"md_atom_id": "md_dmRELREC_assn_a018", "md_file": "knowledge_base/domains/RELREC/assumptions.md", "md_atom_type": "LIST_ITEM", "md_parent_section": "§RELREC [RELREC — Assumptions]", "md_verbatim": "2. **ONE and MANY.** This combination indicates that there **IS** a hierarchical (parent-child) relationship between the datasets. One record within USUBJID in the dataset identified by RELTYPE = \"ONE\" will potentially have the same value of the IDVAR with many (1 or more) records in the dataset identified by RELTYPE = \"MANY\".", "score": 1.0, "match_basis": "verbatim_token+domain_route:RELREC"}, {"md_atom_id": "md_dmRELREC_assn_a017", "md_file": "knowledge_base/domains/RELREC/assumptions.md", "md_atom_type": "LIST_ITEM", "md_parent_section": "§RELREC [RELREC — Assumptions]", "md_verbatim": "1. **ONE and ONE.** This combination indicates that there is **NO** hierarchical relationship between the datasets and the records in the datasets. Only 1 record from each dataset will potentially have the same value of the IDVAR within USUBJID.", "score": 0.8649, "match_basis": "verbatim_token+domain_route:RELREC"}, {"md_atom_id": "md_dmRELREC_ex_a035", "md_file": "knowledge_base/domains/RELREC/examples.md", "md_atom_type": "SENTENCE", "md_parent_section": "§RELREC.2.1 [Example 1]", "md_verbatim": "This example illustrates RELREC records used to represent the relationship between records in 2 datasets that have a one-to-many relationship. Note that because this is a dataset-to-dataset relationship, USUBJID and IDVARVAL are null.", "score": 0.5411, "match_basis": "verbatim_token+domain_route:RELREC"}, {"md_atom_id": "md_dmRELREC_assn_a019", "md_file": "knowledge_base/domains/RELREC/assumptions.md", "md_atom_type": "LIST_ITEM", "md_parent_section": "§RELREC [RELREC — Assumptions]", "md_verbatim": "3. **MANY and MANY.** This combination is unusual and challenging to manage in a merge/join, and may represent a relationship that was never intended to convey a usable merge/join, such as described in Section 6.3.5.9.3, Relating PP Records to PC Records.", "score": 0.5185, "match_basis": "verbatim_token+domain_route:RELREC"}, {"md_atom_id": "md_dmRELREC_assn_a012", "md_file": "knowledge_base/domains/RELREC/assumptions.md", "md_atom_type": "LIST_ITEM", "md_parent_section": "§RELREC [RELREC — Assumptions]", "md_verbatim": "- The grouping identifier (--GRPID) variable, used to link related records for a subject within a domain, is explained in Section 8.1, Relating Groups of Records Within a --GRPID Variable.", "score": 0.5183, "match_basis": "verbatim_token+domain_route:RELREC"}], "candidate_count": 5, "zero_candidate": false}
{"pdf_atom_id": "ig34_p0431_a020", "pdf_atom_type": "LIST_ITEM", "pdf_source": "SDTMIG_v3.4", "pdf_page": 431, "pdf_parent_section": "§8.3.1 RELREC Dataset Relationship Example", "pdf_verbatim": "3.   MANY and MANY. This combination is unusual and challenging to manage in a merge/join, and may represent a relationship that was never intended to convey a usable merge/join, such as described in Section 6.3.5.9.3, Relating PP Records to PC Records.", "figure_ref": null, "candidates": [{"md_atom_id": "md_dmRELREC_assn_a019", "md_file": "knowledge_base/domains/RELREC/assumptions.md", "md_atom_type": "LIST_ITEM", "md_parent_section": "§RELREC [RELREC — Assumptions]", "md_verbatim": "3. **MANY and MANY.** This combination is unusual and challenging to manage in a merge/join, and may represent a relationship that was never intended to convey a usable merge/join, such as described in Section 6.3.5.9.3, Relating PP Records to PC Records.", "score": 1.0, "match_basis": "verbatim_token+domain_route:RELREC"}, {"md_atom_id": "md_dmRELREC_assn_a017", "md_file": "knowledge_base/domains/RELREC/assumptions.md", "md_atom_type": "LIST_ITEM", "md_parent_section": "§RELREC [RELREC — Assumptions]", "md_verbatim": "1. **ONE and ONE.** This combination indicates that there is **NO** hierarchical relationship between the datasets and the records in the datasets. Only 1 record from each dataset will potentially have the same value of the IDVAR within USUBJID.", "score": 0.5192, "match_basis": "verbatim_token+domain_route:RELREC"}, {"md_atom_id": "md_dmRELREC_assn_a018", "md_file": "knowledge_base/domains/RELREC/assumptions.md", "md_atom_type": "LIST_ITEM", "md_parent_section": "§RELREC [RELREC — Assumptions]", "md_verbatim": "2. **ONE and MANY.** This combination indicates that there **IS** a hierarchical (parent-child) relationship between the datasets. One record within USUBJID in the dataset identified by RELTYPE = \"ONE\" will potentially have the same value of the IDVAR with many (1 or more) records in the dataset identified by RELTYPE = \"MANY\".", "score": 0.5185, "match_basis": "verbatim_token+domain_route:RELREC"}, {"md_atom_id": "md_dmRELREC_assn_a008", "md_file": "knowledge_base/domains/RELREC/assumptions.md", "md_atom_type": "LIST_ITEM", "md_parent_section": "§RELREC [RELREC — Assumptions]", "md_verbatim": "- information of a nature that necessitates using multiple datasets, as described in Section 8.3, Relating Datasets.", "score": 0.5033, "match_basis": "verbatim_token+domain_route:RELREC"}, {"md_atom_id": "md_dmRELREC_assn_a007", "md_file": "knowledge_base/domains/RELREC/assumptions.md", "md_atom_type": "LIST_ITEM", "md_parent_section": "§RELREC [RELREC — Assumptions]", "md_verbatim": "- explicit relationships, such as concomitant medications taken as a result of an adverse event; or", "score": 0.4908, "match_basis": "verbatim_token+domain_route:RELREC"}], "candidate_count": 5, "zero_candidate": false}
{"pdf_atom_id": "ig34_p0431_a021", "pdf_atom_type": "SENTENCE", "pdf_source": "SDTMIG_v3.4", "pdf_page": 431, "pdf_parent_section": "§8.3.1 RELREC Dataset Relationship Example", "pdf_verbatim": "Because IDVAR identifies the keys that can be used to merge/join records between the datasets, --SEQ cannot be used.", "figure_ref": null, "candidates": [{"md_atom_id": "md_dmRELREC_ex_a035", "md_file": "knowledge_base/domains/RELREC/examples.md", "md_atom_type": "SENTENCE", "md_parent_section": "§RELREC.2.1 [Example 1]", "md_verbatim": "This example illustrates RELREC records used to represent the relationship between records in 2 datasets that have a one-to-many relationship. Note that because this is a dataset-to-dataset relationship, USUBJID and IDVARVAL are null.", "score": 0.58, "match_basis": "verbatim_token+domain_route:RELREC"}, {"md_atom_id": "md_dmRELREC_assn_a014", "md_file": "knowledge_base/domains/RELREC/assumptions.md", "md_atom_type": "SENTENCE", "md_parent_section": "§RELREC [RELREC — Assumptions]", "md_verbatim": "The Related Records (RELREC) special-purpose dataset can also be used to identify relationships between datasets (e.g., a one-to-many or parent-child relationship). The relationship is defined by including a single record for each related dataset that identifies the key(s) of the dataset that can be used to relate the respective records.", "score": 0.5706, "match_basis": "verbatim_token+domain_route:RELREC"}, {"md_atom_id": "md_dmRELREC_assn_a016", "md_file": "knowledge_base/domains/RELREC/assumptions.md", "md_atom_type": "SENTENCE", "md_parent_section": "§RELREC [RELREC — Assumptions]", "md_verbatim": "The variable RELTYPE identifies the type of relationship between the datasets. The allowable values are ONE and MANY (controlled terminology is expected). This information defines how a merge/join would be written, and what would be the result of the merge/join. The possible combinations are:", "score": 0.5141, "match_basis": "verbatim_token+domain_route:RELREC"}, {"md_atom_id": "md_dmRELREC_assn_a006", "md_file": "knowledge_base/domains/RELREC/assumptions.md", "md_atom_type": "SENTENCE", "md_parent_section": "§RELREC [RELREC — Assumptions]", "md_verbatim": "The RELREC dataset should be used to represent either:", "score": 0.4938, "match_basis": "verbatim_token+domain_route:RELREC"}, {"md_atom_id": "md_dmRELREC_assn_a015", "md_file": "knowledge_base/domains/RELREC/assumptions.md", "md_atom_type": "SENTENCE", "md_parent_section": "§RELREC [RELREC — Assumptions]", "md_verbatim": "Relationships between datasets should only be recorded in the RELREC dataset when the sponsor has found it necessary to split information between datasets that are related, and that may need to be examined together for analysis or proper interpretation. Note that it is not necessary to use the RELREC dataset to identify associations from data in the SUPP-- datasets or the Comments (CO) dataset to their parent general-observation class dataset records or special-purpose domain records, as both these datasets include the key variable identifiers of the parent record(s) that are necessary to make the association.", "score": 0.4914, "match_basis": "verbatim_token+domain_route:RELREC"}], "candidate_count": 5, "zero_candidate": false}
{"pdf_atom_id": "ig34_p0431_a022", "pdf_atom_type": "SENTENCE", "pdf_source": "SDTMIG_v3.4", "pdf_page": 431, "pdf_parent_section": "§8.3.1 RELREC Dataset Relationship Example", "pdf_verbatim": "--SEQ only has meaning within a subject within a dataset, not across datasets.", "figure_ref": null, "candidates": [{"md_atom_id": "md_dmRELREC_assn_a006", "md_file": "knowledge_base/domains/RELREC/assumptions.md", "md_atom_type": "SENTENCE", "md_parent_section": "§RELREC [RELREC — Assumptions]", "md_verbatim": "The RELREC dataset should be used to represent either:", "score": 0.4735, "match_basis": "verbatim_token+domain_route:RELREC"}, {"md_atom_id": "md_dmRELREC_ex_a035", "md_file": "knowledge_base/domains/RELREC/examples.md", "md_atom_type": "SENTENCE", "md_parent_section": "§RELREC.2.1 [Example 1]", "md_verbatim": "This example illustrates RELREC records used to represent the relationship between records in 2 datasets that have a one-to-many relationship. Note that because this is a dataset-to-dataset relationship, USUBJID and IDVARVAL are null.", "score": 0.4594, "match_basis": "verbatim_token+domain_route:RELREC"}, {"md_atom_id": "md_dmRELREC_assn_a002", "md_file": "knowledge_base/domains/RELREC/assumptions.md", "md_atom_type": "SENTENCE", "md_parent_section": "§RELREC [RELREC — Assumptions]", "md_verbatim": "The Related Records (RELREC) special-purpose dataset is used to describe relationships between records for a subject (relating peer records) and relationships between datasets (relating datasets). In both cases, relationships represented in RELREC are collected relationships, either by explicit references or checkboxes on the CRF, or by design of the CRF (e.g., vital signs captured during an exercise stress test).", "score": 0.4527, "match_basis": "verbatim_token+domain_route:RELREC"}, {"md_atom_id": "md_dmRELREC_ex_a004", "md_file": "knowledge_base/domains/RELREC/examples.md", "md_atom_type": "SENTENCE", "md_parent_section": "§RELREC.1.1 [Example 1]", "md_verbatim": "This example illustrates the use of the RELREC dataset to relate records stored in separate domains for USUBJID = \"123456\". This example represents a situation in which a single adverse event is part of 2 collected relationships, one with 2 concomitant medications and the other with 2 laboratory findings, but there is no collected relationship between the 2 laboratory findings and the 2 concomitant medications.", "score": 0.4471, "match_basis": "verbatim_token+domain_route:RELREC"}, {"md_atom_id": "md_dmRELREC_assn_a014", "md_file": "knowledge_base/domains/RELREC/assumptions.md", "md_atom_type": "SENTENCE", "md_parent_section": "§RELREC [RELREC — Assumptions]", "md_verbatim": "The Related Records (RELREC) special-purpose dataset can also be used to identify relationships between datasets (e.g., a one-to-many or parent-child relationship). The relationship is defined by including a single record for each related dataset that identifies the key(s) of the dataset that can be used to relate the respective records.", "score": 0.4425, "match_basis": "verbatim_token+domain_route:RELREC"}], "candidate_count": 5, "zero_candidate": false}
{"pdf_atom_id": "ig34_p0431_a023", "pdf_atom_type": "HEADING", "pdf_source": "SDTMIG_v3.4", "pdf_page": 431, "pdf_parent_section": "§8 [REPRESENTING RELATIONSHIPS AND DATA]", "pdf_verbatim": "8.4 Relating Non-standard Variable Values to a Parent Domain", "figure_ref": null, "candidates": [{"md_atom_id": "md_ch08_a134", "md_file": "knowledge_base/chapters/ch08_relationships.md", "md_atom_type": "HEADING", "md_parent_section": "§8 [Representing Relationships and Data]", "md_verbatim": "## 8.4 Relating Non-standard Variable Values to a Parent Domain", "score": 0.9, "match_basis": "verbatim_token+chapter_route:ch08"}, {"md_atom_id": "md_ch08_a205", "md_file": "knowledge_base/chapters/ch08_relationships.md", "md_atom_type": "HEADING", "md_parent_section": "§8 [Representing Relationships and Data]", "md_verbatim": "## 8.5 Relating Comments to a Parent Domain", "score": 0.5333, "match_basis": "verbatim_token+chapter_route:ch08"}, {"md_atom_id": "md_ch08_a022", "md_file": "knowledge_base/chapters/ch08_relationships.md", "md_atom_type": "HEADING", "md_parent_section": "§8 [Representing Relationships and Data]", "md_verbatim": "## 8.1 Relating Groups of Records Within a Domain Using --GRPID", "score": 0.4224, "match_basis": "verbatim_token+chapter_route:ch08"}, {"md_atom_id": "md_ch08_a052", "md_file": "knowledge_base/chapters/ch08_relationships.md", "md_atom_type": "HEADING", "md_parent_section": "§8 [Representing Relationships and Data]", "md_verbatim": "## 8.2 Relating Peer Records", "score": 0.3947, "match_basis": "verbatim_token+chapter_route:ch08"}, {"md_atom_id": "md_ch08_a001", "md_file": "knowledge_base/chapters/ch08_relationships.md", "md_atom_type": "HEADING", "md_parent_section": "§8 [Representing Relationships and Data]", "md_verbatim": "# SDTMIG v3.4 — Chapter 8: Representing Relationships and Data", "score": 0.3857, "match_basis": "verbatim_token+chapter_route:ch08"}], "candidate_count": 5, "zero_candidate": false}
{"pdf_atom_id": "ig34_p0431_a024", "pdf_atom_type": "SENTENCE", "pdf_source": "SDTMIG_v3.4", "pdf_page": 431, "pdf_parent_section": "§8.4 [RELATING NON-STANDARD VARIABLE VALUES TO A PARENT DOMAIN]", "pdf_verbatim": "The SDTM does not allow the addition of new variables.", "figure_ref": null, "candidates": [{"md_atom_id": "md_ch08_a135", "md_file": "knowledge_base/chapters/ch08_relationships.md", "md_atom_type": "SENTENCE", "md_parent_section": "§8.4 [Relating Non-standard Variable Values to a Parent Domain]", "md_verbatim": "The SDTM does not allow the addition of new variables.", "score": 0.9, "match_basis": "verbatim_token+chapter_route:ch08"}, {"md_atom_id": "md_ch08_a016", "md_file": "knowledge_base/chapters/ch08_relationships.md", "md_atom_type": "SENTENCE", "md_parent_section": "§8 [Representing Relationships and Data]", "md_verbatim": "In addition, the variables IDVAR and IDVARVAL are used for identifying the record-level merge/join keys.", "score": 0.45, "match_basis": "verbatim_token+chapter_route:ch08"}, {"md_atom_id": "md_ch08_a018", "md_file": "knowledge_base/chapters/ch08_relationships.md", "md_atom_type": "SENTENCE", "md_parent_section": "§8 [Representing Relationships and Data]", "md_verbatim": "The following are examples of variables that could be used in IDVAR:", "score": 0.4395, "match_basis": "verbatim_token+chapter_route:ch08"}, {"md_atom_id": "md_ch08_a125", "md_file": "knowledge_base/chapters/ch08_relationships.md", "md_atom_type": "SENTENCE", "md_parent_section": "§8.3.1 [RELREC Dataset Relationship Example]", "md_verbatim": "The variable RELTYPE identifies the type of relationship between the datasets.", "score": 0.4, "match_basis": "verbatim_token+chapter_route:ch08"}, {"md_atom_id": "md_ch08_a122", "md_file": "knowledge_base/chapters/ch08_relationships.md", "md_atom_type": "SENTENCE", "md_parent_section": "§8.3.1 [RELREC Dataset Relationship Example]", "md_verbatim": "In this example, the --LNKID variable is used as the key to identify the related observations.", "score": 0.3982, "match_basis": "verbatim_token+chapter_route:ch08"}], "candidate_count": 5, "zero_candidate": false}
{"pdf_atom_id": "ig34_p0431_a025", "pdf_atom_type": "SENTENCE", "pdf_source": "SDTMIG_v3.4", "pdf_page": 431, "pdf_parent_section": "§8.4 [RELATING NON-STANDARD VARIABLE VALUES TO A PARENT DOMAIN]", "pdf_verbatim": "Therefore, the Supplemental Qualifiers special-purpose dataset model is used to capture non-standard variables (NSVs) and their association to parent records in general-observation class datasets (Events, Findings, Interventions), Demographics (DM), and Subject Visits (SV).", "figure_ref": null, "candidates": [{"md_atom_id": "md_ch08_a136", "md_file": "knowledge_base/chapters/ch08_relationships.md", "md_atom_type": "SENTENCE", "md_parent_section": "§8.4 [Relating Non-standard Variable Values to a Parent Domain]", "md_verbatim": "Therefore, the Supplemental Qualifiers special-purpose dataset model is used to capture non-standard variables (NSVs) and their association to parent records in general-observation class datasets (Events, Findings, Interventions), Demographics (DM), and Subject Visits (SV).", "score": 0.9, "match_basis": "verbatim_token+chapter_route:ch08"}, {"md_atom_id": "md_ch08_a113", "md_file": "knowledge_base/chapters/ch08_relationships.md", "md_atom_type": "SENTENCE", "md_parent_section": "§8.3 [Relating Datasets Using RELREC]", "md_verbatim": "Note that it is not necessary to use the RELREC dataset to identify associations from data in the SUPP-- datasets or the Comments (CO) dataset to their parent general-observation class dataset records or special-purpose domain records, as both these datasets include the key variable identifiers of the parent record(s) that are necessary to make the association.", "score": 0.5316, "match_basis": "verbatim_token+chapter_route:ch08"}, {"md_atom_id": "md_ch08_a180", "md_file": "knowledge_base/chapters/ch08_relationships.md", "md_atom_type": "SENTENCE", "md_parent_section": "§8.4.2 [Submitting Supplemental Qualifiers in Separate Datasets]", "md_verbatim": "In cases where data about associated persons have been collected, supplemental qualifiers for Findings About events or interventions for an associated person may need to be represented (see the SDTMIG for Associated Persons).", "score": 0.4807, "match_basis": "verbatim_token+chapter_route:ch08"}, {"md_atom_id": "md_ch08_a209", "md_file": "knowledge_base/chapters/ch08_relationships.md", "md_atom_type": "SENTENCE", "md_parent_section": "§8.5 [Relating Comments to a Parent Domain]", "md_verbatim": "The CO special-purpose domain is structured similarly to the Supplemental Qualifiers (SUPP--) dataset, in that it uses the same set of keys (STUDYID, RDOMAIN, USUBJID, IDVAR, and IDVARVAL) to identify related records.", "score": 0.4618, "match_basis": "verbatim_token+chapter_route:ch08"}, {"md_atom_id": "md_ch08_a272", "md_file": "knowledge_base/chapters/ch08_relationships.md", "md_atom_type": "SENTENCE", "md_parent_section": "§8.6.3 [Guidelines for Differentiating Between Interventions, Events, Findings, and Findings About Events or Interventions]", "md_verbatim": "When data related to an event do not fit into one of the existing Event general observation class qualifiers, the first question to consider is whether the data represent information about the event itself, or about something (a finding or intervention) that is associated with the event.", "score": 0.4604, "match_basis": "verbatim_token+chapter_route:ch08"}], "candidate_count": 5, "zero_candidate": false}
{"pdf_atom_id": "ig34_p0431_a026", "pdf_atom_type": "SENTENCE", "pdf_source": "SDTMIG_v3.4", "pdf_page": 431, "pdf_parent_section": "§8.4 [RELATING NON-STANDARD VARIABLE VALUES TO A PARENT DOMAIN]", "pdf_verbatim": "Supplemental qualifiers are represented as separate SUPP-- datasets for each dataset containing sponsor-defined variables (see Section 8.4.2, Submitting Supplemental Qualifiers in Separate Datasets).", "figure_ref": null, "candidates": [{"md_atom_id": "md_ch08_a137", "md_file": "knowledge_base/chapters/ch08_relationships.md", "md_atom_type": "SENTENCE", "md_parent_section": "§8.4 [Relating Non-standard Variable Values to a Parent Domain]", "md_verbatim": "Supplemental qualifiers are represented as separate SUPP-- datasets for each dataset containing sponsor-defined variables (see Section 8.4.2, Submitting Supplemental Qualifiers in Separate Datasets).", "score": 0.9, "match_basis": "verbatim_token+chapter_route:ch08"}, {"md_atom_id": "md_ch08_a180", "md_file": "knowledge_base/chapters/ch08_relationships.md", "md_atom_type": "SENTENCE", "md_parent_section": "§8.4.2 [Submitting Supplemental Qualifiers in Separate Datasets]", "md_verbatim": "In cases where data about associated persons have been collected, supplemental qualifiers for Findings About events or interventions for an associated person may need to be represented (see the SDTMIG for Associated Persons).", "score": 0.4824, "match_basis": "verbatim_token+chapter_route:ch08"}, {"md_atom_id": "md_ch08_a200", "md_file": "knowledge_base/chapters/ch08_relationships.md", "md_atom_type": "SENTENCE", "md_parent_section": "§8.4.4 [When Not to Use Supplemental Qualifiers]", "md_verbatim": "The following are examples of data that should **not** be submitted as supplemental qualifiers:", "score": 0.4776, "match_basis": "verbatim_token+chapter_route:ch08"}, {"md_atom_id": "md_ch08_a177", "md_file": "knowledge_base/chapters/ch08_relationships.md", "md_atom_type": "SENTENCE", "md_parent_section": "§8.4.2 [Submitting Supplemental Qualifiers in Separate Datasets]", "md_verbatim": "The set of supplemental qualifiers for each domain is included in a separate dataset with the name SUPP-- (where \"--\" denotes the source domain which the supplemental qualifiers relate back to).", "score": 0.4752, "match_basis": "verbatim_token+chapter_route:ch08"}, {"md_atom_id": "md_ch08_a123", "md_file": "knowledge_base/chapters/ch08_relationships.md", "md_atom_type": "SENTENCE", "md_parent_section": "§8.3.1 [RELREC Dataset Relationship Example]", "md_verbatim": "The values for the --LNKID variable in the 2 datasets are sponsor-defined.", "score": 0.4655, "match_basis": "verbatim_token+chapter_route:ch08"}], "candidate_count": 5, "zero_candidate": false}
{"pdf_atom_id": "ig34_p0431_a027", "pdf_atom_type": "SENTENCE", "pdf_source": "SDTMIG_v3.4", "pdf_page": 431, "pdf_parent_section": "§8.4 [RELATING NON-STANDARD VARIABLE VALUES TO A PARENT DOMAIN]", "pdf_verbatim": "SUPP-- represents the metadata and data for each NSV/value combination.", "figure_ref": null, "candidates": [{"md_atom_id": "md_ch08_a138", "md_file": "knowledge_base/chapters/ch08_relationships.md", "md_atom_type": "SENTENCE", "md_parent_section": "§8.4 [Relating Non-standard Variable Values to a Parent Domain]", "md_verbatim": "SUPP-- represents the metadata and data for each NSV/value combination.", "score": 0.9, "match_basis": "verbatim_token+chapter_route:ch08"}, {"md_atom_id": "md_ch08_a032", "md_file": "knowledge_base/chapters/ch08_relationships.md", "md_atom_type": "SENTENCE", "md_parent_section": "§8.1.1 [--GRPID Example]", "md_verbatim": "The components of a combination all have the same value for CMGRPID.", "score": 0.4959, "match_basis": "verbatim_token+chapter_route:ch08"}, {"md_atom_id": "md_ch08_a128", "md_file": "knowledge_base/chapters/ch08_relationships.md", "md_atom_type": "SENTENCE", "md_parent_section": "§8.3.1 [RELREC Dataset Relationship Example]", "md_verbatim": "The possible combinations are:", "score": 0.4429, "match_basis": "verbatim_token+chapter_route:ch08"}, {"md_atom_id": "md_ch08_a336", "md_file": "knowledge_base/chapters/ch08_relationships.md", "md_atom_type": "SENTENCE", "md_parent_section": "§8.8 [Related Specimens (RELSPEC)]", "md_verbatim": "All other values represent a derived sample.", "score": 0.4404, "match_basis": "verbatim_token+chapter_route:ch08"}, {"md_atom_id": "md_ch08_a140", "md_file": "knowledge_base/chapters/ch08_relationships.md", "md_atom_type": "SENTENCE", "md_parent_section": "§8.4 [Relating Non-standard Variable Values to a Parent Domain]", "md_verbatim": "Data that represent separate observations should be treated as separate observations.", "score": 0.4263, "match_basis": "verbatim_token+chapter_route:ch08"}], "candidate_count": 5, "zero_candidate": false}
{"pdf_atom_id": "ig34_p0431_a028", "pdf_atom_type": "SENTENCE", "pdf_source": "SDTMIG_v3.4", "pdf_page": 431, "pdf_parent_section": "§8.4 [RELATING NON-STANDARD VARIABLE VALUES TO A PARENT DOMAIN]", "pdf_verbatim": "As the name suggests, this dataset is intended to capture additional qualifiers for an observation.", "figure_ref": null, "candidates": [{"md_atom_id": "md_ch08_a139", "md_file": "knowledge_base/chapters/ch08_relationships.md", "md_atom_type": "SENTENCE", "md_parent_section": "§8.4 [Relating Non-standard Variable Values to a Parent Domain]", "md_verbatim": "As the name suggests, this dataset is intended to capture additional qualifiers for an observation.", "score": 0.9, "match_basis": "verbatim_token+chapter_route:ch08"}, {"md_atom_id": "md_ch08_a266", "md_file": "knowledge_base/chapters/ch08_relationships.md", "md_atom_type": "SENTENCE", "md_parent_section": "§8.6.3 [Guidelines for Differentiating Between Interventions, Events, Findings, and Findings About Events or Interventions]", "md_verbatim": "A record in the Events general observation class is intended to represent the event as a whole.", "score": 0.4263, "match_basis": "verbatim_token+chapter_route:ch08"}, {"md_atom_id": "md_ch08_a136", "md_file": "knowledge_base/chapters/ch08_relationships.md", "md_atom_type": "SENTENCE", "md_parent_section": "§8.4 [Relating Non-standard Variable Values to a Parent Domain]", "md_verbatim": "Therefore, the Supplemental Qualifiers special-purpose dataset model is used to capture non-standard variables (NSVs) and their association to parent records in general-observation class datasets (Events, Findings, Interventions), Demographics (DM), and Subject Visits (SV).", "score": 0.4224, "match_basis": "verbatim_token+chapter_route:ch08"}, {"md_atom_id": "md_ch08_a272", "md_file": "knowledge_base/chapters/ch08_relationships.md", "md_atom_type": "SENTENCE", "md_parent_section": "§8.6.3 [Guidelines for Differentiating Between Interventions, Events, Findings, and Findings About Events or Interventions]", "md_verbatim": "When data related to an event do not fit into one of the existing Event general observation class qualifiers, the first question to consider is whether the data represent information about the event itself, or about something (a finding or intervention) that is associated with the event.", "score": 0.4145, "match_basis": "verbatim_token+chapter_route:ch08"}, {"md_atom_id": "md_ch08_a177", "md_file": "knowledge_base/chapters/ch08_relationships.md", "md_atom_type": "SENTENCE", "md_parent_section": "§8.4.2 [Submitting Supplemental Qualifiers in Separate Datasets]", "md_verbatim": "The set of supplemental qualifiers for each domain is included in a separate dataset with the name SUPP-- (where \"--\" denotes the source domain which the supplemental qualifiers relate back to).", "score": 0.408, "match_basis": "verbatim_token+chapter_route:ch08"}], "candidate_count": 5, "zero_candidate": false}
{"pdf_atom_id": "ig34_p0431_a029", "pdf_atom_type": "SENTENCE", "pdf_source": "SDTMIG_v3.4", "pdf_page": 431, "pdf_parent_section": "§8.4 [RELATING NON-STANDARD VARIABLE VALUES TO A PARENT DOMAIN]", "pdf_verbatim": "Data that represent separate observations should be treated as separate observations.", "figure_ref": null, "candidates": [{"md_atom_id": "md_ch08_a140", "md_file": "knowledge_base/chapters/ch08_relationships.md", "md_atom_type": "SENTENCE", "md_parent_section": "§8.4 [Relating Non-standard Variable Values to a Parent Domain]", "md_verbatim": "Data that represent separate observations should be treated as separate observations.", "score": 0.9, "match_basis": "verbatim_token+chapter_route:ch08"}, {"md_atom_id": "md_ch08_a064", "md_file": "knowledge_base/chapters/ch08_relationships.md", "md_atom_type": "SENTENCE", "md_parent_section": "§8.2 [Relating Peer Records]", "md_verbatim": "The RELREC dataset should be used to represent either:", "score": 0.4625, "match_basis": "verbatim_token+chapter_route:ch08"}, {"md_atom_id": "md_ch08_a266", "md_file": "knowledge_base/chapters/ch08_relationships.md", "md_atom_type": "SENTENCE", "md_parent_section": "§8.6.3 [Guidelines for Differentiating Between Interventions, Events, Findings, and Findings About Events or Interventions]", "md_verbatim": "A record in the Events general observation class is intended to represent the event as a whole.", "score": 0.46, "match_basis": "verbatim_token+chapter_route:ch08"}, {"md_atom_id": "md_ch08_a225", "md_file": "knowledge_base/chapters/ch08_relationships.md", "md_atom_type": "SENTENCE", "md_parent_section": "§8.6.1 [Guidelines for Determining the General Observation Class]", "md_verbatim": "A key part of the process of creating a new domain is determining whether an observation represents an event, an intervention, or a finding.", "score": 0.4541, "match_basis": "verbatim_token+chapter_route:ch08"}, {"md_atom_id": "md_ch08_a004", "md_file": "knowledge_base/chapters/ch08_relationships.md", "md_atom_type": "SENTENCE", "md_parent_section": "§8 [Representing Relationships and Data]", "md_verbatim": "The defined variables of the SDTM general observation classes could restrict the ability of sponsors to represent all the data they wish to submit.", "score": 0.45, "match_basis": "verbatim_token+chapter_route:ch08"}], "candidate_count": 5, "zero_candidate": false}
{"pdf_atom_id": "ig34_p0431_a030", "pdf_atom_type": "SENTENCE", "pdf_source": "SDTMIG_v3.4", "pdf_page": 431, "pdf_parent_section": "§8.4 [RELATING NON-STANDARD VARIABLE VALUES TO A PARENT DOMAIN]", "pdf_verbatim": "The Supplemental Qualifiers dataset is structured similarly to the RELREC dataset, in that it uses the same set of keys to identify parent records.", "figure_ref": null, "candidates": [{"md_atom_id": "md_ch08_a141", "md_file": "knowledge_base/chapters/ch08_relationships.md", "md_atom_type": "SENTENCE", "md_parent_section": "§8.4 [Relating Non-standard Variable Values to a Parent Domain]", "md_verbatim": "The Supplemental Qualifiers dataset is structured similarly to the RELREC dataset, in that it uses the same set of keys to identify parent records.", "score": 0.9, "match_basis": "verbatim_token+chapter_route:ch08"}, {"md_atom_id": "md_ch08_a209", "md_file": "knowledge_base/chapters/ch08_relationships.md", "md_atom_type": "SENTENCE", "md_parent_section": "§8.5 [Relating Comments to a Parent Domain]", "md_verbatim": "The CO special-purpose domain is structured similarly to the Supplemental Qualifiers (SUPP--) dataset, in that it uses the same set of keys (STUDYID, RDOMAIN, USUBJID, IDVAR, and IDVARVAL) to identify related records.", "score": 0.6515, "match_basis": "verbatim_token+chapter_route:ch08"}, {"md_atom_id": "md_ch08_a156", "md_file": "knowledge_base/chapters/ch08_relationships.md", "md_atom_type": "SENTENCE", "md_parent_section": "§8.4.1 [Supplemental Qualifiers (SUPP--)]", "md_verbatim": "supp--.xpt, Supplemental Qualifiers for [domain name] — Relationship. One record per supplemental qualifier per related parent domain record(s), Tabulation.", "score": 0.4862, "match_basis": "verbatim_token+chapter_route:ch08"}, {"md_atom_id": "md_ch08_a175", "md_file": "knowledge_base/chapters/ch08_relationships.md", "md_atom_type": "SENTENCE", "md_parent_section": "§8.4.2 [Submitting Supplemental Qualifiers in Separate Datasets]", "md_verbatim": "There is a one-to-one correspondence between a domain dataset and its Supplemental Qualifier dataset.", "score": 0.4724, "match_basis": "verbatim_token+chapter_route:ch08"}, {"md_atom_id": "md_ch08_a219", "md_file": "knowledge_base/chapters/ch08_relationships.md", "md_atom_type": "SENTENCE", "md_parent_section": "§8.5 [Relating Comments to a Parent Domain]", "md_verbatim": "As with Supplemental Qualifiers (SUPP--) and Related Records (RELREC), --GRPID and other grouping variables can be used as the value in IDVAR to identify comments with relationships to multiple domain records.", "score": 0.4707, "match_basis": "verbatim_token+chapter_route:ch08"}], "candidate_count": 5, "zero_candidate": false}
{"pdf_atom_id": "ig34_p0431_a031", "pdf_atom_type": "SENTENCE", "pdf_source": "SDTMIG_v3.4", "pdf_page": 431, "pdf_parent_section": "§8.4 [RELATING NON-STANDARD VARIABLE VALUES TO A PARENT DOMAIN]", "pdf_verbatim": "Each SUPP-- record also includes the name of the qualifier variable being added (QNAM), the label for the variable (QLABEL), the actual value for each instance or record (QVAL), the origin (QORIG) of the value (see Section 4.1.8, Origin Metadata), and the evaluator (QEVAL) to specify the role of the individual who assigned the value (e.g., \"ADJUDICATION COMMITTEE\", \"SPONSOR\").", "figure_ref": null, "candidates": [{"md_atom_id": "md_ch08_a142", "md_file": "knowledge_base/chapters/ch08_relationships.md", "md_atom_type": "SENTENCE", "md_parent_section": "§8.4 [Relating Non-standard Variable Values to a Parent Domain]", "md_verbatim": "Each SUPP-- record also includes the name of the qualifier variable being added (QNAM), the label for the variable (QLABEL), the actual value for each instance or record (QVAL), the origin (QORIG) of the value (see Section 4.1.8, Origin Metadata), and the evaluator (QEVAL) to specify the role of the individual who assigned the value (e.g., \"ADJUDICATION COMMITTEE\", \"SPONSOR\").", "score": 0.9, "match_basis": "verbatim_token+chapter_route:ch08"}, {"md_atom_id": "md_ch08_a149", "md_file": "knowledge_base/chapters/ch08_relationships.md", "md_atom_type": "SENTENCE", "md_parent_section": "§8.4 [Relating Non-standard Variable Values to a Parent Domain]", "md_verbatim": "For subjective data, the value in QEVAL should reflect the role of the person or institution assigning the value (e.g., \"SPONSOR\", \"ADJUDICATION COMMITTEE\").", "score": 0.4714, "match_basis": "verbatim_token+chapter_route:ch08"}, {"md_atom_id": "md_ch08_a186", "md_file": "knowledge_base/chapters/ch08_relationships.md", "md_atom_type": "SENTENCE", "md_parent_section": "§8.4.3 [Examples]", "md_verbatim": "**Example 1:** The 2 rows of suppae.xpt add qualifying information to adverse event data (RDOMAIN = \"AE\"). IDVAR defines the key variable used to link this information to the AE data (AESEQ). IDVARVAL specifies the value of the key variable within the parent AE record to which the SUPPAE record applies. The remaining columns specify the supplemental variables' names (AESOSP and AETRTEM), labels, values, origin, and who made the evaluation.", "score": 0.438, "match_basis": "verbatim_token+chapter_route:ch08"}, {"md_atom_id": "md_ch08_a137", "md_file": "knowledge_base/chapters/ch08_relationships.md", "md_atom_type": "SENTENCE", "md_parent_section": "§8.4 [Relating Non-standard Variable Values to a Parent Domain]", "md_verbatim": "Supplemental qualifiers are represented as separate SUPP-- datasets for each dataset containing sponsor-defined variables (see Section 8.4.2, Submitting Supplemental Qualifiers in Separate Datasets).", "score": 0.4265, "match_basis": "verbatim_token+chapter_route:ch08"}, {"md_atom_id": "md_ch08_a143", "md_file": "knowledge_base/chapters/ch08_relationships.md", "md_atom_type": "SENTENCE", "md_parent_section": "§8.4 [Relating Non-standard Variable Values to a Parent Domain]", "md_verbatim": "Controlled terminology for certain expected values for QNAM and QLABEL is included in Appendix C1, Supplemental Qualifiers Name Codes.", "score": 0.4171, "match_basis": "verbatim_token+chapter_route:ch08"}], "candidate_count": 5, "zero_candidate": false}
{"pdf_atom_id": "ig34_p0431_a032", "pdf_atom_type": "SENTENCE", "pdf_source": "SDTMIG_v3.4", "pdf_page": 431, "pdf_parent_section": "§8.4 [RELATING NON-STANDARD VARIABLE VALUES TO A PARENT DOMAIN]", "pdf_verbatim": "Controlled terminology for certain expected values for QNAM and QLABEL is included in Appendix C1, Supplemental Qualifiers Name Codes.", "figure_ref": null, "candidates": [{"md_atom_id": "md_ch08_a143", "md_file": "knowledge_base/chapters/ch08_relationships.md", "md_atom_type": "SENTENCE", "md_parent_section": "§8.4 [Relating Non-standard Variable Values to a Parent Domain]", "md_verbatim": "Controlled terminology for certain expected values for QNAM and QLABEL is included in Appendix C1, Supplemental Qualifiers Name Codes.", "score": 0.9, "match_basis": "verbatim_token+chapter_route:ch08"}, {"md_atom_id": "md_ch08_a126", "md_file": "knowledge_base/chapters/ch08_relationships.md", "md_atom_type": "SENTENCE", "md_parent_section": "§8.3.1 [RELREC Dataset Relationship Example]", "md_verbatim": "The allowable values are ONE and MANY (controlled terminology is expected).", "score": 0.4953, "match_basis": "verbatim_token+chapter_route:ch08"}, {"md_atom_id": "md_ch08_a173", "md_file": "knowledge_base/chapters/ch08_relationships.md", "md_atom_type": "LIST_ITEM", "md_parent_section": "§8.4 [Relating Non-standard Variable Values to a Parent Domain]", "md_verbatim": "- See Appendix C1, Supplemental Qualifiers Name Codes, for controlled terminology for QNAM and QLABEL for some of the most common supplemental qualifiers. Additional QNAM values may be created as needed, following the guidelines provided in the CDISC Notes for QVAL", "score": 0.4932, "match_basis": "verbatim_token+chapter_route:ch08"}, {"md_atom_id": "md_ch08_a177", "md_file": "knowledge_base/chapters/ch08_relationships.md", "md_atom_type": "SENTENCE", "md_parent_section": "§8.4.2 [Submitting Supplemental Qualifiers in Separate Datasets]", "md_verbatim": "The set of supplemental qualifiers for each domain is included in a separate dataset with the name SUPP-- (where \"--\" denotes the source domain which the supplemental qualifiers relate back to).", "score": 0.4487, "match_basis": "verbatim_token+chapter_route:ch08"}, {"md_atom_id": "md_ch08_a156", "md_file": "knowledge_base/chapters/ch08_relationships.md", "md_atom_type": "SENTENCE", "md_parent_section": "§8.4.1 [Supplemental Qualifiers (SUPP--)]", "md_verbatim": "supp--.xpt, Supplemental Qualifiers for [domain name] — Relationship. One record per supplemental qualifier per related parent domain record(s), Tabulation.", "score": 0.4353, "match_basis": "verbatim_token+chapter_route:ch08"}], "candidate_count": 5, "zero_candidate": false}
{"pdf_atom_id": "ig34_p0432_a001", "pdf_atom_type": "SENTENCE", "pdf_source": "SDTMIG_v3.4", "pdf_page": 432, "pdf_parent_section": "§8.4 [RELATING NON-STANDARD VARIABLE VALUES TO A PARENT DOMAIN]", "pdf_verbatim": "SUPP-- datasets are also used to capture attributions.", "figure_ref": null, "candidates": [{"md_atom_id": "md_ch08_a144", "md_file": "knowledge_base/chapters/ch08_relationships.md", "md_atom_type": "SENTENCE", "md_parent_section": "§8.4 [Relating Non-standard Variable Values to a Parent Domain]", "md_verbatim": "SUPP-- datasets are also used to capture **attributions**.", "score": 0.9, "match_basis": "verbatim_token+chapter_route:ch08"}, {"md_atom_id": "md_ch08_a147", "md_file": "knowledge_base/chapters/ch08_relationships.md", "md_atom_type": "SENTENCE", "md_parent_section": "§8.4 [Relating Non-standard Variable Values to a Parent Domain]", "md_verbatim": "A SUPP-- dataset can contain both objective data (where values are collected or derived algorithmically) and subjective data (attributions where values are assigned by a person or committee).", "score": 0.4161, "match_basis": "verbatim_token+chapter_route:ch08"}, {"md_atom_id": "md_ch08_a110", "md_file": "knowledge_base/chapters/ch08_relationships.md", "md_atom_type": "SENTENCE", "md_parent_section": "§8.3 [Relating Datasets Using RELREC]", "md_verbatim": "The Related Records (RELREC) special-purpose dataset can also be used to identify relationships between datasets (e.g., a one-to-many or parent-child relationship).", "score": 0.4105, "match_basis": "verbatim_token+chapter_route:ch08"}, {"md_atom_id": "md_ch08_a317", "md_file": "knowledge_base/chapters/ch08_relationships.md", "md_atom_type": "SENTENCE", "md_parent_section": "§8.8 [Related Specimens (RELSPEC)]", "md_verbatim": "A dataset used to represent relationships between specimens.", "score": 0.4091, "match_basis": "verbatim_token+chapter_route:ch08"}, {"md_atom_id": "md_ch08_a139", "md_file": "knowledge_base/chapters/ch08_relationships.md", "md_atom_type": "SENTENCE", "md_parent_section": "§8.4 [Relating Non-standard Variable Values to a Parent Domain]", "md_verbatim": "As the name suggests, this dataset is intended to capture additional qualifiers for an observation.", "score": 0.4075, "match_basis": "verbatim_token+chapter_route:ch08"}], "candidate_count": 5, "zero_candidate": false}
{"pdf_atom_id": "ig34_p0432_a002", "pdf_atom_type": "SENTENCE", "pdf_source": "SDTMIG_v3.4", "pdf_page": 432, "pdf_parent_section": "§8.4 [RELATING NON-STANDARD VARIABLE VALUES TO A PARENT DOMAIN]", "pdf_verbatim": "An attribution is typically an interpretation or subjective classification of 1 or more observations by a specific evaluator, such as a flag that indicates whether an observation was considered to be clinically significant.", "figure_ref": null, "candidates": [{"md_atom_id": "md_ch08_a145", "md_file": "knowledge_base/chapters/ch08_relationships.md", "md_atom_type": "SENTENCE", "md_parent_section": "§8.4 [Relating Non-standard Variable Values to a Parent Domain]", "md_verbatim": "An attribution is typically an interpretation or subjective classification of 1 or more observations by a specific evaluator, such as a flag that indicates whether an observation was considered to be clinically significant.", "score": 0.9, "match_basis": "verbatim_token+chapter_route:ch08"}, {"md_atom_id": "md_ch08_a147", "md_file": "knowledge_base/chapters/ch08_relationships.md", "md_atom_type": "SENTENCE", "md_parent_section": "§8.4 [Relating Non-standard Variable Values to a Parent Domain]", "md_verbatim": "A SUPP-- dataset can contain both objective data (where values are collected or derived algorithmically) and subjective data (attributions where values are assigned by a person or committee).", "score": 0.4407, "match_basis": "verbatim_token+chapter_route:ch08"}, {"md_atom_id": "md_ch08_a238", "md_file": "knowledge_base/chapters/ch08_relationships.md", "md_atom_type": "SENTENCE", "md_parent_section": "§8.6.1 [Guidelines for Determining the General Observation Class]", "md_verbatim": "Findings general observation class data include measurements, tests, assessments, or examinations performed on a subject in the clinical trial.", "score": 0.4208, "match_basis": "verbatim_token+chapter_route:ch08"}, {"md_atom_id": "md_ch08_a236", "md_file": "knowledge_base/chapters/ch08_relationships.md", "md_atom_type": "SENTENCE", "md_parent_section": "§8.6.1 [Guidelines for Determining the General Observation Class]", "md_verbatim": "Many aspects of medical events — including tests performed to evaluate them, interventions that may have caused them, and interventions given to treat them — may be collected in clinical trials.", "score": 0.42, "match_basis": "verbatim_token+chapter_route:ch08"}, {"md_atom_id": "md_ch08_a272", "md_file": "knowledge_base/chapters/ch08_relationships.md", "md_atom_type": "SENTENCE", "md_parent_section": "§8.6.3 [Guidelines for Differentiating Between Interventions, Events, Findings, and Findings About Events or Interventions]", "md_verbatim": "When data related to an event do not fit into one of the existing Event general observation class qualifiers, the first question to consider is whether the data represent information about the event itself, or about something (a finding or intervention) that is associated with the event.", "score": 0.4179, "match_basis": "verbatim_token+chapter_route:ch08"}], "candidate_count": 5, "zero_candidate": false}
{"pdf_atom_id": "ig34_p0432_a003", "pdf_atom_type": "SENTENCE", "pdf_source": "SDTMIG_v3.4", "pdf_page": 432, "pdf_parent_section": "§8.4 [RELATING NON-STANDARD VARIABLE VALUES TO A PARENT DOMAIN]", "pdf_verbatim": "It is possible that different attributions may be necessary in some cases; SUPP-- provides a mechanism for incorporating as many attributions as are necessary.", "figure_ref": null, "candidates": [{"md_atom_id": "md_ch08_a146", "md_file": "knowledge_base/chapters/ch08_relationships.md", "md_atom_type": "SENTENCE", "md_parent_section": "§8.4 [Relating Non-standard Variable Values to a Parent Domain]", "md_verbatim": "It is possible that different attributions may be necessary in some cases; SUPP-- provides a mechanism for incorporating as many attributions as are necessary.", "score": 0.9, "match_basis": "verbatim_token+chapter_route:ch08"}, {"md_atom_id": "md_ch08_a144", "md_file": "knowledge_base/chapters/ch08_relationships.md", "md_atom_type": "SENTENCE", "md_parent_section": "§8.4 [Relating Non-standard Variable Values to a Parent Domain]", "md_verbatim": "SUPP-- datasets are also used to capture **attributions**.", "score": 0.4024, "match_basis": "verbatim_token+chapter_route:ch08"}, {"md_atom_id": "md_ch08_a113", "md_file": "knowledge_base/chapters/ch08_relationships.md", "md_atom_type": "SENTENCE", "md_parent_section": "§8.3 [Relating Datasets Using RELREC]", "md_verbatim": "Note that it is not necessary to use the RELREC dataset to identify associations from data in the SUPP-- datasets or the Comments (CO) dataset to their parent general-observation class dataset records or special-purpose domain records, as both these datasets include the key variable identifiers of the parent record(s) that are necessary to make the association.", "score": 0.4014, "match_basis": "verbatim_token+chapter_route:ch08"}, {"md_atom_id": "md_ch08_a128", "md_file": "knowledge_base/chapters/ch08_relationships.md", "md_atom_type": "SENTENCE", "md_parent_section": "§8.3.1 [RELREC Dataset Relationship Example]", "md_verbatim": "The possible combinations are:", "score": 0.388, "match_basis": "verbatim_token+chapter_route:ch08"}, {"md_atom_id": "md_ch08_a241", "md_file": "knowledge_base/chapters/ch08_relationships.md", "md_atom_type": "SENTENCE", "md_parent_section": "§8.6.1 [Guidelines for Determining the General Observation Class]", "md_verbatim": "Findings about events and interventions are discussed further in Section 8.6.3, Guidelines for Differentiating Between Interventions, Events, Findings, and Findings About Events or Interventions.", "score": 0.3835, "match_basis": "verbatim_token+chapter_route:ch08"}], "candidate_count": 5, "zero_candidate": false}
{"pdf_atom_id": "ig34_p0432_a004", "pdf_atom_type": "SENTENCE", "pdf_source": "SDTMIG_v3.4", "pdf_page": 432, "pdf_parent_section": "§8.4 [RELATING NON-STANDARD VARIABLE VALUES TO A PARENT DOMAIN]", "pdf_verbatim": "A SUPP-- dataset can contain both objective data (where values are collected or derived algorithmically) and subjective data (attributions where values are assigned by a person or committee).", "figure_ref": null, "candidates": [{"md_atom_id": "md_ch08_a147", "md_file": "knowledge_base/chapters/ch08_relationships.md", "md_atom_type": "SENTENCE", "md_parent_section": "§8.4 [Relating Non-standard Variable Values to a Parent Domain]", "md_verbatim": "A SUPP-- dataset can contain both objective data (where values are collected or derived algorithmically) and subjective data (attributions where values are assigned by a person or committee).", "score": 0.9, "match_basis": "verbatim_token+chapter_route:ch08"}, {"md_atom_id": "md_ch08_a149", "md_file": "knowledge_base/chapters/ch08_relationships.md", "md_atom_type": "SENTENCE", "md_parent_section": "§8.4 [Relating Non-standard Variable Values to a Parent Domain]", "md_verbatim": "For subjective data, the value in QEVAL should reflect the role of the person or institution assigning the value (e.g., \"SPONSOR\", \"ADJUDICATION COMMITTEE\").", "score": 0.4759, "match_basis": "verbatim_token+chapter_route:ch08"}, {"md_atom_id": "md_ch08_a145", "md_file": "knowledge_base/chapters/ch08_relationships.md", "md_atom_type": "SENTENCE", "md_parent_section": "§8.4 [Relating Non-standard Variable Values to a Parent Domain]", "md_verbatim": "An attribution is typically an interpretation or subjective classification of 1 or more observations by a specific evaluator, such as a flag that indicates whether an observation was considered to be clinically significant.", "score": 0.4407, "match_basis": "verbatim_token+chapter_route:ch08"}, {"md_atom_id": "md_ch08_a144", "md_file": "knowledge_base/chapters/ch08_relationships.md", "md_atom_type": "SENTENCE", "md_parent_section": "§8.4 [Relating Non-standard Variable Values to a Parent Domain]", "md_verbatim": "SUPP-- datasets are also used to capture **attributions**.", "score": 0.4161, "match_basis": "verbatim_token+chapter_route:ch08"}, {"md_atom_id": "md_ch08_a210", "md_file": "knowledge_base/chapters/ch08_relationships.md", "md_atom_type": "SENTENCE", "md_parent_section": "§8.5 [Relating Comments to a Parent Domain]", "md_verbatim": "All comments except those collected on log-style pages not associated with a domain are considered child records of subject data captured in domains.", "score": 0.4108, "match_basis": "verbatim_token+chapter_route:ch08"}], "candidate_count": 5, "zero_candidate": false}
{"pdf_atom_id": "ig34_p0432_a005", "pdf_atom_type": "SENTENCE", "pdf_source": "SDTMIG_v3.4", "pdf_page": 432, "pdf_parent_section": "§8.4 [RELATING NON-STANDARD VARIABLE VALUES TO A PARENT DOMAIN]", "pdf_verbatim": "For objective data, the value in QEVAL will be null.", "figure_ref": null, "candidates": [{"md_atom_id": "md_ch08_a148", "md_file": "knowledge_base/chapters/ch08_relationships.md", "md_atom_type": "SENTENCE", "md_parent_section": "§8.4 [Relating Non-standard Variable Values to a Parent Domain]", "md_verbatim": "For objective data, the value in QEVAL will be null.", "score": 0.9, "match_basis": "verbatim_token+chapter_route:ch08"}, {"md_atom_id": "md_ch08_a149", "md_file": "knowledge_base/chapters/ch08_relationships.md", "md_atom_type": "SENTENCE", "md_parent_section": "§8.4 [Relating Non-standard Variable Values to a Parent Domain]", "md_verbatim": "For subjective data, the value in QEVAL should reflect the role of the person or institution assigning the value (e.g., \"SPONSOR\", \"ADJUDICATION COMMITTEE\").", "score": 0.425, "match_basis": "verbatim_token+chapter_route:ch08"}, {"md_atom_id": "md_ch08_a123", "md_file": "knowledge_base/chapters/ch08_relationships.md", "md_atom_type": "SENTENCE", "md_parent_section": "§8.3.1 [RELREC Dataset Relationship Example]", "md_verbatim": "The values for the --LNKID variable in the 2 datasets are sponsor-defined.", "score": 0.3933, "match_basis": "verbatim_token+chapter_route:ch08"}, {"md_atom_id": "md_ch08_a121", "md_file": "knowledge_base/chapters/ch08_relationships.md", "md_atom_type": "SENTENCE", "md_parent_section": "§8.3.1 [RELREC Dataset Relationship Example]", "md_verbatim": "The value in IDVAR must be the name of the key used to merge/join the 2 datasets.", "score": 0.3923, "match_basis": "verbatim_token+chapter_route:ch08"}, {"md_atom_id": "md_ch08_a295", "md_file": "knowledge_base/chapters/ch08_relationships.md", "md_atom_type": "SENTENCE", "md_parent_section": "§8.7 [Related Subjects (RELSUB)]", "md_verbatim": "**Row 1:** Subject is the mother.", "score": 0.3923, "match_basis": "verbatim_token+chapter_route:ch08"}], "candidate_count": 5, "zero_candidate": false}
{"pdf_atom_id": "ig34_p0432_a006", "pdf_atom_type": "SENTENCE", "pdf_source": "SDTMIG_v3.4", "pdf_page": 432, "pdf_parent_section": "§8.4 [RELATING NON-STANDARD VARIABLE VALUES TO A PARENT DOMAIN]", "pdf_verbatim": "For subjective data, the value in QEVAL should reflect the role of the person or institution assigning the value (e.g., \"SPONSOR\", \"ADJUDICATION COMMITTEE\").", "figure_ref": null, "candidates": [{"md_atom_id": "md_ch08_a149", "md_file": "knowledge_base/chapters/ch08_relationships.md", "md_atom_type": "SENTENCE", "md_parent_section": "§8.4 [Relating Non-standard Variable Values to a Parent Domain]", "md_verbatim": "For subjective data, the value in QEVAL should reflect the role of the person or institution assigning the value (e.g., \"SPONSOR\", \"ADJUDICATION COMMITTEE\").", "score": 0.9, "match_basis": "verbatim_token+chapter_route:ch08"}, {"md_atom_id": "md_ch08_a147", "md_file": "knowledge_base/chapters/ch08_relationships.md", "md_atom_type": "SENTENCE", "md_parent_section": "§8.4 [Relating Non-standard Variable Values to a Parent Domain]", "md_verbatim": "A SUPP-- dataset can contain both objective data (where values are collected or derived algorithmically) and subjective data (attributions where values are assigned by a person or committee).", "score": 0.4759, "match_basis": "verbatim_token+chapter_route:ch08"}, {"md_atom_id": "md_ch08_a142", "md_file": "knowledge_base/chapters/ch08_relationships.md", "md_atom_type": "SENTENCE", "md_parent_section": "§8.4 [Relating Non-standard Variable Values to a Parent Domain]", "md_verbatim": "Each SUPP-- record also includes the name of the qualifier variable being added (QNAM), the label for the variable (QLABEL), the actual value for each instance or record (QVAL), the origin (QORIG) of the value (see Section 4.1.8, Origin Metadata), and the evaluator (QEVAL) to specify the role of the individual who assigned the value (e.g., \"ADJUDICATION COMMITTEE\", \"SPONSOR\").", "score": 0.4714, "match_basis": "verbatim_token+chapter_route:ch08"}, {"md_atom_id": "md_ch08_a148", "md_file": "knowledge_base/chapters/ch08_relationships.md", "md_atom_type": "SENTENCE", "md_parent_section": "§8.4 [Relating Non-standard Variable Values to a Parent Domain]", "md_verbatim": "For objective data, the value in QEVAL will be null.", "score": 0.425, "match_basis": "verbatim_token+chapter_route:ch08"}, {"md_atom_id": "md_ch08_a145", "md_file": "knowledge_base/chapters/ch08_relationships.md", "md_atom_type": "SENTENCE", "md_parent_section": "§8.4 [Relating Non-standard Variable Values to a Parent Domain]", "md_verbatim": "An attribution is typically an interpretation or subjective classification of 1 or more observations by a specific evaluator, such as a flag that indicates whether an observation was considered to be clinically significant.", "score": 0.4087, "match_basis": "verbatim_token+chapter_route:ch08"}], "candidate_count": 5, "zero_candidate": false}
{"pdf_atom_id": "ig34_p0432_a007", "pdf_atom_type": "SENTENCE", "pdf_source": "SDTMIG_v3.4", "pdf_page": 432, "pdf_parent_section": "§8.4 [RELATING NON-STANDARD VARIABLE VALUES TO A PARENT DOMAIN]", "pdf_verbatim": "The combined set of values for the first 6 columns (STUDYID…QNAM) should be unique for every record.", "figure_ref": null, "candidates": [{"md_atom_id": "md_ch08_a150", "md_file": "knowledge_base/chapters/ch08_relationships.md", "md_atom_type": "SENTENCE", "md_parent_section": "§8.4 [Relating Non-standard Variable Values to a Parent Domain]", "md_verbatim": "The combined set of values for the first 6 columns (STUDYID...QNAM) should be unique for every record.", "score": 0.9, "match_basis": "verbatim_token+chapter_route:ch08"}, {"md_atom_id": "md_ch08_a151", "md_file": "knowledge_base/chapters/ch08_relationships.md", "md_atom_type": "SENTENCE", "md_parent_section": "§8.4 [Relating Non-standard Variable Values to a Parent Domain]", "md_verbatim": "That is, there should not be multiple records in a SUPP-- dataset for the same QNAM value, as it relates to IDVAR/IDVARVAL for a USUBJID in a domain.", "score": 0.4171, "match_basis": "verbatim_token+chapter_route:ch08"}, {"md_atom_id": "md_ch08_a055", "md_file": "knowledge_base/chapters/ch08_relationships.md", "md_atom_type": "SENTENCE", "md_parent_section": "§8.2 [Relating Peer Records]", "md_verbatim": "A relationship is defined by adding a record to RELREC for each record to be related and by assigning a unique character identifier value for the relationship.", "score": 0.4023, "match_basis": "verbatim_token+chapter_route:ch08"}, {"md_atom_id": "md_ch08_a270", "md_file": "knowledge_base/chapters/ch08_relationships.md", "md_atom_type": "SENTENCE", "md_parent_section": "§8.6.3 [Guidelines for Differentiating Between Interventions, Events, Findings, and Findings About Events or Interventions]", "md_verbatim": "Data that do not describe the event as a whole should not be stored in the record for that event or in a --SUPP record tied to that event.", "score": 0.3985, "match_basis": "verbatim_token+chapter_route:ch08"}, {"md_atom_id": "md_ch08_a032", "md_file": "knowledge_base/chapters/ch08_relationships.md", "md_atom_type": "SENTENCE", "md_parent_section": "§8.1.1 [--GRPID Example]", "md_verbatim": "The components of a combination all have the same value for CMGRPID.", "score": 0.3831, "match_basis": "verbatim_token+chapter_route:ch08"}], "candidate_count": 5, "zero_candidate": false}
{"pdf_atom_id": "ig34_p0432_a008", "pdf_atom_type": "SENTENCE", "pdf_source": "SDTMIG_v3.4", "pdf_page": 432, "pdf_parent_section": "§8.4 [RELATING NON-STANDARD VARIABLE VALUES TO A PARENT DOMAIN]", "pdf_verbatim": "That is, there should not be multiple records in a SUPP-- dataset for the same QNAM value, as it relates to IDVAR/IDVARVAL for a USUBJID in a domain.", "figure_ref": null, "candidates": [{"md_atom_id": "md_ch08_a151", "md_file": "knowledge_base/chapters/ch08_relationships.md", "md_atom_type": "SENTENCE", "md_parent_section": "§8.4 [Relating Non-standard Variable Values to a Parent Domain]", "md_verbatim": "That is, there should not be multiple records in a SUPP-- dataset for the same QNAM value, as it relates to IDVAR/IDVARVAL for a USUBJID in a domain.", "score": 0.9, "match_basis": "verbatim_token+chapter_route:ch08"}, {"md_atom_id": "md_ch08_a209", "md_file": "knowledge_base/chapters/ch08_relationships.md", "md_atom_type": "SENTENCE", "md_parent_section": "§8.5 [Relating Comments to a Parent Domain]", "md_verbatim": "The CO special-purpose domain is structured similarly to the Supplemental Qualifiers (SUPP--) dataset, in that it uses the same set of keys (STUDYID, RDOMAIN, USUBJID, IDVAR, and IDVARVAL) to identify related records.", "score": 0.4982, "match_basis": "verbatim_token+chapter_route:ch08"}, {"md_atom_id": "md_ch08_a115", "md_file": "knowledge_base/chapters/ch08_relationships.md", "md_atom_type": "SENTENCE", "md_parent_section": "§8.3.1 [RELREC Dataset Relationship Example]", "md_verbatim": "**Example 1:** This example illustrates RELREC records used to represent the relationship between records in 2 datasets that have a one-to-many relationship. Note that because this is a dataset-to-dataset relationship, USUBJID and IDVARVAL are null.", "score": 0.4755, "match_basis": "verbatim_token+chapter_route:ch08"}, {"md_atom_id": "md_ch08_a219", "md_file": "knowledge_base/chapters/ch08_relationships.md", "md_atom_type": "SENTENCE", "md_parent_section": "§8.5 [Relating Comments to a Parent Domain]", "md_verbatim": "As with Supplemental Qualifiers (SUPP--) and Related Records (RELREC), --GRPID and other grouping variables can be used as the value in IDVAR to identify comments with relationships to multiple domain records.", "score": 0.4554, "match_basis": "verbatim_token+chapter_route:ch08"}, {"md_atom_id": "md_ch08_a177", "md_file": "knowledge_base/chapters/ch08_relationships.md", "md_atom_type": "SENTENCE", "md_parent_section": "§8.4.2 [Submitting Supplemental Qualifiers in Separate Datasets]", "md_verbatim": "The set of supplemental qualifiers for each domain is included in a separate dataset with the name SUPP-- (where \"--\" denotes the source domain which the supplemental qualifiers relate back to).", "score": 0.4469, "match_basis": "verbatim_token+chapter_route:ch08"}], "candidate_count": 5, "zero_candidate": false}
{"pdf_atom_id": "ig34_p0432_a009", "pdf_atom_type": "SENTENCE", "pdf_source": "SDTMIG_v3.4", "pdf_page": 432, "pdf_parent_section": "§8.4 [RELATING NON-STANDARD VARIABLE VALUES TO A PARENT DOMAIN]", "pdf_verbatim": "For example, if 2 individuals (e.g., the investigator and an independent adjudicator) provide a determination regarding whether an adverse event is treatment-emergent, then separate QNAM values should be used for each set of information (e.g., \"AETRTEMI\", \"AETRTEMA\").", "figure_ref": null, "candidates": [{"md_atom_id": "md_ch08_a152", "md_file": "knowledge_base/chapters/ch08_relationships.md", "md_atom_type": "SENTENCE", "md_parent_section": "§8.4 [Relating Non-standard Variable Values to a Parent Domain]", "md_verbatim": "For example, if 2 individuals (e.g., the investigator and an independent adjudicator) provide a determination regarding whether an adverse event is treatment-emergent, then separate QNAM values should be used for each set of information (e.g., \"AETRTEMI\", \"AETRTEMA\").", "score": 0.9, "match_basis": "verbatim_token+chapter_route:ch08"}, {"md_atom_id": "md_ch08_a186", "md_file": "knowledge_base/chapters/ch08_relationships.md", "md_atom_type": "SENTENCE", "md_parent_section": "§8.4.3 [Examples]", "md_verbatim": "**Example 1:** The 2 rows of suppae.xpt add qualifying information to adverse event data (RDOMAIN = \"AE\"). IDVAR defines the key variable used to link this information to the AE data (AESEQ). IDVARVAL specifies the value of the key variable within the parent AE record to which the SUPPAE record applies. The remaining columns specify the supplemental variables' names (AESOSP and AETRTEM), labels, values, origin, and who made the evaluation.", "score": 0.4161, "match_basis": "verbatim_token+chapter_route:ch08"}, {"md_atom_id": "md_ch08_a093", "md_file": "knowledge_base/chapters/ch08_relationships.md", "md_atom_type": "SENTENCE", "md_parent_section": "§8.2.2 [RELREC Dataset Examples]", "md_verbatim": "**Example 2:** Same scenario as Example 1, but in this case the way the data were collected indicated that the concomitant medications and laboratory findings were all in a single relationship to each other and the adverse event.", "score": 0.4091, "match_basis": "verbatim_token+chapter_route:ch08"}, {"md_atom_id": "md_ch08_a191", "md_file": "knowledge_base/chapters/ch08_relationships.md", "md_atom_type": "SENTENCE", "md_parent_section": "§8.4.3 [Examples]", "md_verbatim": "**Example 2:** This example illustrates how the language used for a questionnaire might be represented. The parent domain (RDOMAIN) is QS, and IDVAR is QSCAT. QNAM holds the name of the supplemental qualifier variable being defined (QSLANG). The language recorded in QVAL applies to all of the subject's records, where IDVAR (QSCAT) equals the value specified in IDVARVAL. In this case, IDVARVAL has values for 2 questionnaires — Brief Pain Inventory (BPI) and Alzheimer's Disease Assessment Scale-Cognitive Subscale (ADAS-Cog) — for 2 separate subjects. QVAL identifies the questionnaire language version (French or German) for each subject.", "score": 0.4067, "match_basis": "verbatim_token+chapter_route:ch08"}, {"md_atom_id": "md_ch08_a185", "md_file": "knowledge_base/chapters/ch08_relationships.md", "md_atom_type": "SENTENCE", "md_parent_section": "§8.4.3 [Examples]", "md_verbatim": "These examples illustrate how a set of SUPP-- datasets could be used to relate non-standard information to a parent domain.", "score": 0.4033, "match_basis": "verbatim_token+chapter_route:ch08"}], "candidate_count": 5, "zero_candidate": false}
{"pdf_atom_id": "ig34_p0432_a010", "pdf_atom_type": "SENTENCE", "pdf_source": "SDTMIG_v3.4", "pdf_page": 432, "pdf_parent_section": "§8.4 [RELATING NON-STANDARD VARIABLE VALUES TO A PARENT DOMAIN]", "pdf_verbatim": "This is necessary to ensure that reviewers can join/merge/transpose the information back with the records in the original domain without risk of losing information.", "figure_ref": null, "candidates": [{"md_atom_id": "md_ch08_a153", "md_file": "knowledge_base/chapters/ch08_relationships.md", "md_atom_type": "SENTENCE", "md_parent_section": "§8.4 [Relating Non-standard Variable Values to a Parent Domain]", "md_verbatim": "This is necessary to ensure that reviewers can join/merge/transpose the information back with the records in the original domain without risk of losing information.", "score": 0.9, "match_basis": "verbatim_token+chapter_route:ch08"}, {"md_atom_id": "md_ch08_a220", "md_file": "knowledge_base/chapters/ch08_relationships.md", "md_atom_type": "SENTENCE", "md_parent_section": "§8.5 [Relating Comments to a Parent Domain]", "md_verbatim": "The limitation of this is that a single comment may only be related to a group of records in 1 domain (RDOMAIN can have only 1 value).", "score": 0.4176, "match_basis": "verbatim_token+chapter_route:ch08"}, {"md_atom_id": "md_ch08_a127", "md_file": "knowledge_base/chapters/ch08_relationships.md", "md_atom_type": "SENTENCE", "md_parent_section": "§8.3.1 [RELREC Dataset Relationship Example]", "md_verbatim": "This information defines how a merge/join would be written, and what would be the result of the merge/join.", "score": 0.4161, "match_basis": "verbatim_token+chapter_route:ch08"}, {"md_atom_id": "md_ch08_a017", "md_file": "knowledge_base/chapters/ch08_relationships.md", "md_atom_type": "SENTENCE", "md_parent_section": "§8 [Representing Relationships and Data]", "md_verbatim": "These keys are used to tie information together by linking records.", "score": 0.4067, "match_basis": "verbatim_token+chapter_route:ch08"}, {"md_atom_id": "md_ch08_a216", "md_file": "knowledge_base/chapters/ch08_relationships.md", "md_atom_type": "SENTENCE", "md_parent_section": "§8.5 [Relating Comments to a Parent Domain]", "md_verbatim": "For additional information collected further describing the comment relationship to a parent record(s) that cannot be represented using the relationship variables RDOMAIN, IDVAR and IDVARVAL:", "score": 0.4059, "match_basis": "verbatim_token+chapter_route:ch08"}], "candidate_count": 5, "zero_candidate": false}
{"pdf_atom_id": "ig34_p0432_a011", "pdf_atom_type": "SENTENCE", "pdf_source": "SDTMIG_v3.4", "pdf_page": 432, "pdf_parent_section": "§8.4 [RELATING NON-STANDARD VARIABLE VALUES TO A PARENT DOMAIN]", "pdf_verbatim": "Just as use of the optional grouping identifier variable (--GRPID) can be a more efficient method of representing relationships in RELREC, it can also be used in a SUPP-- dataset to identify individual qualifier values (SUPP-- records) related to multiple general-observation class domain records that could be grouped, such as relating an attribution to a group of ECG measurements.", "figure_ref": null, "candidates": [{"md_atom_id": "md_ch08_a154", "md_file": "knowledge_base/chapters/ch08_relationships.md", "md_atom_type": "SENTENCE", "md_parent_section": "§8.4 [Relating Non-standard Variable Values to a Parent Domain]", "md_verbatim": "Just as use of the optional grouping identifier variable (--GRPID) can be a more efficient method of representing relationships in RELREC, it can also be used in a SUPP-- dataset to identify individual qualifier values (SUPP-- records) related to multiple general-observation class domain records that could be grouped, such as relating an attribution to a group of ECG measurements.", "score": 0.9, "match_basis": "verbatim_token+chapter_route:ch08"}, {"md_atom_id": "md_ch08_a219", "md_file": "knowledge_base/chapters/ch08_relationships.md", "md_atom_type": "SENTENCE", "md_parent_section": "§8.5 [Relating Comments to a Parent Domain]", "md_verbatim": "As with Supplemental Qualifiers (SUPP--) and Related Records (RELREC), --GRPID and other grouping variables can be used as the value in IDVAR to identify comments with relationships to multiple domain records.", "score": 0.5577, "match_basis": "verbatim_token+chapter_route:ch08"}, {"md_atom_id": "md_ch08_a023", "md_file": "knowledge_base/chapters/ch08_relationships.md", "md_atom_type": "SENTENCE", "md_parent_section": "§8.1 [Relating Groups of Records Within a Domain Using --GRPID]", "md_verbatim": "The optional grouping identifier variable --GRPID is Permissible in all domains that are based on the general observation classes.", "score": 0.4975, "match_basis": "verbatim_token+chapter_route:ch08"}, {"md_atom_id": "md_ch08_a028", "md_file": "knowledge_base/chapters/ch08_relationships.md", "md_atom_type": "SENTENCE", "md_parent_section": "§8.1 [Relating Groups of Records Within a Domain Using --GRPID]", "md_verbatim": "Using --GRPID in the general-observation class domains can reduce the number of records in the RELREC, SUPP--, and CO datasets, when those datasets are submitted to describe relationships/associations for records or values to a \"group\" of general observation class records.", "score": 0.4945, "match_basis": "verbatim_token+chapter_route:ch08"}, {"md_atom_id": "md_ch08_a113", "md_file": "knowledge_base/chapters/ch08_relationships.md", "md_atom_type": "SENTENCE", "md_parent_section": "§8.3 [Relating Datasets Using RELREC]", "md_verbatim": "Note that it is not necessary to use the RELREC dataset to identify associations from data in the SUPP-- datasets or the Comments (CO) dataset to their parent general-observation class dataset records or special-purpose domain records, as both these datasets include the key variable identifiers of the parent record(s) that are necessary to make the association.", "score": 0.4834, "match_basis": "verbatim_token+chapter_route:ch08"}], "candidate_count": 5, "zero_candidate": false}
{"pdf_atom_id": "ig34_p0432_a012", "pdf_atom_type": "HEADING", "pdf_source": "SDTMIG_v3.4", "pdf_page": 432, "pdf_parent_section": "§8.4 [RELATING NON-STANDARD VARIABLE VALUES TO A PARENT DOMAIN]", "pdf_verbatim": "8.4.1 Supplemental Qualifiers (SUPP--)", "figure_ref": null, "candidates": [{"md_atom_id": "md_ch08_a155", "md_file": "knowledge_base/chapters/ch08_relationships.md", "md_atom_type": "HEADING", "md_parent_section": "§8.4 [Relating Non-standard Variable Values to a Parent Domain]", "md_verbatim": "### 8.4.1 Supplemental Qualifiers (SUPP--)", "score": 0.9, "match_basis": "verbatim_token+chapter_route:ch08"}, {"md_atom_id": "md_ch08_a199", "md_file": "knowledge_base/chapters/ch08_relationships.md", "md_atom_type": "HEADING", "md_parent_section": "§8.4 [Relating Non-standard Variable Values to a Parent Domain]", "md_verbatim": "### 8.4.4 When Not to Use Supplemental Qualifiers", "score": 0.7909, "match_basis": "verbatim_token+chapter_route:ch08"}, {"md_atom_id": "md_ch08_a174", "md_file": "knowledge_base/chapters/ch08_relationships.md", "md_atom_type": "HEADING", "md_parent_section": "§8.4 [Relating Non-standard Variable Values to a Parent Domain]", "md_verbatim": "### 8.4.2 Submitting Supplemental Qualifiers in Separate Datasets", "score": 0.5842, "match_basis": "verbatim_token+chapter_route:ch08"}, {"md_atom_id": "md_ch08_a205", "md_file": "knowledge_base/chapters/ch08_relationships.md", "md_atom_type": "HEADING", "md_parent_section": "§8 [Representing Relationships and Data]", "md_verbatim": "## 8.5 Relating Comments to a Parent Domain", "score": 0.3343, "match_basis": "verbatim_token+chapter_route:ch08"}, {"md_atom_id": "md_ch08_a292", "md_file": "knowledge_base/chapters/ch08_relationships.md", "md_atom_type": "HEADING", "md_parent_section": "§8.7 [Related Subjects (RELSUB)]", "md_verbatim": "### Example", "score": 0.3273, "match_basis": "verbatim_token+chapter_route:ch08"}], "candidate_count": 5, "zero_candidate": false}
{"pdf_atom_id": "ig34_p0432_a013", "pdf_atom_type": "SENTENCE", "pdf_source": "SDTMIG_v3.4", "pdf_page": 432, "pdf_parent_section": "§8.4.1 Supplemental Qualifiers (SUPP--)", "pdf_verbatim": "supp--.xpt, Supplemental Qualifiers for [domain name] — Relationship.", "figure_ref": null, "candidates": [{"md_atom_id": "md_ch08_a156", "md_file": "knowledge_base/chapters/ch08_relationships.md", "md_atom_type": "SENTENCE", "md_parent_section": "§8.4.1 [Supplemental Qualifiers (SUPP--)]", "md_verbatim": "supp--.xpt, Supplemental Qualifiers for [domain name] — Relationship. One record per supplemental qualifier per related parent domain record(s), Tabulation.", "score": 0.7235, "match_basis": "verbatim_token+chapter_route:ch08"}, {"md_atom_id": "md_ch08_a177", "md_file": "knowledge_base/chapters/ch08_relationships.md", "md_atom_type": "SENTENCE", "md_parent_section": "§8.4.2 [Submitting Supplemental Qualifiers in Separate Datasets]", "md_verbatim": "The set of supplemental qualifiers for each domain is included in a separate dataset with the name SUPP-- (where \"--\" denotes the source domain which the supplemental qualifiers relate back to).", "score": 0.524, "match_basis": "verbatim_token+chapter_route:ch08"}, {"md_atom_id": "md_ch08_a219", "md_file": "knowledge_base/chapters/ch08_relationships.md", "md_atom_type": "SENTENCE", "md_parent_section": "§8.5 [Relating Comments to a Parent Domain]", "md_verbatim": "As with Supplemental Qualifiers (SUPP--) and Related Records (RELREC), --GRPID and other grouping variables can be used as the value in IDVAR to identify comments with relationships to multiple domain records.", "score": 0.5133, "match_basis": "verbatim_token+chapter_route:ch08"}, {"md_atom_id": "md_ch08_a175", "md_file": "knowledge_base/chapters/ch08_relationships.md", "md_atom_type": "SENTENCE", "md_parent_section": "§8.4.2 [Submitting Supplemental Qualifiers in Separate Datasets]", "md_verbatim": "There is a one-to-one correspondence between a domain dataset and its Supplemental Qualifier dataset.", "score": 0.4969, "match_basis": "verbatim_token+chapter_route:ch08"}, {"md_atom_id": "md_ch08_a015", "md_file": "knowledge_base/chapters/ch08_relationships.md", "md_atom_type": "SENTENCE", "md_parent_section": "§8 [Representing Relationships and Data]", "md_verbatim": "All relationships make use of the standard domain identifiers STUDYID, DOMAIN, and USUBJID.", "score": 0.4839, "match_basis": "verbatim_token+chapter_route:ch08"}], "candidate_count": 5, "zero_candidate": false}
{"pdf_atom_id": "ig34_p0432_a014", "pdf_atom_type": "SENTENCE", "pdf_source": "SDTMIG_v3.4", "pdf_page": 432, "pdf_parent_section": "§8.4.1 Supplemental Qualifiers (SUPP--)", "pdf_verbatim": "One record per supplemental qualifier per related parent domain record(s), Tabulation.", "figure_ref": null, "candidates": [{"md_atom_id": "md_ch08_a156", "md_file": "knowledge_base/chapters/ch08_relationships.md", "md_atom_type": "SENTENCE", "md_parent_section": "§8.4.1 [Supplemental Qualifiers (SUPP--)]", "md_verbatim": "supp--.xpt, Supplemental Qualifiers for [domain name] — Relationship. One record per supplemental qualifier per related parent domain record(s), Tabulation.", "score": 0.7941, "match_basis": "verbatim_token+chapter_route:ch08"}, {"md_atom_id": "md_ch08_a319", "md_file": "knowledge_base/chapters/ch08_relationships.md", "md_atom_type": "SENTENCE", "md_parent_section": "§8.8 [Related Specimens (RELSPEC)]", "md_verbatim": "relspec.xpt, Related Specimens — Relationship. One record per specimen identifier per subject, Tabulation.", "score": 0.5156, "match_basis": "verbatim_token+chapter_route:ch08"}, {"md_atom_id": "md_ch08_a219", "md_file": "knowledge_base/chapters/ch08_relationships.md", "md_atom_type": "SENTENCE", "md_parent_section": "§8.5 [Relating Comments to a Parent Domain]", "md_verbatim": "As with Supplemental Qualifiers (SUPP--) and Related Records (RELREC), --GRPID and other grouping variables can be used as the value in IDVAR to identify comments with relationships to multiple domain records.", "score": 0.5084, "match_basis": "verbatim_token+chapter_route:ch08"}, {"md_atom_id": "md_ch08_a175", "md_file": "knowledge_base/chapters/ch08_relationships.md", "md_atom_type": "SENTENCE", "md_parent_section": "§8.4.2 [Submitting Supplemental Qualifiers in Separate Datasets]", "md_verbatim": "There is a one-to-one correspondence between a domain dataset and its Supplemental Qualifier dataset.", "score": 0.5029, "match_basis": "verbatim_token+chapter_route:ch08"}, {"md_atom_id": "md_ch08_a208", "md_file": "knowledge_base/chapters/ch08_relationships.md", "md_atom_type": "SENTENCE", "md_parent_section": "§8.5 [Relating Comments to a Parent Domain]", "md_verbatim": "Comments may be related to a subject, a domain for a subject, or to specific parent records in any domain.", "score": 0.49, "match_basis": "verbatim_token+chapter_route:ch08"}], "candidate_count": 5, "zero_candidate": false}
{"pdf_atom_id": "ig34_p0432_a015", "pdf_atom_type": "TABLE_HEADER", "pdf_source": "SDTMIG_v3.4", "pdf_page": 432, "pdf_parent_section": "§8.4.1 Supplemental Qualifiers (SUPP--)", "pdf_verbatim": "Variable Name | Variable Label | Type | Controlled Terms, Codelist or Format1 | Role | CDISC Notes | Core", "figure_ref": null, "candidates": [{"md_atom_id": "md_ch08_a072", "md_file": "knowledge_base/chapters/ch08_relationships.md", "md_atom_type": "TABLE_HEADER", "md_parent_section": "§8.2.1 [Related Records (RELREC)]", "md_verbatim": "| Variable Name | Variable Label | Type | Controlled Terms, Codelist or Format | Role | CDISC Notes | Core |\n|--------------|----------------|------|--------------------------------------|------|-------------|------|", "score": 0.8864, "match_basis": "verbatim_token+chapter_route:ch08"}, {"md_atom_id": "md_ch08_a157", "md_file": "knowledge_base/chapters/ch08_relationships.md", "md_atom_type": "TABLE_HEADER", "md_parent_section": "§8.4.1 [Supplemental Qualifiers (SUPP--)]", "md_verbatim": "| Variable Name | Variable Label | Type | Controlled Terms, Codelist or Format | Role | CDISC Notes | Core |\n|--------------|----------------|------|--------------------------------------|------|-------------|------|", "score": 0.8864, "match_basis": "verbatim_token+chapter_route:ch08"}, {"md_atom_id": "md_ch08_a320", "md_file": "knowledge_base/chapters/ch08_relationships.md", "md_atom_type": "TABLE_HEADER", "md_parent_section": "§8.8 [Related Specimens (RELSPEC)]", "md_verbatim": "| Variable Name | Variable Label | Type | Controlled Terms, Codelist or Format | Role | CDISC Notes | Core |\n|--------------|----------------|------|--------------------------------------|------|-------------|------|", "score": 0.8864, "match_basis": "verbatim_token+chapter_route:ch08"}, {"md_atom_id": "md_ch08_a277", "md_file": "knowledge_base/chapters/ch08_relationships.md", "md_atom_type": "TABLE_HEADER", "md_parent_section": "§8.7 [Related Subjects (RELSUB)]", "md_verbatim": "| Variable | Label | Type | Core |\n|----------|-------|------|------|", "score": 0.4773, "match_basis": "verbatim_token+chapter_route:ch08"}, {"md_atom_id": "md_ch08_a188", "md_file": "knowledge_base/chapters/ch08_relationships.md", "md_atom_type": "TABLE_HEADER", "md_parent_section": "§8.4.3 [Examples]", "md_verbatim": "| Row | STUDYID | RDOMAIN | USUBJID | IDVAR | IDVARVAL | QNAM | QLABEL | QVAL | QORIG | QEVAL |\n|-----|---------|---------|---------|-------|----------|------|--------|------|-------|-------|", "score": 0.3411, "match_basis": "verbatim_token+chapter_route:ch08"}], "candidate_count": 5, "zero_candidate": false}
{"pdf_atom_id": "ig34_p0432_a016", "pdf_atom_type": "TABLE_ROW", "pdf_source": "SDTMIG_v3.4", "pdf_page": 432, "pdf_parent_section": "§8.4.1 Supplemental Qualifiers (SUPP--)", "pdf_verbatim": "STUDYID | Study Identifier | Char | | Identifier | Study identifier of the parent record(s). | Req", "figure_ref": null, "candidates": [{"md_atom_id": "md_ch08_a158", "md_file": "knowledge_base/chapters/ch08_relationships.md", "md_atom_type": "TABLE_ROW", "md_parent_section": "§8.4.1 [Supplemental Qualifiers (SUPP--)]", "md_verbatim": "| STUDYID | Study Identifier | Char | | Identifier | Study identifier of the parent record(s). | Req |", "score": 0.9, "match_basis": "verbatim_token+chapter_route:ch08"}, {"md_atom_id": "md_ch08_a278", "md_file": "knowledge_base/chapters/ch08_relationships.md", "md_atom_type": "TABLE_ROW", "md_parent_section": "§8.7 [Related Subjects (RELSUB)]", "md_verbatim": "| STUDYID | Study Identifier | Char | Req |", "score": 0.7, "match_basis": "verbatim_token+chapter_route:ch08"}, {"md_atom_id": "md_ch08_a073", "md_file": "knowledge_base/chapters/ch08_relationships.md", "md_atom_type": "TABLE_ROW", "md_parent_section": "§8.2.1 [Related Records (RELREC)]", "md_verbatim": "| STUDYID | Study Identifier | Char | | Identifier | Unique identifier for a study. | Req |", "score": 0.631, "match_basis": "verbatim_token+chapter_route:ch08"}, {"md_atom_id": "md_ch08_a321", "md_file": "knowledge_base/chapters/ch08_relationships.md", "md_atom_type": "TABLE_ROW", "md_parent_section": "§8.8 [Related Specimens (RELSPEC)]", "md_verbatim": "| STUDYID | Study Identifier | Char | | Identifier | Unique identifier for a study. | Req |", "score": 0.631, "match_basis": "verbatim_token+chapter_route:ch08"}, {"md_atom_id": "md_ch08_a162", "md_file": "knowledge_base/chapters/ch08_relationships.md", "md_atom_type": "TABLE_ROW", "md_parent_section": "§8.4.1 [Supplemental Qualifiers (SUPP--)]", "md_verbatim": "| IDVARVAL | Identifying Variable Value | Char | | Identifier | Value of identifying variable of the parent record(s). | Exp |", "score": 0.5571, "match_basis": "verbatim_token+chapter_route:ch08"}], "candidate_count": 5, "zero_candidate": false}
{"pdf_atom_id": "ig34_p0432_a017", "pdf_atom_type": "TABLE_ROW", "pdf_source": "SDTMIG_v3.4", "pdf_page": 432, "pdf_parent_section": "§8.4.1 Supplemental Qualifiers (SUPP--)", "pdf_verbatim": "RDOMAIN | Related Domain Abbreviation | Char | (DOMAIN) | Identifier | Two-character abbreviation for the domain of the parent record(s). | Req", "figure_ref": null, "candidates": [{"md_atom_id": "md_ch08_a159", "md_file": "knowledge_base/chapters/ch08_relationships.md", "md_atom_type": "TABLE_ROW", "md_parent_section": "§8.4.1 [Supplemental Qualifiers (SUPP--)]", "md_verbatim": "| RDOMAIN | Related Domain Abbreviation | Char | (DOMAIN) | Identifier | Two-character abbreviation for the domain of the parent record(s). | Req |", "score": 0.9, "match_basis": "verbatim_token+chapter_route:ch08"}, {"md_atom_id": "md_ch08_a074", "md_file": "knowledge_base/chapters/ch08_relationships.md", "md_atom_type": "TABLE_ROW", "md_parent_section": "§8.2.1 [Related Records (RELREC)]", "md_verbatim": "| RDOMAIN | Related Domain Abbreviation | Char | (DOMAIN) | Identifier | Abbreviation for the domain of the parent record(s). | Req |", "score": 0.8217, "match_basis": "verbatim_token+chapter_route:ch08"}, {"md_atom_id": "md_ch08_a158", "md_file": "knowledge_base/chapters/ch08_relationships.md", "md_atom_type": "TABLE_ROW", "md_parent_section": "§8.4.1 [Supplemental Qualifiers (SUPP--)]", "md_verbatim": "| STUDYID | Study Identifier | Char | | Identifier | Study identifier of the parent record(s). | Req |", "score": 0.5235, "match_basis": "verbatim_token+chapter_route:ch08"}, {"md_atom_id": "md_ch08_a281", "md_file": "knowledge_base/chapters/ch08_relationships.md", "md_atom_type": "TABLE_ROW", "md_parent_section": "§8.7 [Related Subjects (RELSUB)]", "md_verbatim": "| RSUBJID | Related Subject or Pool Identifier | Char | Req |", "score": 0.4714, "match_basis": "verbatim_token+chapter_route:ch08"}, {"md_atom_id": "md_ch08_a162", "md_file": "knowledge_base/chapters/ch08_relationships.md", "md_atom_type": "TABLE_ROW", "md_parent_section": "§8.4.1 [Supplemental Qualifiers (SUPP--)]", "md_verbatim": "| IDVARVAL | Identifying Variable Value | Char | | Identifier | Value of identifying variable of the parent record(s). | Exp |", "score": 0.4688, "match_basis": "verbatim_token+chapter_route:ch08"}], "candidate_count": 5, "zero_candidate": false}
{"pdf_atom_id": "ig34_p0432_a018", "pdf_atom_type": "TABLE_ROW", "pdf_source": "SDTMIG_v3.4", "pdf_page": 432, "pdf_parent_section": "§8.4.1 Supplemental Qualifiers (SUPP--)", "pdf_verbatim": "USUBJID | Unique Subject Identifier | Char | | Identifier | Identifier used to uniquely identify a subject across all studies for all applications or submissions involving the product. This is the value of USUBJID in the parent record(s). | Req", "figure_ref": null, "candidates": [{"md_atom_id": "md_ch08_a160", "md_file": "knowledge_base/chapters/ch08_relationships.md", "md_atom_type": "TABLE_ROW", "md_parent_section": "§8.4.1 [Supplemental Qualifiers (SUPP--)]", "md_verbatim": "| USUBJID | Unique Subject Identifier | Char | | Identifier | Identifier used to uniquely identify a subject across all studies for all applications or submissions involving the product. This is the value of USUBJID in the parent record(s). | Req |", "score": 0.9, "match_basis": "verbatim_token+chapter_route:ch08"}, {"md_atom_id": "md_ch08_a322", "md_file": "knowledge_base/chapters/ch08_relationships.md", "md_atom_type": "TABLE_ROW", "md_parent_section": "§8.8 [Related Specimens (RELSPEC)]", "md_verbatim": "| USUBJID | Unique Subject Identifier | Char | | Identifier | Identifier used to uniquely identify a subject across all studies for all applications or submissions involving the product. | Req |", "score": 0.81, "match_basis": "verbatim_token+chapter_route:ch08"}, {"md_atom_id": "md_ch08_a075", "md_file": "knowledge_base/chapters/ch08_relationships.md", "md_atom_type": "TABLE_ROW", "md_parent_section": "§8.2.1 [Related Records (RELREC)]", "md_verbatim": "| USUBJID | Unique Subject Identifier | Char | | Identifier | Identifier used to uniquely identify a subject across all studies for all applications or submissions involving the product. | Exp |", "score": 0.7963, "match_basis": "verbatim_token+chapter_route:ch08"}, {"md_atom_id": "md_ch08_a279", "md_file": "knowledge_base/chapters/ch08_relationships.md", "md_atom_type": "TABLE_ROW", "md_parent_section": "§8.7 [Related Subjects (RELSUB)]", "md_verbatim": "| USUBJID | Unique Subject Identifier | Char | Exp |", "score": 0.463, "match_basis": "verbatim_token+chapter_route:ch08"}, {"md_atom_id": "md_ch08_a079", "md_file": "knowledge_base/chapters/ch08_relationships.md", "md_atom_type": "TABLE_ROW", "md_parent_section": "§8.2.1 [Related Records (RELREC)]", "md_verbatim": "| RELID | Relationship Identifier | Char | | Record Qualifier | Unique value within USUBJID that identifies the relationship. All records for the same USUBJID that have the same RELID are considered related/associated. RELID can be any value the sponsor chooses, and is only meaningful within the RELREC dataset to identify the related/associated domain records. | Req |", "score": 0.4581, "match_basis": "verbatim_token+chapter_route:ch08"}], "candidate_count": 5, "zero_candidate": false}
{"pdf_atom_id": "ig34_p0432_a019", "pdf_atom_type": "TABLE_ROW", "pdf_source": "SDTMIG_v3.4", "pdf_page": 432, "pdf_parent_section": "§8.4.1 Supplemental Qualifiers (SUPP--)", "pdf_verbatim": "IDVAR | Identifying Variable | Char | * | Identifier | Identifying variable in the dataset that identifies the related record(s). Examples: --SEQ, --GRPID. | Exp", "figure_ref": null, "candidates": [{"md_atom_id": "md_ch08_a161", "md_file": "knowledge_base/chapters/ch08_relationships.md", "md_atom_type": "TABLE_ROW", "md_parent_section": "§8.4.1 [Supplemental Qualifiers (SUPP--)]", "md_verbatim": "| IDVAR | Identifying Variable | Char | * | Identifier | Identifying variable in the dataset that identifies the related record(s). Examples: --SEQ, --GRPID. | Exp |", "score": 0.9, "match_basis": "verbatim_token+chapter_route:ch08"}, {"md_atom_id": "md_ch08_a076", "md_file": "knowledge_base/chapters/ch08_relationships.md", "md_atom_type": "TABLE_ROW", "md_parent_section": "§8.2.1 [Related Records (RELREC)]", "md_verbatim": "| IDVAR | Identifying Variable | Char | * | Identifier | Name of the identifying variable in the general-observation-class dataset that identifies the related record(s). Examples: --SEQ, --GRPID. | Req |", "score": 0.7225, "match_basis": "verbatim_token+chapter_route:ch08"}, {"md_atom_id": "md_ch08_a162", "md_file": "knowledge_base/chapters/ch08_relationships.md", "md_atom_type": "TABLE_ROW", "md_parent_section": "§8.4.1 [Supplemental Qualifiers (SUPP--)]", "md_verbatim": "| IDVARVAL | Identifying Variable Value | Char | | Identifier | Value of identifying variable of the parent record(s). | Exp |", "score": 0.5847, "match_basis": "verbatim_token+chapter_route:ch08"}, {"md_atom_id": "md_ch08_a077", "md_file": "knowledge_base/chapters/ch08_relationships.md", "md_atom_type": "TABLE_ROW", "md_parent_section": "§8.2.1 [Related Records (RELREC)]", "md_verbatim": "| IDVARVAL | Identifying Variable Value | Char | | Identifier | Value of identifying variable described in IDVAR. If --SEQ is the variable being used to describe this record, then the value of --SEQ would be entered here. | Exp |", "score": 0.5231, "match_basis": "verbatim_token+chapter_route:ch08"}, {"md_atom_id": "md_ch08_a074", "md_file": "knowledge_base/chapters/ch08_relationships.md", "md_atom_type": "TABLE_ROW", "md_parent_section": "§8.2.1 [Related Records (RELREC)]", "md_verbatim": "| RDOMAIN | Related Domain Abbreviation | Char | (DOMAIN) | Identifier | Abbreviation for the domain of the parent record(s). | Req |", "score": 0.469, "match_basis": "verbatim_token+chapter_route:ch08"}], "candidate_count": 5, "zero_candidate": false}
{"pdf_atom_id": "ig34_p0432_a020", "pdf_atom_type": "TABLE_ROW", "pdf_source": "SDTMIG_v3.4", "pdf_page": 432, "pdf_parent_section": "§8.4.1 Supplemental Qualifiers (SUPP--)", "pdf_verbatim": "IDVARVAL | Identifying Variable Value | Char | | Identifier | Value of identifying variable of the parent record(s). | Exp", "figure_ref": null, "candidates": [{"md_atom_id": "md_ch08_a162", "md_file": "knowledge_base/chapters/ch08_relationships.md", "md_atom_type": "TABLE_ROW", "md_parent_section": "§8.4.1 [Supplemental Qualifiers (SUPP--)]", "md_verbatim": "| IDVARVAL | Identifying Variable Value | Char | | Identifier | Value of identifying variable of the parent record(s). | Exp |", "score": 0.9, "match_basis": "verbatim_token+chapter_route:ch08"}, {"md_atom_id": "md_ch08_a077", "md_file": "knowledge_base/chapters/ch08_relationships.md", "md_atom_type": "TABLE_ROW", "md_parent_section": "§8.2.1 [Related Records (RELREC)]", "md_verbatim": "| IDVARVAL | Identifying Variable Value | Char | | Identifier | Value of identifying variable described in IDVAR. If --SEQ is the variable being used to describe this record, then the value of --SEQ would be entered here. | Exp |", "score": 0.6356, "match_basis": "verbatim_token+chapter_route:ch08"}, {"md_atom_id": "md_ch08_a161", "md_file": "knowledge_base/chapters/ch08_relationships.md", "md_atom_type": "TABLE_ROW", "md_parent_section": "§8.4.1 [Supplemental Qualifiers (SUPP--)]", "md_verbatim": "| IDVAR | Identifying Variable | Char | * | Identifier | Identifying variable in the dataset that identifies the related record(s). Examples: --SEQ, --GRPID. | Exp |", "score": 0.5847, "match_basis": "verbatim_token+chapter_route:ch08"}, {"md_atom_id": "md_ch08_a158", "md_file": "knowledge_base/chapters/ch08_relationships.md", "md_atom_type": "TABLE_ROW", "md_parent_section": "§8.4.1 [Supplemental Qualifiers (SUPP--)]", "md_verbatim": "| STUDYID | Study Identifier | Char | | Identifier | Study identifier of the parent record(s). | Req |", "score": 0.5571, "match_basis": "verbatim_token+chapter_route:ch08"}, {"md_atom_id": "md_ch08_a076", "md_file": "knowledge_base/chapters/ch08_relationships.md", "md_atom_type": "TABLE_ROW", "md_parent_section": "§8.2.1 [Related Records (RELREC)]", "md_verbatim": "| IDVAR | Identifying Variable | Char | * | Identifier | Name of the identifying variable in the general-observation-class dataset that identifies the related record(s). Examples: --SEQ, --GRPID. | Req |", "score": 0.5154, "match_basis": "verbatim_token+chapter_route:ch08"}], "candidate_count": 5, "zero_candidate": false}
{"pdf_atom_id": "ig34_p0432_a021", "pdf_atom_type": "TABLE_ROW", "pdf_source": "SDTMIG_v3.4", "pdf_page": 432, "pdf_parent_section": "§8.4.1 Supplemental Qualifiers (SUPP--)", "pdf_verbatim": "QNAM | Qualifier Variable Name | Char | * | Topic | The short name of the qualifier variable, which is used as a column name in a domain view with data from the parent domain. The value in QNAM cannot be longer than 8 characters, nor can it start with a number (e.g., \"1TEST\" is not valid). QNAM cannot contain characters other than letters, numbers, or underscores. This will often be the column name in the sponsor's operational dataset. | Req", "figure_ref": null, "candidates": [{"md_atom_id": "md_ch08_a163", "md_file": "knowledge_base/chapters/ch08_relationships.md", "md_atom_type": "TABLE_ROW", "md_parent_section": "§8.4.1 [Supplemental Qualifiers (SUPP--)]", "md_verbatim": "| QNAM | Qualifier Variable Name | Char | * | Topic | The short name of the qualifier variable, which is used as a column name in a domain view with data from the parent domain. The value in QNAM cannot be longer than 8 characters, nor can it start with a number (e.g., \"1TEST\" is not valid). QNAM cannot contain characters other than letters, numbers, or underscores. This will often be the column name in the sponsor's operational dataset. | Req |", "score": 0.9, "match_basis": "verbatim_token+chapter_route:ch08"}, {"md_atom_id": "md_ch08_a164", "md_file": "knowledge_base/chapters/ch08_relationships.md", "md_atom_type": "TABLE_ROW", "md_parent_section": "§8.4.1 [Supplemental Qualifiers (SUPP--)]", "md_verbatim": "| QLABEL | Qualifier Variable Label | Char | | Synonym Qualifier | This is the long name or label associated with QNAM. The value in QLABEL cannot be longer than 40 characters. This will often be the column label in the sponsor's original dataset. | Req |", "score": 0.5607, "match_basis": "verbatim_token+chapter_route:ch08"}, {"md_atom_id": "md_ch08_a079", "md_file": "knowledge_base/chapters/ch08_relationships.md", "md_atom_type": "TABLE_ROW", "md_parent_section": "§8.2.1 [Related Records (RELREC)]", "md_verbatim": "| RELID | Relationship Identifier | Char | | Record Qualifier | Unique value within USUBJID that identifies the relationship. All records for the same USUBJID that have the same RELID are considered related/associated. RELID can be any value the sponsor chooses, and is only meaningful within the RELREC dataset to identify the related/associated domain records. | Req |", "score": 0.438, "match_basis": "verbatim_token+chapter_route:ch08"}, {"md_atom_id": "md_ch08_a165", "md_file": "knowledge_base/chapters/ch08_relationships.md", "md_atom_type": "TABLE_ROW", "md_parent_section": "§8.4.1 [Supplemental Qualifiers (SUPP--)]", "md_verbatim": "| QVAL | Data Value | Char | | Result Qualifier | Result of, response to, or value associated with QNAM. A value for this column is required; no records can be in SUPP-- with a null value for QVAL. | Req |", "score": 0.4232, "match_basis": "verbatim_token+chapter_route:ch08"}, {"md_atom_id": "md_ch08_a326", "md_file": "knowledge_base/chapters/ch08_relationships.md", "md_atom_type": "TABLE_ROW", "md_parent_section": "§8.8 [Related Specimens (RELSPEC)]", "md_verbatim": "| LEVEL | Specimen Level | Num | | Variable Qualifier | Identifies the generation number of the sample where the collected sample is considered the first generation. | Req |", "score": 0.4185, "match_basis": "verbatim_token+chapter_route:ch08"}], "candidate_count": 5, "zero_candidate": false}
{"pdf_atom_id": "ig34_p0432_a022", "pdf_atom_type": "TABLE_ROW", "pdf_source": "SDTMIG_v3.4", "pdf_page": 432, "pdf_parent_section": "§8.4.1 Supplemental Qualifiers (SUPP--)", "pdf_verbatim": "QLABEL | Qualifier Variable Label | Char | | Synonym Qualifier | This is the long name or label associated with QNAM. The value in QLABEL cannot be longer than 40 characters. This will often be the column label in the sponsor's original dataset. | Req", "figure_ref": null, "candidates": [{"md_atom_id": "md_ch08_a164", "md_file": "knowledge_base/chapters/ch08_relationships.md", "md_atom_type": "TABLE_ROW", "md_parent_section": "§8.4.1 [Supplemental Qualifiers (SUPP--)]", "md_verbatim": "| QLABEL | Qualifier Variable Label | Char | | Synonym Qualifier | This is the long name or label associated with QNAM. The value in QLABEL cannot be longer than 40 characters. This will often be the column label in the sponsor's original dataset. | Req |", "score": 0.9, "match_basis": "verbatim_token+chapter_route:ch08"}, {"md_atom_id": "md_ch08_a163", "md_file": "knowledge_base/chapters/ch08_relationships.md", "md_atom_type": "TABLE_ROW", "md_parent_section": "§8.4.1 [Supplemental Qualifiers (SUPP--)]", "md_verbatim": "| QNAM | Qualifier Variable Name | Char | * | Topic | The short name of the qualifier variable, which is used as a column name in a domain view with data from the parent domain. The value in QNAM cannot be longer than 8 characters, nor can it start with a number (e.g., \"1TEST\" is not valid). QNAM cannot contain characters other than letters, numbers, or underscores. This will often be the column name in the sponsor's operational dataset. | Req |", "score": 0.5607, "match_basis": "verbatim_token+chapter_route:ch08"}, {"md_atom_id": "md_ch08_a165", "md_file": "knowledge_base/chapters/ch08_relationships.md", "md_atom_type": "TABLE_ROW", "md_parent_section": "§8.4.1 [Supplemental Qualifiers (SUPP--)]", "md_verbatim": "| QVAL | Data Value | Char | | Result Qualifier | Result of, response to, or value associated with QNAM. A value for this column is required; no records can be in SUPP-- with a null value for QVAL. | Req |", "score": 0.5075, "match_basis": "verbatim_token+chapter_route:ch08"}, {"md_atom_id": "md_ch08_a079", "md_file": "knowledge_base/chapters/ch08_relationships.md", "md_atom_type": "TABLE_ROW", "md_parent_section": "§8.2.1 [Related Records (RELREC)]", "md_verbatim": "| RELID | Relationship Identifier | Char | | Record Qualifier | Unique value within USUBJID that identifies the relationship. All records for the same USUBJID that have the same RELID are considered related/associated. RELID can be any value the sponsor chooses, and is only meaningful within the RELREC dataset to identify the related/associated domain records. | Req |", "score": 0.4481, "match_basis": "verbatim_token+chapter_route:ch08"}, {"md_atom_id": "md_ch08_a076", "md_file": "knowledge_base/chapters/ch08_relationships.md", "md_atom_type": "TABLE_ROW", "md_parent_section": "§8.2.1 [Related Records (RELREC)]", "md_verbatim": "| IDVAR | Identifying Variable | Char | * | Identifier | Name of the identifying variable in the general-observation-class dataset that identifies the related record(s). Examples: --SEQ, --GRPID. | Req |", "score": 0.4099, "match_basis": "verbatim_token+chapter_route:ch08"}], "candidate_count": 5, "zero_candidate": false}
{"pdf_atom_id": "ig34_p0432_a023", "pdf_atom_type": "TABLE_ROW", "pdf_source": "SDTMIG_v3.4", "pdf_page": 432, "pdf_parent_section": "§8.4.1 Supplemental Qualifiers (SUPP--)", "pdf_verbatim": "QVAL | Data Value | Char | | Result Qualifier | Result of, response to, or value associated with QNAM. A value for this column is required; no records can be in SUPP-- with a null value for QVAL. | Req", "figure_ref": null, "candidates": [{"md_atom_id": "md_ch08_a165", "md_file": "knowledge_base/chapters/ch08_relationships.md", "md_atom_type": "TABLE_ROW", "md_parent_section": "§8.4.1 [Supplemental Qualifiers (SUPP--)]", "md_verbatim": "| QVAL | Data Value | Char | | Result Qualifier | Result of, response to, or value associated with QNAM. A value for this column is required; no records can be in SUPP-- with a null value for QVAL. | Req |", "score": 0.9, "match_basis": "verbatim_token+chapter_route:ch08"}, {"md_atom_id": "md_ch08_a164", "md_file": "knowledge_base/chapters/ch08_relationships.md", "md_atom_type": "TABLE_ROW", "md_parent_section": "§8.4.1 [Supplemental Qualifiers (SUPP--)]", "md_verbatim": "| QLABEL | Qualifier Variable Label | Char | | Synonym Qualifier | This is the long name or label associated with QNAM. The value in QLABEL cannot be longer than 40 characters. This will often be the column label in the sponsor's original dataset. | Req |", "score": 0.5075, "match_basis": "verbatim_token+chapter_route:ch08"}, {"md_atom_id": "md_ch08_a079", "md_file": "knowledge_base/chapters/ch08_relationships.md", "md_atom_type": "TABLE_ROW", "md_parent_section": "§8.2.1 [Related Records (RELREC)]", "md_verbatim": "| RELID | Relationship Identifier | Char | | Record Qualifier | Unique value within USUBJID that identifies the relationship. All records for the same USUBJID that have the same RELID are considered related/associated. RELID can be any value the sponsor chooses, and is only meaningful within the RELREC dataset to identify the related/associated domain records. | Req |", "score": 0.4721, "match_basis": "verbatim_token+chapter_route:ch08"}, {"md_atom_id": "md_ch08_a166", "md_file": "knowledge_base/chapters/ch08_relationships.md", "md_atom_type": "TABLE_ROW", "md_parent_section": "§8.4.1 [Supplemental Qualifiers (SUPP--)]", "md_verbatim": "| QORIG | Origin | Char | | Record Qualifier | Because QVAL can represent a mixture of collected (on a CRF), derived, or assigned items, QORIG is used to indicate the origin of this data. Examples: \"CRF\", \"Assigned\", \"Derived\". See Section 4.1.8, Origin Metadata. | Req |", "score": 0.4289, "match_basis": "verbatim_token+chapter_route:ch08"}, {"md_atom_id": "md_ch08_a163", "md_file": "knowledge_base/chapters/ch08_relationships.md", "md_atom_type": "TABLE_ROW", "md_parent_section": "§8.4.1 [Supplemental Qualifiers (SUPP--)]", "md_verbatim": "| QNAM | Qualifier Variable Name | Char | * | Topic | The short name of the qualifier variable, which is used as a column name in a domain view with data from the parent domain. The value in QNAM cannot be longer than 8 characters, nor can it start with a number (e.g., \"1TEST\" is not valid). QNAM cannot contain characters other than letters, numbers, or underscores. This will often be the column name in the sponsor's operational dataset. | Req |", "score": 0.4232, "match_basis": "verbatim_token+chapter_route:ch08"}], "candidate_count": 5, "zero_candidate": false}
{"pdf_atom_id": "ig34_p0432_a024", "pdf_atom_type": "TABLE_ROW", "pdf_source": "SDTMIG_v3.4", "pdf_page": 432, "pdf_parent_section": "§8.4.1 Supplemental Qualifiers (SUPP--)", "pdf_verbatim": "QORIG | Origin | Char | | Record Qualifier | Because QVAL can represent a mixture of collected (on a CRF), derived, or assigned items, QORIG is used to indicate the origin of this data. Examples: \"CRF\", \"Assigned\", \"Derived\". See Section 4.1.8, Origin Metadata. | Req", "figure_ref": null, "candidates": [{"md_atom_id": "md_ch08_a166", "md_file": "knowledge_base/chapters/ch08_relationships.md", "md_atom_type": "TABLE_ROW", "md_parent_section": "§8.4.1 [Supplemental Qualifiers (SUPP--)]", "md_verbatim": "| QORIG | Origin | Char | | Record Qualifier | Because QVAL can represent a mixture of collected (on a CRF), derived, or assigned items, QORIG is used to indicate the origin of this data. Examples: \"CRF\", \"Assigned\", \"Derived\". See Section 4.1.8, Origin Metadata. | Req |", "score": 0.9, "match_basis": "verbatim_token+chapter_route:ch08"}, {"md_atom_id": "md_ch08_a167", "md_file": "knowledge_base/chapters/ch08_relationships.md", "md_atom_type": "TABLE_ROW", "md_parent_section": "§8.4.1 [Supplemental Qualifiers (SUPP--)]", "md_verbatim": "| QEVAL | Evaluator | Char | (EVAL) | Record Qualifier | Used only for results that are subjective (e.g., assigned by a person or a group). Should be null for records that contain objectively collected or derived data. Examples: \"ADJUDICATION COMMITTEE\", \"STATISTICIAN\", \"DATABASE ADMINISTRATOR\", \"CLINICAL COORDINATOR\". | Exp |", "score": 0.467, "match_basis": "verbatim_token+chapter_route:ch08"}, {"md_atom_id": "md_ch08_a165", "md_file": "knowledge_base/chapters/ch08_relationships.md", "md_atom_type": "TABLE_ROW", "md_parent_section": "§8.4.1 [Supplemental Qualifiers (SUPP--)]", "md_verbatim": "| QVAL | Data Value | Char | | Result Qualifier | Result of, response to, or value associated with QNAM. A value for this column is required; no records can be in SUPP-- with a null value for QVAL. | Req |", "score": 0.4289, "match_basis": "verbatim_token+chapter_route:ch08"}, {"md_atom_id": "md_ch08_a076", "md_file": "knowledge_base/chapters/ch08_relationships.md", "md_atom_type": "TABLE_ROW", "md_parent_section": "§8.2.1 [Related Records (RELREC)]", "md_verbatim": "| IDVAR | Identifying Variable | Char | * | Identifier | Name of the identifying variable in the general-observation-class dataset that identifies the related record(s). Examples: --SEQ, --GRPID. | Req |", "score": 0.4128, "match_basis": "verbatim_token+chapter_route:ch08"}, {"md_atom_id": "md_ch08_a161", "md_file": "knowledge_base/chapters/ch08_relationships.md", "md_atom_type": "TABLE_ROW", "md_parent_section": "§8.4.1 [Supplemental Qualifiers (SUPP--)]", "md_verbatim": "| IDVAR | Identifying Variable | Char | * | Identifier | Identifying variable in the dataset that identifies the related record(s). Examples: --SEQ, --GRPID. | Exp |", "score": 0.4068, "match_basis": "verbatim_token+chapter_route:ch08"}], "candidate_count": 5, "zero_candidate": false}
{"pdf_atom_id": "ig34_p0432_a025", "pdf_atom_type": "TABLE_ROW", "pdf_source": "SDTMIG_v3.4", "pdf_page": 432, "pdf_parent_section": "§8.4.1 Supplemental Qualifiers (SUPP--)", "pdf_verbatim": "QEVAL | Evaluator | Char | (EVAL) | Record Qualifier | Used only for results that are subjective (e.g., assigned by a person or a group). Should be null for records that contain objectively collected or derived data. Examples: \"ADJUDICATION COMMITTEE\", \"STATISTICIAN\", \"DATABASE ADMINISTRATOR\", \"CLINICAL COORDINATOR\". | Exp", "figure_ref": null, "candidates": [{"md_atom_id": "md_ch08_a167", "md_file": "knowledge_base/chapters/ch08_relationships.md", "md_atom_type": "TABLE_ROW", "md_parent_section": "§8.4.1 [Supplemental Qualifiers (SUPP--)]", "md_verbatim": "| QEVAL | Evaluator | Char | (EVAL) | Record Qualifier | Used only for results that are subjective (e.g., assigned by a person or a group). Should be null for records that contain objectively collected or derived data. Examples: \"ADJUDICATION COMMITTEE\", \"STATISTICIAN\", \"DATABASE ADMINISTRATOR\", \"CLINICAL COORDINATOR\". | Exp |", "score": 0.9, "match_basis": "verbatim_token+chapter_route:ch08"}, {"md_atom_id": "md_ch08_a166", "md_file": "knowledge_base/chapters/ch08_relationships.md", "md_atom_type": "TABLE_ROW", "md_parent_section": "§8.4.1 [Supplemental Qualifiers (SUPP--)]", "md_verbatim": "| QORIG | Origin | Char | | Record Qualifier | Because QVAL can represent a mixture of collected (on a CRF), derived, or assigned items, QORIG is used to indicate the origin of this data. Examples: \"CRF\", \"Assigned\", \"Derived\". See Section 4.1.8, Origin Metadata. | Req |", "score": 0.467, "match_basis": "verbatim_token+chapter_route:ch08"}, {"md_atom_id": "md_ch08_a078", "md_file": "knowledge_base/chapters/ch08_relationships.md", "md_atom_type": "TABLE_ROW", "md_parent_section": "§8.2.1 [Related Records (RELREC)]", "md_verbatim": "| RELTYPE | Relationship Type | Char | (RELTYPE) | Record Qualifier | Identifies the hierarchical level of the records in the relationship. Values should be either \"ONE\" or \"MANY\". Used only when identifying a relationship between datasets (as described in Section 8.3, Relating Datasets). | Exp |", "score": 0.4108, "match_basis": "verbatim_token+chapter_route:ch08"}, {"md_atom_id": "md_ch08_a165", "md_file": "knowledge_base/chapters/ch08_relationships.md", "md_atom_type": "TABLE_ROW", "md_parent_section": "§8.4.1 [Supplemental Qualifiers (SUPP--)]", "md_verbatim": "| QVAL | Data Value | Char | | Result Qualifier | Result of, response to, or value associated with QNAM. A value for this column is required; no records can be in SUPP-- with a null value for QVAL. | Req |", "score": 0.4042, "match_basis": "verbatim_token+chapter_route:ch08"}, {"md_atom_id": "md_ch08_a079", "md_file": "knowledge_base/chapters/ch08_relationships.md", "md_atom_type": "TABLE_ROW", "md_parent_section": "§8.2.1 [Related Records (RELREC)]", "md_verbatim": "| RELID | Relationship Identifier | Char | | Record Qualifier | Unique value within USUBJID that identifies the relationship. All records for the same USUBJID that have the same RELID are considered related/associated. RELID can be any value the sponsor chooses, and is only meaningful within the RELREC dataset to identify the related/associated domain records. | Req |", "score": 0.4038, "match_basis": "verbatim_token+chapter_route:ch08"}], "candidate_count": 5, "zero_candidate": false}
{"pdf_atom_id": "ig34_p0432_a026", "pdf_atom_type": "NOTE", "pdf_source": "SDTMIG_v3.4", "pdf_page": 432, "pdf_parent_section": "§8.4.1 Supplemental Qualifiers (SUPP--)", "pdf_verbatim": "1 In this column, an asterisk (*) indicates that the variable may be subject to controlled terminology. CDISC/NCI codelist values are enclosed in parentheses.", "figure_ref": null, "candidates": [{"md_atom_id": "md_ch08_a080", "md_file": "knowledge_base/chapters/ch08_relationships.md", "md_atom_type": "SENTENCE", "md_parent_section": "§8.2.1 [Related Records (RELREC)]", "md_verbatim": "^1^ In this column, an asterisk (*) indicates that the variable may be subject to controlled terminology. CDISC/NCI codelist values are enclosed in parentheses.", "score": 0.81, "match_basis": "verbatim_token+chapter_route:ch08"}, {"md_atom_id": "md_ch08_a168", "md_file": "knowledge_base/chapters/ch08_relationships.md", "md_atom_type": "SENTENCE", "md_parent_section": "§8.4.1 [Supplemental Qualifiers (SUPP--)]", "md_verbatim": "^1^ In this column, an asterisk (*) indicates that the variable may be subject to controlled terminology. CDISC/NCI codelist values are enclosed in parentheses.", "score": 0.81, "match_basis": "verbatim_token+chapter_route:ch08"}, {"md_atom_id": "md_ch08_a126", "md_file": "knowledge_base/chapters/ch08_relationships.md", "md_atom_type": "SENTENCE", "md_parent_section": "§8.3.1 [RELREC Dataset Relationship Example]", "md_verbatim": "The allowable values are ONE and MANY (controlled terminology is expected).", "score": 0.3796, "match_basis": "verbatim_token+chapter_route:ch08"}, {"md_atom_id": "md_ch08_a315", "md_file": "knowledge_base/chapters/ch08_relationships.md", "md_atom_type": "NOTE", "md_parent_section": "§8.8 [Related Specimens (RELSPEC)]", "md_verbatim": "> **Note:** BE, BS, and RELSPEC domain specifications, assumptions, and examples were copied and minimally updated from the provisional SDTMIG-PGx, published 2015-05-26. This was done in preparation for the retirement of the SDTMIG-PGx upon publication of SDTMIG v3.4. These domains are currently under extensive revision for inclusion in a future SDTMIG.", "score": 0.3464, "match_basis": "verbatim_token+chapter_route:ch08"}, {"md_atom_id": "md_ch08_a143", "md_file": "knowledge_base/chapters/ch08_relationships.md", "md_atom_type": "SENTENCE", "md_parent_section": "§8.4 [Relating Non-standard Variable Values to a Parent Domain]", "md_verbatim": "Controlled terminology for certain expected values for QNAM and QLABEL is included in Appendix C1, Supplemental Qualifiers Name Codes.", "score": 0.3396, "match_basis": "verbatim_token+chapter_route:ch08"}], "candidate_count": 5, "zero_candidate": false}
{"pdf_atom_id": "ig34_p0433_a001", "pdf_atom_type": "SENTENCE", "pdf_source": "SDTMIG_v3.4", "pdf_page": 433, "pdf_parent_section": "§8.4.1 Supplemental Qualifiers (SUPP--)", "pdf_verbatim": "A record in a SUPP-- dataset relates back to its parent record(s) via the key identified by the STUDYID, RDOMAIN, USUBJID, and IDVAR/IDVARVAL variables.", "figure_ref": null, "candidates": [{"md_atom_id": "md_ch08_a059", "md_file": "knowledge_base/chapters/ch08_relationships.md", "md_atom_type": "SENTENCE", "md_parent_section": "§8.2 [Relating Peer Records]", "md_verbatim": "Records expressing a relationship are specified using the key variables STUDYID, RDOMAIN (the domain code of the record in the relationship), and USUBJID, along with IDVAR and IDVARVAL.", "score": 0.5764, "match_basis": "verbatim_token+chapter_route:ch08"}, {"md_atom_id": "md_ch08_a209", "md_file": "knowledge_base/chapters/ch08_relationships.md", "md_atom_type": "SENTENCE", "md_parent_section": "§8.5 [Relating Comments to a Parent Domain]", "md_verbatim": "The CO special-purpose domain is structured similarly to the Supplemental Qualifiers (SUPP--) dataset, in that it uses the same set of keys (STUDYID, RDOMAIN, USUBJID, IDVAR, and IDVARVAL) to identify related records.", "score": 0.5532, "match_basis": "verbatim_token+chapter_route:ch08"}, {"md_atom_id": "md_ch08_a170", "md_file": "knowledge_base/chapters/ch08_relationships.md", "md_atom_type": "LIST_ITEM", "md_parent_section": "§8.4 [Relating Non-standard Variable Values to a Parent Domain]", "md_verbatim": "- A record in a SUPP-- dataset relates back to its parent record(s) via the key identified by the STUDYID, RDOMAIN, USUBJID, and IDVAR/IDVARVAL variables. An exception is SUPP-- dataset records that are related to Demographics (DM) records, where both IDVAR and IDVARVAL will be null because STUDYID, RDOMAIN, and USUBJID are sufficient to identify the unique parent record in DM (DM has 1 record per USUBJID)", "score": 0.5427, "match_basis": "verbatim_token+chapter_route:ch08"}, {"md_atom_id": "md_ch08_a151", "md_file": "knowledge_base/chapters/ch08_relationships.md", "md_atom_type": "SENTENCE", "md_parent_section": "§8.4 [Relating Non-standard Variable Values to a Parent Domain]", "md_verbatim": "That is, there should not be multiple records in a SUPP-- dataset for the same QNAM value, as it relates to IDVAR/IDVARVAL for a USUBJID in a domain.", "score": 0.5286, "match_basis": "verbatim_token+chapter_route:ch08"}, {"md_atom_id": "md_ch08_a015", "md_file": "knowledge_base/chapters/ch08_relationships.md", "md_atom_type": "SENTENCE", "md_parent_section": "§8 [Representing Relationships and Data]", "md_verbatim": "All relationships make use of the standard domain identifiers STUDYID, DOMAIN, and USUBJID.", "score": 0.495, "match_basis": "verbatim_token+chapter_route:ch08"}], "candidate_count": 5, "zero_candidate": false}
{"pdf_atom_id": "ig34_p0433_a002", "pdf_atom_type": "SENTENCE", "pdf_source": "SDTMIG_v3.4", "pdf_page": 433, "pdf_parent_section": "§8.4.1 Supplemental Qualifiers (SUPP--)", "pdf_verbatim": "An exception is SUPP-- dataset records that are related to Demographics (DM) records, where both IDVAR and IDVARVAL will be null because the key variables STUDYID, RDOMAIN, and USUBJID are sufficient to identify the unique parent record in DM (DM has 1 record per USUBJID).", "figure_ref": null, "candidates": [{"md_atom_id": "md_ch08_a170", "md_file": "knowledge_base/chapters/ch08_relationships.md", "md_atom_type": "LIST_ITEM", "md_parent_section": "§8.4 [Relating Non-standard Variable Values to a Parent Domain]", "md_verbatim": "- A record in a SUPP-- dataset relates back to its parent record(s) via the key identified by the STUDYID, RDOMAIN, USUBJID, and IDVAR/IDVARVAL variables. An exception is SUPP-- dataset records that are related to Demographics (DM) records, where both IDVAR and IDVARVAL will be null because STUDYID, RDOMAIN, and USUBJID are sufficient to identify the unique parent record in DM (DM has 1 record per USUBJID)", "score": 0.7664, "match_basis": "verbatim_token+chapter_route:ch08"}, {"md_atom_id": "md_ch08_a209", "md_file": "knowledge_base/chapters/ch08_relationships.md", "md_atom_type": "SENTENCE", "md_parent_section": "§8.5 [Relating Comments to a Parent Domain]", "md_verbatim": "The CO special-purpose domain is structured similarly to the Supplemental Qualifiers (SUPP--) dataset, in that it uses the same set of keys (STUDYID, RDOMAIN, USUBJID, IDVAR, and IDVARVAL) to identify related records.", "score": 0.5055, "match_basis": "verbatim_token+chapter_route:ch08"}, {"md_atom_id": "md_ch08_a059", "md_file": "knowledge_base/chapters/ch08_relationships.md", "md_atom_type": "SENTENCE", "md_parent_section": "§8.2 [Relating Peer Records]", "md_verbatim": "Records expressing a relationship are specified using the key variables STUDYID, RDOMAIN (the domain code of the record in the relationship), and USUBJID, along with IDVAR and IDVARVAL.", "score": 0.4892, "match_basis": "verbatim_token+chapter_route:ch08"}, {"md_atom_id": "md_ch08_a151", "md_file": "knowledge_base/chapters/ch08_relationships.md", "md_atom_type": "SENTENCE", "md_parent_section": "§8.4 [Relating Non-standard Variable Values to a Parent Domain]", "md_verbatim": "That is, there should not be multiple records in a SUPP-- dataset for the same QNAM value, as it relates to IDVAR/IDVARVAL for a USUBJID in a domain.", "score": 0.4785, "match_basis": "verbatim_token+chapter_route:ch08"}, {"md_atom_id": "md_ch08_a115", "md_file": "knowledge_base/chapters/ch08_relationships.md", "md_atom_type": "SENTENCE", "md_parent_section": "§8.3.1 [RELREC Dataset Relationship Example]", "md_verbatim": "**Example 1:** This example illustrates RELREC records used to represent the relationship between records in 2 datasets that have a one-to-many relationship. Note that because this is a dataset-to-dataset relationship, USUBJID and IDVARVAL are null.", "score": 0.472, "match_basis": "verbatim_token+chapter_route:ch08"}], "candidate_count": 5, "zero_candidate": false}
{"pdf_atom_id": "ig34_p0433_a003", "pdf_atom_type": "SENTENCE", "pdf_source": "SDTMIG_v3.4", "pdf_page": 433, "pdf_parent_section": "§8.4.1 Supplemental Qualifiers (SUPP--)", "pdf_verbatim": "All records in the SUPP-- datasets must have a value for QVAL.", "figure_ref": null, "candidates": [{"md_atom_id": "md_ch08_a121", "md_file": "knowledge_base/chapters/ch08_relationships.md", "md_atom_type": "SENTENCE", "md_parent_section": "§8.3.1 [RELREC Dataset Relationship Example]", "md_verbatim": "The value in IDVAR must be the name of the key used to merge/join the 2 datasets.", "score": 0.4946, "match_basis": "verbatim_token+chapter_route:ch08"}, {"md_atom_id": "md_ch08_a151", "md_file": "knowledge_base/chapters/ch08_relationships.md", "md_atom_type": "SENTENCE", "md_parent_section": "§8.4 [Relating Non-standard Variable Values to a Parent Domain]", "md_verbatim": "That is, there should not be multiple records in a SUPP-- dataset for the same QNAM value, as it relates to IDVAR/IDVARVAL for a USUBJID in a domain.", "score": 0.4645, "match_basis": "verbatim_token+chapter_route:ch08"}, {"md_atom_id": "md_ch08_a123", "md_file": "knowledge_base/chapters/ch08_relationships.md", "md_atom_type": "SENTENCE", "md_parent_section": "§8.3.1 [RELREC Dataset Relationship Example]", "md_verbatim": "The values for the --LNKID variable in the 2 datasets are sponsor-defined.", "score": 0.4467, "match_basis": "verbatim_token+chapter_route:ch08"}, {"md_atom_id": "md_ch08_a057", "md_file": "knowledge_base/chapters/ch08_relationships.md", "md_atom_type": "SENTENCE", "md_parent_section": "§8.2 [Relating Peer Records]", "md_verbatim": "The value of RELID is chosen by the sponsor, but must be identical for all related records within USUBJID.", "score": 0.4368, "match_basis": "verbatim_token+chapter_route:ch08"}, {"md_atom_id": "md_ch08_a071", "md_file": "knowledge_base/chapters/ch08_relationships.md", "md_atom_type": "SENTENCE", "md_parent_section": "§8.2.1 [Related Records (RELREC)]", "md_verbatim": "relrec.xpt, Related Records — Relationship. One record per related record, group of records or dataset, Tabulation.", "score": 0.425, "match_basis": "verbatim_token+chapter_route:ch08"}], "candidate_count": 5, "zero_candidate": false}
