{"pdf_atom_id": "ig34_p0139_a004", "pdf_atom_type": "LIST_ITEM", "pdf_source": "SDTMIG_v3.4", "pdf_page": 139, "pdf_parent_section": "§6.2.1 [Adverse Events (AE)]", "pdf_verbatim": "AEACNDEV, for actions with a device", "figure_ref": null, "candidates": [{"md_atom_id": "md_dmAE_assn_a023", "md_file": "knowledge_base/domains/AE/assumptions.md", "md_atom_type": "LIST_ITEM", "md_parent_section": "§AE [AE — Assumptions]", "md_verbatim": "      - AEACNDEV, for actions with a device", "score": 1.0, "match_basis": "verbatim_token+domain_route:AE"}, {"md_atom_id": "md_dmAE_assn_a024", "md_file": "knowledge_base/domains/AE/assumptions.md", "md_atom_type": "LIST_ITEM", "md_parent_section": "§AE [AE — Assumptions]", "md_verbatim": "      - AEACNOTH, for actions that do not involve treatment or a device", "score": 0.6294, "match_basis": "verbatim_token+domain_route:AE"}, {"md_atom_id": "md_dmAE_assn_a022", "md_file": "knowledge_base/domains/AE/assumptions.md", "md_atom_type": "LIST_ITEM", "md_parent_section": "§AE [AE — Assumptions]", "md_verbatim": "      - AEACN, only for actions taken with study treatment", "score": 0.6062, "match_basis": "verbatim_token+domain_route:AE"}, {"md_atom_id": "md_dmAE_assn_a019", "md_file": "knowledge_base/domains/AE/assumptions.md", "md_atom_type": "LIST_ITEM", "md_parent_section": "§AE [AE — Assumptions]", "md_verbatim": "6. **Actions taken**", "score": 0.55, "match_basis": "verbatim_token+domain_route:AE"}, {"md_atom_id": "md_dmAE_ex_a087", "md_file": "knowledge_base/domains/AE/examples.md", "md_atom_type": "SENTENCE", "md_parent_section": "§AE.6 [Example 6]", "md_verbatim": "**Row 1:** Shows the use of the variables for the relationship of the device to the AE (AERLDEV), and the action taken with the device as a result of the AE (AEACNDEV).", "score": 0.5182, "match_basis": "verbatim_token+domain_route:AE"}], "candidate_count": 5, "zero_candidate": false}
{"pdf_atom_id": "ig34_p0139_a005", "pdf_atom_type": "LIST_ITEM", "pdf_source": "SDTMIG_v3.4", "pdf_page": 139, "pdf_parent_section": "§6.2.1 [Adverse Events (AE)]", "pdf_verbatim": "AEACNOTH, for actions that do not involve treatment or a device", "figure_ref": null, "candidates": [{"md_atom_id": "md_dmAE_assn_a024", "md_file": "knowledge_base/domains/AE/assumptions.md", "md_atom_type": "LIST_ITEM", "md_parent_section": "§AE [AE — Assumptions]", "md_verbatim": "      - AEACNOTH, for actions that do not involve treatment or a device", "score": 1.0, "match_basis": "verbatim_token+domain_route:AE"}, {"md_atom_id": "md_dmAE_assn_a022", "md_file": "knowledge_base/domains/AE/assumptions.md", "md_atom_type": "LIST_ITEM", "md_parent_section": "§AE [AE — Assumptions]", "md_verbatim": "      - AEACN, only for actions taken with study treatment", "score": 0.64, "match_basis": "verbatim_token+domain_route:AE"}, {"md_atom_id": "md_dmAE_assn_a023", "md_file": "knowledge_base/domains/AE/assumptions.md", "md_atom_type": "LIST_ITEM", "md_parent_section": "§AE [AE — Assumptions]", "md_verbatim": "      - AEACNDEV, for actions with a device", "score": 0.6294, "match_basis": "verbatim_token+domain_route:AE"}, {"md_atom_id": "md_dmAE_assn_a021", "md_file": "knowledge_base/domains/AE/assumptions.md", "md_atom_type": "LIST_ITEM", "md_parent_section": "§AE [AE — Assumptions]", "md_verbatim": "   b. Actions other than concomitant treatments are recorded in:", "score": 0.568, "match_basis": "verbatim_token+domain_route:AE"}, {"md_atom_id": "md_dmAE_assn_a019", "md_file": "knowledge_base/domains/AE/assumptions.md", "md_atom_type": "LIST_ITEM", "md_parent_section": "§AE [AE — Assumptions]", "md_verbatim": "6. **Actions taken**", "score": 0.4909, "match_basis": "verbatim_token+domain_route:AE"}], "candidate_count": 5, "zero_candidate": false}
{"pdf_atom_id": "ig34_p0139_a006", "pdf_atom_type": "LIST_ITEM", "pdf_source": "SDTMIG_v3.4", "pdf_page": 139, "pdf_parent_section": "§6.2.1 [Adverse Events (AE)]", "pdf_verbatim": "7. Other qualifier variables", "figure_ref": null, "candidates": [{"md_atom_id": "md_dmAE_assn_a025", "md_file": "knowledge_base/domains/AE/assumptions.md", "md_atom_type": "LIST_ITEM", "md_parent_section": "§AE [AE — Assumptions]", "md_verbatim": "7. **Other qualifier variables**", "score": 1.0, "match_basis": "verbatim_token+domain_route:AE"}, {"md_atom_id": "md_dmAE_assn_a016", "md_file": "knowledge_base/domains/AE/assumptions.md", "md_atom_type": "LIST_ITEM", "md_parent_section": "§AE [AE — Assumptions]", "md_verbatim": "5. **Timing variables**", "score": 0.6, "match_basis": "verbatim_token+domain_route:AE"}, {"md_atom_id": "md_dmAE_assn_a039", "md_file": "knowledge_base/domains/AE/assumptions.md", "md_atom_type": "LIST_ITEM", "md_parent_section": "§AE [AE — Assumptions]", "md_verbatim": "9. Any additional identifier variables may be added to the AE domain.", "score": 0.5737, "match_basis": "verbatim_token+domain_route:AE"}, {"md_atom_id": "md_dmAE_assn_a018", "md_file": "knowledge_base/domains/AE/assumptions.md", "md_atom_type": "LIST_ITEM", "md_parent_section": "§AE [AE — Assumptions]", "md_verbatim": "   b. Additional timing variables (e.g., AEDTC) may be used when appropriate.", "score": 0.4933, "match_basis": "verbatim_token+domain_route:AE"}, {"md_atom_id": "md_dmAE_assn_a041", "md_file": "knowledge_base/domains/AE/assumptions.md", "md_atom_type": "LIST_ITEM", "md_parent_section": "§AE [AE — Assumptions]", "md_verbatim": "11. Variable order in the domain should follow the rules as described in Section 4.1.4, Order of the Variables, and the order described in Section 1.1, Purpose.", "score": 0.4923, "match_basis": "verbatim_token+domain_route:AE"}], "candidate_count": 5, "zero_candidate": false}
{"pdf_atom_id": "ig34_p0139_a007", "pdf_atom_type": "LIST_ITEM", "pdf_source": "SDTMIG_v3.4", "pdf_page": 139, "pdf_parent_section": "§6.2.1 [Adverse Events (AE)]", "pdf_verbatim": "a. If categories of serious events are collected secondarily to a leading question the values of the variables that capture reasons an event is considered serious (e.g., AESCAN, AESCONG) may be null:", "figure_ref": null, "candidates": [{"md_atom_id": "md_dmAE_assn_a026", "md_file": "knowledge_base/domains/AE/assumptions.md", "md_atom_type": "LIST_ITEM", "md_parent_section": "§AE [AE — Assumptions]", "md_verbatim": "   a. If categories of serious events are collected secondarily to a leading question the values of the variables that capture reasons an event is considered serious (e.g., AESCAN, AESCONG) may be null. For example, if \"Serious?\" is answered \"No\", the values for these variables may be null. However, if \"Serious?\" is answered \"Yes\", at least one of them will have a \"Y\" response. Others may be \"N\" or null, according to the sponsor's convention.", "score": 0.7968, "match_basis": "verbatim_token+domain_route:AE"}, {"md_atom_id": "md_dmAE_assn_a004", "md_file": "knowledge_base/domains/AE/assumptions.md", "md_atom_type": "LIST_ITEM", "md_parent_section": "§AE [AE — Assumptions]", "md_verbatim": "   a. AETERM captures the verbatim term collected for the event. It is the topic variable for the AE dataset. AETERM is a required variable and must have a value.", "score": 0.5393, "match_basis": "verbatim_token+domain_route:AE"}, {"md_atom_id": "md_dmAE_assn_a032", "md_file": "knowledge_base/domains/AE/assumptions.md", "md_atom_type": "LIST_ITEM", "md_parent_section": "§AE [AE — Assumptions]", "md_verbatim": "   c. When a description of \"Other Medically Important Serious Adverse Events\" category is collected on a CRF, sponsors should place the description in the SUPPAE dataset using the standard supplemental qualifier name code AEOSOSP as described in Section 8.4, Relating Non-Standard Variables Values to a Parent Domain, and in Appendix C1, Supplemental Qualifiers Name Codes.", "score": 0.537, "match_basis": "verbatim_token+domain_route:AE"}, {"md_atom_id": "md_dmAE_assn_a031", "md_file": "knowledge_base/domains/AE/assumptions.md", "md_atom_type": "LIST_ITEM", "md_parent_section": "§AE [AE — Assumptions]", "md_verbatim": "   b. The serious categories \"Involves cancer\" (AESCAN) and \"Occurred with overdose\" (AESOD) are not part of the ICH definition of a serious adverse event, but these categories are available for use in studies conducted under guidelines that existed prior to the FDA's adoption of the ICH definition.", "score": 0.5329, "match_basis": "verbatim_token+domain_route:AE"}, {"md_atom_id": "md_dmAE_assn_a010", "md_file": "knowledge_base/domains/AE/assumptions.md", "md_atom_type": "LIST_ITEM", "md_parent_section": "§AE [AE — Assumptions]", "md_verbatim": "   b. AEGRPID may be used to link (or associate) different records together to form a block of related records at the subject level within the AE domain, see Section 4.2.6, Grouping Variables and Categorization.", "score": 0.5034, "match_basis": "verbatim_token+domain_route:AE"}], "candidate_count": 5, "zero_candidate": false}
{"pdf_atom_id": "ig34_p0139_a008", "pdf_atom_type": "SENTENCE", "pdf_source": "SDTMIG_v3.4", "pdf_page": 139, "pdf_parent_section": "§6.2.1 [Adverse Events (AE)]", "pdf_verbatim": "For example, if \"Serious?\" is answered \"No\", the values for these variables may be null. However, if \"Serious?\" is answered \"Yes\", at least one of them will have a \"Y\" response. Others may be \"N\" or null, according to the sponsor's convention.", "figure_ref": null, "candidates": [{"md_atom_id": "md_dmAE_assn_a026", "md_file": "knowledge_base/domains/AE/assumptions.md", "md_atom_type": "LIST_ITEM", "md_parent_section": "§AE [AE — Assumptions]", "md_verbatim": "   a. If categories of serious events are collected secondarily to a leading question the values of the variables that capture reasons an event is considered serious (e.g., AESCAN, AESCONG) may be null. For example, if \"Serious?\" is answered \"No\", the values for these variables may be null. However, if \"Serious?\" is answered \"Yes\", at least one of them will have a \"Y\" response. Others may be \"N\" or null, according to the sponsor's convention.", "score": 0.6729, "match_basis": "verbatim_token+domain_route:AE"}, {"md_atom_id": "md_dmAE_ex_a012", "md_file": "knowledge_base/domains/AE/examples.md", "md_atom_type": "SENTENCE", "md_parent_section": "§AE.1 [Example 1]", "md_verbatim": "**Row 3:** Shows an example of the overall seriousness question AESER answered with \"Y\" and the relevant corresponding seriousness category variables (AESHOSP and AESLIFE) answered \"Y\".", "score": 0.5914, "match_basis": "verbatim_token+domain_route:AE"}, {"md_atom_id": "md_dmAE_ex_a009", "md_file": "knowledge_base/domains/AE/examples.md", "md_atom_type": "SENTENCE", "md_parent_section": "§AE.1 [Example 1]", "md_verbatim": "These adverse events were not serious, so the seriousness criteria variables are null.", "score": 0.5618, "match_basis": "verbatim_token+domain_route:AE"}, {"md_atom_id": "md_dmAE_assn_a030", "md_file": "knowledge_base/domains/AE/assumptions.md", "md_atom_type": "SENTENCE", "md_parent_section": "§AE [AE — Assumptions]", "md_verbatim": "      On the other hand, if the CRF is structured so that a response is collected for each seriousness category, all category variables (e.g., AESDTH, AESHOSP) would be populated and AESER would be derived.", "score": 0.5134, "match_basis": "verbatim_token+domain_route:AE"}, {"md_atom_id": "md_dmAE_ex_a022", "md_file": "knowledge_base/domains/AE/examples.md", "md_atom_type": "SENTENCE", "md_parent_section": "§AE.2 [Example 2]", "md_verbatim": "The responses to the probing questions \"Yes\", \"No\", or \"Not Done\" were represented in the Findings About (FA) domain (see Section 6.4, Findings About Events and Interventions).", "score": 0.5125, "match_basis": "verbatim_token+domain_route:AE"}], "candidate_count": 5, "zero_candidate": false}
{"pdf_atom_id": "ig34_p0139_a009", "pdf_atom_type": "TABLE_ROW", "pdf_source": "SDTMIG_v3.4", "pdf_page": 139, "pdf_parent_section": "§6.2.1 [Adverse Events (AE)]", "pdf_verbatim": "| Serious? | [ ] Yes [ ] No |", "figure_ref": null, "candidates": [{"md_atom_id": "md_dmAE_assn_a028", "md_file": "knowledge_base/domains/AE/assumptions.md", "md_atom_type": "TABLE_HEADER", "md_parent_section": "§AE [AE — Assumptions]", "md_verbatim": "      | Serious? | [ ] Yes  [ ] No |\n      |----------|-----------------|", "score": 0.94, "match_basis": "verbatim_token+domain_route:AE"}, {"md_atom_id": "md_dmAE_assn_a029", "md_file": "knowledge_base/domains/AE/assumptions.md", "md_atom_type": "TABLE_ROW", "md_parent_section": "§AE [AE — Assumptions]", "md_verbatim": "      | If yes, check all that apply: | [ ] Fatal  [ ] Life-threatening  [ ] Inpatient hospitalization or prolongation of existing hospitalization  [ ] Persistent or significant disability/incapacity  [ ] Congenital anomaly/birth defect  [ ] Other medically important serious event |", "score": 0.43, "match_basis": "verbatim_token+domain_route:AE"}, {"md_atom_id": "md_dmAE_ex_a081", "md_file": "knowledge_base/domains/AE/examples.md", "md_atom_type": "TABLE_ROW", "md_parent_section": "§AE.5 [Example 5]", "md_verbatim": "| 2 | T992 | AE | 002 | HipX22 | 2 | AE0033 | Osteomyelitis right hip | OSTEOMYELITIS | HIP | RIGHT | Y | MODERATE | REMOVED | PROBABLE | RECOVERING/RESOLVING | N | Y | N | Y | Y | N | N | | 2015-05-01 | | 15 | 25 |", "score": 0.4097, "match_basis": "verbatim_token+domain_route:AE"}, {"md_atom_id": "md_dmAE_ex_a034", "md_file": "knowledge_base/domains/AE/examples.md", "md_atom_type": "TABLE_ROW", "md_parent_section": "§AE.2 [Example 2]", "md_verbatim": "| 3 | ABC123 | AE | 123101 | 3 | HEADACHE | Headache | | Nervous system disorders | MILD | N | DOSE NOT CHANGED | POSSIBLY RELATED | RECOVERED/RESOLVED | TREATMENT | 2005-10-21 | | 11 | 11 |", "score": 0.4078, "match_basis": "verbatim_token+domain_route:AE"}, {"md_atom_id": "md_dmAE_ex_a017", "md_file": "knowledge_base/domains/AE/examples.md", "md_atom_type": "TABLE_ROW", "md_parent_section": "§AE.1 [Example 1]", "md_verbatim": "| 1 | ABC123 | AE | 123101 | 1 | POUNDING HEADACHE | Headache | Headache | Nervous system disorders | SEVERE | N | | NOT APPLICABLE | DEFINITELY NOT RELATED | RECOVERED/RESOLVED | | | | | | SCREENING | 2005-10-12 | 2005-10-12 | -1 | -1 | |", "score": 0.4071, "match_basis": "verbatim_token+domain_route:AE"}], "candidate_count": 5, "zero_candidate": false}
{"pdf_atom_id": "ig34_p0139_a010", "pdf_atom_type": "TABLE_ROW", "pdf_source": "SDTMIG_v3.4", "pdf_page": 139, "pdf_parent_section": "§6.2.1 [Adverse Events (AE)]", "pdf_verbatim": "| If yes, check all that apply | [ ] Fatal [ ] Life-threatening [ ] Inpatient hospitalization… [ ] etc. |", "figure_ref": null, "candidates": [{"md_atom_id": "md_dmAE_assn_a029", "md_file": "knowledge_base/domains/AE/assumptions.md", "md_atom_type": "TABLE_ROW", "md_parent_section": "§AE [AE — Assumptions]", "md_verbatim": "      | If yes, check all that apply: | [ ] Fatal  [ ] Life-threatening  [ ] Inpatient hospitalization or prolongation of existing hospitalization  [ ] Persistent or significant disability/incapacity  [ ] Congenital anomaly/birth defect  [ ] Other medically important serious event |", "score": 0.6083, "match_basis": "verbatim_token+domain_route:AE"}, {"md_atom_id": "md_dmAE_ex_a017", "md_file": "knowledge_base/domains/AE/examples.md", "md_atom_type": "TABLE_ROW", "md_parent_section": "§AE.1 [Example 1]", "md_verbatim": "| 1 | ABC123 | AE | 123101 | 1 | POUNDING HEADACHE | Headache | Headache | Nervous system disorders | SEVERE | N | | NOT APPLICABLE | DEFINITELY NOT RELATED | RECOVERED/RESOLVED | | | | | | SCREENING | 2005-10-12 | 2005-10-12 | -1 | -1 | |", "score": 0.4362, "match_basis": "verbatim_token+domain_route:AE"}, {"md_atom_id": "md_dmAE_ex_a034", "md_file": "knowledge_base/domains/AE/examples.md", "md_atom_type": "TABLE_ROW", "md_parent_section": "§AE.2 [Example 2]", "md_verbatim": "| 3 | ABC123 | AE | 123101 | 3 | HEADACHE | Headache | | Nervous system disorders | MILD | N | DOSE NOT CHANGED | POSSIBLY RELATED | RECOVERED/RESOLVED | TREATMENT | 2005-10-21 | | 11 | 11 |", "score": 0.4273, "match_basis": "verbatim_token+domain_route:AE"}, {"md_atom_id": "md_dmAE_ex_a033", "md_file": "knowledge_base/domains/AE/examples.md", "md_atom_type": "TABLE_ROW", "md_parent_section": "§AE.2 [Example 2]", "md_verbatim": "| 2 | ABC123 | AE | 123101 | 2 | VOMITING | Vomiting | Y | Gastrointestinal disorders | MODERATE | N | DOSE REDUCED | RELATED | RECOVERED/RESOLVED | TREATMENT | 2005-10-13T13:05 | 2005-10-13T19:00 | 3 | 3 |", "score": 0.4268, "match_basis": "verbatim_token+domain_route:AE"}, {"md_atom_id": "md_dmAE_ex_a019", "md_file": "knowledge_base/domains/AE/examples.md", "md_atom_type": "TABLE_ROW", "md_parent_section": "§AE.1 [Example 1]", "md_verbatim": "| 3 | ABC123 | AE | 123101 | 3 | PULMONARY EMBOLISM | | Pulmonary embolism | Vascular disorders | MODERATE | Y | DOSE REDUCED | PROBABLY NOT RELATED | RECOVERING/RESOLVING | | | | Y | Y | | TREATMENT | 2005-10-21 | | 9 | | AFTER TREATMENT |", "score": 0.425, "match_basis": "verbatim_token+domain_route:AE"}], "candidate_count": 5, "zero_candidate": false}
{"pdf_atom_id": "ig34_p0139_a011", "pdf_atom_type": "SENTENCE", "pdf_source": "SDTMIG_v3.4", "pdf_page": 139, "pdf_parent_section": "§6.2.1 [Adverse Events (AE)]", "pdf_verbatim": "On the other hand, if the CRF is structured so that a response is collected for each seriousness category, all category variables (e.g., AESDTH, AESHOSP) would be populated and AESER would be derived.", "figure_ref": null, "candidates": [{"md_atom_id": "md_dmAE_assn_a030", "md_file": "knowledge_base/domains/AE/assumptions.md", "md_atom_type": "SENTENCE", "md_parent_section": "§AE [AE — Assumptions]", "md_verbatim": "      On the other hand, if the CRF is structured so that a response is collected for each seriousness category, all category variables (e.g., AESDTH, AESHOSP) would be populated and AESER would be derived.", "score": 1.0, "match_basis": "verbatim_token+domain_route:AE"}, {"md_atom_id": "md_dmAE_ex_a005", "md_file": "knowledge_base/domains/AE/examples.md", "md_atom_type": "SENTENCE", "md_parent_section": "§AE.1 [Example 1]", "md_verbatim": "The CRF was structured so that seriousness category variables (e.g., AESDTH, AESHOSP) were checked only when AESER is answered \"Y.\"", "score": 0.6835, "match_basis": "verbatim_token+domain_route:AE"}, {"md_atom_id": "md_dmAE_ex_a012", "md_file": "knowledge_base/domains/AE/examples.md", "md_atom_type": "SENTENCE", "md_parent_section": "§AE.1 [Example 1]", "md_verbatim": "**Row 3:** Shows an example of the overall seriousness question AESER answered with \"Y\" and the relevant corresponding seriousness category variables (AESHOSP and AESLIFE) answered \"Y\".", "score": 0.5831, "match_basis": "verbatim_token+domain_route:AE"}, {"md_atom_id": "md_dmAE_ex_a013", "md_file": "knowledge_base/domains/AE/examples.md", "md_atom_type": "SENTENCE", "md_parent_section": "§AE.1 [Example 1]", "md_verbatim": "The other seriousness category variables are left blank.", "score": 0.5829, "match_basis": "verbatim_token+domain_route:AE"}, {"md_atom_id": "md_dmAE_ex_a009", "md_file": "knowledge_base/domains/AE/examples.md", "md_atom_type": "SENTENCE", "md_parent_section": "§AE.1 [Example 1]", "md_verbatim": "These adverse events were not serious, so the seriousness criteria variables are null.", "score": 0.5125, "match_basis": "verbatim_token+domain_route:AE"}], "candidate_count": 5, "zero_candidate": false}
{"pdf_atom_id": "ig34_p0139_a012", "pdf_atom_type": "LIST_ITEM", "pdf_source": "SDTMIG_v3.4", "pdf_page": 139, "pdf_parent_section": "§6.2.1 [Adverse Events (AE)]", "pdf_verbatim": "b. The serious categories \"Involves cancer\" (AESCAN) and \"Occurred with overdose\" (AESOD) are not part of the ICH definition of a serious adverse event, but these categories are available for use in studies conducted under guidelines that existed prior to the FDA's adoption of the ICH definition.", "figure_ref": null, "candidates": [{"md_atom_id": "md_dmAE_assn_a031", "md_file": "knowledge_base/domains/AE/assumptions.md", "md_atom_type": "LIST_ITEM", "md_parent_section": "§AE [AE — Assumptions]", "md_verbatim": "   b. The serious categories \"Involves cancer\" (AESCAN) and \"Occurred with overdose\" (AESOD) are not part of the ICH definition of a serious adverse event, but these categories are available for use in studies conducted under guidelines that existed prior to the FDA's adoption of the ICH definition.", "score": 1.0, "match_basis": "verbatim_token+domain_route:AE"}, {"md_atom_id": "md_dmAE_assn_a026", "md_file": "knowledge_base/domains/AE/assumptions.md", "md_atom_type": "LIST_ITEM", "md_parent_section": "§AE [AE — Assumptions]", "md_verbatim": "   a. If categories of serious events are collected secondarily to a leading question the values of the variables that capture reasons an event is considered serious (e.g., AESCAN, AESCONG) may be null. For example, if \"Serious?\" is answered \"No\", the values for these variables may be null. However, if \"Serious?\" is answered \"Yes\", at least one of them will have a \"Y\" response. Others may be \"N\" or null, according to the sponsor's convention.", "score": 0.5231, "match_basis": "verbatim_token+domain_route:AE"}, {"md_atom_id": "md_dmAE_assn_a033", "md_file": "knowledge_base/domains/AE/assumptions.md", "md_atom_type": "LIST_ITEM", "md_parent_section": "§AE [AE — Assumptions]", "md_verbatim": "   d. In studies using toxicity grade according to a standard toxicity scale such as the Common Terminology Criteria for Adverse Events v3.0 (CTCAE), published by the National Cancer Institute (NCI; available at https://ctep.cancer.gov/protocoldevelopment/), AETOXGR should be used instead of AESEV. In most cases, either AESEV or AETOXGR is populated but not both. There may be cases when a sponsor may need to populate both variables. The sponsor is expected to provide the dictionary name and version used to map the terms utilizing the external codelist element in the Define-XML document.", "score": 0.5061, "match_basis": "verbatim_token+domain_route:AE"}, {"md_atom_id": "md_dmAE_assn_a009", "md_file": "knowledge_base/domains/AE/assumptions.md", "md_atom_type": "LIST_ITEM", "md_parent_section": "§AE [AE — Assumptions]", "md_verbatim": "   a. AECAT and AESCAT should not be redundant with the domain code or dictionary classification provided by AEDECOD and AEBODSYS (i.e., they should provide a different means of defining or classifying AE records). AECAT and AESCAT are intended for categorizations that are defined in advance. For example, a sponsor may have a CRF page for AEs of special interest and another page for all other AEs. AECAT and AESCAT should not be used for after-the-fact categorizations such as \"clinically significant.\" In cases where a category of AEs of special interest resembles a part of the dictionary hierarchy (e.g., \"CARDIAC EVENTS\"), the categorization represented by AECAT and AESCAT may differ from the categorization derived from the coding dictionary.", "score": 0.5027, "match_basis": "verbatim_token+domain_route:AE"}, {"md_atom_id": "md_dmAE_assn_a013", "md_file": "knowledge_base/domains/AE/assumptions.md", "md_atom_type": "LIST_ITEM", "md_parent_section": "§AE [AE — Assumptions]", "md_verbatim": "   b. If it is important to know which adverse events from a prespecified list were not reported as well as those that did occur, these data should be submitted in a Findings class dataset such as Findings About Events and Interventions (see Section 6.4, Findings About Events or Interventions). A record should be included in that Findings dataset for each prespecified adverse-event term. Records for adverse events that actually occurred should also exist in the AE dataset with AEPRESP set to \"Y.\"", "score": 0.4947, "match_basis": "verbatim_token+domain_route:AE"}], "candidate_count": 5, "zero_candidate": false}
{"pdf_atom_id": "ig34_p0139_a013", "pdf_atom_type": "LIST_ITEM", "pdf_source": "SDTMIG_v3.4", "pdf_page": 139, "pdf_parent_section": "§6.2.1 [Adverse Events (AE)]", "pdf_verbatim": "c. When a description of \"Other Medically Important Serious Adverse Events\" category is collected on a CRF, sponsors should place the description in the SUPPAE dataset using the standard supplemental qualifier name code AESOSP as described in Section 8.4, Relating Non-Standard Variables Values to a Parent Domain, and in Appendix C1, Supplemental Qualifiers Name Codes.", "figure_ref": null, "candidates": [{"md_atom_id": "md_dmAE_assn_a032", "md_file": "knowledge_base/domains/AE/assumptions.md", "md_atom_type": "LIST_ITEM", "md_parent_section": "§AE [AE — Assumptions]", "md_verbatim": "   c. When a description of \"Other Medically Important Serious Adverse Events\" category is collected on a CRF, sponsors should place the description in the SUPPAE dataset using the standard supplemental qualifier name code AEOSOSP as described in Section 8.4, Relating Non-Standard Variables Values to a Parent Domain, and in Appendix C1, Supplemental Qualifiers Name Codes.", "score": 0.9795, "match_basis": "verbatim_token+domain_route:AE"}, {"md_atom_id": "md_dmAE_assn_a026", "md_file": "knowledge_base/domains/AE/assumptions.md", "md_atom_type": "LIST_ITEM", "md_parent_section": "§AE [AE — Assumptions]", "md_verbatim": "   a. If categories of serious events are collected secondarily to a leading question the values of the variables that capture reasons an event is considered serious (e.g., AESCAN, AESCONG) may be null. For example, if \"Serious?\" is answered \"No\", the values for these variables may be null. However, if \"Serious?\" is answered \"Yes\", at least one of them will have a \"Y\" response. Others may be \"N\" or null, according to the sponsor's convention.", "score": 0.5451, "match_basis": "verbatim_token+domain_route:AE"}, {"md_atom_id": "md_dmAE_assn_a020", "md_file": "knowledge_base/domains/AE/assumptions.md", "md_atom_type": "LIST_ITEM", "md_parent_section": "§AE [AE — Assumptions]", "md_verbatim": "   a. AECONTRT is a Y/N variable. If the non-study treatment is collected, the name and other information about the treatment should be represented in the appropriate Interventions domain—usually Concomitant/Prior Medications (CM) or Procedures (PR)—and linked to the AE record with RELREC.", "score": 0.54, "match_basis": "verbatim_token+domain_route:AE"}, {"md_atom_id": "md_dmAE_assn_a034", "md_file": "knowledge_base/domains/AE/assumptions.md", "md_atom_type": "LIST_ITEM", "md_parent_section": "§AE [AE — Assumptions]", "md_verbatim": "   e. The structure of the AE domain is 1 record per adverse event per subject. It is the sponsor's responsibility to define an event. This definition may vary based on the sponsor's requirements for characterizing and reporting product safety and is usually described in the protocol. For example, the sponsor may submit 1 record that covers an adverse event from start to finish. Alternatively, if there is a need to evaluate AEs at a more granular level, a sponsor may submit a new record when severity, causality, or seriousness changes or worsens. By submitting these individual records, the sponsor indicates that each is considered to represent a different event. The submission dataset structure may differ from the structure at the time of collection. For example, a sponsor might collect data at each visit in order to meet operational needs, but submit records that summarize the event and contain the highest level of severity, causality, seriousness, and so on. Examples of dataset structure include:", "score": 0.5361, "match_basis": "verbatim_token+domain_route:AE"}, {"md_atom_id": "md_dmAE_assn_a015", "md_file": "knowledge_base/domains/AE/assumptions.md", "md_atom_type": "LIST_ITEM", "md_parent_section": "§AE [AE — Assumptions]", "md_verbatim": "   d. When adverse events are collected with the recording of free text, a record may be entered into the sponsor's data management system to indicate \"no adverse events\" for a specific subject. For these subjects, do not include a record in the AE submission dataset to indicate that there were no events. Records should be included in the submission AE dataset only for adverse events that have actually occurred.", "score": 0.5346, "match_basis": "verbatim_token+domain_route:AE"}], "candidate_count": 5, "zero_candidate": false}
{"pdf_atom_id": "ig34_p0139_a014", "pdf_atom_type": "LIST_ITEM", "pdf_source": "SDTMIG_v3.4", "pdf_page": 139, "pdf_parent_section": "§6.2.1 [Adverse Events (AE)]", "pdf_verbatim": "d. In studies using toxicity grade according to a standard toxicity scale such as the Common Terminology Criteria for Adverse Events v3.0 (CTCAE), published by the National Cancer Institute (NCI; available at https://ctep.cancer.gov/protocoldevelopment/), AETOXGR should be used instead of AESEV. In most cases, either AESEV or AETOXGR is populated but not both. There may be cases when a sponsor may need to populate both variables. The sponsor is expected to provide the dictionary name and version used to map the terms utilizing the external codelist element in the Define-XML document.", "figure_ref": null, "candidates": [{"md_atom_id": "md_dmAE_assn_a033", "md_file": "knowledge_base/domains/AE/assumptions.md", "md_atom_type": "LIST_ITEM", "md_parent_section": "§AE [AE — Assumptions]", "md_verbatim": "   d. In studies using toxicity grade according to a standard toxicity scale such as the Common Terminology Criteria for Adverse Events v3.0 (CTCAE), published by the National Cancer Institute (NCI; available at https://ctep.cancer.gov/protocoldevelopment/), AETOXGR should be used instead of AESEV. In most cases, either AESEV or AETOXGR is populated but not both. There may be cases when a sponsor may need to populate both variables. The sponsor is expected to provide the dictionary name and version used to map the terms utilizing the external codelist element in the Define-XML document.", "score": 1.0, "match_basis": "verbatim_token+domain_route:AE"}, {"md_atom_id": "md_dmAE_assn_a006", "md_file": "knowledge_base/domains/AE/assumptions.md", "md_atom_type": "LIST_ITEM", "md_parent_section": "§AE [AE — Assumptions]", "md_verbatim": "   c. AEDECOD is the preferred term derived by the sponsor from the coding dictionary. It is a required variable and must have a value. It is expected that the reported term (AETERM) will be coded using a standard dictionary such as MedDRA. The sponsor is expected to provide the dictionary name and version used to map the terms utilizing the external codelist element in the Define-XML document.", "score": 0.6031, "match_basis": "verbatim_token+domain_route:AE"}, {"md_atom_id": "md_dmAE_assn_a009", "md_file": "knowledge_base/domains/AE/assumptions.md", "md_atom_type": "LIST_ITEM", "md_parent_section": "§AE [AE — Assumptions]", "md_verbatim": "   a. AECAT and AESCAT should not be redundant with the domain code or dictionary classification provided by AEDECOD and AEBODSYS (i.e., they should provide a different means of defining or classifying AE records). AECAT and AESCAT are intended for categorizations that are defined in advance. For example, a sponsor may have a CRF page for AEs of special interest and another page for all other AEs. AECAT and AESCAT should not be used for after-the-fact categorizations such as \"clinically significant.\" In cases where a category of AEs of special interest resembles a part of the dictionary hierarchy (e.g., \"CARDIAC EVENTS\"), the categorization represented by AECAT and AESCAT may differ from the categorization derived from the coding dictionary.", "score": 0.5271, "match_basis": "verbatim_token+domain_route:AE"}, {"md_atom_id": "md_dmAE_assn_a032", "md_file": "knowledge_base/domains/AE/assumptions.md", "md_atom_type": "LIST_ITEM", "md_parent_section": "§AE [AE — Assumptions]", "md_verbatim": "   c. When a description of \"Other Medically Important Serious Adverse Events\" category is collected on a CRF, sponsors should place the description in the SUPPAE dataset using the standard supplemental qualifier name code AEOSOSP as described in Section 8.4, Relating Non-Standard Variables Values to a Parent Domain, and in Appendix C1, Supplemental Qualifiers Name Codes.", "score": 0.5228, "match_basis": "verbatim_token+domain_route:AE"}, {"md_atom_id": "md_dmAE_assn_a007", "md_file": "knowledge_base/domains/AE/assumptions.md", "md_atom_type": "LIST_ITEM", "md_parent_section": "§AE [AE — Assumptions]", "md_verbatim": "   d. AEBODSYS is the system organ class (SOC) from the coding dictionary associated with the adverse event by the sponsor. This value may differ from the primary SOC designated in the coding dictionary's standard hierarchy. It is expected that this variable will be populated.", "score": 0.5191, "match_basis": "verbatim_token+domain_route:AE"}], "candidate_count": 5, "zero_candidate": false}
{"pdf_atom_id": "ig34_p0139_a015", "pdf_atom_type": "LIST_ITEM", "pdf_source": "SDTMIG_v3.4", "pdf_page": 139, "pdf_parent_section": "§6.2.1 [Adverse Events (AE)]", "pdf_verbatim": "e. The structure of the AE domain is 1 record per adverse event per subject. It is the sponsor's responsibility to define an event. This definition may vary based on the sponsor's requirements for characterizing and reporting product safety and is usually described in the protocol. For example, the sponsor may submit 1 record that covers an adverse event from start to finish. Alternatively, if there is a need to evaluate AEs at a more granular level, a sponsor may submit a new record when severity, causality, or seriousness changes or worsens. By submitting these individual records, the sponsor indicates that each is considered to represent a different event. The submission dataset structure may differ from the structure at the time of collection. For example, a sponsor might collect data at each visit in order to meet operational needs, but submit records that summarize the event and contain the highest level of severity, causality, seriousness, and so on. Examples of dataset structure include:", "figure_ref": null, "candidates": [{"md_atom_id": "md_dmAE_assn_a034", "md_file": "knowledge_base/domains/AE/assumptions.md", "md_atom_type": "LIST_ITEM", "md_parent_section": "§AE [AE — Assumptions]", "md_verbatim": "   e. The structure of the AE domain is 1 record per adverse event per subject. It is the sponsor's responsibility to define an event. This definition may vary based on the sponsor's requirements for characterizing and reporting product safety and is usually described in the protocol. For example, the sponsor may submit 1 record that covers an adverse event from start to finish. Alternatively, if there is a need to evaluate AEs at a more granular level, a sponsor may submit a new record when severity, causality, or seriousness changes or worsens. By submitting these individual records, the sponsor indicates that each is considered to represent a different event. The submission dataset structure may differ from the structure at the time of collection. For example, a sponsor might collect data at each visit in order to meet operational needs, but submit records that summarize the event and contain the highest level of severity, causality, seriousness, and so on. Examples of dataset structure include:", "score": 1.0, "match_basis": "verbatim_token+domain_route:AE"}, {"md_atom_id": "md_dmAE_assn_a036", "md_file": "knowledge_base/domains/AE/assumptions.md", "md_atom_type": "LIST_ITEM", "md_parent_section": "§AE [AE — Assumptions]", "md_verbatim": "      ii. One record per adverse event per subject. Changes over time in severity, causality, or seriousness are submitted as separate events. Alternatively, these changes may be submitted in a separate dataset based on the Findings About Events and Interventions model (see Section 6.4, Findings About Events or Interventions).", "score": 0.5717, "match_basis": "verbatim_token+domain_route:AE"}, {"md_atom_id": "md_dmAE_assn_a037", "md_file": "knowledge_base/domains/AE/assumptions.md", "md_atom_type": "LIST_ITEM", "md_parent_section": "§AE [AE — Assumptions]", "md_verbatim": "      iii. Other approaches may also be reasonable as long as they meet the sponsor's safety evaluation requirements and each submitted record represents a unique event. The domain-level metadata (see Section 3.2, Using the CDISC Domain Models in Regulatory Submissions – Dataset Metadata) should clarify the structure of the dataset.", "score": 0.5547, "match_basis": "verbatim_token+domain_route:AE"}, {"md_atom_id": "md_dmAE_assn_a002", "md_file": "knowledge_base/domains/AE/assumptions.md", "md_atom_type": "LIST_ITEM", "md_parent_section": "§AE [AE — Assumptions]", "md_verbatim": "1. The Adverse Events dataset includes clinical data describing \"any untoward medical occurrence in a patient or clinical investigation subject administered a pharmaceutical product and which does not necessarily have to have a causal relationship with this treatment\" (ICH E2A). In consultation with regulatory authorities, sponsors may extend or limit the scope of adverse event collection (e.g., collecting pre-treatment events related to trial conduct, not collecting events that are assessed as efficacy endpoints). The events included in the AE dataset should be consistent with the protocol requirements. Adverse events may be captured either as free text or via a prespecified list of terms.", "score": 0.5474, "match_basis": "verbatim_token+domain_route:AE"}, {"md_atom_id": "md_dmAE_assn_a015", "md_file": "knowledge_base/domains/AE/assumptions.md", "md_atom_type": "LIST_ITEM", "md_parent_section": "§AE [AE — Assumptions]", "md_verbatim": "   d. When adverse events are collected with the recording of free text, a record may be entered into the sponsor's data management system to indicate \"no adverse events\" for a specific subject. For these subjects, do not include a record in the AE submission dataset to indicate that there were no events. Records should be included in the submission AE dataset only for adverse events that have actually occurred.", "score": 0.5395, "match_basis": "verbatim_token+domain_route:AE"}], "candidate_count": 5, "zero_candidate": false}
{"pdf_atom_id": "ig34_p0140_a001", "pdf_atom_type": "LIST_ITEM", "pdf_source": "SDTMIG_v3.4", "pdf_page": 140, "pdf_parent_section": "§6.2.1 [Adverse Events (AE)]", "pdf_verbatim": "i. One record per adverse event per subject for each unique event. Multiple adverse event records reported by the investigator are submitted as summary records \"collapsed\" to the highest level of severity, causality, seriousness, and the final outcome.", "figure_ref": null, "candidates": [{"md_atom_id": "md_dmAE_assn_a035", "md_file": "knowledge_base/domains/AE/assumptions.md", "md_atom_type": "LIST_ITEM", "md_parent_section": "§AE [AE — Assumptions]", "md_verbatim": "      i. One record per adverse event per subject for each unique event. Multiple adverse event records reported by the investigator are submitted as summary records \"collapsed\" to the highest level of severity, causality, seriousness, and the final outcome.", "score": 1.0, "match_basis": "verbatim_token+domain_route:AE"}, {"md_atom_id": "md_dmAE_assn_a036", "md_file": "knowledge_base/domains/AE/assumptions.md", "md_atom_type": "LIST_ITEM", "md_parent_section": "§AE [AE — Assumptions]", "md_verbatim": "      ii. One record per adverse event per subject. Changes over time in severity, causality, or seriousness are submitted as separate events. Alternatively, these changes may be submitted in a separate dataset based on the Findings About Events and Interventions model (see Section 6.4, Findings About Events or Interventions).", "score": 0.5974, "match_basis": "verbatim_token+domain_route:AE"}, {"md_atom_id": "md_dmAE_assn_a034", "md_file": "knowledge_base/domains/AE/assumptions.md", "md_atom_type": "LIST_ITEM", "md_parent_section": "§AE [AE — Assumptions]", "md_verbatim": "   e. The structure of the AE domain is 1 record per adverse event per subject. It is the sponsor's responsibility to define an event. This definition may vary based on the sponsor's requirements for characterizing and reporting product safety and is usually described in the protocol. For example, the sponsor may submit 1 record that covers an adverse event from start to finish. Alternatively, if there is a need to evaluate AEs at a more granular level, a sponsor may submit a new record when severity, causality, or seriousness changes or worsens. By submitting these individual records, the sponsor indicates that each is considered to represent a different event. The submission dataset structure may differ from the structure at the time of collection. For example, a sponsor might collect data at each visit in order to meet operational needs, but submit records that summarize the event and contain the highest level of severity, causality, seriousness, and so on. Examples of dataset structure include:", "score": 0.5355, "match_basis": "verbatim_token+domain_route:AE"}, {"md_atom_id": "md_dmAE_assn_a013", "md_file": "knowledge_base/domains/AE/assumptions.md", "md_atom_type": "LIST_ITEM", "md_parent_section": "§AE [AE — Assumptions]", "md_verbatim": "   b. If it is important to know which adverse events from a prespecified list were not reported as well as those that did occur, these data should be submitted in a Findings class dataset such as Findings About Events and Interventions (see Section 6.4, Findings About Events or Interventions). A record should be included in that Findings dataset for each prespecified adverse-event term. Records for adverse events that actually occurred should also exist in the AE dataset with AEPRESP set to \"Y.\"", "score": 0.503, "match_basis": "verbatim_token+domain_route:AE"}, {"md_atom_id": "md_dmAE_assn_a040", "md_file": "knowledge_base/domains/AE/assumptions.md", "md_atom_type": "LIST_ITEM", "md_parent_section": "§AE [AE — Assumptions]", "md_verbatim": "10. The following qualifiers would not be used in AE: --OCCUR, --STAT, and--REASND. They are the only qualifiers from the SDTM Events class not in the AE domain. They are not permitted because the AE domain contains only records for adverse events that actually occurred. See Assumption 4b for information on how to deal with negative responses or missing responses to probing questions for prespecified adverse events.", "score": 0.4937, "match_basis": "verbatim_token+domain_route:AE"}], "candidate_count": 5, "zero_candidate": false}
{"pdf_atom_id": "ig34_p0140_a002", "pdf_atom_type": "LIST_ITEM", "pdf_source": "SDTMIG_v3.4", "pdf_page": 140, "pdf_parent_section": "§6.2.1 [Adverse Events (AE)]", "pdf_verbatim": "ii. One record per adverse event per subject. Changes over time in severity, causality, or seriousness are submitted as separate events. Alternatively, these changes may be submitted in a separate dataset based on the Findings About Events and Interventions model (see Section 6.4, Findings About Events or Interventions).", "figure_ref": null, "candidates": [{"md_atom_id": "md_dmAE_assn_a036", "md_file": "knowledge_base/domains/AE/assumptions.md", "md_atom_type": "LIST_ITEM", "md_parent_section": "§AE [AE — Assumptions]", "md_verbatim": "      ii. One record per adverse event per subject. Changes over time in severity, causality, or seriousness are submitted as separate events. Alternatively, these changes may be submitted in a separate dataset based on the Findings About Events and Interventions model (see Section 6.4, Findings About Events or Interventions).", "score": 1.0, "match_basis": "verbatim_token+domain_route:AE"}, {"md_atom_id": "md_dmAE_assn_a035", "md_file": "knowledge_base/domains/AE/assumptions.md", "md_atom_type": "LIST_ITEM", "md_parent_section": "§AE [AE — Assumptions]", "md_verbatim": "      i. One record per adverse event per subject for each unique event. Multiple adverse event records reported by the investigator are submitted as summary records \"collapsed\" to the highest level of severity, causality, seriousness, and the final outcome.", "score": 0.5974, "match_basis": "verbatim_token+domain_route:AE"}, {"md_atom_id": "md_dmAE_assn_a034", "md_file": "knowledge_base/domains/AE/assumptions.md", "md_atom_type": "LIST_ITEM", "md_parent_section": "§AE [AE — Assumptions]", "md_verbatim": "   e. The structure of the AE domain is 1 record per adverse event per subject. It is the sponsor's responsibility to define an event. This definition may vary based on the sponsor's requirements for characterizing and reporting product safety and is usually described in the protocol. For example, the sponsor may submit 1 record that covers an adverse event from start to finish. Alternatively, if there is a need to evaluate AEs at a more granular level, a sponsor may submit a new record when severity, causality, or seriousness changes or worsens. By submitting these individual records, the sponsor indicates that each is considered to represent a different event. The submission dataset structure may differ from the structure at the time of collection. For example, a sponsor might collect data at each visit in order to meet operational needs, but submit records that summarize the event and contain the highest level of severity, causality, seriousness, and so on. Examples of dataset structure include:", "score": 0.5717, "match_basis": "verbatim_token+domain_route:AE"}, {"md_atom_id": "md_dmAE_assn_a013", "md_file": "knowledge_base/domains/AE/assumptions.md", "md_atom_type": "LIST_ITEM", "md_parent_section": "§AE [AE — Assumptions]", "md_verbatim": "   b. If it is important to know which adverse events from a prespecified list were not reported as well as those that did occur, these data should be submitted in a Findings class dataset such as Findings About Events and Interventions (see Section 6.4, Findings About Events or Interventions). A record should be included in that Findings dataset for each prespecified adverse-event term. Records for adverse events that actually occurred should also exist in the AE dataset with AEPRESP set to \"Y.\"", "score": 0.5654, "match_basis": "verbatim_token+domain_route:AE"}, {"md_atom_id": "md_dmAE_assn_a015", "md_file": "knowledge_base/domains/AE/assumptions.md", "md_atom_type": "LIST_ITEM", "md_parent_section": "§AE [AE — Assumptions]", "md_verbatim": "   d. When adverse events are collected with the recording of free text, a record may be entered into the sponsor's data management system to indicate \"no adverse events\" for a specific subject. For these subjects, do not include a record in the AE submission dataset to indicate that there were no events. Records should be included in the submission AE dataset only for adverse events that have actually occurred.", "score": 0.5344, "match_basis": "verbatim_token+domain_route:AE"}], "candidate_count": 5, "zero_candidate": false}
{"pdf_atom_id": "ig34_p0140_a003", "pdf_atom_type": "LIST_ITEM", "pdf_source": "SDTMIG_v3.4", "pdf_page": 140, "pdf_parent_section": "§6.2.1 [Adverse Events (AE)]", "pdf_verbatim": "iii. Other approaches may also be reasonable as long as they meet the sponsor's safety evaluation requirements and each submitted record represents a unique event. The domain-level metadata (see Section 3.2, Using the CDISC Domain Models in Regulatory Submissions – Dataset Metadata) should clarify the structure of the dataset.", "figure_ref": null, "candidates": [{"md_atom_id": "md_dmAE_assn_a037", "md_file": "knowledge_base/domains/AE/assumptions.md", "md_atom_type": "LIST_ITEM", "md_parent_section": "§AE [AE — Assumptions]", "md_verbatim": "      iii. Other approaches may also be reasonable as long as they meet the sponsor's safety evaluation requirements and each submitted record represents a unique event. The domain-level metadata (see Section 3.2, Using the CDISC Domain Models in Regulatory Submissions – Dataset Metadata) should clarify the structure of the dataset.", "score": 1.0, "match_basis": "verbatim_token+domain_route:AE"}, {"md_atom_id": "md_dmAE_assn_a034", "md_file": "knowledge_base/domains/AE/assumptions.md", "md_atom_type": "LIST_ITEM", "md_parent_section": "§AE [AE — Assumptions]", "md_verbatim": "   e. The structure of the AE domain is 1 record per adverse event per subject. It is the sponsor's responsibility to define an event. This definition may vary based on the sponsor's requirements for characterizing and reporting product safety and is usually described in the protocol. For example, the sponsor may submit 1 record that covers an adverse event from start to finish. Alternatively, if there is a need to evaluate AEs at a more granular level, a sponsor may submit a new record when severity, causality, or seriousness changes or worsens. By submitting these individual records, the sponsor indicates that each is considered to represent a different event. The submission dataset structure may differ from the structure at the time of collection. For example, a sponsor might collect data at each visit in order to meet operational needs, but submit records that summarize the event and contain the highest level of severity, causality, seriousness, and so on. Examples of dataset structure include:", "score": 0.5547, "match_basis": "verbatim_token+domain_route:AE"}, {"md_atom_id": "md_dmAE_assn_a013", "md_file": "knowledge_base/domains/AE/assumptions.md", "md_atom_type": "LIST_ITEM", "md_parent_section": "§AE [AE — Assumptions]", "md_verbatim": "   b. If it is important to know which adverse events from a prespecified list were not reported as well as those that did occur, these data should be submitted in a Findings class dataset such as Findings About Events and Interventions (see Section 6.4, Findings About Events or Interventions). A record should be included in that Findings dataset for each prespecified adverse-event term. Records for adverse events that actually occurred should also exist in the AE dataset with AEPRESP set to \"Y.\"", "score": 0.5243, "match_basis": "verbatim_token+domain_route:AE"}, {"md_atom_id": "md_dmAE_assn_a032", "md_file": "knowledge_base/domains/AE/assumptions.md", "md_atom_type": "LIST_ITEM", "md_parent_section": "§AE [AE — Assumptions]", "md_verbatim": "   c. When a description of \"Other Medically Important Serious Adverse Events\" category is collected on a CRF, sponsors should place the description in the SUPPAE dataset using the standard supplemental qualifier name code AEOSOSP as described in Section 8.4, Relating Non-Standard Variables Values to a Parent Domain, and in Appendix C1, Supplemental Qualifiers Name Codes.", "score": 0.5205, "match_basis": "verbatim_token+domain_route:AE"}, {"md_atom_id": "md_dmAE_assn_a015", "md_file": "knowledge_base/domains/AE/assumptions.md", "md_atom_type": "LIST_ITEM", "md_parent_section": "§AE [AE — Assumptions]", "md_verbatim": "   d. When adverse events are collected with the recording of free text, a record may be entered into the sponsor's data management system to indicate \"no adverse events\" for a specific subject. For these subjects, do not include a record in the AE submission dataset to indicate that there were no events. Records should be included in the submission AE dataset only for adverse events that have actually occurred.", "score": 0.5144, "match_basis": "verbatim_token+domain_route:AE"}], "candidate_count": 5, "zero_candidate": false}
{"pdf_atom_id": "ig34_p0140_a004", "pdf_atom_type": "LIST_ITEM", "pdf_source": "SDTMIG_v3.4", "pdf_page": 140, "pdf_parent_section": "§6.2.1 [Adverse Events (AE)]", "pdf_verbatim": "8. Use of EPOCH and TAETORD: When EPOCH is included in the AE domain, it should be the epoch of the start of the adverse event. In other words, it should be based on AESTDTC, rather than AEENDTC. The computational method for EPOCH in the Define-XML document should describe any assumptions made to handle cases where an adverse event starts on the same day that a subject starts an epoch, if AESTDTC and SESTDTC are not captured with enough precision to determine the epoch of the onset of the adverse event unambiguously. Similarly, if TAETORD is included in the AE domain, it should be the value for the start of the adverse event, and the computational method in the Define-XML document should describe any assumptions.", "figure_ref": null, "candidates": [{"md_atom_id": "md_dmAE_assn_a038", "md_file": "knowledge_base/domains/AE/assumptions.md", "md_atom_type": "LIST_ITEM", "md_parent_section": "§AE [AE — Assumptions]", "md_verbatim": "8. Use of EPOCH and TAETORD: When EPOCH is included in the AE domain, it should be the epoch of the start of the adverse event. In other words, it should be based on AESTDTC, rather than AEENDTC. The computational method for EPOCH in the Define-XML document should describe any assumptions made to handle cases where an adverse event starts on the same day that a subject starts an epoch, if AESTDTC and SESTDTC are not captured with enough precision to determine the epoch of the onset of the adverse event unambiguously. Similarly, if TAETORD is included in the AE domain, it should be the value for the start of the adverse event, and the computational method in the Define-XML document should describe any assumptions.", "score": 1.0, "match_basis": "verbatim_token+domain_route:AE"}, {"md_atom_id": "md_dmAE_assn_a034", "md_file": "knowledge_base/domains/AE/assumptions.md", "md_atom_type": "LIST_ITEM", "md_parent_section": "§AE [AE — Assumptions]", "md_verbatim": "   e. The structure of the AE domain is 1 record per adverse event per subject. It is the sponsor's responsibility to define an event. This definition may vary based on the sponsor's requirements for characterizing and reporting product safety and is usually described in the protocol. For example, the sponsor may submit 1 record that covers an adverse event from start to finish. Alternatively, if there is a need to evaluate AEs at a more granular level, a sponsor may submit a new record when severity, causality, or seriousness changes or worsens. By submitting these individual records, the sponsor indicates that each is considered to represent a different event. The submission dataset structure may differ from the structure at the time of collection. For example, a sponsor might collect data at each visit in order to meet operational needs, but submit records that summarize the event and contain the highest level of severity, causality, seriousness, and so on. Examples of dataset structure include:", "score": 0.5281, "match_basis": "verbatim_token+domain_route:AE"}, {"md_atom_id": "md_dmAE_assn_a015", "md_file": "knowledge_base/domains/AE/assumptions.md", "md_atom_type": "LIST_ITEM", "md_parent_section": "§AE [AE — Assumptions]", "md_verbatim": "   d. When adverse events are collected with the recording of free text, a record may be entered into the sponsor's data management system to indicate \"no adverse events\" for a specific subject. For these subjects, do not include a record in the AE submission dataset to indicate that there were no events. Records should be included in the submission AE dataset only for adverse events that have actually occurred.", "score": 0.5195, "match_basis": "verbatim_token+domain_route:AE"}, {"md_atom_id": "md_dmAE_assn_a002", "md_file": "knowledge_base/domains/AE/assumptions.md", "md_atom_type": "LIST_ITEM", "md_parent_section": "§AE [AE — Assumptions]", "md_verbatim": "1. The Adverse Events dataset includes clinical data describing \"any untoward medical occurrence in a patient or clinical investigation subject administered a pharmaceutical product and which does not necessarily have to have a causal relationship with this treatment\" (ICH E2A). In consultation with regulatory authorities, sponsors may extend or limit the scope of adverse event collection (e.g., collecting pre-treatment events related to trial conduct, not collecting events that are assessed as efficacy endpoints). The events included in the AE dataset should be consistent with the protocol requirements. Adverse events may be captured either as free text or via a prespecified list of terms.", "score": 0.5158, "match_basis": "verbatim_token+domain_route:AE"}, {"md_atom_id": "md_dmAE_assn_a040", "md_file": "knowledge_base/domains/AE/assumptions.md", "md_atom_type": "LIST_ITEM", "md_parent_section": "§AE [AE — Assumptions]", "md_verbatim": "10. The following qualifiers would not be used in AE: --OCCUR, --STAT, and--REASND. They are the only qualifiers from the SDTM Events class not in the AE domain. They are not permitted because the AE domain contains only records for adverse events that actually occurred. See Assumption 4b for information on how to deal with negative responses or missing responses to probing questions for prespecified adverse events.", "score": 0.5143, "match_basis": "verbatim_token+domain_route:AE"}], "candidate_count": 5, "zero_candidate": false}
{"pdf_atom_id": "ig34_p0140_a005", "pdf_atom_type": "LIST_ITEM", "pdf_source": "SDTMIG_v3.4", "pdf_page": 140, "pdf_parent_section": "§6.2.1 [Adverse Events (AE)]", "pdf_verbatim": "9. Any additional identifier variables may be added to the AE domain.", "figure_ref": null, "candidates": [{"md_atom_id": "md_dmAE_assn_a039", "md_file": "knowledge_base/domains/AE/assumptions.md", "md_atom_type": "LIST_ITEM", "md_parent_section": "§AE [AE — Assumptions]", "md_verbatim": "9. Any additional identifier variables may be added to the AE domain.", "score": 1.0, "match_basis": "verbatim_token+domain_route:AE"}, {"md_atom_id": "md_dmAE_assn_a018", "md_file": "knowledge_base/domains/AE/assumptions.md", "md_atom_type": "LIST_ITEM", "md_parent_section": "§AE [AE — Assumptions]", "md_verbatim": "   b. Additional timing variables (e.g., AEDTC) may be used when appropriate.", "score": 0.5882, "match_basis": "verbatim_token+domain_route:AE"}, {"md_atom_id": "md_dmAE_assn_a025", "md_file": "knowledge_base/domains/AE/assumptions.md", "md_atom_type": "LIST_ITEM", "md_parent_section": "§AE [AE — Assumptions]", "md_verbatim": "7. **Other qualifier variables**", "score": 0.5737, "match_basis": "verbatim_token+domain_route:AE"}, {"md_atom_id": "md_dmAE_assn_a041", "md_file": "knowledge_base/domains/AE/assumptions.md", "md_atom_type": "LIST_ITEM", "md_parent_section": "§AE [AE — Assumptions]", "md_verbatim": "11. Variable order in the domain should follow the rules as described in Section 4.1.4, Order of the Variables, and the order described in Section 1.1, Purpose.", "score": 0.5377, "match_basis": "verbatim_token+domain_route:AE"}, {"md_atom_id": "md_dmAE_assn_a016", "md_file": "knowledge_base/domains/AE/assumptions.md", "md_atom_type": "LIST_ITEM", "md_parent_section": "§AE [AE — Assumptions]", "md_verbatim": "5. **Timing variables**", "score": 0.5167, "match_basis": "verbatim_token+domain_route:AE"}], "candidate_count": 5, "zero_candidate": false}
{"pdf_atom_id": "ig34_p0140_a006", "pdf_atom_type": "LIST_ITEM", "pdf_source": "SDTMIG_v3.4", "pdf_page": 140, "pdf_parent_section": "§6.2.1 [Adverse Events (AE)]", "pdf_verbatim": "10. The following qualifiers would not be used in AE: --OCCUR, --STAT, and--REASND. They are the only qualifiers from the SDTM Events class not in the AE domain. They are not permitted because the AE domain contains only records for adverse events that actually occurred. See Assumption 4b for information on how to deal with negative responses or missing responses to probing questions for prespecified adverse events.", "figure_ref": null, "candidates": [{"md_atom_id": "md_dmAE_assn_a040", "md_file": "knowledge_base/domains/AE/assumptions.md", "md_atom_type": "LIST_ITEM", "md_parent_section": "§AE [AE — Assumptions]", "md_verbatim": "10. The following qualifiers would not be used in AE: --OCCUR, --STAT, and--REASND. They are the only qualifiers from the SDTM Events class not in the AE domain. They are not permitted because the AE domain contains only records for adverse events that actually occurred. See Assumption 4b for information on how to deal with negative responses or missing responses to probing questions for prespecified adverse events.", "score": 1.0, "match_basis": "verbatim_token+domain_route:AE"}, {"md_atom_id": "md_dmAE_assn_a013", "md_file": "knowledge_base/domains/AE/assumptions.md", "md_atom_type": "LIST_ITEM", "md_parent_section": "§AE [AE — Assumptions]", "md_verbatim": "   b. If it is important to know which adverse events from a prespecified list were not reported as well as those that did occur, these data should be submitted in a Findings class dataset such as Findings About Events and Interventions (see Section 6.4, Findings About Events or Interventions). A record should be included in that Findings dataset for each prespecified adverse-event term. Records for adverse events that actually occurred should also exist in the AE dataset with AEPRESP set to \"Y.\"", "score": 0.5777, "match_basis": "verbatim_token+domain_route:AE"}, {"md_atom_id": "md_dmAE_assn_a015", "md_file": "knowledge_base/domains/AE/assumptions.md", "md_atom_type": "LIST_ITEM", "md_parent_section": "§AE [AE — Assumptions]", "md_verbatim": "   d. When adverse events are collected with the recording of free text, a record may be entered into the sponsor's data management system to indicate \"no adverse events\" for a specific subject. For these subjects, do not include a record in the AE submission dataset to indicate that there were no events. Records should be included in the submission AE dataset only for adverse events that have actually occurred.", "score": 0.5574, "match_basis": "verbatim_token+domain_route:AE"}, {"md_atom_id": "md_dmAE_assn_a012", "md_file": "knowledge_base/domains/AE/assumptions.md", "md_atom_type": "LIST_ITEM", "md_parent_section": "§AE [AE — Assumptions]", "md_verbatim": "   a. Adverse events are generally collected in 2 different ways, either by recording free text or using a prespecified list of terms. In the latter case, the solicitation of information on specific adverse events may affect the frequency at which they are reported; therefore, the fact that a specific adverse event was solicited may be of interest to reviewers. An AEPRESP value of \"Y\" is used to indicate that the event in AETERM was prespecified on the CRF.", "score": 0.5405, "match_basis": "verbatim_token+domain_route:AE"}, {"md_atom_id": "md_dmAE_assn_a014", "md_file": "knowledge_base/domains/AE/assumptions.md", "md_atom_type": "LIST_ITEM", "md_parent_section": "§AE [AE — Assumptions]", "md_verbatim": "   c. If a study collects both prespecified adverse events and free-text events, the value of AEPRESP should be \"Y\" for all prespecified events and null for events reported as free text. AEPRESP is a permissible field and may be omitted from the dataset if all adverse events were collected as free text.", "score": 0.5274, "match_basis": "verbatim_token+domain_route:AE"}], "candidate_count": 5, "zero_candidate": false}
{"pdf_atom_id": "ig34_p0140_a007", "pdf_atom_type": "LIST_ITEM", "pdf_source": "SDTMIG_v3.4", "pdf_page": 140, "pdf_parent_section": "§6.2.1 [Adverse Events (AE)]", "pdf_verbatim": "11. Variable order in the domain should follow the rules as described in Section 4.1.4, Order of the Variables, and the order described in Section 1.1, Purpose.", "figure_ref": null, "candidates": [{"md_atom_id": "md_dmAE_assn_a041", "md_file": "knowledge_base/domains/AE/assumptions.md", "md_atom_type": "LIST_ITEM", "md_parent_section": "§AE [AE — Assumptions]", "md_verbatim": "11. Variable order in the domain should follow the rules as described in Section 4.1.4, Order of the Variables, and the order described in Section 1.1, Purpose.", "score": 1.0, "match_basis": "verbatim_token+domain_route:AE"}, {"md_atom_id": "md_dmAE_assn_a039", "md_file": "knowledge_base/domains/AE/assumptions.md", "md_atom_type": "LIST_ITEM", "md_parent_section": "§AE [AE — Assumptions]", "md_verbatim": "9. Any additional identifier variables may be added to the AE domain.", "score": 0.5377, "match_basis": "verbatim_token+domain_route:AE"}, {"md_atom_id": "md_dmAE_assn_a032", "md_file": "knowledge_base/domains/AE/assumptions.md", "md_atom_type": "LIST_ITEM", "md_parent_section": "§AE [AE — Assumptions]", "md_verbatim": "   c. When a description of \"Other Medically Important Serious Adverse Events\" category is collected on a CRF, sponsors should place the description in the SUPPAE dataset using the standard supplemental qualifier name code AEOSOSP as described in Section 8.4, Relating Non-Standard Variables Values to a Parent Domain, and in Appendix C1, Supplemental Qualifiers Name Codes.", "score": 0.5146, "match_basis": "verbatim_token+domain_route:AE"}, {"md_atom_id": "md_dmAE_assn_a010", "md_file": "knowledge_base/domains/AE/assumptions.md", "md_atom_type": "LIST_ITEM", "md_parent_section": "§AE [AE — Assumptions]", "md_verbatim": "   b. AEGRPID may be used to link (or associate) different records together to form a block of related records at the subject level within the AE domain, see Section 4.2.6, Grouping Variables and Categorization.", "score": 0.5018, "match_basis": "verbatim_token+domain_route:AE"}, {"md_atom_id": "md_dmAE_assn_a025", "md_file": "knowledge_base/domains/AE/assumptions.md", "md_atom_type": "LIST_ITEM", "md_parent_section": "§AE [AE — Assumptions]", "md_verbatim": "7. **Other qualifier variables**", "score": 0.4923, "match_basis": "verbatim_token+domain_route:AE"}], "candidate_count": 5, "zero_candidate": false}
{"pdf_atom_id": "ig34_p0140_a008", "pdf_atom_type": "LIST_ITEM", "pdf_source": "SDTMIG_v3.4", "pdf_page": 140, "pdf_parent_section": "§6.2.1 [Adverse Events (AE)]", "pdf_verbatim": "12. The addition of AELLT, AELLTCD, AEPTCD, AEHLT, AEHLTCD, AEHLGT, AEHLGTCD, AEBDSYCD, AESOC, and AESOCCD is applicable to submissions coded in MedDRA only. Data items are not expected for non-MedDRA coding.", "figure_ref": null, "candidates": [{"md_atom_id": "md_dmAE_assn_a042", "md_file": "knowledge_base/domains/AE/assumptions.md", "md_atom_type": "LIST_ITEM", "md_parent_section": "§AE [AE — Assumptions]", "md_verbatim": "12. The addition of AELLT, AELLTCD, AEPTCD, AEHLT, AEHLTCD, AEHLGT, AEHLGTCD, AEBDSYCD, AESOC, and AESOCD is applicable to submissions coded in MedDRA only. Data items are not expected for non-MedDRA coding.", "score": 0.9766, "match_basis": "verbatim_token+domain_route:AE"}, {"md_atom_id": "md_dmAE_assn_a015", "md_file": "knowledge_base/domains/AE/assumptions.md", "md_atom_type": "LIST_ITEM", "md_parent_section": "§AE [AE — Assumptions]", "md_verbatim": "   d. When adverse events are collected with the recording of free text, a record may be entered into the sponsor's data management system to indicate \"no adverse events\" for a specific subject. For these subjects, do not include a record in the AE submission dataset to indicate that there were no events. Records should be included in the submission AE dataset only for adverse events that have actually occurred.", "score": 0.4964, "match_basis": "verbatim_token+domain_route:AE"}, {"md_atom_id": "md_dmAE_assn_a005", "md_file": "knowledge_base/domains/AE/assumptions.md", "md_atom_type": "LIST_ITEM", "md_parent_section": "§AE [AE — Assumptions]", "md_verbatim": "   b. AEMODIFY is a permissible variable and should be included if the sponsor's procedure permits modification of a verbatim term for coding. The variable should be populated as per the sponsor's procedures.", "score": 0.4837, "match_basis": "verbatim_token+domain_route:AE"}, {"md_atom_id": "md_dmAE_assn_a007", "md_file": "knowledge_base/domains/AE/assumptions.md", "md_atom_type": "LIST_ITEM", "md_parent_section": "§AE [AE — Assumptions]", "md_verbatim": "   d. AEBODSYS is the system organ class (SOC) from the coding dictionary associated with the adverse event by the sponsor. This value may differ from the primary SOC designated in the coding dictionary's standard hierarchy. It is expected that this variable will be populated.", "score": 0.4788, "match_basis": "verbatim_token+domain_route:AE"}, {"md_atom_id": "md_dmAE_assn_a006", "md_file": "knowledge_base/domains/AE/assumptions.md", "md_atom_type": "LIST_ITEM", "md_parent_section": "§AE [AE — Assumptions]", "md_verbatim": "   c. AEDECOD is the preferred term derived by the sponsor from the coding dictionary. It is a required variable and must have a value. It is expected that the reported term (AETERM) will be coded using a standard dictionary such as MedDRA. The sponsor is expected to provide the dictionary name and version used to map the terms utilizing the external codelist element in the Define-XML document.", "score": 0.4778, "match_basis": "verbatim_token+domain_route:AE"}], "candidate_count": 5, "zero_candidate": false}
{"pdf_atom_id": "ig34_p0140_a009", "pdf_atom_type": "HEADING", "pdf_source": "SDTMIG_v3.4", "pdf_page": 140, "pdf_parent_section": "§6.2.1 [Adverse Events (AE)]", "pdf_verbatim": "AE – Examples", "figure_ref": null, "candidates": [{"md_atom_id": "md_dmAE_ex_a001", "md_file": "knowledge_base/domains/AE/examples.md", "md_atom_type": "HEADING", "md_parent_section": "§AE [AE — Examples]", "md_verbatim": "# AE — Examples", "score": 1.0, "match_basis": "verbatim_token+domain_route:AE"}, {"md_atom_id": "md_dmAE_ex_a002", "md_file": "knowledge_base/domains/AE/examples.md", "md_atom_type": "HEADING", "md_parent_section": "§AE.1 [Example 1]", "md_verbatim": "## Example 1", "score": 0.9, "match_basis": "verbatim_token+domain_route:AE"}, {"md_atom_id": "md_dmAE_ex_a020", "md_file": "knowledge_base/domains/AE/examples.md", "md_atom_type": "HEADING", "md_parent_section": "§AE.2 [Example 2]", "md_verbatim": "## Example 2", "score": 0.9, "match_basis": "verbatim_token+domain_route:AE"}, {"md_atom_id": "md_dmAE_ex_a035", "md_file": "knowledge_base/domains/AE/examples.md", "md_atom_type": "HEADING", "md_parent_section": "§AE.3 [Example 3]", "md_verbatim": "## Example 3", "score": 0.9, "match_basis": "verbatim_token+domain_route:AE"}, {"md_atom_id": "md_dmAE_ex_a049", "md_file": "knowledge_base/domains/AE/examples.md", "md_atom_type": "HEADING", "md_parent_section": "§AE.4 [Example 4]", "md_verbatim": "## Example 4", "score": 0.9, "match_basis": "verbatim_token+domain_route:AE"}], "candidate_count": 5, "zero_candidate": false}
{"pdf_atom_id": "ig34_p0140_a010", "pdf_atom_type": "HEADING", "pdf_source": "SDTMIG_v3.4", "pdf_page": 140, "pdf_parent_section": "§6.2.1 [Adverse Events (AE)]", "pdf_verbatim": "Example 1", "figure_ref": null, "candidates": [{"md_atom_id": "md_dmAE_ex_a002", "md_file": "knowledge_base/domains/AE/examples.md", "md_atom_type": "HEADING", "md_parent_section": "§AE.1 [Example 1]", "md_verbatim": "## Example 1", "score": 1.0, "match_basis": "verbatim_token+domain_route:AE"}, {"md_atom_id": "md_dmAE_ex_a020", "md_file": "knowledge_base/domains/AE/examples.md", "md_atom_type": "HEADING", "md_parent_section": "§AE.2 [Example 2]", "md_verbatim": "## Example 2", "score": 1.0, "match_basis": "verbatim_token+domain_route:AE"}, {"md_atom_id": "md_dmAE_ex_a035", "md_file": "knowledge_base/domains/AE/examples.md", "md_atom_type": "HEADING", "md_parent_section": "§AE.3 [Example 3]", "md_verbatim": "## Example 3", "score": 1.0, "match_basis": "verbatim_token+domain_route:AE"}, {"md_atom_id": "md_dmAE_ex_a049", "md_file": "knowledge_base/domains/AE/examples.md", "md_atom_type": "HEADING", "md_parent_section": "§AE.4 [Example 4]", "md_verbatim": "## Example 4", "score": 1.0, "match_basis": "verbatim_token+domain_route:AE"}, {"md_atom_id": "md_dmAE_ex_a063", "md_file": "knowledge_base/domains/AE/examples.md", "md_atom_type": "HEADING", "md_parent_section": "§AE.5 [Example 5]", "md_verbatim": "## Example 5", "score": 1.0, "match_basis": "verbatim_token+domain_route:AE"}, {"md_atom_id": "md_dmAE_ex_a082", "md_file": "knowledge_base/domains/AE/examples.md", "md_atom_type": "HEADING", "md_parent_section": "§AE.6 [Example 6]", "md_verbatim": "## Example 6", "score": 1.0, "match_basis": "verbatim_token+domain_route:AE"}, {"md_atom_id": "md_dmAE_ex_a001", "md_file": "knowledge_base/domains/AE/examples.md", "md_atom_type": "HEADING", "md_parent_section": "§AE [AE — Examples]", "md_verbatim": "# AE — Examples", "score": 0.9, "match_basis": "verbatim_token+domain_route:AE"}, {"md_atom_id": "md_dmAE_assn_a001", "md_file": "knowledge_base/domains/AE/assumptions.md", "md_atom_type": "HEADING", "md_parent_section": "§AE [AE — Assumptions]", "md_verbatim": "# AE — Assumptions", "score": 0.4, "match_basis": "verbatim_token+domain_route:AE"}], "candidate_count": 8, "zero_candidate": false}
{"pdf_atom_id": "ig34_p0140_a011", "pdf_atom_type": "SENTENCE", "pdf_source": "SDTMIG_v3.4", "pdf_page": 140, "pdf_parent_section": "§6.2.1 [Adverse Events (AE)]", "pdf_verbatim": "This example illustrates data from an AE CRF that collected AE terms as free text. AEs were coded using MedDRA, and the sponsor's procedures include the possibility of modifying the reported term to aid in coding. The CRF was structured so that seriousness category variables (e.g., AESDTH, AESHOSP) were checked only when AESER is answered \"Y.\" In this study, the study reference period started at the start of study treatment. Three AEs were reported for this subject.", "figure_ref": null, "candidates": [{"md_atom_id": "md_dmAE_ex_a004", "md_file": "knowledge_base/domains/AE/examples.md", "md_atom_type": "SENTENCE", "md_parent_section": "§AE.1 [Example 1]", "md_verbatim": "AEs were coded using MedDRA, and the sponsor's procedures include the possibility of modifying the reported term to aid in coding.", "score": 0.6071, "match_basis": "verbatim_token+domain_route:AE"}, {"md_atom_id": "md_dmAE_ex_a005", "md_file": "knowledge_base/domains/AE/examples.md", "md_atom_type": "SENTENCE", "md_parent_section": "§AE.1 [Example 1]", "md_verbatim": "The CRF was structured so that seriousness category variables (e.g., AESDTH, AESHOSP) were checked only when AESER is answered \"Y.\"", "score": 0.6071, "match_basis": "verbatim_token+domain_route:AE"}, {"md_atom_id": "md_dmAE_assn_a030", "md_file": "knowledge_base/domains/AE/assumptions.md", "md_atom_type": "SENTENCE", "md_parent_section": "§AE [AE — Assumptions]", "md_verbatim": "      On the other hand, if the CRF is structured so that a response is collected for each seriousness category, all category variables (e.g., AESDTH, AESHOSP) would be populated and AESER would be derived.", "score": 0.5787, "match_basis": "verbatim_token+domain_route:AE"}, {"md_atom_id": "md_dmAE_ex_a012", "md_file": "knowledge_base/domains/AE/examples.md", "md_atom_type": "SENTENCE", "md_parent_section": "§AE.1 [Example 1]", "md_verbatim": "**Row 3:** Shows an example of the overall seriousness question AESER answered with \"Y\" and the relevant corresponding seriousness category variables (AESHOSP and AESLIFE) answered \"Y\".", "score": 0.538, "match_basis": "verbatim_token+domain_route:AE"}, {"md_atom_id": "md_dmAE_ex_a003", "md_file": "knowledge_base/domains/AE/examples.md", "md_atom_type": "SENTENCE", "md_parent_section": "§AE.1 [Example 1]", "md_verbatim": "This example illustrates data from an AE CRF that collected AE terms as free text.", "score": 0.5321, "match_basis": "verbatim_token+domain_route:AE"}], "candidate_count": 5, "zero_candidate": false}
{"pdf_atom_id": "ig34_p0140_a012", "pdf_atom_type": "HEADING", "pdf_source": "SDTMIG_v3.4", "pdf_page": 140, "pdf_parent_section": "§6.2.1 [Adverse Events (AE)]", "pdf_verbatim": "Rows 1-2:", "figure_ref": null, "candidates": [{"md_atom_id": "md_dmAE_assn_a001", "md_file": "knowledge_base/domains/AE/assumptions.md", "md_atom_type": "HEADING", "md_parent_section": "§AE [AE — Assumptions]", "md_verbatim": "# AE — Assumptions", "score": 0.4, "match_basis": "verbatim_token+domain_route:AE"}, {"md_atom_id": "md_dmAE_ex_a001", "md_file": "knowledge_base/domains/AE/examples.md", "md_atom_type": "HEADING", "md_parent_section": "§AE [AE — Examples]", "md_verbatim": "# AE — Examples", "score": 0.4, "match_basis": "verbatim_token+domain_route:AE"}, {"md_atom_id": "md_dmAE_ex_a002", "md_file": "knowledge_base/domains/AE/examples.md", "md_atom_type": "HEADING", "md_parent_section": "§AE.1 [Example 1]", "md_verbatim": "## Example 1", "score": 0.4, "match_basis": "verbatim_token+domain_route:AE"}, {"md_atom_id": "md_dmAE_ex_a020", "md_file": "knowledge_base/domains/AE/examples.md", "md_atom_type": "HEADING", "md_parent_section": "§AE.2 [Example 2]", "md_verbatim": "## Example 2", "score": 0.4, "match_basis": "verbatim_token+domain_route:AE"}, {"md_atom_id": "md_dmAE_ex_a035", "md_file": "knowledge_base/domains/AE/examples.md", "md_atom_type": "HEADING", "md_parent_section": "§AE.3 [Example 3]", "md_verbatim": "## Example 3", "score": 0.4, "match_basis": "verbatim_token+domain_route:AE"}, {"md_atom_id": "md_dmAE_ex_a049", "md_file": "knowledge_base/domains/AE/examples.md", "md_atom_type": "HEADING", "md_parent_section": "§AE.4 [Example 4]", "md_verbatim": "## Example 4", "score": 0.4, "match_basis": "verbatim_token+domain_route:AE"}, {"md_atom_id": "md_dmAE_ex_a063", "md_file": "knowledge_base/domains/AE/examples.md", "md_atom_type": "HEADING", "md_parent_section": "§AE.5 [Example 5]", "md_verbatim": "## Example 5", "score": 0.4, "match_basis": "verbatim_token+domain_route:AE"}, {"md_atom_id": "md_dmAE_ex_a082", "md_file": "knowledge_base/domains/AE/examples.md", "md_atom_type": "HEADING", "md_parent_section": "§AE.6 [Example 6]", "md_verbatim": "## Example 6", "score": 0.4, "match_basis": "verbatim_token+domain_route:AE"}], "candidate_count": 8, "zero_candidate": false}
{"pdf_atom_id": "ig34_p0140_a013", "pdf_atom_type": "SENTENCE", "pdf_source": "SDTMIG_v3.4", "pdf_page": 140, "pdf_parent_section": "§6.2.1 [Adverse Events (AE)]", "pdf_verbatim": "Show examples of modifying the reported term for coding purposes, with the modified term in AEMODIFY. These adverse events were not serious, so the seriousness criteria variables are null. Note that for the event in row 2, AESTDY = \"1\". Day 1 was the day treatment started; the AE start and end times, as well as dates, were collected to allow comparison of the AE timing to the start of treatment.", "figure_ref": null, "candidates": [{"md_atom_id": "md_dmAE_ex_a011", "md_file": "knowledge_base/domains/AE/examples.md", "md_atom_type": "SENTENCE", "md_parent_section": "§AE.1 [Example 1]", "md_verbatim": "Day 1 was the day treatment started; the AE start and end times, as well as dates, were collected to allow comparison of the AE timing to the start of treatment.", "score": 0.6311, "match_basis": "verbatim_token+domain_route:AE"}, {"md_atom_id": "md_dmAE_ex_a008", "md_file": "knowledge_base/domains/AE/examples.md", "md_atom_type": "SENTENCE", "md_parent_section": "§AE.1 [Example 1]", "md_verbatim": "**Rows 1-2:** Show examples of modifying the reported term for coding purposes, with the modified term in AEMODIFY.", "score": 0.6, "match_basis": "verbatim_token+domain_route:AE"}, {"md_atom_id": "md_dmAE_ex_a009", "md_file": "knowledge_base/domains/AE/examples.md", "md_atom_type": "SENTENCE", "md_parent_section": "§AE.1 [Example 1]", "md_verbatim": "These adverse events were not serious, so the seriousness criteria variables are null.", "score": 0.5869, "match_basis": "verbatim_token+domain_route:AE"}, {"md_atom_id": "md_dmAE_ex_a012", "md_file": "knowledge_base/domains/AE/examples.md", "md_atom_type": "SENTENCE", "md_parent_section": "§AE.1 [Example 1]", "md_verbatim": "**Row 3:** Shows an example of the overall seriousness question AESER answered with \"Y\" and the relevant corresponding seriousness category variables (AESHOSP and AESLIFE) answered \"Y\".", "score": 0.5407, "match_basis": "verbatim_token+domain_route:AE"}, {"md_atom_id": "md_dmAE_ex_a041", "md_file": "knowledge_base/domains/AE/examples.md", "md_atom_type": "SENTENCE", "md_parent_section": "§AE.3 [Example 3]", "md_verbatim": "This is an example of unusually sparse AE data collection; the AE dataset is populated with the term and the flag indicating that it was prespecified, but timing information is limited to the date of collection, and other expected qualifiers are not available.", "score": 0.5326, "match_basis": "verbatim_token+domain_route:AE"}], "candidate_count": 5, "zero_candidate": false}
{"pdf_atom_id": "ig34_p0140_a014", "pdf_atom_type": "HEADING", "pdf_source": "SDTMIG_v3.4", "pdf_page": 140, "pdf_parent_section": "§6.2.1 [Adverse Events (AE)]", "pdf_verbatim": "Row 3:", "figure_ref": null, "candidates": [{"md_atom_id": "md_dmAE_assn_a001", "md_file": "knowledge_base/domains/AE/assumptions.md", "md_atom_type": "HEADING", "md_parent_section": "§AE [AE — Assumptions]", "md_verbatim": "# AE — Assumptions", "score": 0.4, "match_basis": "verbatim_token+domain_route:AE"}, {"md_atom_id": "md_dmAE_ex_a001", "md_file": "knowledge_base/domains/AE/examples.md", "md_atom_type": "HEADING", "md_parent_section": "§AE [AE — Examples]", "md_verbatim": "# AE — Examples", "score": 0.4, "match_basis": "verbatim_token+domain_route:AE"}, {"md_atom_id": "md_dmAE_ex_a002", "md_file": "knowledge_base/domains/AE/examples.md", "md_atom_type": "HEADING", "md_parent_section": "§AE.1 [Example 1]", "md_verbatim": "## Example 1", "score": 0.4, "match_basis": "verbatim_token+domain_route:AE"}, {"md_atom_id": "md_dmAE_ex_a020", "md_file": "knowledge_base/domains/AE/examples.md", "md_atom_type": "HEADING", "md_parent_section": "§AE.2 [Example 2]", "md_verbatim": "## Example 2", "score": 0.4, "match_basis": "verbatim_token+domain_route:AE"}, {"md_atom_id": "md_dmAE_ex_a035", "md_file": "knowledge_base/domains/AE/examples.md", "md_atom_type": "HEADING", "md_parent_section": "§AE.3 [Example 3]", "md_verbatim": "## Example 3", "score": 0.4, "match_basis": "verbatim_token+domain_route:AE"}, {"md_atom_id": "md_dmAE_ex_a049", "md_file": "knowledge_base/domains/AE/examples.md", "md_atom_type": "HEADING", "md_parent_section": "§AE.4 [Example 4]", "md_verbatim": "## Example 4", "score": 0.4, "match_basis": "verbatim_token+domain_route:AE"}, {"md_atom_id": "md_dmAE_ex_a063", "md_file": "knowledge_base/domains/AE/examples.md", "md_atom_type": "HEADING", "md_parent_section": "§AE.5 [Example 5]", "md_verbatim": "## Example 5", "score": 0.4, "match_basis": "verbatim_token+domain_route:AE"}, {"md_atom_id": "md_dmAE_ex_a082", "md_file": "knowledge_base/domains/AE/examples.md", "md_atom_type": "HEADING", "md_parent_section": "§AE.6 [Example 6]", "md_verbatim": "## Example 6", "score": 0.4, "match_basis": "verbatim_token+domain_route:AE"}], "candidate_count": 8, "zero_candidate": false}
{"pdf_atom_id": "ig34_p0140_a015", "pdf_atom_type": "SENTENCE", "pdf_source": "SDTMIG_v3.4", "pdf_page": 140, "pdf_parent_section": "§6.2.1 [Adverse Events (AE)]", "pdf_verbatim": "Shows an example of the overall seriousness question AESER answered with \"Y\" and the relevant corresponding seriousness category variables (AESHOSP and AESLIFE) answered \"Y\". The other seriousness category variables are left blank. This row also shows AEENRF being populated because the AE was marked as \"Continuing\" as of the end of the study reference period for the subject (see Section 4.4.7, Use of Relative Timing Variables).", "figure_ref": null, "candidates": [{"md_atom_id": "md_dmAE_ex_a014", "md_file": "knowledge_base/domains/AE/examples.md", "md_atom_type": "SENTENCE", "md_parent_section": "§AE.1 [Example 1]", "md_verbatim": "This row also shows AEENRF being populated because the AE was marked as \"Continuing\" as of the end of the study reference period for the subject (see Section 4.4.7, Use of Relative Timing Variables).", "score": 0.7306, "match_basis": "verbatim_token+domain_route:AE"}, {"md_atom_id": "md_dmAE_ex_a012", "md_file": "knowledge_base/domains/AE/examples.md", "md_atom_type": "SENTENCE", "md_parent_section": "§AE.1 [Example 1]", "md_verbatim": "**Row 3:** Shows an example of the overall seriousness question AESER answered with \"Y\" and the relevant corresponding seriousness category variables (AESHOSP and AESLIFE) answered \"Y\".", "score": 0.7184, "match_basis": "verbatim_token+domain_route:AE"}, {"md_atom_id": "md_dmAE_assn_a030", "md_file": "knowledge_base/domains/AE/assumptions.md", "md_atom_type": "SENTENCE", "md_parent_section": "§AE [AE — Assumptions]", "md_verbatim": "      On the other hand, if the CRF is structured so that a response is collected for each seriousness category, all category variables (e.g., AESDTH, AESHOSP) would be populated and AESER would be derived.", "score": 0.5602, "match_basis": "verbatim_token+domain_route:AE"}, {"md_atom_id": "md_dmAE_ex_a005", "md_file": "knowledge_base/domains/AE/examples.md", "md_atom_type": "SENTENCE", "md_parent_section": "§AE.1 [Example 1]", "md_verbatim": "The CRF was structured so that seriousness category variables (e.g., AESDTH, AESHOSP) were checked only when AESER is answered \"Y.\"", "score": 0.5321, "match_basis": "verbatim_token+domain_route:AE"}, {"md_atom_id": "md_dmAE_ex_a013", "md_file": "knowledge_base/domains/AE/examples.md", "md_atom_type": "SENTENCE", "md_parent_section": "§AE.1 [Example 1]", "md_verbatim": "The other seriousness category variables are left blank.", "score": 0.5265, "match_basis": "verbatim_token+domain_route:AE"}], "candidate_count": 5, "zero_candidate": false}
{"pdf_atom_id": "ig34_p0141_a001", "pdf_atom_type": "CODE_LITERAL", "pdf_source": "SDTMIG_v3.4", "pdf_page": 141, "pdf_parent_section": "§6.2.1 [Adverse Events (AE)]", "pdf_verbatim": "ae.xpt", "figure_ref": null, "candidates": [{"md_atom_id": "md_dmAE_ex_a015", "md_file": "knowledge_base/domains/AE/examples.md", "md_atom_type": "SENTENCE", "md_parent_section": "§AE.1 [Example 1]", "md_verbatim": "**ae.xpt**", "score": 0.79, "match_basis": "verbatim_token+domain_route:AE"}, {"md_atom_id": "md_dmAE_ex_a030", "md_file": "knowledge_base/domains/AE/examples.md", "md_atom_type": "SENTENCE", "md_parent_section": "§AE.2 [Example 2]", "md_verbatim": "**ae.xpt**", "score": 0.79, "match_basis": "verbatim_token+domain_route:AE"}, {"md_atom_id": "md_dmAE_ex_a045", "md_file": "knowledge_base/domains/AE/examples.md", "md_atom_type": "SENTENCE", "md_parent_section": "§AE.3 [Example 3]", "md_verbatim": "**ae.xpt**", "score": 0.79, "match_basis": "verbatim_token+domain_route:AE"}, {"md_atom_id": "md_dmAE_ex_a055", "md_file": "knowledge_base/domains/AE/examples.md", "md_atom_type": "SENTENCE", "md_parent_section": "§AE.4 [Example 4]", "md_verbatim": "**ae.xpt**", "score": 0.79, "match_basis": "verbatim_token+domain_route:AE"}, {"md_atom_id": "md_dmAE_ex_a078", "md_file": "knowledge_base/domains/AE/examples.md", "md_atom_type": "SENTENCE", "md_parent_section": "§AE.5 [Example 5]", "md_verbatim": "**ae.xpt**", "score": 0.79, "match_basis": "verbatim_token+domain_route:AE"}, {"md_atom_id": "md_dmAE_ex_a094", "md_file": "knowledge_base/domains/AE/examples.md", "md_atom_type": "SENTENCE", "md_parent_section": "§AE.6 [Example 6]", "md_verbatim": "**ae.xpt**", "score": 0.79, "match_basis": "verbatim_token+domain_route:AE"}, {"md_atom_id": "md_dmAE_assn_a001", "md_file": "knowledge_base/domains/AE/assumptions.md", "md_atom_type": "HEADING", "md_parent_section": "§AE [AE — Assumptions]", "md_verbatim": "# AE — Assumptions", "score": 0.19, "match_basis": "verbatim_token+domain_route:AE"}, {"md_atom_id": "md_dmAE_assn_a002", "md_file": "knowledge_base/domains/AE/assumptions.md", "md_atom_type": "LIST_ITEM", "md_parent_section": "§AE [AE — Assumptions]", "md_verbatim": "1. The Adverse Events dataset includes clinical data describing \"any untoward medical occurrence in a patient or clinical investigation subject administered a pharmaceutical product and which does not necessarily have to have a causal relationship with this treatment\" (ICH E2A). In consultation with regulatory authorities, sponsors may extend or limit the scope of adverse event collection (e.g., collecting pre-treatment events related to trial conduct, not collecting events that are assessed as efficacy endpoints). The events included in the AE dataset should be consistent with the protocol requirements. Adverse events may be captured either as free text or via a prespecified list of terms.", "score": 0.19, "match_basis": "verbatim_token+domain_route:AE"}, {"md_atom_id": "md_dmAE_assn_a003", "md_file": "knowledge_base/domains/AE/assumptions.md", "md_atom_type": "LIST_ITEM", "md_parent_section": "§AE [AE — Assumptions]", "md_verbatim": "2. **AE description and coding**", "score": 0.19, "match_basis": "verbatim_token+domain_route:AE"}, {"md_atom_id": "md_dmAE_assn_a004", "md_file": "knowledge_base/domains/AE/assumptions.md", "md_atom_type": "LIST_ITEM", "md_parent_section": "§AE [AE — Assumptions]", "md_verbatim": "   a. AETERM captures the verbatim term collected for the event. It is the topic variable for the AE dataset. AETERM is a required variable and must have a value.", "score": 0.19, "match_basis": "verbatim_token+domain_route:AE"}], "candidate_count": 10, "zero_candidate": false}
{"pdf_atom_id": "ig34_p0141_a002", "pdf_atom_type": "TABLE_HEADER", "pdf_source": "SDTMIG_v3.4", "pdf_page": 141, "pdf_parent_section": "§6.2.1 [Adverse Events (AE)]", "pdf_verbatim": "| Row | STUDYID | DOMAIN | USUBJID | AESEQ | AETERM | AEMODIFY | AEDECOD | AEBODSYS | AESEV | AESER | AEACN | AEREL | AEOUT | AESCONG | AESDISAB | AESDTH | AESHOSP | AESLIFE | AESMIE | EPOCH | AESTDTC | AEENDTC | AESTDY | AEENDY | AEENRF |", "figure_ref": null, "candidates": [{"md_atom_id": "md_dmAE_ex_a016", "md_file": "knowledge_base/domains/AE/examples.md", "md_atom_type": "TABLE_HEADER", "md_parent_section": "§AE.1 [Example 1]", "md_verbatim": "| Row | STUDYID | DOMAIN | USUBJID | AESEQ | AETERM | AEMODIFY | AEDECOD | AEBODSYS | AESEV | AESER | AEACN | AEREL | AEOUT | AESCONG | AESDISAB | AESDTH | AESHOSP | AESLIFE | AESMIE | EPOCH | AESTDTC | AEENDTC | AESTDY | AEENDY | AEENRF |\n|-----|---------|--------|---------|-------|--------|----------|---------|----------|-------|-------|-------|-------|-------|---------|----------|--------|---------|---------|--------|-------|---------|---------|--------|--------|--------|", "score": 1.0, "match_basis": "verbatim_token+domain_route:AE"}, {"md_atom_id": "md_dmAE_ex_a095", "md_file": "knowledge_base/domains/AE/examples.md", "md_atom_type": "TABLE_HEADER", "md_parent_section": "§AE.6 [Example 6]", "md_verbatim": "| Row | STUDYID | DOMAIN | USUBJID | SPDEVID | AESEQ | AESPID | AETERM | AEDECOD | AESER | AESEV | AEACNDEV | AERLDEV | AEOUT | AESCONG | AESDISAB | AESDTH | AESHOSP | AESLIFE | AESMIE | AESINTV | AESTDTC | AEENDTC | AESTDY | AEENDY |\n|-----|---------|--------|---------|---------|-------|--------|--------|---------|-------|-------|----------|---------|-------|---------|----------|--------|---------|---------|--------|---------|---------|---------|--------|--------|", "score": 0.7923, "match_basis": "verbatim_token+domain_route:AE"}, {"md_atom_id": "md_dmAE_ex_a031", "md_file": "knowledge_base/domains/AE/examples.md", "md_atom_type": "TABLE_HEADER", "md_parent_section": "§AE.2 [Example 2]", "md_verbatim": "| Row | STUDYID | DOMAIN | USUBJID | AESEQ | AETERM | AEDECOD | AEPRESP | AEBODSYS | AESEV | AESER | AEACN | AEREL | AEOUT | EPOCH | AESTDTC | AEENDTC | AESTDY | AEENDY |\n|-----|---------|--------|---------|-------|--------|---------|---------|----------|-------|-------|-------|-------|-------|-------|---------|---------|--------|--------|", "score": 0.7717, "match_basis": "verbatim_token+domain_route:AE"}, {"md_atom_id": "md_dmAE_ex_a079", "md_file": "knowledge_base/domains/AE/examples.md", "md_atom_type": "TABLE_HEADER", "md_parent_section": "§AE.5 [Example 5]", "md_verbatim": "| Row | STUDYID | DOMAIN | USUBJID | SPDEVID | AESEQ | AESPID | AETERM | AEDECOD | AELOC | AELAT | AESER | AESEV | AEACNDEV | AERELDEV | AERLPRC | AEREL | AEOUT | AESCONG | AESDISAB | AESDTH | AESHOSP | AESLIFE | AESMIE | AEUNANT | AERLPRT | AESTDTC | AEENDTC | AESTDY | AEENDY |\n|-----|---------|--------|---------|---------|-------|--------|--------|---------|-------|-------|-------|-------|----------|----------|---------|-------|-------|---------|----------|--------|---------|---------|--------|---------|---------|---------|---------|--------|--------|", "score": 0.7684, "match_basis": "verbatim_token+domain_route:AE"}, {"md_atom_id": "md_dmAE_ex_a056", "md_file": "knowledge_base/domains/AE/examples.md", "md_atom_type": "TABLE_HEADER", "md_parent_section": "§AE.4 [Example 4]", "md_verbatim": "| Row | STUDYID | DOMAIN | USUBJID | AESEQ | AEGRPID | AETERM | AEBODSYS | AESEV | AESER | AEACN | AEREL | AESTDTC | AEENDTC |\n|-----|---------|--------|---------|-------|---------|--------|----------|-------|-------|-------|-------|---------|---------|", "score": 0.687, "match_basis": "verbatim_token+domain_route:AE"}], "candidate_count": 5, "zero_candidate": false}
{"pdf_atom_id": "ig34_p0141_a003", "pdf_atom_type": "TABLE_ROW", "pdf_source": "SDTMIG_v3.4", "pdf_page": 141, "pdf_parent_section": "§6.2.1 [Adverse Events (AE)]", "pdf_verbatim": "| 1 | ABC123 | AE | 123101 | 1 | POUNDING HEADACHE | HEADACHE | | Nervous system disorders | SEVERE | N | NOT APPLICABLE | DEFINITELY NOT RELATED | RECOVERED/ RESOLVED | | | | | | | SCREENING | 2005-10-12 | 2005-10-12 | -1 | | |", "figure_ref": null, "candidates": [{"md_atom_id": "md_dmAE_ex_a017", "md_file": "knowledge_base/domains/AE/examples.md", "md_atom_type": "TABLE_ROW", "md_parent_section": "§AE.1 [Example 1]", "md_verbatim": "| 1 | ABC123 | AE | 123101 | 1 | POUNDING HEADACHE | Headache | Headache | Nervous system disorders | SEVERE | N | | NOT APPLICABLE | DEFINITELY NOT RELATED | RECOVERED/RESOLVED | | | | | | SCREENING | 2005-10-12 | 2005-10-12 | -1 | -1 | |", "score": 1.0, "match_basis": "verbatim_token+domain_route:AE"}, {"md_atom_id": "md_dmAE_ex_a034", "md_file": "knowledge_base/domains/AE/examples.md", "md_atom_type": "TABLE_ROW", "md_parent_section": "§AE.2 [Example 2]", "md_verbatim": "| 3 | ABC123 | AE | 123101 | 3 | HEADACHE | Headache | | Nervous system disorders | MILD | N | DOSE NOT CHANGED | POSSIBLY RELATED | RECOVERED/RESOLVED | TREATMENT | 2005-10-21 | | 11 | 11 |", "score": 0.6941, "match_basis": "verbatim_token+domain_route:AE"}, {"md_atom_id": "md_dmAE_ex_a032", "md_file": "knowledge_base/domains/AE/examples.md", "md_atom_type": "TABLE_ROW", "md_parent_section": "§AE.2 [Example 2]", "md_verbatim": "| 1 | ABC123 | AE | 123101 | 1 | NAUSEA | Nausea | Y | Gastrointestinal disorders | SEVERE | N | DOSE REDUCED | RELATED | RECOVERED/RESOLVED | TREATMENT | 2005-10-12 | 2005-10-13 | 2 | 3 |", "score": 0.5946, "match_basis": "verbatim_token+domain_route:AE"}, {"md_atom_id": "md_dmAE_ex_a033", "md_file": "knowledge_base/domains/AE/examples.md", "md_atom_type": "TABLE_ROW", "md_parent_section": "§AE.2 [Example 2]", "md_verbatim": "| 2 | ABC123 | AE | 123101 | 2 | VOMITING | Vomiting | Y | Gastrointestinal disorders | MODERATE | N | DOSE REDUCED | RELATED | RECOVERED/RESOLVED | TREATMENT | 2005-10-13T13:05 | 2005-10-13T19:00 | 3 | 3 |", "score": 0.5765, "match_basis": "verbatim_token+domain_route:AE"}, {"md_atom_id": "md_dmAE_ex_a019", "md_file": "knowledge_base/domains/AE/examples.md", "md_atom_type": "TABLE_ROW", "md_parent_section": "§AE.1 [Example 1]", "md_verbatim": "| 3 | ABC123 | AE | 123101 | 3 | PULMONARY EMBOLISM | | Pulmonary embolism | Vascular disorders | MODERATE | Y | DOSE REDUCED | PROBABLY NOT RELATED | RECOVERING/RESOLVING | | | | Y | Y | | TREATMENT | 2005-10-21 | | 9 | | AFTER TREATMENT |", "score": 0.5594, "match_basis": "verbatim_token+domain_route:AE"}], "candidate_count": 5, "zero_candidate": false}
{"pdf_atom_id": "ig34_p0141_a004", "pdf_atom_type": "TABLE_ROW", "pdf_source": "SDTMIG_v3.4", "pdf_page": 141, "pdf_parent_section": "§6.2.1 [Adverse Events (AE)]", "pdf_verbatim": "| 2 | ABC123 | AE | 123101 | 2 | BACK PAIN FOR 6 HOURS | BACK PAIN | Back pain | Musculoskeletal and connective tissue disorders | MODERATE | N | DOSE REDUCED | PROBABLY RELATED | RECOVERED/ RESOLVED | | | | | | | TREATMENT | 2005-10-13T13:05 | 2005-10-19:00 | 1 | 1 | |", "figure_ref": null, "candidates": [{"md_atom_id": "md_dmAE_ex_a018", "md_file": "knowledge_base/domains/AE/examples.md", "md_atom_type": "TABLE_ROW", "md_parent_section": "§AE.1 [Example 1]", "md_verbatim": "| 2 | ABC123 | AE | 123101 | 2 | BACK PAIN FOR 5 HOURS | Back pain | Back pain | Musculoskeletal and connective tissue disorders | MODERATE | N | DOSE REDUCED | RELATED | PROBABLY RELATED | RECOVERED/RESOLVED | | | | | | TREATMENT | 2005-10-13T13:05 | 2005-10-13T19:00 | 1 | 1 | |", "score": 0.9937, "match_basis": "verbatim_token+domain_route:AE"}, {"md_atom_id": "md_dmAE_ex_a033", "md_file": "knowledge_base/domains/AE/examples.md", "md_atom_type": "TABLE_ROW", "md_parent_section": "§AE.2 [Example 2]", "md_verbatim": "| 2 | ABC123 | AE | 123101 | 2 | VOMITING | Vomiting | Y | Gastrointestinal disorders | MODERATE | N | DOSE REDUCED | RELATED | RECOVERED/RESOLVED | TREATMENT | 2005-10-13T13:05 | 2005-10-13T19:00 | 3 | 3 |", "score": 0.6842, "match_basis": "verbatim_token+domain_route:AE"}, {"md_atom_id": "md_dmAE_ex_a019", "md_file": "knowledge_base/domains/AE/examples.md", "md_atom_type": "TABLE_ROW", "md_parent_section": "§AE.1 [Example 1]", "md_verbatim": "| 3 | ABC123 | AE | 123101 | 3 | PULMONARY EMBOLISM | | Pulmonary embolism | Vascular disorders | MODERATE | Y | DOSE REDUCED | PROBABLY NOT RELATED | RECOVERING/RESOLVING | | | | Y | Y | | TREATMENT | 2005-10-21 | | 9 | | AFTER TREATMENT |", "score": 0.68, "match_basis": "verbatim_token+domain_route:AE"}, {"md_atom_id": "md_dmAE_ex_a032", "md_file": "knowledge_base/domains/AE/examples.md", "md_atom_type": "TABLE_ROW", "md_parent_section": "§AE.2 [Example 2]", "md_verbatim": "| 1 | ABC123 | AE | 123101 | 1 | NAUSEA | Nausea | Y | Gastrointestinal disorders | SEVERE | N | DOSE REDUCED | RELATED | RECOVERED/RESOLVED | TREATMENT | 2005-10-12 | 2005-10-13 | 2 | 3 |", "score": 0.6474, "match_basis": "verbatim_token+domain_route:AE"}, {"md_atom_id": "md_dmAE_ex_a034", "md_file": "knowledge_base/domains/AE/examples.md", "md_atom_type": "TABLE_ROW", "md_parent_section": "§AE.2 [Example 2]", "md_verbatim": "| 3 | ABC123 | AE | 123101 | 3 | HEADACHE | Headache | | Nervous system disorders | MILD | N | DOSE NOT CHANGED | POSSIBLY RELATED | RECOVERED/RESOLVED | TREATMENT | 2005-10-21 | | 11 | 11 |", "score": 0.6164, "match_basis": "verbatim_token+domain_route:AE"}], "candidate_count": 5, "zero_candidate": false}
{"pdf_atom_id": "ig34_p0141_a005", "pdf_atom_type": "TABLE_ROW", "pdf_source": "SDTMIG_v3.4", "pdf_page": 141, "pdf_parent_section": "§6.2.1 [Adverse Events (AE)]", "pdf_verbatim": "| 3 | ABC123 | AE | 123101 | 3 | PULMONARY EMBOLISM | | Pulmonary embolism | Vascular disorders | MODERATE | Y | DOSE REDUCED | PROBABLY NOT RELATED | RECOVERING/ RESOLVING | | Y | Y | | | | TREATMENT | 2005-10-21 | | 9 | | AFTER |", "figure_ref": null, "candidates": [{"md_atom_id": "md_dmAE_ex_a019", "md_file": "knowledge_base/domains/AE/examples.md", "md_atom_type": "TABLE_ROW", "md_parent_section": "§AE.1 [Example 1]", "md_verbatim": "| 3 | ABC123 | AE | 123101 | 3 | PULMONARY EMBOLISM | | Pulmonary embolism | Vascular disorders | MODERATE | Y | DOSE REDUCED | PROBABLY NOT RELATED | RECOVERING/RESOLVING | | | | Y | Y | | TREATMENT | 2005-10-21 | | 9 | | AFTER TREATMENT |", "score": 1.0, "match_basis": "verbatim_token+domain_route:AE"}, {"md_atom_id": "md_dmAE_ex_a018", "md_file": "knowledge_base/domains/AE/examples.md", "md_atom_type": "TABLE_ROW", "md_parent_section": "§AE.1 [Example 1]", "md_verbatim": "| 2 | ABC123 | AE | 123101 | 2 | BACK PAIN FOR 5 HOURS | Back pain | Back pain | Musculoskeletal and connective tissue disorders | MODERATE | N | DOSE REDUCED | RELATED | PROBABLY RELATED | RECOVERED/RESOLVED | | | | | | TREATMENT | 2005-10-13T13:05 | 2005-10-13T19:00 | 1 | 1 | |", "score": 0.6777, "match_basis": "verbatim_token+domain_route:AE"}, {"md_atom_id": "md_dmAE_ex_a033", "md_file": "knowledge_base/domains/AE/examples.md", "md_atom_type": "TABLE_ROW", "md_parent_section": "§AE.2 [Example 2]", "md_verbatim": "| 2 | ABC123 | AE | 123101 | 2 | VOMITING | Vomiting | Y | Gastrointestinal disorders | MODERATE | N | DOSE REDUCED | RELATED | RECOVERED/RESOLVED | TREATMENT | 2005-10-13T13:05 | 2005-10-13T19:00 | 3 | 3 |", "score": 0.6748, "match_basis": "verbatim_token+domain_route:AE"}, {"md_atom_id": "md_dmAE_ex_a032", "md_file": "knowledge_base/domains/AE/examples.md", "md_atom_type": "TABLE_ROW", "md_parent_section": "§AE.2 [Example 2]", "md_verbatim": "| 1 | ABC123 | AE | 123101 | 1 | NAUSEA | Nausea | Y | Gastrointestinal disorders | SEVERE | N | DOSE REDUCED | RELATED | RECOVERED/RESOLVED | TREATMENT | 2005-10-12 | 2005-10-13 | 2 | 3 |", "score": 0.6514, "match_basis": "verbatim_token+domain_route:AE"}, {"md_atom_id": "md_dmAE_ex_a034", "md_file": "knowledge_base/domains/AE/examples.md", "md_atom_type": "TABLE_ROW", "md_parent_section": "§AE.2 [Example 2]", "md_verbatim": "| 3 | ABC123 | AE | 123101 | 3 | HEADACHE | Headache | | Nervous system disorders | MILD | N | DOSE NOT CHANGED | POSSIBLY RELATED | RECOVERED/RESOLVED | TREATMENT | 2005-10-21 | | 11 | 11 |", "score": 0.625, "match_basis": "verbatim_token+domain_route:AE"}], "candidate_count": 5, "zero_candidate": false}
{"pdf_atom_id": "ig34_p0141_a006", "pdf_atom_type": "SENTENCE", "pdf_source": "SDTMIG_v3.4", "pdf_page": 141, "pdf_parent_section": "§6.2.1 [Adverse Events (AE)]", "pdf_verbatim": "Example 2", "figure_ref": null, "candidates": [{"md_atom_id": "md_dmAE_ex_a002", "md_file": "knowledge_base/domains/AE/examples.md", "md_atom_type": "HEADING", "md_parent_section": "§AE.1 [Example 1]", "md_verbatim": "## Example 1", "score": 0.76, "match_basis": "verbatim_token+domain_route:AE"}, {"md_atom_id": "md_dmAE_ex_a020", "md_file": "knowledge_base/domains/AE/examples.md", "md_atom_type": "HEADING", "md_parent_section": "§AE.2 [Example 2]", "md_verbatim": "## Example 2", "score": 0.76, "match_basis": "verbatim_token+domain_route:AE"}, {"md_atom_id": "md_dmAE_ex_a035", "md_file": "knowledge_base/domains/AE/examples.md", "md_atom_type": "HEADING", "md_parent_section": "§AE.3 [Example 3]", "md_verbatim": "## Example 3", "score": 0.76, "match_basis": "verbatim_token+domain_route:AE"}, {"md_atom_id": "md_dmAE_ex_a049", "md_file": "knowledge_base/domains/AE/examples.md", "md_atom_type": "HEADING", "md_parent_section": "§AE.4 [Example 4]", "md_verbatim": "## Example 4", "score": 0.76, "match_basis": "verbatim_token+domain_route:AE"}, {"md_atom_id": "md_dmAE_ex_a063", "md_file": "knowledge_base/domains/AE/examples.md", "md_atom_type": "HEADING", "md_parent_section": "§AE.5 [Example 5]", "md_verbatim": "## Example 5", "score": 0.76, "match_basis": "verbatim_token+domain_route:AE"}, {"md_atom_id": "md_dmAE_ex_a082", "md_file": "knowledge_base/domains/AE/examples.md", "md_atom_type": "HEADING", "md_parent_section": "§AE.6 [Example 6]", "md_verbatim": "## Example 6", "score": 0.76, "match_basis": "verbatim_token+domain_route:AE"}, {"md_atom_id": "md_dmAE_ex_a001", "md_file": "knowledge_base/domains/AE/examples.md", "md_atom_type": "HEADING", "md_parent_section": "§AE [AE — Examples]", "md_verbatim": "# AE — Examples", "score": 0.66, "match_basis": "verbatim_token+domain_route:AE"}, {"md_atom_id": "md_dmAE_ex_a043", "md_file": "knowledge_base/domains/AE/examples.md", "md_atom_type": "SENTENCE", "md_parent_section": "§AE.3 [Example 3]", "md_verbatim": "The subject shown in this example experienced nausea and vomiting.", "score": 0.4833, "match_basis": "verbatim_token+domain_route:AE"}, {"md_atom_id": "md_dmAE_ex_a003", "md_file": "knowledge_base/domains/AE/examples.md", "md_atom_type": "SENTENCE", "md_parent_section": "§AE.1 [Example 1]", "md_verbatim": "This example illustrates data from an AE CRF that collected AE terms as free text.", "score": 0.4811, "match_basis": "verbatim_token+domain_route:AE"}, {"md_atom_id": "md_dmAE_ex_a008", "md_file": "knowledge_base/domains/AE/examples.md", "md_atom_type": "SENTENCE", "md_parent_section": "§AE.1 [Example 1]", "md_verbatim": "**Rows 1-2:** Show examples of modifying the reported term for coding purposes, with the modified term in AEMODIFY.", "score": 0.4714, "match_basis": "verbatim_token+domain_route:AE"}], "candidate_count": 10, "zero_candidate": false}
{"pdf_atom_id": "ig34_p0141_a007", "pdf_atom_type": "SENTENCE", "pdf_source": "SDTMIG_v3.4", "pdf_page": 141, "pdf_parent_section": "§6.2.1 [Adverse Events (AE)]", "pdf_verbatim": "In this example, a CRF module included at several visits asked whether nausea, vomiting, or diarrhea occurred. The responses to the probing questions \"Yes\", \"No\", or \"Not Done\" were represented in the Findings About (FA) domain (see Section 6.4, Findings About Events or Interventions). If \"Yes\", the investigator was instructed to complete the AE CRF. In the AE dataset, data on AEs solicited via prespecification on the CRF have an AEPRESP value of \"Y\". For AEs solicited by a general question, AEPRESP is null. RELREC may be used to relate AE records and FA records.", "figure_ref": null, "candidates": [{"md_atom_id": "md_dmAE_ex_a022", "md_file": "knowledge_base/domains/AE/examples.md", "md_atom_type": "SENTENCE", "md_parent_section": "§AE.2 [Example 2]", "md_verbatim": "The responses to the probing questions \"Yes\", \"No\", or \"Not Done\" were represented in the Findings About (FA) domain (see Section 6.4, Findings About Events and Interventions).", "score": 0.5944, "match_basis": "verbatim_token+domain_route:AE"}, {"md_atom_id": "md_dmAE_ex_a040", "md_file": "knowledge_base/domains/AE/examples.md", "md_atom_type": "SENTENCE", "md_parent_section": "§AE.3 [Example 3]", "md_verbatim": "The responses to the probing questions \"Yes\", \"No\", or \"Not Done\" were represented in the FA domain (see Section 6.4, Findings About Events and Interventions).", "score": 0.5944, "match_basis": "verbatim_token+domain_route:AE"}, {"md_atom_id": "md_dmAE_ex_a021", "md_file": "knowledge_base/domains/AE/examples.md", "md_atom_type": "SENTENCE", "md_parent_section": "§AE.2 [Example 2]", "md_verbatim": "In this example, a CRF module included at several visits asked whether nausea, vomiting, or diarrhea occurred.", "score": 0.5911, "match_basis": "verbatim_token+domain_route:AE"}, {"md_atom_id": "md_dmAE_ex_a036", "md_file": "knowledge_base/domains/AE/examples.md", "md_atom_type": "SENTENCE", "md_parent_section": "§AE.3 [Example 3]", "md_verbatim": "In this example, a CRF module that asked whether or not nausea, vomiting, or diarrhea occurred was included in the study only once.", "score": 0.5596, "match_basis": "verbatim_token+domain_route:AE"}, {"md_atom_id": "md_dmAE_ex_a024", "md_file": "knowledge_base/domains/AE/examples.md", "md_atom_type": "SENTENCE", "md_parent_section": "§AE.2 [Example 2]", "md_verbatim": "In the AE dataset, data on AEs solicited by prespecification on the CRF have an AEPRESP value of \"Y\".", "score": 0.5207, "match_basis": "verbatim_token+domain_route:AE"}], "candidate_count": 5, "zero_candidate": false}
{"pdf_atom_id": "ig34_p0141_a008", "pdf_atom_type": "LIST_ITEM", "pdf_source": "SDTMIG_v3.4", "pdf_page": 141, "pdf_parent_section": "§6.2.1 [Adverse Events (AE)]", "pdf_verbatim": "Rows 1-2: Show that nausea and vomiting were prespecified on a CRF, as indicated by AEPRESP = \"Y\". The subject did not experience diarrhea, so no record for that term exists in the AE dataset.", "figure_ref": null, "candidates": [{"md_atom_id": "md_dmAE_ex_a028", "md_file": "knowledge_base/domains/AE/examples.md", "md_atom_type": "SENTENCE", "md_parent_section": "§AE.2 [Example 2]", "md_verbatim": "The subject did not experience diarrhea, so no record for that term exists in the AE dataset.", "score": 0.6217, "match_basis": "verbatim_token+domain_route:AE"}, {"md_atom_id": "md_dmAE_ex_a044", "md_file": "knowledge_base/domains/AE/examples.md", "md_atom_type": "SENTENCE", "md_parent_section": "§AE.3 [Example 3]", "md_verbatim": "The subject did not experience diarrhea, so no record for that term exists in the AE dataset.", "score": 0.6217, "match_basis": "verbatim_token+domain_route:AE"}, {"md_atom_id": "md_dmAE_ex_a027", "md_file": "knowledge_base/domains/AE/examples.md", "md_atom_type": "SENTENCE", "md_parent_section": "§AE.2 [Example 2]", "md_verbatim": "**Rows 1-2:** Show that nausea and vomiting were prespecified on a CRF, as indicated by AEPRESP = \"Y\".", "score": 0.6139, "match_basis": "verbatim_token+domain_route:AE"}, {"md_atom_id": "md_dmAE_assn_a013", "md_file": "knowledge_base/domains/AE/assumptions.md", "md_atom_type": "LIST_ITEM", "md_parent_section": "§AE [AE — Assumptions]", "md_verbatim": "   b. If it is important to know which adverse events from a prespecified list were not reported as well as those that did occur, these data should be submitted in a Findings class dataset such as Findings About Events and Interventions (see Section 6.4, Findings About Events or Interventions). A record should be included in that Findings dataset for each prespecified adverse-event term. Records for adverse events that actually occurred should also exist in the AE dataset with AEPRESP set to \"Y.\"", "score": 0.5564, "match_basis": "verbatim_token+domain_route:AE"}, {"md_atom_id": "md_dmAE_assn_a015", "md_file": "knowledge_base/domains/AE/assumptions.md", "md_atom_type": "LIST_ITEM", "md_parent_section": "§AE [AE — Assumptions]", "md_verbatim": "   d. When adverse events are collected with the recording of free text, a record may be entered into the sponsor's data management system to indicate \"no adverse events\" for a specific subject. For these subjects, do not include a record in the AE submission dataset to indicate that there were no events. Records should be included in the submission AE dataset only for adverse events that have actually occurred.", "score": 0.535, "match_basis": "verbatim_token+domain_route:AE"}], "candidate_count": 5, "zero_candidate": false}
{"pdf_atom_id": "ig34_p0141_a009", "pdf_atom_type": "LIST_ITEM", "pdf_source": "SDTMIG_v3.4", "pdf_page": 141, "pdf_parent_section": "§6.2.1 [Adverse Events (AE)]", "pdf_verbatim": "Row 3: Shows an example of an AE (headache) that was not prespecified on a CRF, as indicated by a null value for AEPRESP.", "figure_ref": null, "candidates": [{"md_atom_id": "md_dmAE_ex_a029", "md_file": "knowledge_base/domains/AE/examples.md", "md_atom_type": "SENTENCE", "md_parent_section": "§AE.2 [Example 2]", "md_verbatim": "**Row 3:** Shows an example of an AE (headache) that was not prespecified on a CRF, as indicated by a null value for AEPRESP.", "score": 0.91, "match_basis": "verbatim_token+domain_route:AE"}, {"md_atom_id": "md_dmAE_ex_a027", "md_file": "knowledge_base/domains/AE/examples.md", "md_atom_type": "SENTENCE", "md_parent_section": "§AE.2 [Example 2]", "md_verbatim": "**Rows 1-2:** Show that nausea and vomiting were prespecified on a CRF, as indicated by AEPRESP = \"Y\".", "score": 0.579, "match_basis": "verbatim_token+domain_route:AE"}, {"md_atom_id": "md_dmAE_assn_a014", "md_file": "knowledge_base/domains/AE/assumptions.md", "md_atom_type": "LIST_ITEM", "md_parent_section": "§AE [AE — Assumptions]", "md_verbatim": "   c. If a study collects both prespecified adverse events and free-text events, the value of AEPRESP should be \"Y\" for all prespecified events and null for events reported as free text. AEPRESP is a permissible field and may be omitted from the dataset if all adverse events were collected as free text.", "score": 0.5132, "match_basis": "verbatim_token+domain_route:AE"}, {"md_atom_id": "md_dmAE_assn_a012", "md_file": "knowledge_base/domains/AE/assumptions.md", "md_atom_type": "LIST_ITEM", "md_parent_section": "§AE [AE — Assumptions]", "md_verbatim": "   a. Adverse events are generally collected in 2 different ways, either by recording free text or using a prespecified list of terms. In the latter case, the solicitation of information on specific adverse events may affect the frequency at which they are reported; therefore, the fact that a specific adverse event was solicited may be of interest to reviewers. An AEPRESP value of \"Y\" is used to indicate that the event in AETERM was prespecified on the CRF.", "score": 0.5038, "match_basis": "verbatim_token+domain_route:AE"}, {"md_atom_id": "md_dmAE_assn_a011", "md_file": "knowledge_base/domains/AE/assumptions.md", "md_atom_type": "LIST_ITEM", "md_parent_section": "§AE [AE — Assumptions]", "md_verbatim": "4. **Prespecified terms; presence or absence of events**", "score": 0.5034, "match_basis": "verbatim_token+domain_route:AE"}], "candidate_count": 5, "zero_candidate": false}
{"pdf_atom_id": "ig34_p0141_a010", "pdf_atom_type": "CODE_LITERAL", "pdf_source": "SDTMIG_v3.4", "pdf_page": 141, "pdf_parent_section": "§6.2.1 [Adverse Events (AE)]", "pdf_verbatim": "ae.xpt", "figure_ref": null, "candidates": [{"md_atom_id": "md_dmAE_ex_a015", "md_file": "knowledge_base/domains/AE/examples.md", "md_atom_type": "SENTENCE", "md_parent_section": "§AE.1 [Example 1]", "md_verbatim": "**ae.xpt**", "score": 0.79, "match_basis": "verbatim_token+domain_route:AE"}, {"md_atom_id": "md_dmAE_ex_a030", "md_file": "knowledge_base/domains/AE/examples.md", "md_atom_type": "SENTENCE", "md_parent_section": "§AE.2 [Example 2]", "md_verbatim": "**ae.xpt**", "score": 0.79, "match_basis": "verbatim_token+domain_route:AE"}, {"md_atom_id": "md_dmAE_ex_a045", "md_file": "knowledge_base/domains/AE/examples.md", "md_atom_type": "SENTENCE", "md_parent_section": "§AE.3 [Example 3]", "md_verbatim": "**ae.xpt**", "score": 0.79, "match_basis": "verbatim_token+domain_route:AE"}, {"md_atom_id": "md_dmAE_ex_a055", "md_file": "knowledge_base/domains/AE/examples.md", "md_atom_type": "SENTENCE", "md_parent_section": "§AE.4 [Example 4]", "md_verbatim": "**ae.xpt**", "score": 0.79, "match_basis": "verbatim_token+domain_route:AE"}, {"md_atom_id": "md_dmAE_ex_a078", "md_file": "knowledge_base/domains/AE/examples.md", "md_atom_type": "SENTENCE", "md_parent_section": "§AE.5 [Example 5]", "md_verbatim": "**ae.xpt**", "score": 0.79, "match_basis": "verbatim_token+domain_route:AE"}, {"md_atom_id": "md_dmAE_ex_a094", "md_file": "knowledge_base/domains/AE/examples.md", "md_atom_type": "SENTENCE", "md_parent_section": "§AE.6 [Example 6]", "md_verbatim": "**ae.xpt**", "score": 0.79, "match_basis": "verbatim_token+domain_route:AE"}, {"md_atom_id": "md_dmAE_assn_a001", "md_file": "knowledge_base/domains/AE/assumptions.md", "md_atom_type": "HEADING", "md_parent_section": "§AE [AE — Assumptions]", "md_verbatim": "# AE — Assumptions", "score": 0.19, "match_basis": "verbatim_token+domain_route:AE"}, {"md_atom_id": "md_dmAE_assn_a002", "md_file": "knowledge_base/domains/AE/assumptions.md", "md_atom_type": "LIST_ITEM", "md_parent_section": "§AE [AE — Assumptions]", "md_verbatim": "1. The Adverse Events dataset includes clinical data describing \"any untoward medical occurrence in a patient or clinical investigation subject administered a pharmaceutical product and which does not necessarily have to have a causal relationship with this treatment\" (ICH E2A). In consultation with regulatory authorities, sponsors may extend or limit the scope of adverse event collection (e.g., collecting pre-treatment events related to trial conduct, not collecting events that are assessed as efficacy endpoints). The events included in the AE dataset should be consistent with the protocol requirements. Adverse events may be captured either as free text or via a prespecified list of terms.", "score": 0.19, "match_basis": "verbatim_token+domain_route:AE"}, {"md_atom_id": "md_dmAE_assn_a003", "md_file": "knowledge_base/domains/AE/assumptions.md", "md_atom_type": "LIST_ITEM", "md_parent_section": "§AE [AE — Assumptions]", "md_verbatim": "2. **AE description and coding**", "score": 0.19, "match_basis": "verbatim_token+domain_route:AE"}, {"md_atom_id": "md_dmAE_assn_a004", "md_file": "knowledge_base/domains/AE/assumptions.md", "md_atom_type": "LIST_ITEM", "md_parent_section": "§AE [AE — Assumptions]", "md_verbatim": "   a. AETERM captures the verbatim term collected for the event. It is the topic variable for the AE dataset. AETERM is a required variable and must have a value.", "score": 0.19, "match_basis": "verbatim_token+domain_route:AE"}], "candidate_count": 10, "zero_candidate": false}
{"pdf_atom_id": "ig34_p0141_a011", "pdf_atom_type": "TABLE_HEADER", "pdf_source": "SDTMIG_v3.4", "pdf_page": 141, "pdf_parent_section": "§6.2.1 [Adverse Events (AE)]", "pdf_verbatim": "| Row | STUDYID | DOMAIN | USUBJID | AESEQ | AETERM | AEDECOD | AEPRESP | AEBODSYS | AESEV | AESER | AEACN | AEREL | AEOUT | EPOCH | AESTDTC | AEENDTC | AESTDY | AEENDY |", "figure_ref": null, "candidates": [{"md_atom_id": "md_dmAE_ex_a031", "md_file": "knowledge_base/domains/AE/examples.md", "md_atom_type": "TABLE_HEADER", "md_parent_section": "§AE.2 [Example 2]", "md_verbatim": "| Row | STUDYID | DOMAIN | USUBJID | AESEQ | AETERM | AEDECOD | AEPRESP | AEBODSYS | AESEV | AESER | AEACN | AEREL | AEOUT | EPOCH | AESTDTC | AEENDTC | AESTDY | AEENDY |\n|-----|---------|--------|---------|-------|--------|---------|---------|----------|-------|-------|-------|-------|-------|-------|---------|---------|--------|--------|", "score": 1.0, "match_basis": "verbatim_token+domain_route:AE"}, {"md_atom_id": "md_dmAE_ex_a046", "md_file": "knowledge_base/domains/AE/examples.md", "md_atom_type": "TABLE_HEADER", "md_parent_section": "§AE.3 [Example 3]", "md_verbatim": "| Row | STUDYID | DOMAIN | USUBJID | AESEQ | AETERM | AEDECOD | AEPRESP | AEBODSYS | AESER | AEDTC | AESTDY |\n|-----|---------|--------|---------|-------|--------|---------|---------|----------|-------|-------|--------|", "score": 0.8095, "match_basis": "verbatim_token+domain_route:AE"}, {"md_atom_id": "md_dmAE_ex_a056", "md_file": "knowledge_base/domains/AE/examples.md", "md_atom_type": "TABLE_HEADER", "md_parent_section": "§AE.4 [Example 4]", "md_verbatim": "| Row | STUDYID | DOMAIN | USUBJID | AESEQ | AEGRPID | AETERM | AEBODSYS | AESEV | AESER | AEACN | AEREL | AESTDTC | AEENDTC |\n|-----|---------|--------|---------|-------|---------|--------|----------|-------|-------|-------|-------|---------|---------|", "score": 0.794, "match_basis": "verbatim_token+domain_route:AE"}, {"md_atom_id": "md_dmAE_ex_a016", "md_file": "knowledge_base/domains/AE/examples.md", "md_atom_type": "TABLE_HEADER", "md_parent_section": "§AE.1 [Example 1]", "md_verbatim": "| Row | STUDYID | DOMAIN | USUBJID | AESEQ | AETERM | AEMODIFY | AEDECOD | AEBODSYS | AESEV | AESER | AEACN | AEREL | AEOUT | AESCONG | AESDISAB | AESDTH | AESHOSP | AESLIFE | AESMIE | EPOCH | AESTDTC | AEENDTC | AESTDY | AEENDY | AEENRF |\n|-----|---------|--------|---------|-------|--------|----------|---------|----------|-------|-------|-------|-------|-------|---------|----------|--------|---------|---------|--------|-------|---------|---------|--------|--------|--------|", "score": 0.7717, "match_basis": "verbatim_token+domain_route:AE"}, {"md_atom_id": "md_dmAE_ex_a095", "md_file": "knowledge_base/domains/AE/examples.md", "md_atom_type": "TABLE_HEADER", "md_parent_section": "§AE.6 [Example 6]", "md_verbatim": "| Row | STUDYID | DOMAIN | USUBJID | SPDEVID | AESEQ | AESPID | AETERM | AEDECOD | AESER | AESEV | AEACNDEV | AERLDEV | AEOUT | AESCONG | AESDISAB | AESDTH | AESHOSP | AESLIFE | AESMIE | AESINTV | AESTDTC | AEENDTC | AESTDY | AEENDY |\n|-----|---------|--------|---------|---------|-------|--------|--------|---------|-------|-------|----------|---------|-------|---------|----------|--------|---------|---------|--------|---------|---------|---------|--------|--------|", "score": 0.682, "match_basis": "verbatim_token+domain_route:AE"}], "candidate_count": 5, "zero_candidate": false}
{"pdf_atom_id": "ig34_p0141_a012", "pdf_atom_type": "TABLE_ROW", "pdf_source": "SDTMIG_v3.4", "pdf_page": 141, "pdf_parent_section": "§6.2.1 [Adverse Events (AE)]", "pdf_verbatim": "| 1 | ABC123 | AE | 123101 | 1 | NAUSEA | Nausea | Y | Gastrointestinal disorders | SEVERE | N | DOSE REDUCED | RELATED | RECOVERED/RESOLVED | TREATMENT | 2005-10-12 | 2005-10-13 | 2 | 3 |", "figure_ref": null, "candidates": [{"md_atom_id": "md_dmAE_ex_a032", "md_file": "knowledge_base/domains/AE/examples.md", "md_atom_type": "TABLE_ROW", "md_parent_section": "§AE.2 [Example 2]", "md_verbatim": "| 1 | ABC123 | AE | 123101 | 1 | NAUSEA | Nausea | Y | Gastrointestinal disorders | SEVERE | N | DOSE REDUCED | RELATED | RECOVERED/RESOLVED | TREATMENT | 2005-10-12 | 2005-10-13 | 2 | 3 |", "score": 1.0, "match_basis": "verbatim_token+domain_route:AE"}, {"md_atom_id": "md_dmAE_ex_a033", "md_file": "knowledge_base/domains/AE/examples.md", "md_atom_type": "TABLE_ROW", "md_parent_section": "§AE.2 [Example 2]", "md_verbatim": "| 2 | ABC123 | AE | 123101 | 2 | VOMITING | Vomiting | Y | Gastrointestinal disorders | MODERATE | N | DOSE REDUCED | RELATED | RECOVERED/RESOLVED | TREATMENT | 2005-10-13T13:05 | 2005-10-13T19:00 | 3 | 3 |", "score": 0.8575, "match_basis": "verbatim_token+domain_route:AE"}, {"md_atom_id": "md_dmAE_ex_a057", "md_file": "knowledge_base/domains/AE/examples.md", "md_atom_type": "TABLE_ROW", "md_parent_section": "§AE.4 [Example 4]", "md_verbatim": "| 1 | ABC123 | AE | 123101 | 1 | | NAUSEA | Gastrointestinal disorders | MODERATE | N | DOSE NOT CHANGED | RELATED | 2005-10-13 | 2005-10-14 |", "score": 0.7195, "match_basis": "verbatim_token+domain_route:AE"}, {"md_atom_id": "md_dmAE_ex_a047", "md_file": "knowledge_base/domains/AE/examples.md", "md_atom_type": "TABLE_ROW", "md_parent_section": "§AE.3 [Example 3]", "md_verbatim": "| 1 | ABC123 | AE | 123101 | 1 | NAUSEA | Nausea | Y | Gastrointestinal disorders | | 2005-10-29 | 19 |", "score": 0.7045, "match_basis": "verbatim_token+domain_route:AE"}, {"md_atom_id": "md_dmAE_ex_a059", "md_file": "knowledge_base/domains/AE/examples.md", "md_atom_type": "TABLE_ROW", "md_parent_section": "§AE.4 [Example 4]", "md_verbatim": "| 3 | ABC123 | AE | 123101 | 3 | 1 | VOMITING | Gastrointestinal disorders | SEVERE | N | DOSE NOT CHANGED | POSSIBLY RELATED | 2005-10-16 | 2005-10-17 |", "score": 0.6929, "match_basis": "verbatim_token+domain_route:AE"}], "candidate_count": 5, "zero_candidate": false}
{"pdf_atom_id": "ig34_p0141_a013", "pdf_atom_type": "TABLE_ROW", "pdf_source": "SDTMIG_v3.4", "pdf_page": 141, "pdf_parent_section": "§6.2.1 [Adverse Events (AE)]", "pdf_verbatim": "| 2 | ABC123 | AE | 123101 | 2 | VOMITING | Vomiting | Y | Gastrointestinal disorders | MODERATE | N | DOSE REDUCED | RELATED | RECOVERED/RESOLVED | TREATMENT | 2005-10-13T13:00 | 2005-10-19:00 | 3 | 3 |", "figure_ref": null, "candidates": [{"md_atom_id": "md_dmAE_ex_a033", "md_file": "knowledge_base/domains/AE/examples.md", "md_atom_type": "TABLE_ROW", "md_parent_section": "§AE.2 [Example 2]", "md_verbatim": "| 2 | ABC123 | AE | 123101 | 2 | VOMITING | Vomiting | Y | Gastrointestinal disorders | MODERATE | N | DOSE REDUCED | RELATED | RECOVERED/RESOLVED | TREATMENT | 2005-10-13T13:05 | 2005-10-13T19:00 | 3 | 3 |", "score": 0.9919, "match_basis": "verbatim_token+domain_route:AE"}, {"md_atom_id": "md_dmAE_ex_a032", "md_file": "knowledge_base/domains/AE/examples.md", "md_atom_type": "TABLE_ROW", "md_parent_section": "§AE.2 [Example 2]", "md_verbatim": "| 1 | ABC123 | AE | 123101 | 1 | NAUSEA | Nausea | Y | Gastrointestinal disorders | SEVERE | N | DOSE REDUCED | RELATED | RECOVERED/RESOLVED | TREATMENT | 2005-10-12 | 2005-10-13 | 2 | 3 |", "score": 0.8633, "match_basis": "verbatim_token+domain_route:AE"}, {"md_atom_id": "md_dmAE_ex_a059", "md_file": "knowledge_base/domains/AE/examples.md", "md_atom_type": "TABLE_ROW", "md_parent_section": "§AE.4 [Example 4]", "md_verbatim": "| 3 | ABC123 | AE | 123101 | 3 | 1 | VOMITING | Gastrointestinal disorders | SEVERE | N | DOSE NOT CHANGED | POSSIBLY RELATED | 2005-10-16 | 2005-10-17 |", "score": 0.7034, "match_basis": "verbatim_token+domain_route:AE"}, {"md_atom_id": "md_dmAE_ex_a057", "md_file": "knowledge_base/domains/AE/examples.md", "md_atom_type": "TABLE_ROW", "md_parent_section": "§AE.4 [Example 4]", "md_verbatim": "| 1 | ABC123 | AE | 123101 | 1 | | NAUSEA | Gastrointestinal disorders | MODERATE | N | DOSE NOT CHANGED | RELATED | 2005-10-13 | 2005-10-14 |", "score": 0.6964, "match_basis": "verbatim_token+domain_route:AE"}, {"md_atom_id": "md_dmAE_ex_a058", "md_file": "knowledge_base/domains/AE/examples.md", "md_atom_type": "TABLE_ROW", "md_parent_section": "§AE.4 [Example 4]", "md_verbatim": "| 2 | ABC123 | AE | 123101 | 2 | 1 | VOMITING | Gastrointestinal disorders | MILD | N | DOSE NOT CHANGED | POSSIBLY RELATED | 2005-10-14 | 2005-10-15 |", "score": 0.6897, "match_basis": "verbatim_token+domain_route:AE"}], "candidate_count": 5, "zero_candidate": false}
{"pdf_atom_id": "ig34_p0141_a014", "pdf_atom_type": "TABLE_ROW", "pdf_source": "SDTMIG_v3.4", "pdf_page": 141, "pdf_parent_section": "§6.2.1 [Adverse Events (AE)]", "pdf_verbatim": "| 3 | ABC123 | AE | 123101 | 3 | HEADACHE | Headache | | Nervous system disorders | MILD | N | DOSE NOT CHANGED | POSSIBLY RELATED | RECOVERED/RESOLVED | TREATMENT | 2005-10-21 | 2005-10-21 | 11 | 11 |", "figure_ref": null, "candidates": [{"md_atom_id": "md_dmAE_ex_a034", "md_file": "knowledge_base/domains/AE/examples.md", "md_atom_type": "TABLE_ROW", "md_parent_section": "§AE.2 [Example 2]", "md_verbatim": "| 3 | ABC123 | AE | 123101 | 3 | HEADACHE | Headache | | Nervous system disorders | MILD | N | DOSE NOT CHANGED | POSSIBLY RELATED | RECOVERED/RESOLVED | TREATMENT | 2005-10-21 | | 11 | 11 |", "score": 1.0, "match_basis": "verbatim_token+domain_route:AE"}, {"md_atom_id": "md_dmAE_ex_a017", "md_file": "knowledge_base/domains/AE/examples.md", "md_atom_type": "TABLE_ROW", "md_parent_section": "§AE.1 [Example 1]", "md_verbatim": "| 1 | ABC123 | AE | 123101 | 1 | POUNDING HEADACHE | Headache | Headache | Nervous system disorders | SEVERE | N | | NOT APPLICABLE | DEFINITELY NOT RELATED | RECOVERED/RESOLVED | | | | | | SCREENING | 2005-10-12 | 2005-10-12 | -1 | -1 | |", "score": 0.6941, "match_basis": "verbatim_token+domain_route:AE"}, {"md_atom_id": "md_dmAE_ex_a032", "md_file": "knowledge_base/domains/AE/examples.md", "md_atom_type": "TABLE_ROW", "md_parent_section": "§AE.2 [Example 2]", "md_verbatim": "| 1 | ABC123 | AE | 123101 | 1 | NAUSEA | Nausea | Y | Gastrointestinal disorders | SEVERE | N | DOSE REDUCED | RELATED | RECOVERED/RESOLVED | TREATMENT | 2005-10-12 | 2005-10-13 | 2 | 3 |", "score": 0.6687, "match_basis": "verbatim_token+domain_route:AE"}, {"md_atom_id": "md_dmAE_ex_a033", "md_file": "knowledge_base/domains/AE/examples.md", "md_atom_type": "TABLE_ROW", "md_parent_section": "§AE.2 [Example 2]", "md_verbatim": "| 2 | ABC123 | AE | 123101 | 2 | VOMITING | Vomiting | Y | Gastrointestinal disorders | MODERATE | N | DOSE REDUCED | RELATED | RECOVERED/RESOLVED | TREATMENT | 2005-10-13T13:05 | 2005-10-13T19:00 | 3 | 3 |", "score": 0.6505, "match_basis": "verbatim_token+domain_route:AE"}, {"md_atom_id": "md_dmAE_ex_a061", "md_file": "knowledge_base/domains/AE/examples.md", "md_atom_type": "TABLE_ROW", "md_parent_section": "§AE.4 [Example 4]", "md_verbatim": "| 5 | ABC123 | AE | 123101 | 5 | 2 | DIARRHEA | Gastrointestinal disorders | SEVERE | N | DOSE NOT CHANGED | POSSIBLY RELATED | 2005-10-16 | 2005-10-17 |", "score": 0.6452, "match_basis": "verbatim_token+domain_route:AE"}], "candidate_count": 5, "zero_candidate": false}
{"pdf_atom_id": "ig34_p0141_a015", "pdf_atom_type": "SENTENCE", "pdf_source": "SDTMIG_v3.4", "pdf_page": 141, "pdf_parent_section": "§6.2.1 [Adverse Events (AE)]", "pdf_verbatim": "Example 3", "figure_ref": null, "candidates": [{"md_atom_id": "md_dmAE_ex_a002", "md_file": "knowledge_base/domains/AE/examples.md", "md_atom_type": "HEADING", "md_parent_section": "§AE.1 [Example 1]", "md_verbatim": "## Example 1", "score": 0.76, "match_basis": "verbatim_token+domain_route:AE"}, {"md_atom_id": "md_dmAE_ex_a020", "md_file": "knowledge_base/domains/AE/examples.md", "md_atom_type": "HEADING", "md_parent_section": "§AE.2 [Example 2]", "md_verbatim": "## Example 2", "score": 0.76, "match_basis": "verbatim_token+domain_route:AE"}, {"md_atom_id": "md_dmAE_ex_a035", "md_file": "knowledge_base/domains/AE/examples.md", "md_atom_type": "HEADING", "md_parent_section": "§AE.3 [Example 3]", "md_verbatim": "## Example 3", "score": 0.76, "match_basis": "verbatim_token+domain_route:AE"}, {"md_atom_id": "md_dmAE_ex_a049", "md_file": "knowledge_base/domains/AE/examples.md", "md_atom_type": "HEADING", "md_parent_section": "§AE.4 [Example 4]", "md_verbatim": "## Example 4", "score": 0.76, "match_basis": "verbatim_token+domain_route:AE"}, {"md_atom_id": "md_dmAE_ex_a063", "md_file": "knowledge_base/domains/AE/examples.md", "md_atom_type": "HEADING", "md_parent_section": "§AE.5 [Example 5]", "md_verbatim": "## Example 5", "score": 0.76, "match_basis": "verbatim_token+domain_route:AE"}, {"md_atom_id": "md_dmAE_ex_a082", "md_file": "knowledge_base/domains/AE/examples.md", "md_atom_type": "HEADING", "md_parent_section": "§AE.6 [Example 6]", "md_verbatim": "## Example 6", "score": 0.76, "match_basis": "verbatim_token+domain_route:AE"}, {"md_atom_id": "md_dmAE_ex_a001", "md_file": "knowledge_base/domains/AE/examples.md", "md_atom_type": "HEADING", "md_parent_section": "§AE [AE — Examples]", "md_verbatim": "# AE — Examples", "score": 0.66, "match_basis": "verbatim_token+domain_route:AE"}, {"md_atom_id": "md_dmAE_ex_a043", "md_file": "knowledge_base/domains/AE/examples.md", "md_atom_type": "SENTENCE", "md_parent_section": "§AE.3 [Example 3]", "md_verbatim": "The subject shown in this example experienced nausea and vomiting.", "score": 0.4833, "match_basis": "verbatim_token+domain_route:AE"}, {"md_atom_id": "md_dmAE_ex_a003", "md_file": "knowledge_base/domains/AE/examples.md", "md_atom_type": "SENTENCE", "md_parent_section": "§AE.1 [Example 1]", "md_verbatim": "This example illustrates data from an AE CRF that collected AE terms as free text.", "score": 0.4811, "match_basis": "verbatim_token+domain_route:AE"}, {"md_atom_id": "md_dmAE_ex_a008", "md_file": "knowledge_base/domains/AE/examples.md", "md_atom_type": "SENTENCE", "md_parent_section": "§AE.1 [Example 1]", "md_verbatim": "**Rows 1-2:** Show examples of modifying the reported term for coding purposes, with the modified term in AEMODIFY.", "score": 0.4714, "match_basis": "verbatim_token+domain_route:AE"}], "candidate_count": 10, "zero_candidate": false}
{"pdf_atom_id": "ig34_p0141_a016", "pdf_atom_type": "SENTENCE", "pdf_source": "SDTMIG_v3.4", "pdf_page": 141, "pdf_parent_section": "§6.2.1 [Adverse Events (AE)]", "pdf_verbatim": "In this example, a CRF module that asked whether or not nausea, vomiting, or diarrhea occurred was included in the study only once. In the context of this study, the conditions that occurred were reportable as adverse events. No additional data about these events was collected. No other AE information was collected via general questions. The responses to the probing questions \"Yes\", \"No\", or \"Not Done\" were represented in the FA domain (see Section 6.4, Findings About Events or Interventions). This is an example of unusually sparse AE data collection; the AE dataset is populated with the term and the flag indicating that it was prespecified, but timing information is limited to the date of collection, and other expected qualifiers are not available. RELREC may be used to relate AE records and FA records.", "figure_ref": null, "candidates": [{"md_atom_id": "md_dmAE_ex_a041", "md_file": "knowledge_base/domains/AE/examples.md", "md_atom_type": "SENTENCE", "md_parent_section": "§AE.3 [Example 3]", "md_verbatim": "This is an example of unusually sparse AE data collection; the AE dataset is populated with the term and the flag indicating that it was prespecified, but timing information is limited to the date of collection, and other expected qualifiers are not available.", "score": 0.6688, "match_basis": "verbatim_token+domain_route:AE"}, {"md_atom_id": "md_dmAE_ex_a036", "md_file": "knowledge_base/domains/AE/examples.md", "md_atom_type": "SENTENCE", "md_parent_section": "§AE.3 [Example 3]", "md_verbatim": "In this example, a CRF module that asked whether or not nausea, vomiting, or diarrhea occurred was included in the study only once.", "score": 0.5602, "match_basis": "verbatim_token+domain_route:AE"}, {"md_atom_id": "md_dmAE_ex_a022", "md_file": "knowledge_base/domains/AE/examples.md", "md_atom_type": "SENTENCE", "md_parent_section": "§AE.2 [Example 2]", "md_verbatim": "The responses to the probing questions \"Yes\", \"No\", or \"Not Done\" were represented in the Findings About (FA) domain (see Section 6.4, Findings About Events and Interventions).", "score": 0.5575, "match_basis": "verbatim_token+domain_route:AE"}, {"md_atom_id": "md_dmAE_ex_a040", "md_file": "knowledge_base/domains/AE/examples.md", "md_atom_type": "SENTENCE", "md_parent_section": "§AE.3 [Example 3]", "md_verbatim": "The responses to the probing questions \"Yes\", \"No\", or \"Not Done\" were represented in the FA domain (see Section 6.4, Findings About Events and Interventions).", "score": 0.5575, "match_basis": "verbatim_token+domain_route:AE"}, {"md_atom_id": "md_dmAE_ex_a021", "md_file": "knowledge_base/domains/AE/examples.md", "md_atom_type": "SENTENCE", "md_parent_section": "§AE.2 [Example 2]", "md_verbatim": "In this example, a CRF module included at several visits asked whether nausea, vomiting, or diarrhea occurred.", "score": 0.5381, "match_basis": "verbatim_token+domain_route:AE"}], "candidate_count": 5, "zero_candidate": false}
{"pdf_atom_id": "ig34_p0141_a017", "pdf_atom_type": "SENTENCE", "pdf_source": "SDTMIG_v3.4", "pdf_page": 141, "pdf_parent_section": "§6.2.1 [Adverse Events (AE)]", "pdf_verbatim": "The subject shown in this example experienced nausea and vomiting. The subject did not experience diarrhea, so no record for that term exists in the AE dataset.", "figure_ref": null, "candidates": [{"md_atom_id": "md_dmAE_ex_a028", "md_file": "knowledge_base/domains/AE/examples.md", "md_atom_type": "SENTENCE", "md_parent_section": "§AE.2 [Example 2]", "md_verbatim": "The subject did not experience diarrhea, so no record for that term exists in the AE dataset.", "score": 0.7871, "match_basis": "verbatim_token+domain_route:AE"}, {"md_atom_id": "md_dmAE_ex_a044", "md_file": "knowledge_base/domains/AE/examples.md", "md_atom_type": "SENTENCE", "md_parent_section": "§AE.3 [Example 3]", "md_verbatim": "The subject did not experience diarrhea, so no record for that term exists in the AE dataset.", "score": 0.7871, "match_basis": "verbatim_token+domain_route:AE"}, {"md_atom_id": "md_dmAE_ex_a043", "md_file": "knowledge_base/domains/AE/examples.md", "md_atom_type": "SENTENCE", "md_parent_section": "§AE.3 [Example 3]", "md_verbatim": "The subject shown in this example experienced nausea and vomiting.", "score": 0.7484, "match_basis": "verbatim_token+domain_route:AE"}, {"md_atom_id": "md_dmAE_ex_a036", "md_file": "knowledge_base/domains/AE/examples.md", "md_atom_type": "SENTENCE", "md_parent_section": "§AE.3 [Example 3]", "md_verbatim": "In this example, a CRF module that asked whether or not nausea, vomiting, or diarrhea occurred was included in the study only once.", "score": 0.5806, "match_basis": "verbatim_token+domain_route:AE"}, {"md_atom_id": "md_dmAE_ex_a021", "md_file": "knowledge_base/domains/AE/examples.md", "md_atom_type": "SENTENCE", "md_parent_section": "§AE.2 [Example 2]", "md_verbatim": "In this example, a CRF module included at several visits asked whether nausea, vomiting, or diarrhea occurred.", "score": 0.5516, "match_basis": "verbatim_token+domain_route:AE"}], "candidate_count": 5, "zero_candidate": false}
{"pdf_atom_id": "ig34_p0141_a018", "pdf_atom_type": "CODE_LITERAL", "pdf_source": "SDTMIG_v3.4", "pdf_page": 141, "pdf_parent_section": "§6.2.1 [Adverse Events (AE)]", "pdf_verbatim": "ae.xpt", "figure_ref": null, "candidates": [{"md_atom_id": "md_dmAE_ex_a015", "md_file": "knowledge_base/domains/AE/examples.md", "md_atom_type": "SENTENCE", "md_parent_section": "§AE.1 [Example 1]", "md_verbatim": "**ae.xpt**", "score": 0.79, "match_basis": "verbatim_token+domain_route:AE"}, {"md_atom_id": "md_dmAE_ex_a030", "md_file": "knowledge_base/domains/AE/examples.md", "md_atom_type": "SENTENCE", "md_parent_section": "§AE.2 [Example 2]", "md_verbatim": "**ae.xpt**", "score": 0.79, "match_basis": "verbatim_token+domain_route:AE"}, {"md_atom_id": "md_dmAE_ex_a045", "md_file": "knowledge_base/domains/AE/examples.md", "md_atom_type": "SENTENCE", "md_parent_section": "§AE.3 [Example 3]", "md_verbatim": "**ae.xpt**", "score": 0.79, "match_basis": "verbatim_token+domain_route:AE"}, {"md_atom_id": "md_dmAE_ex_a055", "md_file": "knowledge_base/domains/AE/examples.md", "md_atom_type": "SENTENCE", "md_parent_section": "§AE.4 [Example 4]", "md_verbatim": "**ae.xpt**", "score": 0.79, "match_basis": "verbatim_token+domain_route:AE"}, {"md_atom_id": "md_dmAE_ex_a078", "md_file": "knowledge_base/domains/AE/examples.md", "md_atom_type": "SENTENCE", "md_parent_section": "§AE.5 [Example 5]", "md_verbatim": "**ae.xpt**", "score": 0.79, "match_basis": "verbatim_token+domain_route:AE"}, {"md_atom_id": "md_dmAE_ex_a094", "md_file": "knowledge_base/domains/AE/examples.md", "md_atom_type": "SENTENCE", "md_parent_section": "§AE.6 [Example 6]", "md_verbatim": "**ae.xpt**", "score": 0.79, "match_basis": "verbatim_token+domain_route:AE"}, {"md_atom_id": "md_dmAE_assn_a001", "md_file": "knowledge_base/domains/AE/assumptions.md", "md_atom_type": "HEADING", "md_parent_section": "§AE [AE — Assumptions]", "md_verbatim": "# AE — Assumptions", "score": 0.19, "match_basis": "verbatim_token+domain_route:AE"}, {"md_atom_id": "md_dmAE_assn_a002", "md_file": "knowledge_base/domains/AE/assumptions.md", "md_atom_type": "LIST_ITEM", "md_parent_section": "§AE [AE — Assumptions]", "md_verbatim": "1. The Adverse Events dataset includes clinical data describing \"any untoward medical occurrence in a patient or clinical investigation subject administered a pharmaceutical product and which does not necessarily have to have a causal relationship with this treatment\" (ICH E2A). In consultation with regulatory authorities, sponsors may extend or limit the scope of adverse event collection (e.g., collecting pre-treatment events related to trial conduct, not collecting events that are assessed as efficacy endpoints). The events included in the AE dataset should be consistent with the protocol requirements. Adverse events may be captured either as free text or via a prespecified list of terms.", "score": 0.19, "match_basis": "verbatim_token+domain_route:AE"}, {"md_atom_id": "md_dmAE_assn_a003", "md_file": "knowledge_base/domains/AE/assumptions.md", "md_atom_type": "LIST_ITEM", "md_parent_section": "§AE [AE — Assumptions]", "md_verbatim": "2. **AE description and coding**", "score": 0.19, "match_basis": "verbatim_token+domain_route:AE"}, {"md_atom_id": "md_dmAE_assn_a004", "md_file": "knowledge_base/domains/AE/assumptions.md", "md_atom_type": "LIST_ITEM", "md_parent_section": "§AE [AE — Assumptions]", "md_verbatim": "   a. AETERM captures the verbatim term collected for the event. It is the topic variable for the AE dataset. AETERM is a required variable and must have a value.", "score": 0.19, "match_basis": "verbatim_token+domain_route:AE"}], "candidate_count": 10, "zero_candidate": false}
{"pdf_atom_id": "ig34_p0141_a019", "pdf_atom_type": "TABLE_HEADER", "pdf_source": "SDTMIG_v3.4", "pdf_page": 141, "pdf_parent_section": "§6.2.1 [Adverse Events (AE)]", "pdf_verbatim": "| Row | STUDYID | DOMAIN | USUBJID | AESEQ | AETERM | AEDECOD | AEPRESP | AEBODSYS | AESER | AEACN | AEREL | AEDTC | AESTDTC | AEENDTC | AEDY |", "figure_ref": null, "candidates": [{"md_atom_id": "md_dmAE_ex_a031", "md_file": "knowledge_base/domains/AE/examples.md", "md_atom_type": "TABLE_HEADER", "md_parent_section": "§AE.2 [Example 2]", "md_verbatim": "| Row | STUDYID | DOMAIN | USUBJID | AESEQ | AETERM | AEDECOD | AEPRESP | AEBODSYS | AESEV | AESER | AEACN | AEREL | AEOUT | EPOCH | AESTDTC | AEENDTC | AESTDY | AEENDY |\n|-----|---------|--------|---------|-------|--------|---------|---------|----------|-------|-------|-------|-------|-------|-------|---------|---------|--------|--------|", "score": 0.8969, "match_basis": "verbatim_token+domain_route:AE"}, {"md_atom_id": "md_dmAE_ex_a046", "md_file": "knowledge_base/domains/AE/examples.md", "md_atom_type": "TABLE_HEADER", "md_parent_section": "§AE.3 [Example 3]", "md_verbatim": "| Row | STUDYID | DOMAIN | USUBJID | AESEQ | AETERM | AEDECOD | AEPRESP | AEBODSYS | AESER | AEDTC | AESTDY |\n|-----|---------|--------|---------|-------|--------|---------|---------|----------|-------|-------|--------|", "score": 0.8607, "match_basis": "verbatim_token+domain_route:AE"}, {"md_atom_id": "md_dmAE_ex_a056", "md_file": "knowledge_base/domains/AE/examples.md", "md_atom_type": "TABLE_HEADER", "md_parent_section": "§AE.4 [Example 4]", "md_verbatim": "| Row | STUDYID | DOMAIN | USUBJID | AESEQ | AEGRPID | AETERM | AEBODSYS | AESEV | AESER | AEACN | AEREL | AESTDTC | AEENDTC |\n|-----|---------|--------|---------|-------|---------|--------|----------|-------|-------|-------|-------|---------|---------|", "score": 0.823, "match_basis": "verbatim_token+domain_route:AE"}, {"md_atom_id": "md_dmAE_ex_a016", "md_file": "knowledge_base/domains/AE/examples.md", "md_atom_type": "TABLE_HEADER", "md_parent_section": "§AE.1 [Example 1]", "md_verbatim": "| Row | STUDYID | DOMAIN | USUBJID | AESEQ | AETERM | AEMODIFY | AEDECOD | AEBODSYS | AESEV | AESER | AEACN | AEREL | AEOUT | AESCONG | AESDISAB | AESDTH | AESHOSP | AESLIFE | AESMIE | EPOCH | AESTDTC | AEENDTC | AESTDY | AEENDY | AEENRF |\n|-----|---------|--------|---------|-------|--------|----------|---------|----------|-------|-------|-------|-------|-------|---------|----------|--------|---------|---------|--------|-------|---------|---------|--------|--------|--------|", "score": 0.7064, "match_basis": "verbatim_token+domain_route:AE"}, {"md_atom_id": "md_dmAE_ex_a095", "md_file": "knowledge_base/domains/AE/examples.md", "md_atom_type": "TABLE_HEADER", "md_parent_section": "§AE.6 [Example 6]", "md_verbatim": "| Row | STUDYID | DOMAIN | USUBJID | SPDEVID | AESEQ | AESPID | AETERM | AEDECOD | AESER | AESEV | AEACNDEV | AERLDEV | AEOUT | AESCONG | AESDISAB | AESDTH | AESHOSP | AESLIFE | AESMIE | AESINTV | AESTDTC | AEENDTC | AESTDY | AEENDY |\n|-----|---------|--------|---------|---------|-------|--------|--------|---------|-------|-------|----------|---------|-------|---------|----------|--------|---------|---------|--------|---------|---------|---------|--------|--------|", "score": 0.6485, "match_basis": "verbatim_token+domain_route:AE"}], "candidate_count": 5, "zero_candidate": false}
{"pdf_atom_id": "ig34_p0141_a020", "pdf_atom_type": "TABLE_ROW", "pdf_source": "SDTMIG_v3.4", "pdf_page": 141, "pdf_parent_section": "§6.2.1 [Adverse Events (AE)]", "pdf_verbatim": "| 1 | ABC123 | AE | 123101 | 1 | NAUSEA | Nausea | Y | Gastrointestinal disorders | | | | 2005-10-29 | | | 19 |", "figure_ref": null, "candidates": [{"md_atom_id": "md_dmAE_ex_a047", "md_file": "knowledge_base/domains/AE/examples.md", "md_atom_type": "TABLE_ROW", "md_parent_section": "§AE.3 [Example 3]", "md_verbatim": "| 1 | ABC123 | AE | 123101 | 1 | NAUSEA | Nausea | Y | Gastrointestinal disorders | | 2005-10-29 | 19 |", "score": 1.0, "match_basis": "verbatim_token+domain_route:AE"}, {"md_atom_id": "md_dmAE_ex_a048", "md_file": "knowledge_base/domains/AE/examples.md", "md_atom_type": "TABLE_ROW", "md_parent_section": "§AE.3 [Example 3]", "md_verbatim": "| 2 | ABC123 | AE | 123101 | 2 | VOMITING | Vomiting | Y | Gastrointestinal disorders | | 2005-10-29 | 19 |", "score": 0.8615, "match_basis": "verbatim_token+domain_route:AE"}, {"md_atom_id": "md_dmAE_ex_a057", "md_file": "knowledge_base/domains/AE/examples.md", "md_atom_type": "TABLE_ROW", "md_parent_section": "§AE.4 [Example 4]", "md_verbatim": "| 1 | ABC123 | AE | 123101 | 1 | | NAUSEA | Gastrointestinal disorders | MODERATE | N | DOSE NOT CHANGED | RELATED | 2005-10-13 | 2005-10-14 |", "score": 0.8, "match_basis": "verbatim_token+domain_route:AE"}, {"md_atom_id": "md_dmAE_ex_a032", "md_file": "knowledge_base/domains/AE/examples.md", "md_atom_type": "TABLE_ROW", "md_parent_section": "§AE.2 [Example 2]", "md_verbatim": "| 1 | ABC123 | AE | 123101 | 1 | NAUSEA | Nausea | Y | Gastrointestinal disorders | SEVERE | N | DOSE REDUCED | RELATED | RECOVERED/RESOLVED | TREATMENT | 2005-10-12 | 2005-10-13 | 2 | 3 |", "score": 0.7045, "match_basis": "verbatim_token+domain_route:AE"}, {"md_atom_id": "md_dmAE_ex_a058", "md_file": "knowledge_base/domains/AE/examples.md", "md_atom_type": "TABLE_ROW", "md_parent_section": "§AE.4 [Example 4]", "md_verbatim": "| 2 | ABC123 | AE | 123101 | 2 | 1 | VOMITING | Gastrointestinal disorders | MILD | N | DOSE NOT CHANGED | POSSIBLY RELATED | 2005-10-14 | 2005-10-15 |", "score": 0.7, "match_basis": "verbatim_token+domain_route:AE"}], "candidate_count": 5, "zero_candidate": false}
{"pdf_atom_id": "ig34_p0141_a021", "pdf_atom_type": "TABLE_ROW", "pdf_source": "SDTMIG_v3.4", "pdf_page": 141, "pdf_parent_section": "§6.2.1 [Adverse Events (AE)]", "pdf_verbatim": "| 2 | ABC123 | AE | 123101 | 2 | VOMITING | Vomiting | Y | Gastrointestinal disorders | | | | 2005-10-29 | | | 19 |", "figure_ref": null, "candidates": [{"md_atom_id": "md_dmAE_ex_a048", "md_file": "knowledge_base/domains/AE/examples.md", "md_atom_type": "TABLE_ROW", "md_parent_section": "§AE.3 [Example 3]", "md_verbatim": "| 2 | ABC123 | AE | 123101 | 2 | VOMITING | Vomiting | Y | Gastrointestinal disorders | | 2005-10-29 | 19 |", "score": 1.0, "match_basis": "verbatim_token+domain_route:AE"}, {"md_atom_id": "md_dmAE_ex_a047", "md_file": "knowledge_base/domains/AE/examples.md", "md_atom_type": "TABLE_ROW", "md_parent_section": "§AE.3 [Example 3]", "md_verbatim": "| 1 | ABC123 | AE | 123101 | 1 | NAUSEA | Nausea | Y | Gastrointestinal disorders | | 2005-10-29 | 19 |", "score": 0.8615, "match_basis": "verbatim_token+domain_route:AE"}, {"md_atom_id": "md_dmAE_ex_a058", "md_file": "knowledge_base/domains/AE/examples.md", "md_atom_type": "TABLE_ROW", "md_parent_section": "§AE.4 [Example 4]", "md_verbatim": "| 2 | ABC123 | AE | 123101 | 2 | 1 | VOMITING | Gastrointestinal disorders | MILD | N | DOSE NOT CHANGED | POSSIBLY RELATED | 2005-10-14 | 2005-10-15 |", "score": 0.775, "match_basis": "verbatim_token+domain_route:AE"}, {"md_atom_id": "md_dmAE_ex_a060", "md_file": "knowledge_base/domains/AE/examples.md", "md_atom_type": "TABLE_ROW", "md_parent_section": "§AE.4 [Example 4]", "md_verbatim": "| 4 | ABC123 | AE | 123101 | 4 | 1 | VOMITING | Gastrointestinal disorders | MILD | N | DOSE NOT CHANGED | POSSIBLY RELATED | 2005-10-17 | 2005-10-20 |", "score": 0.775, "match_basis": "verbatim_token+domain_route:AE"}, {"md_atom_id": "md_dmAE_ex_a059", "md_file": "knowledge_base/domains/AE/examples.md", "md_atom_type": "TABLE_ROW", "md_parent_section": "§AE.4 [Example 4]", "md_verbatim": "| 3 | ABC123 | AE | 123101 | 3 | 1 | VOMITING | Gastrointestinal disorders | SEVERE | N | DOSE NOT CHANGED | POSSIBLY RELATED | 2005-10-16 | 2005-10-17 |", "score": 0.7621, "match_basis": "verbatim_token+domain_route:AE"}], "candidate_count": 5, "zero_candidate": false}
{"pdf_atom_id": "ig34_p0141_a022", "pdf_atom_type": "SENTENCE", "pdf_source": "SDTMIG_v3.4", "pdf_page": 141, "pdf_parent_section": "§6.2.1 [Adverse Events (AE)]", "pdf_verbatim": "Example 4", "figure_ref": null, "candidates": [{"md_atom_id": "md_dmAE_ex_a002", "md_file": "knowledge_base/domains/AE/examples.md", "md_atom_type": "HEADING", "md_parent_section": "§AE.1 [Example 1]", "md_verbatim": "## Example 1", "score": 0.76, "match_basis": "verbatim_token+domain_route:AE"}, {"md_atom_id": "md_dmAE_ex_a020", "md_file": "knowledge_base/domains/AE/examples.md", "md_atom_type": "HEADING", "md_parent_section": "§AE.2 [Example 2]", "md_verbatim": "## Example 2", "score": 0.76, "match_basis": "verbatim_token+domain_route:AE"}, {"md_atom_id": "md_dmAE_ex_a035", "md_file": "knowledge_base/domains/AE/examples.md", "md_atom_type": "HEADING", "md_parent_section": "§AE.3 [Example 3]", "md_verbatim": "## Example 3", "score": 0.76, "match_basis": "verbatim_token+domain_route:AE"}, {"md_atom_id": "md_dmAE_ex_a049", "md_file": "knowledge_base/domains/AE/examples.md", "md_atom_type": "HEADING", "md_parent_section": "§AE.4 [Example 4]", "md_verbatim": "## Example 4", "score": 0.76, "match_basis": "verbatim_token+domain_route:AE"}, {"md_atom_id": "md_dmAE_ex_a063", "md_file": "knowledge_base/domains/AE/examples.md", "md_atom_type": "HEADING", "md_parent_section": "§AE.5 [Example 5]", "md_verbatim": "## Example 5", "score": 0.76, "match_basis": "verbatim_token+domain_route:AE"}, {"md_atom_id": "md_dmAE_ex_a082", "md_file": "knowledge_base/domains/AE/examples.md", "md_atom_type": "HEADING", "md_parent_section": "§AE.6 [Example 6]", "md_verbatim": "## Example 6", "score": 0.76, "match_basis": "verbatim_token+domain_route:AE"}, {"md_atom_id": "md_dmAE_ex_a001", "md_file": "knowledge_base/domains/AE/examples.md", "md_atom_type": "HEADING", "md_parent_section": "§AE [AE — Examples]", "md_verbatim": "# AE — Examples", "score": 0.66, "match_basis": "verbatim_token+domain_route:AE"}, {"md_atom_id": "md_dmAE_ex_a043", "md_file": "knowledge_base/domains/AE/examples.md", "md_atom_type": "SENTENCE", "md_parent_section": "§AE.3 [Example 3]", "md_verbatim": "The subject shown in this example experienced nausea and vomiting.", "score": 0.4833, "match_basis": "verbatim_token+domain_route:AE"}, {"md_atom_id": "md_dmAE_ex_a003", "md_file": "knowledge_base/domains/AE/examples.md", "md_atom_type": "SENTENCE", "md_parent_section": "§AE.1 [Example 1]", "md_verbatim": "This example illustrates data from an AE CRF that collected AE terms as free text.", "score": 0.4811, "match_basis": "verbatim_token+domain_route:AE"}, {"md_atom_id": "md_dmAE_ex_a008", "md_file": "knowledge_base/domains/AE/examples.md", "md_atom_type": "SENTENCE", "md_parent_section": "§AE.1 [Example 1]", "md_verbatim": "**Rows 1-2:** Show examples of modifying the reported term for coding purposes, with the modified term in AEMODIFY.", "score": 0.4714, "match_basis": "verbatim_token+domain_route:AE"}], "candidate_count": 10, "zero_candidate": false}
{"pdf_atom_id": "ig34_p0141_a023", "pdf_atom_type": "SENTENCE", "pdf_source": "SDTMIG_v3.4", "pdf_page": 141, "pdf_parent_section": "§6.2.1 [Adverse Events (AE)]", "pdf_verbatim": "In this example, the investigator was instructed to create a new AE record each time the severity of an adverse event changed. The sponsor used AEGRPID to identify the group of records related to a single event for a subject.", "figure_ref": null, "candidates": [{"md_atom_id": "md_dmAE_ex_a050", "md_file": "knowledge_base/domains/AE/examples.md", "md_atom_type": "SENTENCE", "md_parent_section": "§AE.4 [Example 4]", "md_verbatim": "In this example, the investigator was instructed to create a new AE record each time the severity of an adverse event changed.", "score": 0.7758, "match_basis": "verbatim_token+domain_route:AE"}, {"md_atom_id": "md_dmAE_ex_a051", "md_file": "knowledge_base/domains/AE/examples.md", "md_atom_type": "SENTENCE", "md_parent_section": "§AE.4 [Example 4]", "md_verbatim": "The sponsor used AEGRPID to identify the group of records related to a single event for a subject.", "score": 0.6901, "match_basis": "verbatim_token+domain_route:AE"}, {"md_atom_id": "md_dmAE_ex_a053", "md_file": "knowledge_base/domains/AE/examples.md", "md_atom_type": "SENTENCE", "md_parent_section": "§AE.4 [Example 4]", "md_verbatim": "**Rows 2-4:** Show AEGRPID used to group records related to a single event of \"VOMITING\".", "score": 0.562, "match_basis": "verbatim_token+domain_route:AE"}, {"md_atom_id": "md_dmAE_ex_a054", "md_file": "knowledge_base/domains/AE/examples.md", "md_atom_type": "SENTENCE", "md_parent_section": "§AE.4 [Example 4]", "md_verbatim": "**Rows 5-6:** Show AEGRPID used to group records related to a single event of \"DIARRHEA\".", "score": 0.5604, "match_basis": "verbatim_token+domain_route:AE"}, {"md_atom_id": "md_dmAE_ex_a023", "md_file": "knowledge_base/domains/AE/examples.md", "md_atom_type": "SENTENCE", "md_parent_section": "§AE.2 [Example 2]", "md_verbatim": "If \"Yes\", the investigator was instructed to complete the AE CRF.", "score": 0.5361, "match_basis": "verbatim_token+domain_route:AE"}], "candidate_count": 5, "zero_candidate": false}
{"pdf_atom_id": "ig34_p0141_a024", "pdf_atom_type": "LIST_ITEM", "pdf_source": "SDTMIG_v3.4", "pdf_page": 141, "pdf_parent_section": "§6.2.1 [Adverse Events (AE)]", "pdf_verbatim": "Row 1: Shows an adverse event of nausea, for which severity was moderate.", "figure_ref": null, "candidates": [{"md_atom_id": "md_dmAE_ex_a052", "md_file": "knowledge_base/domains/AE/examples.md", "md_atom_type": "SENTENCE", "md_parent_section": "§AE.4 [Example 4]", "md_verbatim": "**Row 1:** Shows an adverse event of nausea, for which severity was moderate.", "score": 0.91, "match_basis": "verbatim_token+domain_route:AE"}, {"md_atom_id": "md_dmAE_assn_a036", "md_file": "knowledge_base/domains/AE/assumptions.md", "md_atom_type": "LIST_ITEM", "md_parent_section": "§AE [AE — Assumptions]", "md_verbatim": "      ii. One record per adverse event per subject. Changes over time in severity, causality, or seriousness are submitted as separate events. Alternatively, these changes may be submitted in a separate dataset based on the Findings About Events and Interventions model (see Section 6.4, Findings About Events or Interventions).", "score": 0.4857, "match_basis": "verbatim_token+domain_route:AE"}, {"md_atom_id": "md_dmAE_assn_a035", "md_file": "knowledge_base/domains/AE/assumptions.md", "md_atom_type": "LIST_ITEM", "md_parent_section": "§AE [AE — Assumptions]", "md_verbatim": "      i. One record per adverse event per subject for each unique event. Multiple adverse event records reported by the investigator are submitted as summary records \"collapsed\" to the highest level of severity, causality, seriousness, and the final outcome.", "score": 0.4712, "match_basis": "verbatim_token+domain_route:AE"}, {"md_atom_id": "md_dmAE_ex_a090", "md_file": "knowledge_base/domains/AE/examples.md", "md_atom_type": "SENTENCE", "md_parent_section": "§AE.6 [Example 6]", "md_verbatim": "**Row 2:** Shows an adverse event of infection at the sensor site.", "score": 0.47, "match_basis": "verbatim_token+domain_route:AE"}, {"md_atom_id": "md_dmAE_assn_a031", "md_file": "knowledge_base/domains/AE/assumptions.md", "md_atom_type": "LIST_ITEM", "md_parent_section": "§AE [AE — Assumptions]", "md_verbatim": "   b. The serious categories \"Involves cancer\" (AESCAN) and \"Occurred with overdose\" (AESOD) are not part of the ICH definition of a serious adverse event, but these categories are available for use in studies conducted under guidelines that existed prior to the FDA's adoption of the ICH definition.", "score": 0.4656, "match_basis": "verbatim_token+domain_route:AE"}], "candidate_count": 5, "zero_candidate": false}
{"pdf_atom_id": "ig34_p0141_a025", "pdf_atom_type": "LIST_ITEM", "pdf_source": "SDTMIG_v3.4", "pdf_page": 141, "pdf_parent_section": "§6.2.1 [Adverse Events (AE)]", "pdf_verbatim": "Rows 2-4: Show AEGRPID used to group records related to a single event of \"VOMITING\".", "figure_ref": null, "candidates": [{"md_atom_id": "md_dmAE_ex_a053", "md_file": "knowledge_base/domains/AE/examples.md", "md_atom_type": "SENTENCE", "md_parent_section": "§AE.4 [Example 4]", "md_verbatim": "**Rows 2-4:** Show AEGRPID used to group records related to a single event of \"VOMITING\".", "score": 0.91, "match_basis": "verbatim_token+domain_route:AE"}, {"md_atom_id": "md_dmAE_ex_a054", "md_file": "knowledge_base/domains/AE/examples.md", "md_atom_type": "SENTENCE", "md_parent_section": "§AE.4 [Example 4]", "md_verbatim": "**Rows 5-6:** Show AEGRPID used to group records related to a single event of \"DIARRHEA\".", "score": 0.7529, "match_basis": "verbatim_token+domain_route:AE"}, {"md_atom_id": "md_dmAE_ex_a051", "md_file": "knowledge_base/domains/AE/examples.md", "md_atom_type": "SENTENCE", "md_parent_section": "§AE.4 [Example 4]", "md_verbatim": "The sponsor used AEGRPID to identify the group of records related to a single event for a subject.", "score": 0.6157, "match_basis": "verbatim_token+domain_route:AE"}, {"md_atom_id": "md_dmAE_assn_a010", "md_file": "knowledge_base/domains/AE/assumptions.md", "md_atom_type": "LIST_ITEM", "md_parent_section": "§AE [AE — Assumptions]", "md_verbatim": "   b. AEGRPID may be used to link (or associate) different records together to form a block of related records at the subject level within the AE domain, see Section 4.2.6, Grouping Variables and Categorization.", "score": 0.5366, "match_basis": "verbatim_token+domain_route:AE"}, {"md_atom_id": "md_dmAE_ex_a026", "md_file": "knowledge_base/domains/AE/examples.md", "md_atom_type": "SENTENCE", "md_parent_section": "§AE.2 [Example 2]", "md_verbatim": "RELREC may be used to relate AE records and FA records.", "score": 0.475, "match_basis": "verbatim_token+domain_route:AE"}], "candidate_count": 5, "zero_candidate": false}
{"pdf_atom_id": "ig34_p0141_a026", "pdf_atom_type": "LIST_ITEM", "pdf_source": "SDTMIG_v3.4", "pdf_page": 141, "pdf_parent_section": "§6.2.1 [Adverse Events (AE)]", "pdf_verbatim": "Rows 5-6: Show AEGRPID used to group records related to a single event of \"DIARRHEA\".", "figure_ref": null, "candidates": [{"md_atom_id": "md_dmAE_ex_a054", "md_file": "knowledge_base/domains/AE/examples.md", "md_atom_type": "SENTENCE", "md_parent_section": "§AE.4 [Example 4]", "md_verbatim": "**Rows 5-6:** Show AEGRPID used to group records related to a single event of \"DIARRHEA\".", "score": 0.91, "match_basis": "verbatim_token+domain_route:AE"}, {"md_atom_id": "md_dmAE_ex_a053", "md_file": "knowledge_base/domains/AE/examples.md", "md_atom_type": "SENTENCE", "md_parent_section": "§AE.4 [Example 4]", "md_verbatim": "**Rows 2-4:** Show AEGRPID used to group records related to a single event of \"VOMITING\".", "score": 0.7529, "match_basis": "verbatim_token+domain_route:AE"}, {"md_atom_id": "md_dmAE_ex_a051", "md_file": "knowledge_base/domains/AE/examples.md", "md_atom_type": "SENTENCE", "md_parent_section": "§AE.4 [Example 4]", "md_verbatim": "The sponsor used AEGRPID to identify the group of records related to a single event for a subject.", "score": 0.61, "match_basis": "verbatim_token+domain_route:AE"}, {"md_atom_id": "md_dmAE_assn_a010", "md_file": "knowledge_base/domains/AE/assumptions.md", "md_atom_type": "LIST_ITEM", "md_parent_section": "§AE [AE — Assumptions]", "md_verbatim": "   b. AEGRPID may be used to link (or associate) different records together to form a block of related records at the subject level within the AE domain, see Section 4.2.6, Grouping Variables and Categorization.", "score": 0.5353, "match_basis": "verbatim_token+domain_route:AE"}, {"md_atom_id": "md_dmAE_ex_a026", "md_file": "knowledge_base/domains/AE/examples.md", "md_atom_type": "SENTENCE", "md_parent_section": "§AE.2 [Example 2]", "md_verbatim": "RELREC may be used to relate AE records and FA records.", "score": 0.471, "match_basis": "verbatim_token+domain_route:AE"}], "candidate_count": 5, "zero_candidate": false}
{"pdf_atom_id": "ig34_p0142_a001", "pdf_atom_type": "CODE_LITERAL", "pdf_source": "SDTMIG_v3.4", "pdf_page": 142, "pdf_parent_section": "§6.2.1 [Adverse Events (AE)]", "pdf_verbatim": "ae.xpt", "figure_ref": null, "candidates": [{"md_atom_id": "md_dmAE_ex_a015", "md_file": "knowledge_base/domains/AE/examples.md", "md_atom_type": "SENTENCE", "md_parent_section": "§AE.1 [Example 1]", "md_verbatim": "**ae.xpt**", "score": 0.79, "match_basis": "verbatim_token+domain_route:AE"}, {"md_atom_id": "md_dmAE_ex_a030", "md_file": "knowledge_base/domains/AE/examples.md", "md_atom_type": "SENTENCE", "md_parent_section": "§AE.2 [Example 2]", "md_verbatim": "**ae.xpt**", "score": 0.79, "match_basis": "verbatim_token+domain_route:AE"}, {"md_atom_id": "md_dmAE_ex_a045", "md_file": "knowledge_base/domains/AE/examples.md", "md_atom_type": "SENTENCE", "md_parent_section": "§AE.3 [Example 3]", "md_verbatim": "**ae.xpt**", "score": 0.79, "match_basis": "verbatim_token+domain_route:AE"}, {"md_atom_id": "md_dmAE_ex_a055", "md_file": "knowledge_base/domains/AE/examples.md", "md_atom_type": "SENTENCE", "md_parent_section": "§AE.4 [Example 4]", "md_verbatim": "**ae.xpt**", "score": 0.79, "match_basis": "verbatim_token+domain_route:AE"}, {"md_atom_id": "md_dmAE_ex_a078", "md_file": "knowledge_base/domains/AE/examples.md", "md_atom_type": "SENTENCE", "md_parent_section": "§AE.5 [Example 5]", "md_verbatim": "**ae.xpt**", "score": 0.79, "match_basis": "verbatim_token+domain_route:AE"}, {"md_atom_id": "md_dmAE_ex_a094", "md_file": "knowledge_base/domains/AE/examples.md", "md_atom_type": "SENTENCE", "md_parent_section": "§AE.6 [Example 6]", "md_verbatim": "**ae.xpt**", "score": 0.79, "match_basis": "verbatim_token+domain_route:AE"}, {"md_atom_id": "md_dmAE_assn_a001", "md_file": "knowledge_base/domains/AE/assumptions.md", "md_atom_type": "HEADING", "md_parent_section": "§AE [AE — Assumptions]", "md_verbatim": "# AE — Assumptions", "score": 0.19, "match_basis": "verbatim_token+domain_route:AE"}, {"md_atom_id": "md_dmAE_assn_a002", "md_file": "knowledge_base/domains/AE/assumptions.md", "md_atom_type": "LIST_ITEM", "md_parent_section": "§AE [AE — Assumptions]", "md_verbatim": "1. The Adverse Events dataset includes clinical data describing \"any untoward medical occurrence in a patient or clinical investigation subject administered a pharmaceutical product and which does not necessarily have to have a causal relationship with this treatment\" (ICH E2A). In consultation with regulatory authorities, sponsors may extend or limit the scope of adverse event collection (e.g., collecting pre-treatment events related to trial conduct, not collecting events that are assessed as efficacy endpoints). The events included in the AE dataset should be consistent with the protocol requirements. Adverse events may be captured either as free text or via a prespecified list of terms.", "score": 0.19, "match_basis": "verbatim_token+domain_route:AE"}, {"md_atom_id": "md_dmAE_assn_a003", "md_file": "knowledge_base/domains/AE/assumptions.md", "md_atom_type": "LIST_ITEM", "md_parent_section": "§AE [AE — Assumptions]", "md_verbatim": "2. **AE description and coding**", "score": 0.19, "match_basis": "verbatim_token+domain_route:AE"}, {"md_atom_id": "md_dmAE_assn_a004", "md_file": "knowledge_base/domains/AE/assumptions.md", "md_atom_type": "LIST_ITEM", "md_parent_section": "§AE [AE — Assumptions]", "md_verbatim": "   a. AETERM captures the verbatim term collected for the event. It is the topic variable for the AE dataset. AETERM is a required variable and must have a value.", "score": 0.19, "match_basis": "verbatim_token+domain_route:AE"}], "candidate_count": 10, "zero_candidate": false}
{"pdf_atom_id": "ig34_p0142_a002", "pdf_atom_type": "TABLE_HEADER", "pdf_source": "SDTMIG_v3.4", "pdf_page": 142, "pdf_parent_section": "§6.2.1 [Adverse Events (AE)]", "pdf_verbatim": "| Row | STUDYID | DOMAIN | USUBJID | AESEQ | AEGRPID | AETERM | AEBODSYS | AESEV | AESER | AEACN | AEREL | AESTDTC | AEENDTC |", "figure_ref": null, "candidates": [{"md_atom_id": "md_dmAE_ex_a056", "md_file": "knowledge_base/domains/AE/examples.md", "md_atom_type": "TABLE_HEADER", "md_parent_section": "§AE.4 [Example 4]", "md_verbatim": "| Row | STUDYID | DOMAIN | USUBJID | AESEQ | AEGRPID | AETERM | AEBODSYS | AESEV | AESER | AEACN | AEREL | AESTDTC | AEENDTC |\n|-----|---------|--------|---------|-------|---------|--------|----------|-------|-------|-------|-------|---------|---------|", "score": 1.0, "match_basis": "verbatim_token+domain_route:AE"}, {"md_atom_id": "md_dmAE_ex_a031", "md_file": "knowledge_base/domains/AE/examples.md", "md_atom_type": "TABLE_HEADER", "md_parent_section": "§AE.2 [Example 2]", "md_verbatim": "| Row | STUDYID | DOMAIN | USUBJID | AESEQ | AETERM | AEDECOD | AEPRESP | AEBODSYS | AESEV | AESER | AEACN | AEREL | AEOUT | EPOCH | AESTDTC | AEENDTC | AESTDY | AEENDY |\n|-----|---------|--------|---------|-------|--------|---------|---------|----------|-------|-------|-------|-------|-------|-------|---------|---------|--------|--------|", "score": 0.794, "match_basis": "verbatim_token+domain_route:AE"}, {"md_atom_id": "md_dmAE_ex_a046", "md_file": "knowledge_base/domains/AE/examples.md", "md_atom_type": "TABLE_HEADER", "md_parent_section": "§AE.3 [Example 3]", "md_verbatim": "| Row | STUDYID | DOMAIN | USUBJID | AESEQ | AETERM | AEDECOD | AEPRESP | AEBODSYS | AESER | AEDTC | AESTDY |\n|-----|---------|--------|---------|-------|--------|---------|---------|----------|-------|-------|--------|", "score": 0.7148, "match_basis": "verbatim_token+domain_route:AE"}, {"md_atom_id": "md_dmAE_ex_a016", "md_file": "knowledge_base/domains/AE/examples.md", "md_atom_type": "TABLE_HEADER", "md_parent_section": "§AE.1 [Example 1]", "md_verbatim": "| Row | STUDYID | DOMAIN | USUBJID | AESEQ | AETERM | AEMODIFY | AEDECOD | AEBODSYS | AESEV | AESER | AEACN | AEREL | AEOUT | AESCONG | AESDISAB | AESDTH | AESHOSP | AESLIFE | AESMIE | EPOCH | AESTDTC | AEENDTC | AESTDY | AEENDY | AEENRF |\n|-----|---------|--------|---------|-------|--------|----------|---------|----------|-------|-------|-------|-------|-------|---------|----------|--------|---------|---------|--------|-------|---------|---------|--------|--------|--------|", "score": 0.687, "match_basis": "verbatim_token+domain_route:AE"}, {"md_atom_id": "md_dmAE_ex_a095", "md_file": "knowledge_base/domains/AE/examples.md", "md_atom_type": "TABLE_HEADER", "md_parent_section": "§AE.6 [Example 6]", "md_verbatim": "| Row | STUDYID | DOMAIN | USUBJID | SPDEVID | AESEQ | AESPID | AETERM | AEDECOD | AESER | AESEV | AEACNDEV | AERLDEV | AEOUT | AESCONG | AESDISAB | AESDTH | AESHOSP | AESLIFE | AESMIE | AESINTV | AESTDTC | AEENDTC | AESTDY | AEENDY |\n|-----|---------|--------|---------|---------|-------|--------|--------|---------|-------|-------|----------|---------|-------|---------|----------|--------|---------|---------|--------|---------|---------|---------|--------|--------|", "score": 0.6289, "match_basis": "verbatim_token+domain_route:AE"}], "candidate_count": 5, "zero_candidate": false}
{"pdf_atom_id": "ig34_p0142_a003", "pdf_atom_type": "TABLE_ROW", "pdf_source": "SDTMIG_v3.4", "pdf_page": 142, "pdf_parent_section": "§6.2.1 [Adverse Events (AE)]", "pdf_verbatim": "| 1 | ABC123 | AE | 123101 | 1 | | NAUSEA | Gastrointestinal disorders | MODERATE | N | DOSE NOT CHANGED | RELATED | 2005-10-13 | 2005-10-14 |", "figure_ref": null, "candidates": [{"md_atom_id": "md_dmAE_ex_a057", "md_file": "knowledge_base/domains/AE/examples.md", "md_atom_type": "TABLE_ROW", "md_parent_section": "§AE.4 [Example 4]", "md_verbatim": "| 1 | ABC123 | AE | 123101 | 1 | | NAUSEA | Gastrointestinal disorders | MODERATE | N | DOSE NOT CHANGED | RELATED | 2005-10-13 | 2005-10-14 |", "score": 1.0, "match_basis": "verbatim_token+domain_route:AE"}, {"md_atom_id": "md_dmAE_ex_a062", "md_file": "knowledge_base/domains/AE/examples.md", "md_atom_type": "TABLE_ROW", "md_parent_section": "§AE.4 [Example 4]", "md_verbatim": "| 6 | ABC123 | AE | 123101 | 6 | 2 | DIARRHEA | Gastrointestinal disorders | MODERATE | N | DOSE NOT CHANGED | POSSIBLY RELATED | 2005-10-17 | 2005-10-21 |", "score": 0.8476, "match_basis": "verbatim_token+domain_route:AE"}, {"md_atom_id": "md_dmAE_ex_a058", "md_file": "knowledge_base/domains/AE/examples.md", "md_atom_type": "TABLE_ROW", "md_parent_section": "§AE.4 [Example 4]", "md_verbatim": "| 2 | ABC123 | AE | 123101 | 2 | 1 | VOMITING | Gastrointestinal disorders | MILD | N | DOSE NOT CHANGED | POSSIBLY RELATED | 2005-10-14 | 2005-10-15 |", "score": 0.8031, "match_basis": "verbatim_token+domain_route:AE"}, {"md_atom_id": "md_dmAE_ex_a060", "md_file": "knowledge_base/domains/AE/examples.md", "md_atom_type": "TABLE_ROW", "md_parent_section": "§AE.4 [Example 4]", "md_verbatim": "| 4 | ABC123 | AE | 123101 | 4 | 1 | VOMITING | Gastrointestinal disorders | MILD | N | DOSE NOT CHANGED | POSSIBLY RELATED | 2005-10-17 | 2005-10-20 |", "score": 0.8031, "match_basis": "verbatim_token+domain_route:AE"}, {"md_atom_id": "md_dmAE_ex_a047", "md_file": "knowledge_base/domains/AE/examples.md", "md_atom_type": "TABLE_ROW", "md_parent_section": "§AE.3 [Example 3]", "md_verbatim": "| 1 | ABC123 | AE | 123101 | 1 | NAUSEA | Nausea | Y | Gastrointestinal disorders | | 2005-10-29 | 19 |", "score": 0.8, "match_basis": "verbatim_token+domain_route:AE"}], "candidate_count": 5, "zero_candidate": false}
{"pdf_atom_id": "ig34_p0142_a004", "pdf_atom_type": "TABLE_ROW", "pdf_source": "SDTMIG_v3.4", "pdf_page": 142, "pdf_parent_section": "§6.2.1 [Adverse Events (AE)]", "pdf_verbatim": "| 2 | ABC123 | AE | 123101 | 2 | 1 | VOMITING | Gastrointestinal disorders | MILD | N | DOSE NOT CHANGED | POSSIBLY RELATED | 2005-10-14 | 2005-10-16 |", "figure_ref": null, "candidates": [{"md_atom_id": "md_dmAE_ex_a058", "md_file": "knowledge_base/domains/AE/examples.md", "md_atom_type": "TABLE_ROW", "md_parent_section": "§AE.4 [Example 4]", "md_verbatim": "| 2 | ABC123 | AE | 123101 | 2 | 1 | VOMITING | Gastrointestinal disorders | MILD | N | DOSE NOT CHANGED | POSSIBLY RELATED | 2005-10-14 | 2005-10-15 |", "score": 1.0, "match_basis": "verbatim_token+domain_route:AE"}, {"md_atom_id": "md_dmAE_ex_a060", "md_file": "knowledge_base/domains/AE/examples.md", "md_atom_type": "TABLE_ROW", "md_parent_section": "§AE.4 [Example 4]", "md_verbatim": "| 4 | ABC123 | AE | 123101 | 4 | 1 | VOMITING | Gastrointestinal disorders | MILD | N | DOSE NOT CHANGED | POSSIBLY RELATED | 2005-10-17 | 2005-10-20 |", "score": 1.0, "match_basis": "verbatim_token+domain_route:AE"}, {"md_atom_id": "md_dmAE_ex_a059", "md_file": "knowledge_base/domains/AE/examples.md", "md_atom_type": "TABLE_ROW", "md_parent_section": "§AE.4 [Example 4]", "md_verbatim": "| 3 | ABC123 | AE | 123101 | 3 | 1 | VOMITING | Gastrointestinal disorders | SEVERE | N | DOSE NOT CHANGED | POSSIBLY RELATED | 2005-10-16 | 2005-10-17 |", "score": 0.94, "match_basis": "verbatim_token+domain_route:AE"}, {"md_atom_id": "md_dmAE_ex_a061", "md_file": "knowledge_base/domains/AE/examples.md", "md_atom_type": "TABLE_ROW", "md_parent_section": "§AE.4 [Example 4]", "md_verbatim": "| 5 | ABC123 | AE | 123101 | 5 | 2 | DIARRHEA | Gastrointestinal disorders | SEVERE | N | DOSE NOT CHANGED | POSSIBLY RELATED | 2005-10-16 | 2005-10-17 |", "score": 0.8455, "match_basis": "verbatim_token+domain_route:AE"}, {"md_atom_id": "md_dmAE_ex_a062", "md_file": "knowledge_base/domains/AE/examples.md", "md_atom_type": "TABLE_ROW", "md_parent_section": "§AE.4 [Example 4]", "md_verbatim": "| 6 | ABC123 | AE | 123101 | 6 | 2 | DIARRHEA | Gastrointestinal disorders | MODERATE | N | DOSE NOT CHANGED | POSSIBLY RELATED | 2005-10-17 | 2005-10-21 |", "score": 0.8455, "match_basis": "verbatim_token+domain_route:AE"}], "candidate_count": 5, "zero_candidate": false}
{"pdf_atom_id": "ig34_p0142_a005", "pdf_atom_type": "TABLE_ROW", "pdf_source": "SDTMIG_v3.4", "pdf_page": 142, "pdf_parent_section": "§6.2.1 [Adverse Events (AE)]", "pdf_verbatim": "| 3 | ABC123 | AE | 123101 | 3 | 1 | VOMITING | Gastrointestinal disorders | SEVERE | N | DOSE NOT CHANGED | POSSIBLY RELATED | 2005-10-16 | 2005-10-17 |", "figure_ref": null, "candidates": [{"md_atom_id": "md_dmAE_ex_a059", "md_file": "knowledge_base/domains/AE/examples.md", "md_atom_type": "TABLE_ROW", "md_parent_section": "§AE.4 [Example 4]", "md_verbatim": "| 3 | ABC123 | AE | 123101 | 3 | 1 | VOMITING | Gastrointestinal disorders | SEVERE | N | DOSE NOT CHANGED | POSSIBLY RELATED | 2005-10-16 | 2005-10-17 |", "score": 1.0, "match_basis": "verbatim_token+domain_route:AE"}, {"md_atom_id": "md_dmAE_ex_a058", "md_file": "knowledge_base/domains/AE/examples.md", "md_atom_type": "TABLE_ROW", "md_parent_section": "§AE.4 [Example 4]", "md_verbatim": "| 2 | ABC123 | AE | 123101 | 2 | 1 | VOMITING | Gastrointestinal disorders | MILD | N | DOSE NOT CHANGED | POSSIBLY RELATED | 2005-10-14 | 2005-10-15 |", "score": 0.94, "match_basis": "verbatim_token+domain_route:AE"}, {"md_atom_id": "md_dmAE_ex_a060", "md_file": "knowledge_base/domains/AE/examples.md", "md_atom_type": "TABLE_ROW", "md_parent_section": "§AE.4 [Example 4]", "md_verbatim": "| 4 | ABC123 | AE | 123101 | 4 | 1 | VOMITING | Gastrointestinal disorders | MILD | N | DOSE NOT CHANGED | POSSIBLY RELATED | 2005-10-17 | 2005-10-20 |", "score": 0.94, "match_basis": "verbatim_token+domain_route:AE"}, {"md_atom_id": "md_dmAE_ex_a061", "md_file": "knowledge_base/domains/AE/examples.md", "md_atom_type": "TABLE_ROW", "md_parent_section": "§AE.4 [Example 4]", "md_verbatim": "| 5 | ABC123 | AE | 123101 | 5 | 2 | DIARRHEA | Gastrointestinal disorders | SEVERE | N | DOSE NOT CHANGED | POSSIBLY RELATED | 2005-10-16 | 2005-10-17 |", "score": 0.8969, "match_basis": "verbatim_token+domain_route:AE"}, {"md_atom_id": "md_dmAE_ex_a062", "md_file": "knowledge_base/domains/AE/examples.md", "md_atom_type": "TABLE_ROW", "md_parent_section": "§AE.4 [Example 4]", "md_verbatim": "| 6 | ABC123 | AE | 123101 | 6 | 2 | DIARRHEA | Gastrointestinal disorders | MODERATE | N | DOSE NOT CHANGED | POSSIBLY RELATED | 2005-10-17 | 2005-10-21 |", "score": 0.8324, "match_basis": "verbatim_token+domain_route:AE"}], "candidate_count": 5, "zero_candidate": false}
{"pdf_atom_id": "ig34_p0142_a006", "pdf_atom_type": "TABLE_ROW", "pdf_source": "SDTMIG_v3.4", "pdf_page": 142, "pdf_parent_section": "§6.2.1 [Adverse Events (AE)]", "pdf_verbatim": "| 4 | ABC123 | AE | 123101 | 4 | 1 | VOMITING | Gastrointestinal disorders | MILD | N | DOSE NOT CHANGED | POSSIBLY RELATED | 2005-10-17 | 2005-10-20 |", "figure_ref": null, "candidates": [{"md_atom_id": "md_dmAE_ex_a058", "md_file": "knowledge_base/domains/AE/examples.md", "md_atom_type": "TABLE_ROW", "md_parent_section": "§AE.4 [Example 4]", "md_verbatim": "| 2 | ABC123 | AE | 123101 | 2 | 1 | VOMITING | Gastrointestinal disorders | MILD | N | DOSE NOT CHANGED | POSSIBLY RELATED | 2005-10-14 | 2005-10-15 |", "score": 1.0, "match_basis": "verbatim_token+domain_route:AE"}, {"md_atom_id": "md_dmAE_ex_a060", "md_file": "knowledge_base/domains/AE/examples.md", "md_atom_type": "TABLE_ROW", "md_parent_section": "§AE.4 [Example 4]", "md_verbatim": "| 4 | ABC123 | AE | 123101 | 4 | 1 | VOMITING | Gastrointestinal disorders | MILD | N | DOSE NOT CHANGED | POSSIBLY RELATED | 2005-10-17 | 2005-10-20 |", "score": 1.0, "match_basis": "verbatim_token+domain_route:AE"}, {"md_atom_id": "md_dmAE_ex_a059", "md_file": "knowledge_base/domains/AE/examples.md", "md_atom_type": "TABLE_ROW", "md_parent_section": "§AE.4 [Example 4]", "md_verbatim": "| 3 | ABC123 | AE | 123101 | 3 | 1 | VOMITING | Gastrointestinal disorders | SEVERE | N | DOSE NOT CHANGED | POSSIBLY RELATED | 2005-10-16 | 2005-10-17 |", "score": 0.94, "match_basis": "verbatim_token+domain_route:AE"}, {"md_atom_id": "md_dmAE_ex_a061", "md_file": "knowledge_base/domains/AE/examples.md", "md_atom_type": "TABLE_ROW", "md_parent_section": "§AE.4 [Example 4]", "md_verbatim": "| 5 | ABC123 | AE | 123101 | 5 | 2 | DIARRHEA | Gastrointestinal disorders | SEVERE | N | DOSE NOT CHANGED | POSSIBLY RELATED | 2005-10-16 | 2005-10-17 |", "score": 0.8455, "match_basis": "verbatim_token+domain_route:AE"}, {"md_atom_id": "md_dmAE_ex_a062", "md_file": "knowledge_base/domains/AE/examples.md", "md_atom_type": "TABLE_ROW", "md_parent_section": "§AE.4 [Example 4]", "md_verbatim": "| 6 | ABC123 | AE | 123101 | 6 | 2 | DIARRHEA | Gastrointestinal disorders | MODERATE | N | DOSE NOT CHANGED | POSSIBLY RELATED | 2005-10-17 | 2005-10-21 |", "score": 0.8455, "match_basis": "verbatim_token+domain_route:AE"}], "candidate_count": 5, "zero_candidate": false}
{"pdf_atom_id": "ig34_p0142_a007", "pdf_atom_type": "TABLE_ROW", "pdf_source": "SDTMIG_v3.4", "pdf_page": 142, "pdf_parent_section": "§6.2.1 [Adverse Events (AE)]", "pdf_verbatim": "| 5 | ABC123 | AE | 123101 | 5 | 2 | DIARRHEA | Gastrointestinal disorders | SEVERE | N | DOSE NOT CHANGED | POSSIBLY RELATED | 2005-10-16 | 2005-10-17 |", "figure_ref": null, "candidates": [{"md_atom_id": "md_dmAE_ex_a061", "md_file": "knowledge_base/domains/AE/examples.md", "md_atom_type": "TABLE_ROW", "md_parent_section": "§AE.4 [Example 4]", "md_verbatim": "| 5 | ABC123 | AE | 123101 | 5 | 2 | DIARRHEA | Gastrointestinal disorders | SEVERE | N | DOSE NOT CHANGED | POSSIBLY RELATED | 2005-10-16 | 2005-10-17 |", "score": 1.0, "match_basis": "verbatim_token+domain_route:AE"}, {"md_atom_id": "md_dmAE_ex_a062", "md_file": "knowledge_base/domains/AE/examples.md", "md_atom_type": "TABLE_ROW", "md_parent_section": "§AE.4 [Example 4]", "md_verbatim": "| 6 | ABC123 | AE | 123101 | 6 | 2 | DIARRHEA | Gastrointestinal disorders | MODERATE | N | DOSE NOT CHANGED | POSSIBLY RELATED | 2005-10-17 | 2005-10-21 |", "score": 0.9238, "match_basis": "verbatim_token+domain_route:AE"}, {"md_atom_id": "md_dmAE_ex_a059", "md_file": "knowledge_base/domains/AE/examples.md", "md_atom_type": "TABLE_ROW", "md_parent_section": "§AE.4 [Example 4]", "md_verbatim": "| 3 | ABC123 | AE | 123101 | 3 | 1 | VOMITING | Gastrointestinal disorders | SEVERE | N | DOSE NOT CHANGED | POSSIBLY RELATED | 2005-10-16 | 2005-10-17 |", "score": 0.8969, "match_basis": "verbatim_token+domain_route:AE"}, {"md_atom_id": "md_dmAE_ex_a058", "md_file": "knowledge_base/domains/AE/examples.md", "md_atom_type": "TABLE_ROW", "md_parent_section": "§AE.4 [Example 4]", "md_verbatim": "| 2 | ABC123 | AE | 123101 | 2 | 1 | VOMITING | Gastrointestinal disorders | MILD | N | DOSE NOT CHANGED | POSSIBLY RELATED | 2005-10-14 | 2005-10-15 |", "score": 0.8455, "match_basis": "verbatim_token+domain_route:AE"}, {"md_atom_id": "md_dmAE_ex_a060", "md_file": "knowledge_base/domains/AE/examples.md", "md_atom_type": "TABLE_ROW", "md_parent_section": "§AE.4 [Example 4]", "md_verbatim": "| 4 | ABC123 | AE | 123101 | 4 | 1 | VOMITING | Gastrointestinal disorders | MILD | N | DOSE NOT CHANGED | POSSIBLY RELATED | 2005-10-17 | 2005-10-20 |", "score": 0.8455, "match_basis": "verbatim_token+domain_route:AE"}], "candidate_count": 5, "zero_candidate": false}
{"pdf_atom_id": "ig34_p0142_a008", "pdf_atom_type": "TABLE_ROW", "pdf_source": "SDTMIG_v3.4", "pdf_page": 142, "pdf_parent_section": "§6.2.1 [Adverse Events (AE)]", "pdf_verbatim": "| 6 | ABC123 | AE | 123101 | 6 | 2 | DIARRHEA | Gastrointestinal disorders | MODERATE | N | DOSE NOT CHANGED | POSSIBLY RELATED | 2005-10-17 | 2005-10-21 |", "figure_ref": null, "candidates": [{"md_atom_id": "md_dmAE_ex_a062", "md_file": "knowledge_base/domains/AE/examples.md", "md_atom_type": "TABLE_ROW", "md_parent_section": "§AE.4 [Example 4]", "md_verbatim": "| 6 | ABC123 | AE | 123101 | 6 | 2 | DIARRHEA | Gastrointestinal disorders | MODERATE | N | DOSE NOT CHANGED | POSSIBLY RELATED | 2005-10-17 | 2005-10-21 |", "score": 1.0, "match_basis": "verbatim_token+domain_route:AE"}, {"md_atom_id": "md_dmAE_ex_a061", "md_file": "knowledge_base/domains/AE/examples.md", "md_atom_type": "TABLE_ROW", "md_parent_section": "§AE.4 [Example 4]", "md_verbatim": "| 5 | ABC123 | AE | 123101 | 5 | 2 | DIARRHEA | Gastrointestinal disorders | SEVERE | N | DOSE NOT CHANGED | POSSIBLY RELATED | 2005-10-16 | 2005-10-17 |", "score": 0.9238, "match_basis": "verbatim_token+domain_route:AE"}, {"md_atom_id": "md_dmAE_ex_a057", "md_file": "knowledge_base/domains/AE/examples.md", "md_atom_type": "TABLE_ROW", "md_parent_section": "§AE.4 [Example 4]", "md_verbatim": "| 1 | ABC123 | AE | 123101 | 1 | | NAUSEA | Gastrointestinal disorders | MODERATE | N | DOSE NOT CHANGED | RELATED | 2005-10-13 | 2005-10-14 |", "score": 0.8476, "match_basis": "verbatim_token+domain_route:AE"}, {"md_atom_id": "md_dmAE_ex_a058", "md_file": "knowledge_base/domains/AE/examples.md", "md_atom_type": "TABLE_ROW", "md_parent_section": "§AE.4 [Example 4]", "md_verbatim": "| 2 | ABC123 | AE | 123101 | 2 | 1 | VOMITING | Gastrointestinal disorders | MILD | N | DOSE NOT CHANGED | POSSIBLY RELATED | 2005-10-14 | 2005-10-15 |", "score": 0.8455, "match_basis": "verbatim_token+domain_route:AE"}, {"md_atom_id": "md_dmAE_ex_a060", "md_file": "knowledge_base/domains/AE/examples.md", "md_atom_type": "TABLE_ROW", "md_parent_section": "§AE.4 [Example 4]", "md_verbatim": "| 4 | ABC123 | AE | 123101 | 4 | 1 | VOMITING | Gastrointestinal disorders | MILD | N | DOSE NOT CHANGED | POSSIBLY RELATED | 2005-10-17 | 2005-10-20 |", "score": 0.8455, "match_basis": "verbatim_token+domain_route:AE"}], "candidate_count": 5, "zero_candidate": false}
{"pdf_atom_id": "ig34_p0142_a009", "pdf_atom_type": "SENTENCE", "pdf_source": "SDTMIG_v3.4", "pdf_page": 142, "pdf_parent_section": "§6.2.1 [Adverse Events (AE)]", "pdf_verbatim": "Example 5", "figure_ref": null, "candidates": [{"md_atom_id": "md_dmAE_ex_a002", "md_file": "knowledge_base/domains/AE/examples.md", "md_atom_type": "HEADING", "md_parent_section": "§AE.1 [Example 1]", "md_verbatim": "## Example 1", "score": 0.76, "match_basis": "verbatim_token+domain_route:AE"}, {"md_atom_id": "md_dmAE_ex_a020", "md_file": "knowledge_base/domains/AE/examples.md", "md_atom_type": "HEADING", "md_parent_section": "§AE.2 [Example 2]", "md_verbatim": "## Example 2", "score": 0.76, "match_basis": "verbatim_token+domain_route:AE"}, {"md_atom_id": "md_dmAE_ex_a035", "md_file": "knowledge_base/domains/AE/examples.md", "md_atom_type": "HEADING", "md_parent_section": "§AE.3 [Example 3]", "md_verbatim": "## Example 3", "score": 0.76, "match_basis": "verbatim_token+domain_route:AE"}, {"md_atom_id": "md_dmAE_ex_a049", "md_file": "knowledge_base/domains/AE/examples.md", "md_atom_type": "HEADING", "md_parent_section": "§AE.4 [Example 4]", "md_verbatim": "## Example 4", "score": 0.76, "match_basis": "verbatim_token+domain_route:AE"}, {"md_atom_id": "md_dmAE_ex_a063", "md_file": "knowledge_base/domains/AE/examples.md", "md_atom_type": "HEADING", "md_parent_section": "§AE.5 [Example 5]", "md_verbatim": "## Example 5", "score": 0.76, "match_basis": "verbatim_token+domain_route:AE"}, {"md_atom_id": "md_dmAE_ex_a082", "md_file": "knowledge_base/domains/AE/examples.md", "md_atom_type": "HEADING", "md_parent_section": "§AE.6 [Example 6]", "md_verbatim": "## Example 6", "score": 0.76, "match_basis": "verbatim_token+domain_route:AE"}, {"md_atom_id": "md_dmAE_ex_a001", "md_file": "knowledge_base/domains/AE/examples.md", "md_atom_type": "HEADING", "md_parent_section": "§AE [AE — Examples]", "md_verbatim": "# AE — Examples", "score": 0.66, "match_basis": "verbatim_token+domain_route:AE"}, {"md_atom_id": "md_dmAE_ex_a043", "md_file": "knowledge_base/domains/AE/examples.md", "md_atom_type": "SENTENCE", "md_parent_section": "§AE.3 [Example 3]", "md_verbatim": "The subject shown in this example experienced nausea and vomiting.", "score": 0.4833, "match_basis": "verbatim_token+domain_route:AE"}, {"md_atom_id": "md_dmAE_ex_a003", "md_file": "knowledge_base/domains/AE/examples.md", "md_atom_type": "SENTENCE", "md_parent_section": "§AE.1 [Example 1]", "md_verbatim": "This example illustrates data from an AE CRF that collected AE terms as free text.", "score": 0.4811, "match_basis": "verbatim_token+domain_route:AE"}, {"md_atom_id": "md_dmAE_ex_a008", "md_file": "knowledge_base/domains/AE/examples.md", "md_atom_type": "SENTENCE", "md_parent_section": "§AE.1 [Example 1]", "md_verbatim": "**Rows 1-2:** Show examples of modifying the reported term for coding purposes, with the modified term in AEMODIFY.", "score": 0.4714, "match_basis": "verbatim_token+domain_route:AE"}], "candidate_count": 10, "zero_candidate": false}
{"pdf_atom_id": "ig34_p0142_a010", "pdf_atom_type": "SENTENCE", "pdf_source": "SDTMIG_v3.4", "pdf_page": 142, "pdf_parent_section": "§6.2.1 [Adverse Events (AE)]", "pdf_verbatim": "This study was evaluating artificial hip joints made of a novel material. The protocol specified that only 1 hip could be replaced in a subject, and that subjects should be encouraged to begin walking within 2 days after surgery. This subject was walking on day 5 and tripped and sprained her left ankle. A few days later, she developed an infection in the hip bone adjacent to the implant. The implant was removed and replaced by a different product. She never regained full use of her hip, and was left with a limp. This example shows the use of the device-related variables indicating if the AE was unanticipated (AEUNANT), if it was related to the procedure that implanted the device rather than the device itself (AERLPRC), or if it was related to some other procedure or activity required by the protocol (AERLPRT). These are used to determine if the AE was an unanticipated serious device event, a designation required by some regulatory authorities. Device Identifiers (DI) and other related device domains have not been modeled here; for more information about device domains, see the SDTMIG-MD (https://www.cdisc.org/standards/foundational/medical-devices).", "figure_ref": null, "candidates": [{"md_atom_id": "md_dmAE_ex_a070", "md_file": "knowledge_base/domains/AE/examples.md", "md_atom_type": "SENTENCE", "md_parent_section": "§AE.5 [Example 5]", "md_verbatim": "This example shows the use of the device-related variables indicating if the AE was related to the procedure that implanted the device rather than the device itself (AERLPRC), or if it was related to some other procedure or activity required by the protocol (AERLPRT).", "score": 0.5599, "match_basis": "verbatim_token+domain_route:AE"}, {"md_atom_id": "md_dmAE_ex_a072", "md_file": "knowledge_base/domains/AE/examples.md", "md_atom_type": "SENTENCE", "md_parent_section": "§AE.5 [Example 5]", "md_verbatim": "Device Identifiers (DI) and other related device domains have not been modeled here; for more information about device domains, see the SDTMIG-MD (https://www.cdisc.org/standards/foundational/medical-devices).", "score": 0.5561, "match_basis": "verbatim_token+domain_route:AE"}, {"md_atom_id": "md_dmAE_ex_a071", "md_file": "knowledge_base/domains/AE/examples.md", "md_atom_type": "SENTENCE", "md_parent_section": "§AE.5 [Example 5]", "md_verbatim": "These are used to determine if the AE was an unanticipated serious device event, a designation required by some regulatory authorities.", "score": 0.5335, "match_basis": "verbatim_token+domain_route:AE"}, {"md_atom_id": "md_dmAE_ex_a065", "md_file": "knowledge_base/domains/AE/examples.md", "md_atom_type": "SENTENCE", "md_parent_section": "§AE.5 [Example 5]", "md_verbatim": "The protocol specified that only 1 hip could be replaced in a subject, and that subjects should be encouraged to begin walking within 2 days after surgery.", "score": 0.5241, "match_basis": "verbatim_token+domain_route:AE"}, {"md_atom_id": "md_dmAE_ex_a041", "md_file": "knowledge_base/domains/AE/examples.md", "md_atom_type": "SENTENCE", "md_parent_section": "§AE.3 [Example 3]", "md_verbatim": "This is an example of unusually sparse AE data collection; the AE dataset is populated with the term and the flag indicating that it was prespecified, but timing information is limited to the date of collection, and other expected qualifiers are not available.", "score": 0.4947, "match_basis": "verbatim_token+domain_route:AE"}], "candidate_count": 5, "zero_candidate": false}
{"pdf_atom_id": "ig34_p0142_a011", "pdf_atom_type": "LIST_ITEM", "pdf_source": "SDTMIG_v3.4", "pdf_page": 142, "pdf_parent_section": "§6.2.1 [Adverse Events (AE)]", "pdf_verbatim": "Row 1: Shows an AE of \"Twisted left ankle\". The location and laterality are specified as it may be important to know if it occurred on the same or opposite side of the body.", "figure_ref": null, "candidates": [{"md_atom_id": "md_dmAE_ex_a074", "md_file": "knowledge_base/domains/AE/examples.md", "md_atom_type": "SENTENCE", "md_parent_section": "§AE.5 [Example 5]", "md_verbatim": "The location and laterality are specified as it may be important to know if it occurred on the same or opposite side of the body.", "score": 0.7827, "match_basis": "verbatim_token+domain_route:AE"}, {"md_atom_id": "md_dmAE_assn_a013", "md_file": "knowledge_base/domains/AE/assumptions.md", "md_atom_type": "LIST_ITEM", "md_parent_section": "§AE [AE — Assumptions]", "md_verbatim": "   b. If it is important to know which adverse events from a prespecified list were not reported as well as those that did occur, these data should be submitted in a Findings class dataset such as Findings About Events and Interventions (see Section 6.4, Findings About Events or Interventions). A record should be included in that Findings dataset for each prespecified adverse-event term. Records for adverse events that actually occurred should also exist in the AE dataset with AEPRESP set to \"Y.\"", "score": 0.5078, "match_basis": "verbatim_token+domain_route:AE"}, {"md_atom_id": "md_dmAE_ex_a076", "md_file": "knowledge_base/domains/AE/examples.md", "md_atom_type": "SENTENCE", "md_parent_section": "§AE.5 [Example 5]", "md_verbatim": "The location and laterality is specified and it is considered a serious adverse event.", "score": 0.4957, "match_basis": "verbatim_token+domain_route:AE"}, {"md_atom_id": "md_dmAE_assn_a012", "md_file": "knowledge_base/domains/AE/assumptions.md", "md_atom_type": "LIST_ITEM", "md_parent_section": "§AE [AE — Assumptions]", "md_verbatim": "   a. Adverse events are generally collected in 2 different ways, either by recording free text or using a prespecified list of terms. In the latter case, the solicitation of information on specific adverse events may affect the frequency at which they are reported; therefore, the fact that a specific adverse event was solicited may be of interest to reviewers. An AEPRESP value of \"Y\" is used to indicate that the event in AETERM was prespecified on the CRF.", "score": 0.48, "match_basis": "verbatim_token+domain_route:AE"}, {"md_atom_id": "md_dmAE_assn_a015", "md_file": "knowledge_base/domains/AE/assumptions.md", "md_atom_type": "LIST_ITEM", "md_parent_section": "§AE [AE — Assumptions]", "md_verbatim": "   d. When adverse events are collected with the recording of free text, a record may be entered into the sponsor's data management system to indicate \"no adverse events\" for a specific subject. For these subjects, do not include a record in the AE submission dataset to indicate that there were no events. Records should be included in the submission AE dataset only for adverse events that have actually occurred.", "score": 0.4768, "match_basis": "verbatim_token+domain_route:AE"}], "candidate_count": 5, "zero_candidate": false}
{"pdf_atom_id": "ig34_p0142_a012", "pdf_atom_type": "LIST_ITEM", "pdf_source": "SDTMIG_v3.4", "pdf_page": 142, "pdf_parent_section": "§6.2.1 [Adverse Events (AE)]", "pdf_verbatim": "Row 2: Shows an AE of \"Osteomyelitis right hip\". The location and laterality are specified and it is considered a serious adverse event. The device was removed as the AE was probably related to the event.", "figure_ref": null, "candidates": [{"md_atom_id": "md_dmAE_ex_a076", "md_file": "knowledge_base/domains/AE/examples.md", "md_atom_type": "SENTENCE", "md_parent_section": "§AE.5 [Example 5]", "md_verbatim": "The location and laterality is specified and it is considered a serious adverse event.", "score": 0.632, "match_basis": "verbatim_token+domain_route:AE"}, {"md_atom_id": "md_dmAE_ex_a092", "md_file": "knowledge_base/domains/AE/examples.md", "md_atom_type": "SENTENCE", "md_parent_section": "§AE.6 [Example 6]", "md_verbatim": "The event was considered to be probably related to the device, and was serious.", "score": 0.5588, "match_basis": "verbatim_token+domain_route:AE"}, {"md_atom_id": "md_dmAE_assn_a031", "md_file": "knowledge_base/domains/AE/assumptions.md", "md_atom_type": "LIST_ITEM", "md_parent_section": "§AE [AE — Assumptions]", "md_verbatim": "   b. The serious categories \"Involves cancer\" (AESCAN) and \"Occurred with overdose\" (AESOD) are not part of the ICH definition of a serious adverse event, but these categories are available for use in studies conducted under guidelines that existed prior to the FDA's adoption of the ICH definition.", "score": 0.5104, "match_basis": "verbatim_token+domain_route:AE"}, {"md_atom_id": "md_dmAE_assn_a036", "md_file": "knowledge_base/domains/AE/assumptions.md", "md_atom_type": "LIST_ITEM", "md_parent_section": "§AE [AE — Assumptions]", "md_verbatim": "      ii. One record per adverse event per subject. Changes over time in severity, causality, or seriousness are submitted as separate events. Alternatively, these changes may be submitted in a separate dataset based on the Findings About Events and Interventions model (see Section 6.4, Findings About Events or Interventions).", "score": 0.5012, "match_basis": "verbatim_token+domain_route:AE"}, {"md_atom_id": "md_dmAE_assn_a032", "md_file": "knowledge_base/domains/AE/assumptions.md", "md_atom_type": "LIST_ITEM", "md_parent_section": "§AE [AE — Assumptions]", "md_verbatim": "   c. When a description of \"Other Medically Important Serious Adverse Events\" category is collected on a CRF, sponsors should place the description in the SUPPAE dataset using the standard supplemental qualifier name code AEOSOSP as described in Section 8.4, Relating Non-Standard Variables Values to a Parent Domain, and in Appendix C1, Supplemental Qualifiers Name Codes.", "score": 0.4954, "match_basis": "verbatim_token+domain_route:AE"}], "candidate_count": 5, "zero_candidate": false}
{"pdf_atom_id": "ig34_p0142_a013", "pdf_atom_type": "CODE_LITERAL", "pdf_source": "SDTMIG_v3.4", "pdf_page": 142, "pdf_parent_section": "§6.2.1 [Adverse Events (AE)]", "pdf_verbatim": "ae.xpt", "figure_ref": null, "candidates": [{"md_atom_id": "md_dmAE_ex_a015", "md_file": "knowledge_base/domains/AE/examples.md", "md_atom_type": "SENTENCE", "md_parent_section": "§AE.1 [Example 1]", "md_verbatim": "**ae.xpt**", "score": 0.79, "match_basis": "verbatim_token+domain_route:AE"}, {"md_atom_id": "md_dmAE_ex_a030", "md_file": "knowledge_base/domains/AE/examples.md", "md_atom_type": "SENTENCE", "md_parent_section": "§AE.2 [Example 2]", "md_verbatim": "**ae.xpt**", "score": 0.79, "match_basis": "verbatim_token+domain_route:AE"}, {"md_atom_id": "md_dmAE_ex_a045", "md_file": "knowledge_base/domains/AE/examples.md", "md_atom_type": "SENTENCE", "md_parent_section": "§AE.3 [Example 3]", "md_verbatim": "**ae.xpt**", "score": 0.79, "match_basis": "verbatim_token+domain_route:AE"}, {"md_atom_id": "md_dmAE_ex_a055", "md_file": "knowledge_base/domains/AE/examples.md", "md_atom_type": "SENTENCE", "md_parent_section": "§AE.4 [Example 4]", "md_verbatim": "**ae.xpt**", "score": 0.79, "match_basis": "verbatim_token+domain_route:AE"}, {"md_atom_id": "md_dmAE_ex_a078", "md_file": "knowledge_base/domains/AE/examples.md", "md_atom_type": "SENTENCE", "md_parent_section": "§AE.5 [Example 5]", "md_verbatim": "**ae.xpt**", "score": 0.79, "match_basis": "verbatim_token+domain_route:AE"}, {"md_atom_id": "md_dmAE_ex_a094", "md_file": "knowledge_base/domains/AE/examples.md", "md_atom_type": "SENTENCE", "md_parent_section": "§AE.6 [Example 6]", "md_verbatim": "**ae.xpt**", "score": 0.79, "match_basis": "verbatim_token+domain_route:AE"}, {"md_atom_id": "md_dmAE_assn_a001", "md_file": "knowledge_base/domains/AE/assumptions.md", "md_atom_type": "HEADING", "md_parent_section": "§AE [AE — Assumptions]", "md_verbatim": "# AE — Assumptions", "score": 0.19, "match_basis": "verbatim_token+domain_route:AE"}, {"md_atom_id": "md_dmAE_assn_a002", "md_file": "knowledge_base/domains/AE/assumptions.md", "md_atom_type": "LIST_ITEM", "md_parent_section": "§AE [AE — Assumptions]", "md_verbatim": "1. The Adverse Events dataset includes clinical data describing \"any untoward medical occurrence in a patient or clinical investigation subject administered a pharmaceutical product and which does not necessarily have to have a causal relationship with this treatment\" (ICH E2A). In consultation with regulatory authorities, sponsors may extend or limit the scope of adverse event collection (e.g., collecting pre-treatment events related to trial conduct, not collecting events that are assessed as efficacy endpoints). The events included in the AE dataset should be consistent with the protocol requirements. Adverse events may be captured either as free text or via a prespecified list of terms.", "score": 0.19, "match_basis": "verbatim_token+domain_route:AE"}, {"md_atom_id": "md_dmAE_assn_a003", "md_file": "knowledge_base/domains/AE/assumptions.md", "md_atom_type": "LIST_ITEM", "md_parent_section": "§AE [AE — Assumptions]", "md_verbatim": "2. **AE description and coding**", "score": 0.19, "match_basis": "verbatim_token+domain_route:AE"}, {"md_atom_id": "md_dmAE_assn_a004", "md_file": "knowledge_base/domains/AE/assumptions.md", "md_atom_type": "LIST_ITEM", "md_parent_section": "§AE [AE — Assumptions]", "md_verbatim": "   a. AETERM captures the verbatim term collected for the event. It is the topic variable for the AE dataset. AETERM is a required variable and must have a value.", "score": 0.19, "match_basis": "verbatim_token+domain_route:AE"}], "candidate_count": 10, "zero_candidate": false}
