{"pdf_atom_id": "sv20_p0032_a008", "pdf_atom_type": "SENTENCE", "pdf_source": "SDTM_v2.0", "pdf_page": 32, "pdf_parent_section": "§3.1.3.1 Findings About Events or Interventions", "pdf_verbatim": "The order of the --OBJ variable among Findings qualifiers is immediately after the --TEST variable.", "figure_ref": null, "candidates": [{"md_atom_id": "md_ch03_a097", "md_file": "knowledge_base/chapters/ch03_submitting_data.md", "md_atom_type": "SENTENCE", "md_parent_section": "§3.2.1.1 [Primary Keys]", "md_verbatim": "In certain instances, a supplemental qualifier (SUPP--) variable might also contribute to the natural key of a record for a particular domain.", "score": 0.3918, "match_basis": "verbatim_token+chapter_route:ch03"}, {"md_atom_id": "md_ch03_a088", "md_file": "knowledge_base/chapters/ch03_submitting_data.md", "md_atom_type": "SENTENCE", "md_parent_section": "§3.2.1 [Dataset-level Metadata]", "md_verbatim": "Separate Supplemental Qualifier datasets of the form supp--.xpt are required.", "score": 0.374, "match_basis": "verbatim_token+chapter_route:ch03"}, {"md_atom_id": "md_ch03_a096", "md_file": "knowledge_base/chapters/ch03_submitting_data.md", "md_atom_type": "SENTENCE", "md_parent_section": "§3.2.1.1 [Primary Keys]", "md_verbatim": "In most domains, --SEQ will be a surrogate key for a set of variables that comprise the natural key.", "score": 0.364, "match_basis": "verbatim_token+chapter_route:ch03"}, {"md_atom_id": "md_ch03_a103", "md_file": "knowledge_base/chapters/ch03_submitting_data.md", "md_atom_type": "SENTENCE", "md_parent_section": "§3.2.1.2 [CDISC Submission Value-level Metadata]", "md_verbatim": "In general, findings data models are closely related to normalized, relational data models in a vertical structure of 1 record per observation.", "score": 0.3619, "match_basis": "verbatim_token+chapter_route:ch03"}, {"md_atom_id": "md_ch03_a089", "md_file": "knowledge_base/chapters/ch03_submitting_data.md", "md_atom_type": "SENTENCE", "md_parent_section": "§3.2.1 [Dataset-level Metadata]", "md_verbatim": "See Section 8.4, Relating Non-standard Variable Values to a Parent Domain.", "score": 0.3583, "match_basis": "verbatim_token+chapter_route:ch03"}], "candidate_count": 5, "zero_candidate": false}
{"pdf_atom_id": "sv20_p0032_a009", "pdf_atom_type": "HEADING", "pdf_source": "SDTM_v2.0", "pdf_page": 32, "pdf_parent_section": "§3.1.3.1 Findings About Events or Interventions", "pdf_verbatim": "Findings About—Additional Qualifier Variables", "figure_ref": null, "candidates": [{"md_atom_id": "md_ch03_a013", "md_file": "knowledge_base/chapters/ch03_submitting_data.md", "md_atom_type": "HEADING", "md_parent_section": "§3 [Submitting Data in Standard Format]", "md_verbatim": "## 3.2 Using the CDISC Domain Models in Regulatory Submissions — Dataset Metadata", "score": 0.3171, "match_basis": "verbatim_token+chapter_route:ch03"}, {"md_atom_id": "md_ch03_a102", "md_file": "knowledge_base/chapters/ch03_submitting_data.md", "md_atom_type": "HEADING", "md_parent_section": "§3.2.1 [Dataset-level Metadata]", "md_verbatim": "### 3.2.1.2 CDISC Submission Value-level Metadata", "score": 0.3113, "match_basis": "verbatim_token+chapter_route:ch03"}, {"md_atom_id": "md_ch03_a001", "md_file": "knowledge_base/chapters/ch03_submitting_data.md", "md_atom_type": "HEADING", "md_parent_section": "§3 [Submitting Data in Standard Format]", "md_verbatim": "# SDTMIG v3.4 — Chapter 3: Submitting Data in Standard Format", "score": 0.3102, "match_basis": "verbatim_token+chapter_route:ch03"}, {"md_atom_id": "md_ch03_a003", "md_file": "knowledge_base/chapters/ch03_submitting_data.md", "md_atom_type": "HEADING", "md_parent_section": "§3 [Submitting Data in Standard Format]", "md_verbatim": "## 3.1 Standard Metadata for Dataset Contents and Attributes", "score": 0.3, "match_basis": "verbatim_token+chapter_route:ch03"}, {"md_atom_id": "md_ch03_a021", "md_file": "knowledge_base/chapters/ch03_submitting_data.md", "md_atom_type": "HEADING", "md_parent_section": "§3.2 [Using the CDISC Domain Models in Regulatory Submissions — Dataset Metadata]", "md_verbatim": "### 3.2.1 Dataset-level Metadata", "score": 0.3, "match_basis": "verbatim_token+chapter_route:ch03"}], "candidate_count": 5, "zero_candidate": false}
{"pdf_atom_id": "sv20_p0032_a010", "pdf_atom_type": "TABLE_HEADER", "pdf_source": "SDTM_v2.0", "pdf_page": 32, "pdf_parent_section": "§3.1.3.1 Findings About Events or Interventions", "pdf_verbatim": "| # | Variable Name | Variable Label | Type | Format | Role | Variable(s) Qualified | Usage Restrictions | Variable C-code | Definition | Notes | Examples |", "figure_ref": null, "candidates": [{"md_atom_id": "md_ch03_a024", "md_file": "knowledge_base/chapters/ch03_submitting_data.md", "md_atom_type": "TABLE_HEADER", "md_parent_section": "§3.2.1 [Dataset-level Metadata]", "md_verbatim": "| Dataset | Description | Class | Structure | Purpose | Keys | Location |\n|---------|-------------|-------|-----------|---------|------|----------|", "score": 0.3205, "match_basis": "verbatim_token+chapter_route:ch03"}, {"md_atom_id": "md_ch03_a086", "md_file": "knowledge_base/chapters/ch03_submitting_data.md", "md_atom_type": "TABLE_ROW", "md_parent_section": "§3.2.1 [Dataset-level Metadata]", "md_verbatim": "| SUPP-- | Supplemental Qualifiers for [domain name] | Relationship | One record per supplemental qualifier per related parent domain record(s) | Tabulation | STUDYID, RDOMAIN, USUBJID, IDVAR, IDVARVAL, QNAM | supp--.xpt |", "score": 0.3157, "match_basis": "verbatim_token+chapter_route:ch03"}, {"md_atom_id": "md_ch03_a080", "md_file": "knowledge_base/chapters/ch03_submitting_data.md", "md_atom_type": "TABLE_ROW", "md_parent_section": "§3.2.1 [Dataset-level Metadata]", "md_verbatim": "| TM | Trial Disease Milestones | Trial Design | One record per Disease Milestone type | Tabulation | STUDYID, MIDSTYPE | tm.xpt |", "score": 0.2916, "match_basis": "verbatim_token+chapter_route:ch03"}, {"md_atom_id": "md_ch03_a062", "md_file": "knowledge_base/chapters/ch03_submitting_data.md", "md_atom_type": "TABLE_ROW", "md_parent_section": "§3.2.1 [Dataset-level Metadata]", "md_verbatim": "| PE | Physical Examination | Findings | One record per body system or abnormality per visit per subject | Tabulation | STUDYID, USUBJID, PETESTCD, VISITNUM | pe.xpt |", "score": 0.2904, "match_basis": "verbatim_token+chapter_route:ch03"}, {"md_atom_id": "md_ch03_a071", "md_file": "knowledge_base/chapters/ch03_submitting_data.md", "md_atom_type": "TABLE_ROW", "md_parent_section": "§3.2.1 [Dataset-level Metadata]", "md_verbatim": "| TU | Tumor/Lesion Identification | Findings | One record per identified tumor per subject per assessor | Tabulation | STUDYID, USUBJID, TUEVALID, TULNKID | tu.xpt |", "score": 0.2814, "match_basis": "verbatim_token+chapter_route:ch03"}], "candidate_count": 5, "zero_candidate": false}
{"pdf_atom_id": "sv20_p0032_a011", "pdf_atom_type": "TABLE_ROW", "pdf_source": "SDTM_v2.0", "pdf_page": 32, "pdf_parent_section": "§3.1.3.1 Findings About Events or Interventions", "pdf_verbatim": "| 1 | --OBJ | Object of the Observation | Char | | Record Qualifier | | | | Used in domains modeled as Findings About Events or Findings About Interventions. Describes the event or intervention whose property is being measured in --TESTCD/--TEST. | | An event of vomiting which has findings, where --OBJ=\"VOMIT\" and the volume of VOMIT is being measured where --TESTCD=\"VOLUME\". |", "figure_ref": null, "candidates": [{"md_atom_id": "md_ch03_a074", "md_file": "knowledge_base/chapters/ch03_submitting_data.md", "md_atom_type": "TABLE_ROW", "md_parent_section": "§3.2.1 [Dataset-level Metadata]", "md_verbatim": "| FA | Findings About Events or Interventions | Findings About | One record per finding, per object, per time point, per visit per subject | Tabulation | STUDYID, USUBJID, FATESTCD, FAOBJ, VISITNUM, FATPTREF, FATPTNUM | fa.xpt |", "score": 0.4543, "match_basis": "verbatim_token+chapter_route:ch03"}, {"md_atom_id": "md_ch03_a044", "md_file": "knowledge_base/chapters/ch03_submitting_data.md", "md_atom_type": "TABLE_ROW", "md_parent_section": "§3.2.1 [Dataset-level Metadata]", "md_verbatim": "| BS | Biospecimen Findings | Findings | One record per measurement per biospecimen identifier per subject | Tabulation | STUDYID, USUBJID, BSREFID, BSTESTCD | bs.xpt |", "score": 0.4319, "match_basis": "verbatim_token+chapter_route:ch03"}, {"md_atom_id": "md_ch03_a073", "md_file": "knowledge_base/chapters/ch03_submitting_data.md", "md_atom_type": "TABLE_ROW", "md_parent_section": "§3.2.1 [Dataset-level Metadata]", "md_verbatim": "| VS | Vital Signs | Findings | One record per vital sign measurement per time point per visit per subject | Tabulation | STUDYID, USUBJID, VSTESTCD, VISITNUM, VSTPTREF, VSTPTNUM | vs.xpt |", "score": 0.4143, "match_basis": "verbatim_token+chapter_route:ch03"}, {"md_atom_id": "md_ch03_a051", "md_file": "knowledge_base/chapters/ch03_submitting_data.md", "md_atom_type": "TABLE_ROW", "md_parent_section": "§3.2.1 [Dataset-level Metadata]", "md_verbatim": "| GF | Genomics Findings | Findings | One record per finding per observation per biospecimen per subject | Tabulation | STUDYID, USUBJID, GFTESTCD, GFSPEC, VISITNUM, GFTPTREF, GFTPTNUM | gf.xpt |", "score": 0.412, "match_basis": "verbatim_token+chapter_route:ch03"}, {"md_atom_id": "md_ch03_a075", "md_file": "knowledge_base/chapters/ch03_submitting_data.md", "md_atom_type": "TABLE_ROW", "md_parent_section": "§3.2.1 [Dataset-level Metadata]", "md_verbatim": "| SR | Skin Response | Findings About | One record per finding, per object, per time point, per visit per subject | Tabulation | STUDYID, USUBJID, SRTESTCD, SROBJ, VISITNUM, SRTPTREF, SRTPTNUM | sr.xpt |", "score": 0.4102, "match_basis": "verbatim_token+chapter_route:ch03"}], "candidate_count": 5, "zero_candidate": false}
{"pdf_atom_id": "sv20_p0032_a012", "pdf_atom_type": "HEADING", "pdf_source": "SDTM_v2.0", "pdf_page": 32, "pdf_parent_section": "§3.1.3 The Findings Observation Class", "pdf_verbatim": "3.1.4 Identifiers for All Classes", "figure_ref": null, "candidates": [{"md_atom_id": "md_ch03_a003", "md_file": "knowledge_base/chapters/ch03_submitting_data.md", "md_atom_type": "HEADING", "md_parent_section": "§3 [Submitting Data in Standard Format]", "md_verbatim": "## 3.1 Standard Metadata for Dataset Contents and Attributes", "score": 0.3273, "match_basis": "verbatim_token+chapter_route:ch03"}, {"md_atom_id": "md_ch03_a109", "md_file": "knowledge_base/chapters/ch03_submitting_data.md", "md_atom_type": "HEADING", "md_parent_section": "§3.2 [Using the CDISC Domain Models in Regulatory Submissions — Dataset Metadata]", "md_verbatim": "## 3.2.2 Conformance", "score": 0.325, "match_basis": "verbatim_token+chapter_route:ch03"}, {"md_atom_id": "md_ch03_a001", "md_file": "knowledge_base/chapters/ch03_submitting_data.md", "md_atom_type": "HEADING", "md_parent_section": "§3 [Submitting Data in Standard Format]", "md_verbatim": "# SDTMIG v3.4 — Chapter 3: Submitting Data in Standard Format", "score": 0.3136, "match_basis": "verbatim_token+chapter_route:ch03"}, {"md_atom_id": "md_ch03_a013", "md_file": "knowledge_base/chapters/ch03_submitting_data.md", "md_atom_type": "HEADING", "md_parent_section": "§3 [Submitting Data in Standard Format]", "md_verbatim": "## 3.2 Using the CDISC Domain Models in Regulatory Submissions — Dataset Metadata", "score": 0.3, "match_basis": "verbatim_token+chapter_route:ch03"}, {"md_atom_id": "md_ch03_a021", "md_file": "knowledge_base/chapters/ch03_submitting_data.md", "md_atom_type": "HEADING", "md_parent_section": "§3.2 [Using the CDISC Domain Models in Regulatory Submissions — Dataset Metadata]", "md_verbatim": "### 3.2.1 Dataset-level Metadata", "score": 0.3, "match_basis": "verbatim_token+chapter_route:ch03"}], "candidate_count": 5, "zero_candidate": false}
{"pdf_atom_id": "sv20_p0032_a013", "pdf_atom_type": "SENTENCE", "pdf_source": "SDTM_v2.0", "pdf_page": 32, "pdf_parent_section": "§3.1.4 Identifiers for All Classes", "pdf_verbatim": "STUDYID, DOMAIN, and --SEQ are required in all domains based on one of the 3 general observation classes.", "figure_ref": null, "candidates": [{"md_atom_id": "md_ch03_a009", "md_file": "knowledge_base/chapters/ch03_submitting_data.md", "md_atom_type": "SENTENCE", "md_parent_section": "§3.1 [Standard Metadata for Dataset Contents and Attributes]", "md_verbatim": "The domain models in Section 6, Domain Models Based on the General Observation Classes, illustrate how to apply the SDTM when creating a specific domain dataset.", "score": 0.4976, "match_basis": "verbatim_token+chapter_route:ch03"}, {"md_atom_id": "md_ch03_a095", "md_file": "knowledge_base/chapters/ch03_submitting_data.md", "md_atom_type": "SENTENCE", "md_parent_section": "§3.2.1.1 [Primary Keys]", "md_verbatim": "For all the general observation-class domains (and for some special-purpose domains), the --SEQ variable was created so that a unique record could be identified consistently across all of these domains via its use, along with STUDYID, USUBJID, and DOMAIN.", "score": 0.4576, "match_basis": "verbatim_token+chapter_route:ch03"}, {"md_atom_id": "md_ch03_a016", "md_file": "knowledge_base/chapters/ch03_submitting_data.md", "md_atom_type": "SENTENCE", "md_parent_section": "§3.2 [Using the CDISC Domain Models in Regulatory Submissions — Dataset Metadata]", "md_verbatim": "Most studies will include Demographics (DM) and a set of safety domains based on the 3 general observation classes — typically including Exposure (EX), Concomitant and Prior Medications (CM), Adverse Events (AE), Disposition (DS), Medical History (MH), Laboratory Test Results (LB), and Vital Signs (VS).", "score": 0.4371, "match_basis": "verbatim_token+chapter_route:ch03"}, {"md_atom_id": "md_ch03_a010", "md_file": "knowledge_base/chapters/ch03_submitting_data.md", "md_atom_type": "SENTENCE", "md_parent_section": "§3.1 [Standard Metadata for Dataset Contents and Attributes]", "md_verbatim": "In particular, these models illustrate the selection of a subset of the variables offered in 1 of the general observation classes, along with applicable timing variables.", "score": 0.426, "match_basis": "verbatim_token+chapter_route:ch03"}, {"md_atom_id": "md_ch03_a103", "md_file": "knowledge_base/chapters/ch03_submitting_data.md", "md_atom_type": "SENTENCE", "md_parent_section": "§3.2.1.2 [CDISC Submission Value-level Metadata]", "md_verbatim": "In general, findings data models are closely related to normalized, relational data models in a vertical structure of 1 record per observation.", "score": 0.3957, "match_basis": "verbatim_token+chapter_route:ch03"}], "candidate_count": 5, "zero_candidate": false}
{"pdf_atom_id": "sv20_p0032_a014", "pdf_atom_type": "SENTENCE", "pdf_source": "SDTM_v2.0", "pdf_page": 32, "pdf_parent_section": "§3.1.4 Identifiers for All Classes", "pdf_verbatim": "Each general class domain must also include at least 1 of the following subject identifiers: USUBJID, SPDEVID, or POOLID.", "figure_ref": null, "candidates": [{"md_atom_id": "md_ch03_a095", "md_file": "knowledge_base/chapters/ch03_submitting_data.md", "md_atom_type": "SENTENCE", "md_parent_section": "§3.2.1.1 [Primary Keys]", "md_verbatim": "For all the general observation-class domains (and for some special-purpose domains), the --SEQ variable was created so that a unique record could be identified consistently across all of these domains via its use, along with STUDYID, USUBJID, and DOMAIN.", "score": 0.4071, "match_basis": "verbatim_token+chapter_route:ch03"}, {"md_atom_id": "md_ch03_a009", "md_file": "knowledge_base/chapters/ch03_submitting_data.md", "md_atom_type": "SENTENCE", "md_parent_section": "§3.1 [Standard Metadata for Dataset Contents and Attributes]", "md_verbatim": "The domain models in Section 6, Domain Models Based on the General Observation Classes, illustrate how to apply the SDTM when creating a specific domain dataset.", "score": 0.3944, "match_basis": "verbatim_token+chapter_route:ch03"}, {"md_atom_id": "md_ch03_a011", "md_file": "knowledge_base/chapters/ch03_submitting_data.md", "md_atom_type": "SENTENCE", "md_parent_section": "§3.1 [Standard Metadata for Dataset Contents and Attributes]", "md_verbatim": "The models also show how a standard variable from a general observation class should be adjusted to meet the specific content needs of a particular domain, including making the label more meaningful, specifying controlled terminology, and creating domain-specific notes and examples.", "score": 0.3867, "match_basis": "verbatim_token+chapter_route:ch03"}, {"md_atom_id": "md_ch03_a016", "md_file": "knowledge_base/chapters/ch03_submitting_data.md", "md_atom_type": "SENTENCE", "md_parent_section": "§3.2 [Using the CDISC Domain Models in Regulatory Submissions — Dataset Metadata]", "md_verbatim": "Most studies will include Demographics (DM) and a set of safety domains based on the 3 general observation classes — typically including Exposure (EX), Concomitant and Prior Medications (CM), Adverse Events (AE), Disposition (DS), Medical History (MH), Laboratory Test Results (LB), and Vital Signs (VS).", "score": 0.3754, "match_basis": "verbatim_token+chapter_route:ch03"}, {"md_atom_id": "md_ch03_a006", "md_file": "knowledge_base/chapters/ch03_submitting_data.md", "md_atom_type": "SENTENCE", "md_parent_section": "§3.1 [Standard Metadata for Dataset Contents and Attributes]", "md_verbatim": "In addition, the CDISC domain models include 2 shaded columns that are not sent to the FDA, but which assist sponsors:", "score": 0.3713, "match_basis": "verbatim_token+chapter_route:ch03"}], "candidate_count": 5, "zero_candidate": false}
{"pdf_atom_id": "sv20_p0032_a015", "pdf_atom_type": "SENTENCE", "pdf_source": "SDTM_v2.0", "pdf_page": 32, "pdf_parent_section": "§3.1.4 Identifiers for All Classes", "pdf_verbatim": "All identifier variables are allowed for any domain based on one of the 3 general observation classes, unless otherwise noted in the Usage Restrictions.", "figure_ref": null, "candidates": [{"md_atom_id": "md_ch03_a095", "md_file": "knowledge_base/chapters/ch03_submitting_data.md", "md_atom_type": "SENTENCE", "md_parent_section": "§3.2.1.1 [Primary Keys]", "md_verbatim": "For all the general observation-class domains (and for some special-purpose domains), the --SEQ variable was created so that a unique record could be identified consistently across all of these domains via its use, along with STUDYID, USUBJID, and DOMAIN.", "score": 0.4671, "match_basis": "verbatim_token+chapter_route:ch03"}, {"md_atom_id": "md_ch03_a009", "md_file": "knowledge_base/chapters/ch03_submitting_data.md", "md_atom_type": "SENTENCE", "md_parent_section": "§3.1 [Standard Metadata for Dataset Contents and Attributes]", "md_verbatim": "The domain models in Section 6, Domain Models Based on the General Observation Classes, illustrate how to apply the SDTM when creating a specific domain dataset.", "score": 0.4651, "match_basis": "verbatim_token+chapter_route:ch03"}, {"md_atom_id": "md_ch03_a010", "md_file": "knowledge_base/chapters/ch03_submitting_data.md", "md_atom_type": "SENTENCE", "md_parent_section": "§3.1 [Standard Metadata for Dataset Contents and Attributes]", "md_verbatim": "In particular, these models illustrate the selection of a subset of the variables offered in 1 of the general observation classes, along with applicable timing variables.", "score": 0.4426, "match_basis": "verbatim_token+chapter_route:ch03"}, {"md_atom_id": "md_ch03_a011", "md_file": "knowledge_base/chapters/ch03_submitting_data.md", "md_atom_type": "SENTENCE", "md_parent_section": "§3.1 [Standard Metadata for Dataset Contents and Attributes]", "md_verbatim": "The models also show how a standard variable from a general observation class should be adjusted to meet the specific content needs of a particular domain, including making the label more meaningful, specifying controlled terminology, and creating domain-specific notes and examples.", "score": 0.42, "match_basis": "verbatim_token+chapter_route:ch03"}, {"md_atom_id": "md_ch03_a016", "md_file": "knowledge_base/chapters/ch03_submitting_data.md", "md_atom_type": "SENTENCE", "md_parent_section": "§3.2 [Using the CDISC Domain Models in Regulatory Submissions — Dataset Metadata]", "md_verbatim": "Most studies will include Demographics (DM) and a set of safety domains based on the 3 general observation classes — typically including Exposure (EX), Concomitant and Prior Medications (CM), Adverse Events (AE), Disposition (DS), Medical History (MH), Laboratory Test Results (LB), and Vital Signs (VS).", "score": 0.4129, "match_basis": "verbatim_token+chapter_route:ch03"}], "candidate_count": 5, "zero_candidate": false}
{"pdf_atom_id": "sv20_p0033_a001", "pdf_atom_type": "HEADING", "pdf_source": "SDTM_v2.0", "pdf_page": 33, "pdf_parent_section": "§3.1.4 Identifiers for All Classes", "pdf_verbatim": "All Observation Classes—Identifiers", "figure_ref": null, "candidates": [{"md_atom_id": "md_ch03_a102", "md_file": "knowledge_base/chapters/ch03_submitting_data.md", "md_atom_type": "HEADING", "md_parent_section": "§3.2.1 [Dataset-level Metadata]", "md_verbatim": "### 3.2.1.2 CDISC Submission Value-level Metadata", "score": 0.313, "match_basis": "verbatim_token+chapter_route:ch03"}, {"md_atom_id": "md_ch03_a003", "md_file": "knowledge_base/chapters/ch03_submitting_data.md", "md_atom_type": "HEADING", "md_parent_section": "§3 [Submitting Data in Standard Format]", "md_verbatim": "## 3.1 Standard Metadata for Dataset Contents and Attributes", "score": 0.3113, "match_basis": "verbatim_token+chapter_route:ch03"}, {"md_atom_id": "md_ch03_a013", "md_file": "knowledge_base/chapters/ch03_submitting_data.md", "md_atom_type": "HEADING", "md_parent_section": "§3 [Submitting Data in Standard Format]", "md_verbatim": "## 3.2 Using the CDISC Domain Models in Regulatory Submissions — Dataset Metadata", "score": 0.3094, "match_basis": "verbatim_token+chapter_route:ch03"}, {"md_atom_id": "md_ch03_a001", "md_file": "knowledge_base/chapters/ch03_submitting_data.md", "md_atom_type": "HEADING", "md_parent_section": "§3 [Submitting Data in Standard Format]", "md_verbatim": "# SDTMIG v3.4 — Chapter 3: Submitting Data in Standard Format", "score": 0.3, "match_basis": "verbatim_token+chapter_route:ch03"}, {"md_atom_id": "md_ch03_a021", "md_file": "knowledge_base/chapters/ch03_submitting_data.md", "md_atom_type": "HEADING", "md_parent_section": "§3.2 [Using the CDISC Domain Models in Regulatory Submissions — Dataset Metadata]", "md_verbatim": "### 3.2.1 Dataset-level Metadata", "score": 0.3, "match_basis": "verbatim_token+chapter_route:ch03"}], "candidate_count": 5, "zero_candidate": false}
{"pdf_atom_id": "sv20_p0033_a002", "pdf_atom_type": "TABLE_HEADER", "pdf_source": "SDTM_v2.0", "pdf_page": 33, "pdf_parent_section": "§3.1.4 Identifiers for All Classes", "pdf_verbatim": "| # | Variable Name | Variable Label | Type | Format | Role | Variable(s) Qualified | Usage Restrictions | Variable C-code | Definition | Notes | Examples |", "figure_ref": null, "candidates": [{"md_atom_id": "md_ch03_a024", "md_file": "knowledge_base/chapters/ch03_submitting_data.md", "md_atom_type": "TABLE_HEADER", "md_parent_section": "§3.2.1 [Dataset-level Metadata]", "md_verbatim": "| Dataset | Description | Class | Structure | Purpose | Keys | Location |\n|---------|-------------|-------|-----------|---------|------|----------|", "score": 0.3205, "match_basis": "verbatim_token+chapter_route:ch03"}, {"md_atom_id": "md_ch03_a086", "md_file": "knowledge_base/chapters/ch03_submitting_data.md", "md_atom_type": "TABLE_ROW", "md_parent_section": "§3.2.1 [Dataset-level Metadata]", "md_verbatim": "| SUPP-- | Supplemental Qualifiers for [domain name] | Relationship | One record per supplemental qualifier per related parent domain record(s) | Tabulation | STUDYID, RDOMAIN, USUBJID, IDVAR, IDVARVAL, QNAM | supp--.xpt |", "score": 0.3157, "match_basis": "verbatim_token+chapter_route:ch03"}, {"md_atom_id": "md_ch03_a080", "md_file": "knowledge_base/chapters/ch03_submitting_data.md", "md_atom_type": "TABLE_ROW", "md_parent_section": "§3.2.1 [Dataset-level Metadata]", "md_verbatim": "| TM | Trial Disease Milestones | Trial Design | One record per Disease Milestone type | Tabulation | STUDYID, MIDSTYPE | tm.xpt |", "score": 0.2916, "match_basis": "verbatim_token+chapter_route:ch03"}, {"md_atom_id": "md_ch03_a062", "md_file": "knowledge_base/chapters/ch03_submitting_data.md", "md_atom_type": "TABLE_ROW", "md_parent_section": "§3.2.1 [Dataset-level Metadata]", "md_verbatim": "| PE | Physical Examination | Findings | One record per body system or abnormality per visit per subject | Tabulation | STUDYID, USUBJID, PETESTCD, VISITNUM | pe.xpt |", "score": 0.2904, "match_basis": "verbatim_token+chapter_route:ch03"}, {"md_atom_id": "md_ch03_a071", "md_file": "knowledge_base/chapters/ch03_submitting_data.md", "md_atom_type": "TABLE_ROW", "md_parent_section": "§3.2.1 [Dataset-level Metadata]", "md_verbatim": "| TU | Tumor/Lesion Identification | Findings | One record per identified tumor per subject per assessor | Tabulation | STUDYID, USUBJID, TUEVALID, TULNKID | tu.xpt |", "score": 0.2814, "match_basis": "verbatim_token+chapter_route:ch03"}], "candidate_count": 5, "zero_candidate": false}
{"pdf_atom_id": "sv20_p0033_a003", "pdf_atom_type": "TABLE_ROW", "pdf_source": "SDTM_v2.0", "pdf_page": 33, "pdf_parent_section": "§3.1.4 Identifiers for All Classes", "pdf_verbatim": "| 1 | STUDYID | Study Identifier | Char | | Identifier | | | C83082 | A sequence of characters used by the sponsor to uniquely identify the study. | | |", "figure_ref": null, "candidates": [{"md_atom_id": "md_ch03_a087", "md_file": "knowledge_base/chapters/ch03_submitting_data.md", "md_atom_type": "TABLE_ROW", "md_parent_section": "§3.2.1 [Dataset-level Metadata]", "md_verbatim": "| OI | Non-host Organism Identifiers | Study Reference | One record per taxon per non-host organism | Tabulation | NHOID, OISEQ | oi.xpt |", "score": 0.4098, "match_basis": "verbatim_token+chapter_route:ch03"}, {"md_atom_id": "md_ch03_a084", "md_file": "knowledge_base/chapters/ch03_submitting_data.md", "md_atom_type": "TABLE_ROW", "md_parent_section": "§3.2.1 [Dataset-level Metadata]", "md_verbatim": "| RELSPEC | Related Specimens | Relationship | One record per specimen identifier per subject | Tabulation | STUDYID, USUBJID, REFID | relspec.xpt |", "score": 0.3966, "match_basis": "verbatim_token+chapter_route:ch03"}, {"md_atom_id": "md_ch03_a038", "md_file": "knowledge_base/chapters/ch03_submitting_data.md", "md_atom_type": "TABLE_ROW", "md_parent_section": "§3.2.1 [Dataset-level Metadata]", "md_verbatim": "| BE | Biospecimen Events | Events | One record per instance per biospecimen event per biospecimen identifier per subject | Tabulation | STUDYID, USUBJID, BEREFID, BETERM, BESTDTC | be.xpt |", "score": 0.3918, "match_basis": "verbatim_token+chapter_route:ch03"}, {"md_atom_id": "md_ch03_a068", "md_file": "knowledge_base/chapters/ch03_submitting_data.md", "md_atom_type": "TABLE_ROW", "md_parent_section": "§3.2.1 [Dataset-level Metadata]", "md_verbatim": "| SC | Subject Characteristics | Findings | One record per characteristic per visit per subject. | Tabulation | STUDYID, USUBJID, SCTESTCD, VISITNUM | sc.xpt |", "score": 0.3791, "match_basis": "verbatim_token+chapter_route:ch03"}, {"md_atom_id": "md_ch03_a071", "md_file": "knowledge_base/chapters/ch03_submitting_data.md", "md_atom_type": "TABLE_ROW", "md_parent_section": "§3.2.1 [Dataset-level Metadata]", "md_verbatim": "| TU | Tumor/Lesion Identification | Findings | One record per identified tumor per subject per assessor | Tabulation | STUDYID, USUBJID, TUEVALID, TULNKID | tu.xpt |", "score": 0.378, "match_basis": "verbatim_token+chapter_route:ch03"}], "candidate_count": 5, "zero_candidate": false}
{"pdf_atom_id": "sv20_p0033_a004", "pdf_atom_type": "TABLE_ROW", "pdf_source": "SDTM_v2.0", "pdf_page": 33, "pdf_parent_section": "§3.1.4 Identifiers for All Classes", "pdf_verbatim": "| 2 | DOMAIN | Domain Abbreviation | Char | | Identifier | | | C49558 | An abbreviation for a collection of observations, with a topic-specific commonality. | 2-character abbreviation. The domain abbreviation is also used as a prefix for variables to ensure uniqueness when datasets are merged. | |", "figure_ref": null, "candidates": [{"md_atom_id": "md_ch03_a032", "md_file": "knowledge_base/chapters/ch03_submitting_data.md", "md_atom_type": "TABLE_ROW", "md_parent_section": "§3.2.1 [Dataset-level Metadata]", "md_verbatim": "| EC | Exposure as Collected | Interventions | One record per protocol-specified study treatment, collected-dosing interval, per subject, per mood | Tabulation | STUDYID, USUBJID, ECTRT, ECSTDTC, ECMOOD | ec.xpt |", "score": 0.3821, "match_basis": "verbatim_token+chapter_route:ch03"}, {"md_atom_id": "md_ch03_a084", "md_file": "knowledge_base/chapters/ch03_submitting_data.md", "md_atom_type": "TABLE_ROW", "md_parent_section": "§3.2.1 [Dataset-level Metadata]", "md_verbatim": "| RELSPEC | Related Specimens | Relationship | One record per specimen identifier per subject | Tabulation | STUDYID, USUBJID, REFID | relspec.xpt |", "score": 0.3792, "match_basis": "verbatim_token+chapter_route:ch03"}, {"md_atom_id": "md_ch03_a044", "md_file": "knowledge_base/chapters/ch03_submitting_data.md", "md_atom_type": "TABLE_ROW", "md_parent_section": "§3.2.1 [Dataset-level Metadata]", "md_verbatim": "| BS | Biospecimen Findings | Findings | One record per measurement per biospecimen identifier per subject | Tabulation | STUDYID, USUBJID, BSREFID, BSTESTCD | bs.xpt |", "score": 0.3726, "match_basis": "verbatim_token+chapter_route:ch03"}, {"md_atom_id": "md_ch03_a038", "md_file": "knowledge_base/chapters/ch03_submitting_data.md", "md_atom_type": "TABLE_ROW", "md_parent_section": "§3.2.1 [Dataset-level Metadata]", "md_verbatim": "| BE | Biospecimen Events | Events | One record per instance per biospecimen event per biospecimen identifier per subject | Tabulation | STUDYID, USUBJID, BEREFID, BETERM, BESTDTC | be.xpt |", "score": 0.3688, "match_basis": "verbatim_token+chapter_route:ch03"}, {"md_atom_id": "md_ch03_a033", "md_file": "knowledge_base/chapters/ch03_submitting_data.md", "md_atom_type": "TABLE_ROW", "md_parent_section": "§3.2.1 [Dataset-level Metadata]", "md_verbatim": "| EX | Exposure | Interventions | One record per protocol-specified study treatment, constant-dosing interval, per subject | Tabulation | STUDYID, USUBJID, EXTRT, EXSTDTC | ex.xpt |", "score": 0.3675, "match_basis": "verbatim_token+chapter_route:ch03"}], "candidate_count": 5, "zero_candidate": false}
{"pdf_atom_id": "sv20_p0033_a005", "pdf_atom_type": "TABLE_ROW", "pdf_source": "SDTM_v2.0", "pdf_page": 33, "pdf_parent_section": "§3.1.4 Identifiers for All Classes", "pdf_verbatim": "| 3 | USUBJID | Unique Subject Identifier | Char | | Identifier | | | C69256 | A sequence of characters used to uniquely identify a subject across all studies for all applications or submissions involving the product. | | |", "figure_ref": null, "candidates": [{"md_atom_id": "md_ch03_a071", "md_file": "knowledge_base/chapters/ch03_submitting_data.md", "md_atom_type": "TABLE_ROW", "md_parent_section": "§3.2.1 [Dataset-level Metadata]", "md_verbatim": "| TU | Tumor/Lesion Identification | Findings | One record per identified tumor per subject per assessor | Tabulation | STUDYID, USUBJID, TUEVALID, TULNKID | tu.xpt |", "score": 0.4143, "match_basis": "verbatim_token+chapter_route:ch03"}, {"md_atom_id": "md_ch03_a084", "md_file": "knowledge_base/chapters/ch03_submitting_data.md", "md_atom_type": "TABLE_ROW", "md_parent_section": "§3.2.1 [Dataset-level Metadata]", "md_verbatim": "| RELSPEC | Related Specimens | Relationship | One record per specimen identifier per subject | Tabulation | STUDYID, USUBJID, REFID | relspec.xpt |", "score": 0.4138, "match_basis": "verbatim_token+chapter_route:ch03"}, {"md_atom_id": "md_ch03_a034", "md_file": "knowledge_base/chapters/ch03_submitting_data.md", "md_atom_type": "TABLE_ROW", "md_parent_section": "§3.2.1 [Dataset-level Metadata]", "md_verbatim": "| ML | Meal Data | Interventions | One record per food product occurrence or constant intake interval per subject | Tabulation | STUDYID, USUBJID, MLTRT, MLSTDTC | ml.xpt |", "score": 0.4091, "match_basis": "verbatim_token+chapter_route:ch03"}, {"md_atom_id": "md_ch03_a038", "md_file": "knowledge_base/chapters/ch03_submitting_data.md", "md_atom_type": "TABLE_ROW", "md_parent_section": "§3.2.1 [Dataset-level Metadata]", "md_verbatim": "| BE | Biospecimen Events | Events | One record per instance per biospecimen event per biospecimen identifier per subject | Tabulation | STUDYID, USUBJID, BEREFID, BETERM, BESTDTC | be.xpt |", "score": 0.4087, "match_basis": "verbatim_token+chapter_route:ch03"}, {"md_atom_id": "md_ch03_a068", "md_file": "knowledge_base/chapters/ch03_submitting_data.md", "md_atom_type": "TABLE_ROW", "md_parent_section": "§3.2.1 [Dataset-level Metadata]", "md_verbatim": "| SC | Subject Characteristics | Findings | One record per characteristic per visit per subject. | Tabulation | STUDYID, USUBJID, SCTESTCD, VISITNUM | sc.xpt |", "score": 0.4059, "match_basis": "verbatim_token+chapter_route:ch03"}], "candidate_count": 5, "zero_candidate": false}
{"pdf_atom_id": "sv20_p0033_a006", "pdf_atom_type": "TABLE_ROW", "pdf_source": "SDTM_v2.0", "pdf_page": 33, "pdf_parent_section": "§3.1.4 Identifiers for All Classes", "pdf_verbatim": "| 4 | POOLID | Pool Identifier | Char | | Identifier | | | C117053 | A sequence of characters used to uniquely identify a group of subjects that have been pooled together. | Used for results that are not assignable to a specific subject. | |", "figure_ref": null, "candidates": [{"md_atom_id": "md_ch03_a038", "md_file": "knowledge_base/chapters/ch03_submitting_data.md", "md_atom_type": "TABLE_ROW", "md_parent_section": "§3.2.1 [Dataset-level Metadata]", "md_verbatim": "| BE | Biospecimen Events | Events | One record per instance per biospecimen event per biospecimen identifier per subject | Tabulation | STUDYID, USUBJID, BEREFID, BETERM, BESTDTC | be.xpt |", "score": 0.3812, "match_basis": "verbatim_token+chapter_route:ch03"}, {"md_atom_id": "md_ch03_a084", "md_file": "knowledge_base/chapters/ch03_submitting_data.md", "md_atom_type": "TABLE_ROW", "md_parent_section": "§3.2.1 [Dataset-level Metadata]", "md_verbatim": "| RELSPEC | Related Specimens | Relationship | One record per specimen identifier per subject | Tabulation | STUDYID, USUBJID, REFID | relspec.xpt |", "score": 0.378, "match_basis": "verbatim_token+chapter_route:ch03"}, {"md_atom_id": "md_ch03_a044", "md_file": "knowledge_base/chapters/ch03_submitting_data.md", "md_atom_type": "TABLE_ROW", "md_parent_section": "§3.2.1 [Dataset-level Metadata]", "md_verbatim": "| BS | Biospecimen Findings | Findings | One record per measurement per biospecimen identifier per subject | Tabulation | STUDYID, USUBJID, BSREFID, BSTESTCD | bs.xpt |", "score": 0.3706, "match_basis": "verbatim_token+chapter_route:ch03"}, {"md_atom_id": "md_ch03_a071", "md_file": "knowledge_base/chapters/ch03_submitting_data.md", "md_atom_type": "TABLE_ROW", "md_parent_section": "§3.2.1 [Dataset-level Metadata]", "md_verbatim": "| TU | Tumor/Lesion Identification | Findings | One record per identified tumor per subject per assessor | Tabulation | STUDYID, USUBJID, TUEVALID, TULNKID | tu.xpt |", "score": 0.3662, "match_basis": "verbatim_token+chapter_route:ch03"}, {"md_atom_id": "md_ch03_a032", "md_file": "knowledge_base/chapters/ch03_submitting_data.md", "md_atom_type": "TABLE_ROW", "md_parent_section": "§3.2.1 [Dataset-level Metadata]", "md_verbatim": "| EC | Exposure as Collected | Interventions | One record per protocol-specified study treatment, collected-dosing interval, per subject, per mood | Tabulation | STUDYID, USUBJID, ECTRT, ECSTDTC, ECMOOD | ec.xpt |", "score": 0.3592, "match_basis": "verbatim_token+chapter_route:ch03"}], "candidate_count": 5, "zero_candidate": false}
{"pdf_atom_id": "sv20_p0033_a007", "pdf_atom_type": "TABLE_ROW", "pdf_source": "SDTM_v2.0", "pdf_page": 33, "pdf_parent_section": "§3.1.4 Identifiers for All Classes", "pdf_verbatim": "| 5 | SPDEVID | Sponsor Device Identifier | Char | | Identifier | | | C117060 | A sequence of characters used by the sponsor to uniquely identify a specific device. | | |", "figure_ref": null, "candidates": [{"md_atom_id": "md_ch03_a087", "md_file": "knowledge_base/chapters/ch03_submitting_data.md", "md_atom_type": "TABLE_ROW", "md_parent_section": "§3.2.1 [Dataset-level Metadata]", "md_verbatim": "| OI | Non-host Organism Identifiers | Study Reference | One record per taxon per non-host organism | Tabulation | NHOID, OISEQ | oi.xpt |", "score": 0.3774, "match_basis": "verbatim_token+chapter_route:ch03"}, {"md_atom_id": "md_ch03_a084", "md_file": "knowledge_base/chapters/ch03_submitting_data.md", "md_atom_type": "TABLE_ROW", "md_parent_section": "§3.2.1 [Dataset-level Metadata]", "md_verbatim": "| RELSPEC | Related Specimens | Relationship | One record per specimen identifier per subject | Tabulation | STUDYID, USUBJID, REFID | relspec.xpt |", "score": 0.3742, "match_basis": "verbatim_token+chapter_route:ch03"}, {"md_atom_id": "md_ch03_a038", "md_file": "knowledge_base/chapters/ch03_submitting_data.md", "md_atom_type": "TABLE_ROW", "md_parent_section": "§3.2.1 [Dataset-level Metadata]", "md_verbatim": "| BE | Biospecimen Events | Events | One record per instance per biospecimen event per biospecimen identifier per subject | Tabulation | STUDYID, USUBJID, BEREFID, BETERM, BESTDTC | be.xpt |", "score": 0.3722, "match_basis": "verbatim_token+chapter_route:ch03"}, {"md_atom_id": "md_ch03_a044", "md_file": "knowledge_base/chapters/ch03_submitting_data.md", "md_atom_type": "TABLE_ROW", "md_parent_section": "§3.2.1 [Dataset-level Metadata]", "md_verbatim": "| BS | Biospecimen Findings | Findings | One record per measurement per biospecimen identifier per subject | Tabulation | STUDYID, USUBJID, BSREFID, BSTESTCD | bs.xpt |", "score": 0.3595, "match_basis": "verbatim_token+chapter_route:ch03"}, {"md_atom_id": "md_ch03_a032", "md_file": "knowledge_base/chapters/ch03_submitting_data.md", "md_atom_type": "TABLE_ROW", "md_parent_section": "§3.2.1 [Dataset-level Metadata]", "md_verbatim": "| EC | Exposure as Collected | Interventions | One record per protocol-specified study treatment, collected-dosing interval, per subject, per mood | Tabulation | STUDYID, USUBJID, ECTRT, ECSTDTC, ECMOOD | ec.xpt |", "score": 0.3524, "match_basis": "verbatim_token+chapter_route:ch03"}], "candidate_count": 5, "zero_candidate": false}
{"pdf_atom_id": "sv20_p0033_a008", "pdf_atom_type": "TABLE_ROW", "pdf_source": "SDTM_v2.0", "pdf_page": 33, "pdf_parent_section": "§3.1.4 Identifiers for All Classes", "pdf_verbatim": "| 6 | NHOID | Non-Host Organism Identifier | Char | | Identifier | | | | Sponsor-defined identifier for a non-host organism. This variable should be populated with an intuitive name based on the identity of the non-host organism as reported by the lab. | | \"A/California/7/2009 (H1N1)\" |", "figure_ref": null, "candidates": [{"md_atom_id": "md_ch03_a087", "md_file": "knowledge_base/chapters/ch03_submitting_data.md", "md_atom_type": "TABLE_ROW", "md_parent_section": "§3.2.1 [Dataset-level Metadata]", "md_verbatim": "| OI | Non-host Organism Identifiers | Study Reference | One record per taxon per non-host organism | Tabulation | NHOID, OISEQ | oi.xpt |", "score": 0.4138, "match_basis": "verbatim_token+chapter_route:ch03"}, {"md_atom_id": "md_ch03_a084", "md_file": "knowledge_base/chapters/ch03_submitting_data.md", "md_atom_type": "TABLE_ROW", "md_parent_section": "§3.2.1 [Dataset-level Metadata]", "md_verbatim": "| RELSPEC | Related Specimens | Relationship | One record per specimen identifier per subject | Tabulation | STUDYID, USUBJID, REFID | relspec.xpt |", "score": 0.3656, "match_basis": "verbatim_token+chapter_route:ch03"}, {"md_atom_id": "md_ch03_a086", "md_file": "knowledge_base/chapters/ch03_submitting_data.md", "md_atom_type": "TABLE_ROW", "md_parent_section": "§3.2.1 [Dataset-level Metadata]", "md_verbatim": "| SUPP-- | Supplemental Qualifiers for [domain name] | Relationship | One record per supplemental qualifier per related parent domain record(s) | Tabulation | STUDYID, RDOMAIN, USUBJID, IDVAR, IDVARVAL, QNAM | supp--.xpt |", "score": 0.3643, "match_basis": "verbatim_token+chapter_route:ch03"}, {"md_atom_id": "md_ch03_a036", "md_file": "knowledge_base/chapters/ch03_submitting_data.md", "md_atom_type": "TABLE_ROW", "md_parent_section": "§3.2.1 [Dataset-level Metadata]", "md_verbatim": "| SU | Substance Use | Interventions | One record per substance type per reported occurrence per subject | Tabulation | STUDYID, USUBJID, SUTRT, SUSTDTC | su.xpt |", "score": 0.3511, "match_basis": "verbatim_token+chapter_route:ch03"}, {"md_atom_id": "md_ch03_a071", "md_file": "knowledge_base/chapters/ch03_submitting_data.md", "md_atom_type": "TABLE_ROW", "md_parent_section": "§3.2.1 [Dataset-level Metadata]", "md_verbatim": "| TU | Tumor/Lesion Identification | Findings | One record per identified tumor per subject per assessor | Tabulation | STUDYID, USUBJID, TUEVALID, TULNKID | tu.xpt |", "score": 0.3507, "match_basis": "verbatim_token+chapter_route:ch03"}], "candidate_count": 5, "zero_candidate": false}
{"pdf_atom_id": "sv20_p0033_a009", "pdf_atom_type": "TABLE_ROW", "pdf_source": "SDTM_v2.0", "pdf_page": 33, "pdf_parent_section": "§3.1.4 Identifiers for All Classes", "pdf_verbatim": "| 7 | FETUSID | Fetus Identifier | Char | | Identifier | | Not in human clinical trials | C170497 | A sequence of characters used to uniquely identify a fetus associated with a maternal subject, for a particular prenatal evaluation. | | |", "figure_ref": null, "candidates": [{"md_atom_id": "md_ch03_a071", "md_file": "knowledge_base/chapters/ch03_submitting_data.md", "md_atom_type": "TABLE_ROW", "md_parent_section": "§3.2.1 [Dataset-level Metadata]", "md_verbatim": "| TU | Tumor/Lesion Identification | Findings | One record per identified tumor per subject per assessor | Tabulation | STUDYID, USUBJID, TUEVALID, TULNKID | tu.xpt |", "score": 0.3881, "match_basis": "verbatim_token+chapter_route:ch03"}, {"md_atom_id": "md_ch03_a084", "md_file": "knowledge_base/chapters/ch03_submitting_data.md", "md_atom_type": "TABLE_ROW", "md_parent_section": "§3.2.1 [Dataset-level Metadata]", "md_verbatim": "| RELSPEC | Related Specimens | Relationship | One record per specimen identifier per subject | Tabulation | STUDYID, USUBJID, REFID | relspec.xpt |", "score": 0.3857, "match_basis": "verbatim_token+chapter_route:ch03"}, {"md_atom_id": "md_ch03_a039", "md_file": "knowledge_base/chapters/ch03_submitting_data.md", "md_atom_type": "TABLE_ROW", "md_parent_section": "§3.2.1 [Dataset-level Metadata]", "md_verbatim": "| CE | Clinical Events | Events | One record per event per subject | Tabulation | STUDYID, USUBJID, CETERM, CESTDTC | ce.xpt |", "score": 0.381, "match_basis": "verbatim_token+chapter_route:ch03"}, {"md_atom_id": "md_ch03_a067", "md_file": "knowledge_base/chapters/ch03_submitting_data.md", "md_atom_type": "TABLE_ROW", "md_parent_section": "§3.2.1 [Dataset-level Metadata]", "md_verbatim": "| RS | Disease Response and Clin Classification | Findings | One record per response assessment or clinical classification assessment per time point per visit per subject per assessor per medical evaluator | Tabulation | STUDYID, USUBJID, RSTESTCD, VISITNUM, RSTPTREF, RSEVAL, RSPTPNUM, RSEVALID | rs.xpt |", "score": 0.3791, "match_basis": "verbatim_token+chapter_route:ch03"}, {"md_atom_id": "md_ch03_a038", "md_file": "knowledge_base/chapters/ch03_submitting_data.md", "md_atom_type": "TABLE_ROW", "md_parent_section": "§3.2.1 [Dataset-level Metadata]", "md_verbatim": "| BE | Biospecimen Events | Events | One record per instance per biospecimen event per biospecimen identifier per subject | Tabulation | STUDYID, USUBJID, BEREFID, BETERM, BESTDTC | be.xpt |", "score": 0.3786, "match_basis": "verbatim_token+chapter_route:ch03"}], "candidate_count": 5, "zero_candidate": false}
{"pdf_atom_id": "sv20_p0033_a010", "pdf_atom_type": "TABLE_ROW", "pdf_source": "SDTM_v2.0", "pdf_page": 33, "pdf_parent_section": "§3.1.4 Identifiers for All Classes", "pdf_verbatim": "| 8 | FOCID | Focus of Study-Specific Interest | Char | | Identifier | | | | Identification of a focus of study-specific interest on or within a subject or specimen as called out in the protocol for which a measurement, test, or examination was performed. The value in this variable should have inherent semantic meaning. | | A drug application site (e.g., \"Injection site 1\", \"Biopsy site 1\", \"Treated site 1\"), or a more specific focus (e.g., \"OD\" (right eye), \"Upper left quadrant of the back\") |", "figure_ref": null, "candidates": [{"md_atom_id": "md_ch03_a044", "md_file": "knowledge_base/chapters/ch03_submitting_data.md", "md_atom_type": "TABLE_ROW", "md_parent_section": "§3.2.1 [Dataset-level Metadata]", "md_verbatim": "| BS | Biospecimen Findings | Findings | One record per measurement per biospecimen identifier per subject | Tabulation | STUDYID, USUBJID, BSREFID, BSTESTCD | bs.xpt |", "score": 0.4227, "match_basis": "verbatim_token+chapter_route:ch03"}, {"md_atom_id": "md_ch03_a032", "md_file": "knowledge_base/chapters/ch03_submitting_data.md", "md_atom_type": "TABLE_ROW", "md_parent_section": "§3.2.1 [Dataset-level Metadata]", "md_verbatim": "| EC | Exposure as Collected | Interventions | One record per protocol-specified study treatment, collected-dosing interval, per subject, per mood | Tabulation | STUDYID, USUBJID, ECTRT, ECSTDTC, ECMOOD | ec.xpt |", "score": 0.4206, "match_basis": "verbatim_token+chapter_route:ch03"}, {"md_atom_id": "md_ch03_a033", "md_file": "knowledge_base/chapters/ch03_submitting_data.md", "md_atom_type": "TABLE_ROW", "md_parent_section": "§3.2.1 [Dataset-level Metadata]", "md_verbatim": "| EX | Exposure | Interventions | One record per protocol-specified study treatment, constant-dosing interval, per subject | Tabulation | STUDYID, USUBJID, EXTRT, EXSTDTC | ex.xpt |", "score": 0.4187, "match_basis": "verbatim_token+chapter_route:ch03"}, {"md_atom_id": "md_ch03_a038", "md_file": "knowledge_base/chapters/ch03_submitting_data.md", "md_atom_type": "TABLE_ROW", "md_parent_section": "§3.2.1 [Dataset-level Metadata]", "md_verbatim": "| BE | Biospecimen Events | Events | One record per instance per biospecimen event per biospecimen identifier per subject | Tabulation | STUDYID, USUBJID, BEREFID, BETERM, BESTDTC | be.xpt |", "score": 0.3963, "match_basis": "verbatim_token+chapter_route:ch03"}, {"md_atom_id": "md_ch03_a084", "md_file": "knowledge_base/chapters/ch03_submitting_data.md", "md_atom_type": "TABLE_ROW", "md_parent_section": "§3.2.1 [Dataset-level Metadata]", "md_verbatim": "| RELSPEC | Related Specimens | Relationship | One record per specimen identifier per subject | Tabulation | STUDYID, USUBJID, REFID | relspec.xpt |", "score": 0.3949, "match_basis": "verbatim_token+chapter_route:ch03"}], "candidate_count": 5, "zero_candidate": false}
{"pdf_atom_id": "sv20_p0033_a011", "pdf_atom_type": "TABLE_ROW", "pdf_source": "SDTM_v2.0", "pdf_page": 33, "pdf_parent_section": "§3.1.4 Identifiers for All Classes", "pdf_verbatim": "| 9 | --SEQ | Sequence Number | Num | | Identifier | | | C70710 | A number used in combination with the identifier of the subject of the observation to uniquely identify a record within a domain. | May be any valid number (including decimals) and does not have to start at 1. Datasets that do not contain subject data, such as the Trial Summary (TS) domain and the Device Tracking (DT) domains, use --SEQ as a sequence number to ensure uniqueness within the dataset. | |", "figure_ref": null, "candidates": [{"md_atom_id": "md_ch03_a038", "md_file": "knowledge_base/chapters/ch03_submitting_data.md", "md_atom_type": "TABLE_ROW", "md_parent_section": "§3.2.1 [Dataset-level Metadata]", "md_verbatim": "| BE | Biospecimen Events | Events | One record per instance per biospecimen event per biospecimen identifier per subject | Tabulation | STUDYID, USUBJID, BEREFID, BETERM, BESTDTC | be.xpt |", "score": 0.3912, "match_basis": "verbatim_token+chapter_route:ch03"}, {"md_atom_id": "md_ch03_a044", "md_file": "knowledge_base/chapters/ch03_submitting_data.md", "md_atom_type": "TABLE_ROW", "md_parent_section": "§3.2.1 [Dataset-level Metadata]", "md_verbatim": "| BS | Biospecimen Findings | Findings | One record per measurement per biospecimen identifier per subject | Tabulation | STUDYID, USUBJID, BSREFID, BSTESTCD | bs.xpt |", "score": 0.3907, "match_basis": "verbatim_token+chapter_route:ch03"}, {"md_atom_id": "md_ch03_a071", "md_file": "knowledge_base/chapters/ch03_submitting_data.md", "md_atom_type": "TABLE_ROW", "md_parent_section": "§3.2.1 [Dataset-level Metadata]", "md_verbatim": "| TU | Tumor/Lesion Identification | Findings | One record per identified tumor per subject per assessor | Tabulation | STUDYID, USUBJID, TUEVALID, TULNKID | tu.xpt |", "score": 0.3872, "match_basis": "verbatim_token+chapter_route:ch03"}, {"md_atom_id": "md_ch03_a084", "md_file": "knowledge_base/chapters/ch03_submitting_data.md", "md_atom_type": "TABLE_ROW", "md_parent_section": "§3.2.1 [Dataset-level Metadata]", "md_verbatim": "| RELSPEC | Related Specimens | Relationship | One record per specimen identifier per subject | Tabulation | STUDYID, USUBJID, REFID | relspec.xpt |", "score": 0.3852, "match_basis": "verbatim_token+chapter_route:ch03"}, {"md_atom_id": "md_ch03_a033", "md_file": "knowledge_base/chapters/ch03_submitting_data.md", "md_atom_type": "TABLE_ROW", "md_parent_section": "§3.2.1 [Dataset-level Metadata]", "md_verbatim": "| EX | Exposure | Interventions | One record per protocol-specified study treatment, constant-dosing interval, per subject | Tabulation | STUDYID, USUBJID, EXTRT, EXSTDTC | ex.xpt |", "score": 0.3811, "match_basis": "verbatim_token+chapter_route:ch03"}], "candidate_count": 5, "zero_candidate": false}
{"pdf_atom_id": "sv20_p0034_a001", "pdf_atom_type": "TABLE_ROW", "pdf_source": "SDTM_v2.0", "pdf_page": 34, "pdf_parent_section": "§3.1.4 Identifiers for All Classes", "pdf_verbatim": "| 10 | --GRPID | Group ID | Char | | Identifier | | | C170996 | A sequence of characters used to uniquely identify related records for a subject within a domain, or related parameters in the Trial Summary (TS) dataset. | See also Section 5.1.6, Trial Summary Information and Section 5.1.7, Challenge Agent Characterization. | |", "figure_ref": null, "candidates": [{"md_atom_id": "md_ch03_a083", "md_file": "knowledge_base/chapters/ch03_submitting_data.md", "md_atom_type": "TABLE_ROW", "md_parent_section": "§3.2.1 [Dataset-level Metadata]", "md_verbatim": "| RELREC | Related Records | Relationship | One record per related record, group of records or dataset | Tabulation | STUDYID, RDOMAIN, USUBJID, IDVAR, IDVARVAL, RELID | relrec.xpt |", "score": 0.4157, "match_basis": "verbatim_token+chapter_route:ch03"}, {"md_atom_id": "md_ch03_a084", "md_file": "knowledge_base/chapters/ch03_submitting_data.md", "md_atom_type": "TABLE_ROW", "md_parent_section": "§3.2.1 [Dataset-level Metadata]", "md_verbatim": "| RELSPEC | Related Specimens | Relationship | One record per specimen identifier per subject | Tabulation | STUDYID, USUBJID, REFID | relspec.xpt |", "score": 0.4064, "match_basis": "verbatim_token+chapter_route:ch03"}, {"md_atom_id": "md_ch03_a081", "md_file": "knowledge_base/chapters/ch03_submitting_data.md", "md_atom_type": "TABLE_ROW", "md_parent_section": "§3.2.1 [Dataset-level Metadata]", "md_verbatim": "| TS | Trial Summary | Trial Design | One record per trial summary parameter value | Tabulation | STUDYID, TSPARMCD, TSSEQ | ts.xpt |", "score": 0.4059, "match_basis": "verbatim_token+chapter_route:ch03"}, {"md_atom_id": "md_ch03_a086", "md_file": "knowledge_base/chapters/ch03_submitting_data.md", "md_atom_type": "TABLE_ROW", "md_parent_section": "§3.2.1 [Dataset-level Metadata]", "md_verbatim": "| SUPP-- | Supplemental Qualifiers for [domain name] | Relationship | One record per supplemental qualifier per related parent domain record(s) | Tabulation | STUDYID, RDOMAIN, USUBJID, IDVAR, IDVARVAL, QNAM | supp--.xpt |", "score": 0.402, "match_basis": "verbatim_token+chapter_route:ch03"}, {"md_atom_id": "md_ch03_a038", "md_file": "knowledge_base/chapters/ch03_submitting_data.md", "md_atom_type": "TABLE_ROW", "md_parent_section": "§3.2.1 [Dataset-level Metadata]", "md_verbatim": "| BE | Biospecimen Events | Events | One record per instance per biospecimen event per biospecimen identifier per subject | Tabulation | STUDYID, USUBJID, BEREFID, BETERM, BESTDTC | be.xpt |", "score": 0.3935, "match_basis": "verbatim_token+chapter_route:ch03"}], "candidate_count": 5, "zero_candidate": false}
{"pdf_atom_id": "sv20_p0034_a002", "pdf_atom_type": "TABLE_ROW", "pdf_source": "SDTM_v2.0", "pdf_page": 34, "pdf_parent_section": "§3.1.4 Identifiers for All Classes", "pdf_verbatim": "| 11 | --REFID | Reference ID | Char | | Identifier | | | C82531 | A sequence of characters used to uniquely identify a source of information. | | A lab specimen ID, the UUID for an ECG waveform or a medical image. |", "figure_ref": null, "candidates": [{"md_atom_id": "md_ch03_a038", "md_file": "knowledge_base/chapters/ch03_submitting_data.md", "md_atom_type": "TABLE_ROW", "md_parent_section": "§3.2.1 [Dataset-level Metadata]", "md_verbatim": "| BE | Biospecimen Events | Events | One record per instance per biospecimen event per biospecimen identifier per subject | Tabulation | STUDYID, USUBJID, BEREFID, BETERM, BESTDTC | be.xpt |", "score": 0.4131, "match_basis": "verbatim_token+chapter_route:ch03"}, {"md_atom_id": "md_ch03_a087", "md_file": "knowledge_base/chapters/ch03_submitting_data.md", "md_atom_type": "TABLE_ROW", "md_parent_section": "§3.2.1 [Dataset-level Metadata]", "md_verbatim": "| OI | Non-host Organism Identifiers | Study Reference | One record per taxon per non-host organism | Tabulation | NHOID, OISEQ | oi.xpt |", "score": 0.4101, "match_basis": "verbatim_token+chapter_route:ch03"}, {"md_atom_id": "md_ch03_a084", "md_file": "knowledge_base/chapters/ch03_submitting_data.md", "md_atom_type": "TABLE_ROW", "md_parent_section": "§3.2.1 [Dataset-level Metadata]", "md_verbatim": "| RELSPEC | Related Specimens | Relationship | One record per specimen identifier per subject | Tabulation | STUDYID, USUBJID, REFID | relspec.xpt |", "score": 0.4062, "match_basis": "verbatim_token+chapter_route:ch03"}, {"md_atom_id": "md_ch03_a044", "md_file": "knowledge_base/chapters/ch03_submitting_data.md", "md_atom_type": "TABLE_ROW", "md_parent_section": "§3.2.1 [Dataset-level Metadata]", "md_verbatim": "| BS | Biospecimen Findings | Findings | One record per measurement per biospecimen identifier per subject | Tabulation | STUDYID, USUBJID, BSREFID, BSTESTCD | bs.xpt |", "score": 0.3952, "match_basis": "verbatim_token+chapter_route:ch03"}, {"md_atom_id": "md_ch03_a061", "md_file": "knowledge_base/chapters/ch03_submitting_data.md", "md_atom_type": "TABLE_ROW", "md_parent_section": "§3.2.1 [Dataset-level Metadata]", "md_verbatim": "| PC | Pharmacokinetics Concentrations | Findings | One record per sample characteristic or time-point concentration per reference time point or per analyte per subject | Tabulation | STUDYID, USUBJID, PCTESTCD, VISITNUM, PCTPTREF, PCTPTNUM | pc.xpt |", "score": 0.375, "match_basis": "verbatim_token+chapter_route:ch03"}], "candidate_count": 5, "zero_candidate": false}
{"pdf_atom_id": "sv20_p0034_a003", "pdf_atom_type": "TABLE_ROW", "pdf_source": "SDTM_v2.0", "pdf_page": 34, "pdf_parent_section": "§3.1.4 Identifiers for All Classes", "pdf_verbatim": "| 12 | --RECID | Invariant Record Identifier | Char | | Identifier | | | | Identifier for a record that is unique within a domain for a study and that remains invariant through subsequent versions of the dataset, even if the content of the record is modified. When a record is deleted, this value must not be reused to identify another record in either the current or future versions of the domain. | | |", "figure_ref": null, "candidates": [{"md_atom_id": "md_ch03_a083", "md_file": "knowledge_base/chapters/ch03_submitting_data.md", "md_atom_type": "TABLE_ROW", "md_parent_section": "§3.2.1 [Dataset-level Metadata]", "md_verbatim": "| RELREC | Related Records | Relationship | One record per related record, group of records or dataset | Tabulation | STUDYID, RDOMAIN, USUBJID, IDVAR, IDVARVAL, RELID | relrec.xpt |", "score": 0.3965, "match_basis": "verbatim_token+chapter_route:ch03"}, {"md_atom_id": "md_ch03_a086", "md_file": "knowledge_base/chapters/ch03_submitting_data.md", "md_atom_type": "TABLE_ROW", "md_parent_section": "§3.2.1 [Dataset-level Metadata]", "md_verbatim": "| SUPP-- | Supplemental Qualifiers for [domain name] | Relationship | One record per supplemental qualifier per related parent domain record(s) | Tabulation | STUDYID, RDOMAIN, USUBJID, IDVAR, IDVARVAL, QNAM | supp--.xpt |", "score": 0.3935, "match_basis": "verbatim_token+chapter_route:ch03"}, {"md_atom_id": "md_ch03_a034", "md_file": "knowledge_base/chapters/ch03_submitting_data.md", "md_atom_type": "TABLE_ROW", "md_parent_section": "§3.2.1 [Dataset-level Metadata]", "md_verbatim": "| ML | Meal Data | Interventions | One record per food product occurrence or constant intake interval per subject | Tabulation | STUDYID, USUBJID, MLTRT, MLSTDTC | ml.xpt |", "score": 0.3862, "match_basis": "verbatim_token+chapter_route:ch03"}, {"md_atom_id": "md_ch03_a036", "md_file": "knowledge_base/chapters/ch03_submitting_data.md", "md_atom_type": "TABLE_ROW", "md_parent_section": "§3.2.1 [Dataset-level Metadata]", "md_verbatim": "| SU | Substance Use | Interventions | One record per substance type per reported occurrence per subject | Tabulation | STUDYID, USUBJID, SUTRT, SUSTDTC | su.xpt |", "score": 0.3857, "match_basis": "verbatim_token+chapter_route:ch03"}, {"md_atom_id": "md_ch03_a038", "md_file": "knowledge_base/chapters/ch03_submitting_data.md", "md_atom_type": "TABLE_ROW", "md_parent_section": "§3.2.1 [Dataset-level Metadata]", "md_verbatim": "| BE | Biospecimen Events | Events | One record per instance per biospecimen event per biospecimen identifier per subject | Tabulation | STUDYID, USUBJID, BEREFID, BETERM, BESTDTC | be.xpt |", "score": 0.3852, "match_basis": "verbatim_token+chapter_route:ch03"}], "candidate_count": 5, "zero_candidate": false}
{"pdf_atom_id": "sv20_p0034_a004", "pdf_atom_type": "TABLE_ROW", "pdf_source": "SDTM_v2.0", "pdf_page": 34, "pdf_parent_section": "§3.1.4 Identifiers for All Classes", "pdf_verbatim": "| 13 | --SPID | Sponsor-Defined Identifier | Char | | Identifier | | | C82530 | A sponsor-defined sequence of characters used to identify an instance of an observation. | | A preprinted line identifier on a Concomitant Medications form. |", "figure_ref": null, "candidates": [{"md_atom_id": "md_ch03_a031", "md_file": "knowledge_base/chapters/ch03_submitting_data.md", "md_atom_type": "TABLE_ROW", "md_parent_section": "§3.2.1 [Dataset-level Metadata]", "md_verbatim": "| CM | Concomitant/Prior Medications | Interventions | One record per recorded intervention occurrence or constant-dosing interval per subject | Tabulation | STUDYID, USUBJID, CMTRT, CMSTDTC | cm.xpt |", "score": 0.4395, "match_basis": "verbatim_token+chapter_route:ch03"}, {"md_atom_id": "md_ch03_a038", "md_file": "knowledge_base/chapters/ch03_submitting_data.md", "md_atom_type": "TABLE_ROW", "md_parent_section": "§3.2.1 [Dataset-level Metadata]", "md_verbatim": "| BE | Biospecimen Events | Events | One record per instance per biospecimen event per biospecimen identifier per subject | Tabulation | STUDYID, USUBJID, BEREFID, BETERM, BESTDTC | be.xpt |", "score": 0.3891, "match_basis": "verbatim_token+chapter_route:ch03"}, {"md_atom_id": "md_ch03_a036", "md_file": "knowledge_base/chapters/ch03_submitting_data.md", "md_atom_type": "TABLE_ROW", "md_parent_section": "§3.2.1 [Dataset-level Metadata]", "md_verbatim": "| SU | Substance Use | Interventions | One record per substance type per reported occurrence per subject | Tabulation | STUDYID, USUBJID, SUTRT, SUSTDTC | su.xpt |", "score": 0.3844, "match_basis": "verbatim_token+chapter_route:ch03"}, {"md_atom_id": "md_ch03_a034", "md_file": "knowledge_base/chapters/ch03_submitting_data.md", "md_atom_type": "TABLE_ROW", "md_parent_section": "§3.2.1 [Dataset-level Metadata]", "md_verbatim": "| ML | Meal Data | Interventions | One record per food product occurrence or constant intake interval per subject | Tabulation | STUDYID, USUBJID, MLTRT, MLSTDTC | ml.xpt |", "score": 0.38, "match_basis": "verbatim_token+chapter_route:ch03"}, {"md_atom_id": "md_ch03_a087", "md_file": "knowledge_base/chapters/ch03_submitting_data.md", "md_atom_type": "TABLE_ROW", "md_parent_section": "§3.2.1 [Dataset-level Metadata]", "md_verbatim": "| OI | Non-host Organism Identifiers | Study Reference | One record per taxon per non-host organism | Tabulation | NHOID, OISEQ | oi.xpt |", "score": 0.3776, "match_basis": "verbatim_token+chapter_route:ch03"}], "candidate_count": 5, "zero_candidate": false}
{"pdf_atom_id": "sv20_p0034_a005", "pdf_atom_type": "TABLE_ROW", "pdf_source": "SDTM_v2.0", "pdf_page": 34, "pdf_parent_section": "§3.1.4 Identifiers for All Classes", "pdf_verbatim": "| 14 | --LNKID | Link ID | Char | | Identifier | | | C117050 | A sequence of characters used to uniquely identify a record, for a subject, in one domain and link it to 1 or more records for that subject in another domain. | This may be a one-to-one or a one-to-many relationship. | A value that links a single tumor to multiple measurements/assessments performed at different times. |", "figure_ref": null, "candidates": [{"md_atom_id": "md_ch03_a071", "md_file": "knowledge_base/chapters/ch03_submitting_data.md", "md_atom_type": "TABLE_ROW", "md_parent_section": "§3.2.1 [Dataset-level Metadata]", "md_verbatim": "| TU | Tumor/Lesion Identification | Findings | One record per identified tumor per subject per assessor | Tabulation | STUDYID, USUBJID, TUEVALID, TULNKID | tu.xpt |", "score": 0.4267, "match_basis": "verbatim_token+chapter_route:ch03"}, {"md_atom_id": "md_ch03_a070", "md_file": "knowledge_base/chapters/ch03_submitting_data.md", "md_atom_type": "TABLE_ROW", "md_parent_section": "§3.2.1 [Dataset-level Metadata]", "md_verbatim": "| TR | Tumor/Lesion Results | Findings | One record per tumor measurement/assessment per visit per subject per assessor | Tabulation | STUDYID, USUBJID, TRTESTCD, TREVALID, VISITNUM | tr.xpt |", "score": 0.4263, "match_basis": "verbatim_token+chapter_route:ch03"}, {"md_atom_id": "md_ch03_a084", "md_file": "knowledge_base/chapters/ch03_submitting_data.md", "md_atom_type": "TABLE_ROW", "md_parent_section": "§3.2.1 [Dataset-level Metadata]", "md_verbatim": "| RELSPEC | Related Specimens | Relationship | One record per specimen identifier per subject | Tabulation | STUDYID, USUBJID, REFID | relspec.xpt |", "score": 0.4224, "match_basis": "verbatim_token+chapter_route:ch03"}, {"md_atom_id": "md_ch03_a044", "md_file": "knowledge_base/chapters/ch03_submitting_data.md", "md_atom_type": "TABLE_ROW", "md_parent_section": "§3.2.1 [Dataset-level Metadata]", "md_verbatim": "| BS | Biospecimen Findings | Findings | One record per measurement per biospecimen identifier per subject | Tabulation | STUDYID, USUBJID, BSREFID, BSTESTCD | bs.xpt |", "score": 0.4215, "match_basis": "verbatim_token+chapter_route:ch03"}, {"md_atom_id": "md_ch03_a086", "md_file": "knowledge_base/chapters/ch03_submitting_data.md", "md_atom_type": "TABLE_ROW", "md_parent_section": "§3.2.1 [Dataset-level Metadata]", "md_verbatim": "| SUPP-- | Supplemental Qualifiers for [domain name] | Relationship | One record per supplemental qualifier per related parent domain record(s) | Tabulation | STUDYID, RDOMAIN, USUBJID, IDVAR, IDVARVAL, QNAM | supp--.xpt |", "score": 0.4215, "match_basis": "verbatim_token+chapter_route:ch03"}], "candidate_count": 5, "zero_candidate": false}
{"pdf_atom_id": "sv20_p0034_a006", "pdf_atom_type": "TABLE_ROW", "pdf_source": "SDTM_v2.0", "pdf_page": 34, "pdf_parent_section": "§3.1.4 Identifiers for All Classes", "pdf_verbatim": "| 15 | --LNKGRP | Link Group ID | Char | | Identifier | | | C117049 | A sequence of characters used to uniquely identify a group of records, for a subject, in one domain and link it to 1 or more records for that subject in another domain. | This will usually be a many-to-one relationship. | A value that links multiple tumor measurement/assessments to a single response to therapy. |", "figure_ref": null, "candidates": [{"md_atom_id": "md_ch03_a070", "md_file": "knowledge_base/chapters/ch03_submitting_data.md", "md_atom_type": "TABLE_ROW", "md_parent_section": "§3.2.1 [Dataset-level Metadata]", "md_verbatim": "| TR | Tumor/Lesion Results | Findings | One record per tumor measurement/assessment per visit per subject per assessor | Tabulation | STUDYID, USUBJID, TRTESTCD, TREVALID, VISITNUM | tr.xpt |", "score": 0.4283, "match_basis": "verbatim_token+chapter_route:ch03"}, {"md_atom_id": "md_ch03_a086", "md_file": "knowledge_base/chapters/ch03_submitting_data.md", "md_atom_type": "TABLE_ROW", "md_parent_section": "§3.2.1 [Dataset-level Metadata]", "md_verbatim": "| SUPP-- | Supplemental Qualifiers for [domain name] | Relationship | One record per supplemental qualifier per related parent domain record(s) | Tabulation | STUDYID, RDOMAIN, USUBJID, IDVAR, IDVARVAL, QNAM | supp--.xpt |", "score": 0.4193, "match_basis": "verbatim_token+chapter_route:ch03"}, {"md_atom_id": "md_ch03_a071", "md_file": "knowledge_base/chapters/ch03_submitting_data.md", "md_atom_type": "TABLE_ROW", "md_parent_section": "§3.2.1 [Dataset-level Metadata]", "md_verbatim": "| TU | Tumor/Lesion Identification | Findings | One record per identified tumor per subject per assessor | Tabulation | STUDYID, USUBJID, TUEVALID, TULNKID | tu.xpt |", "score": 0.4157, "match_basis": "verbatim_token+chapter_route:ch03"}, {"md_atom_id": "md_ch03_a084", "md_file": "knowledge_base/chapters/ch03_submitting_data.md", "md_atom_type": "TABLE_ROW", "md_parent_section": "§3.2.1 [Dataset-level Metadata]", "md_verbatim": "| RELSPEC | Related Specimens | Relationship | One record per specimen identifier per subject | Tabulation | STUDYID, USUBJID, REFID | relspec.xpt |", "score": 0.4154, "match_basis": "verbatim_token+chapter_route:ch03"}, {"md_atom_id": "md_ch03_a044", "md_file": "knowledge_base/chapters/ch03_submitting_data.md", "md_atom_type": "TABLE_ROW", "md_parent_section": "§3.2.1 [Dataset-level Metadata]", "md_verbatim": "| BS | Biospecimen Findings | Findings | One record per measurement per biospecimen identifier per subject | Tabulation | STUDYID, USUBJID, BSREFID, BSTESTCD | bs.xpt |", "score": 0.415, "match_basis": "verbatim_token+chapter_route:ch03"}], "candidate_count": 5, "zero_candidate": false}
{"pdf_atom_id": "sv20_p0034_a007", "pdf_atom_type": "TABLE_ROW", "pdf_source": "SDTM_v2.0", "pdf_page": 34, "pdf_parent_section": "§3.1.4 Identifiers for All Classes", "pdf_verbatim": "| 16 | --BEATNO | ECG Beat Number | Num | | Identifier | | EG Domain only | | A sequence number that identifies the beat within an ECG. | | |", "figure_ref": null, "candidates": [{"md_atom_id": "md_ch03_a087", "md_file": "knowledge_base/chapters/ch03_submitting_data.md", "md_atom_type": "TABLE_ROW", "md_parent_section": "§3.2.1 [Dataset-level Metadata]", "md_verbatim": "| OI | Non-host Organism Identifiers | Study Reference | One record per taxon per non-host organism | Tabulation | NHOID, OISEQ | oi.xpt |", "score": 0.3846, "match_basis": "verbatim_token+chapter_route:ch03"}, {"md_atom_id": "md_ch03_a038", "md_file": "knowledge_base/chapters/ch03_submitting_data.md", "md_atom_type": "TABLE_ROW", "md_parent_section": "§3.2.1 [Dataset-level Metadata]", "md_verbatim": "| BE | Biospecimen Events | Events | One record per instance per biospecimen event per biospecimen identifier per subject | Tabulation | STUDYID, USUBJID, BEREFID, BETERM, BESTDTC | be.xpt |", "score": 0.3632, "match_basis": "verbatim_token+chapter_route:ch03"}, {"md_atom_id": "md_ch03_a084", "md_file": "knowledge_base/chapters/ch03_submitting_data.md", "md_atom_type": "TABLE_ROW", "md_parent_section": "§3.2.1 [Dataset-level Metadata]", "md_verbatim": "| RELSPEC | Related Specimens | Relationship | One record per specimen identifier per subject | Tabulation | STUDYID, USUBJID, REFID | relspec.xpt |", "score": 0.3565, "match_basis": "verbatim_token+chapter_route:ch03"}, {"md_atom_id": "md_ch03_a044", "md_file": "knowledge_base/chapters/ch03_submitting_data.md", "md_atom_type": "TABLE_ROW", "md_parent_section": "§3.2.1 [Dataset-level Metadata]", "md_verbatim": "| BS | Biospecimen Findings | Findings | One record per measurement per biospecimen identifier per subject | Tabulation | STUDYID, USUBJID, BSREFID, BSTESTCD | bs.xpt |", "score": 0.349, "match_basis": "verbatim_token+chapter_route:ch03"}, {"md_atom_id": "md_ch03_a086", "md_file": "knowledge_base/chapters/ch03_submitting_data.md", "md_atom_type": "TABLE_ROW", "md_parent_section": "§3.2.1 [Dataset-level Metadata]", "md_verbatim": "| SUPP-- | Supplemental Qualifiers for [domain name] | Relationship | One record per supplemental qualifier per related parent domain record(s) | Tabulation | STUDYID, RDOMAIN, USUBJID, IDVAR, IDVARVAL, QNAM | supp--.xpt |", "score": 0.349, "match_basis": "verbatim_token+chapter_route:ch03"}], "candidate_count": 5, "zero_candidate": false}
{"pdf_atom_id": "sv20_p0034_a008", "pdf_atom_type": "HEADING", "pdf_source": "SDTM_v2.0", "pdf_page": 34, "pdf_parent_section": "§3.1.4 Identifiers for All Classes", "pdf_verbatim": "3.1.5 Timing Variables for All Classes", "figure_ref": null, "candidates": [{"md_atom_id": "md_ch03_a001", "md_file": "knowledge_base/chapters/ch03_submitting_data.md", "md_atom_type": "HEADING", "md_parent_section": "§3 [Submitting Data in Standard Format]", "md_verbatim": "# SDTMIG v3.4 — Chapter 3: Submitting Data in Standard Format", "score": 0.3267, "match_basis": "verbatim_token+chapter_route:ch03"}, {"md_atom_id": "md_ch03_a109", "md_file": "knowledge_base/chapters/ch03_submitting_data.md", "md_atom_type": "HEADING", "md_parent_section": "§3.2 [Using the CDISC Domain Models in Regulatory Submissions — Dataset Metadata]", "md_verbatim": "## 3.2.2 Conformance", "score": 0.3231, "match_basis": "verbatim_token+chapter_route:ch03"}, {"md_atom_id": "md_ch03_a003", "md_file": "knowledge_base/chapters/ch03_submitting_data.md", "md_atom_type": "HEADING", "md_parent_section": "§3 [Submitting Data in Standard Format]", "md_verbatim": "## 3.1 Standard Metadata for Dataset Contents and Attributes", "score": 0.3128, "match_basis": "verbatim_token+chapter_route:ch03"}, {"md_atom_id": "md_ch03_a013", "md_file": "knowledge_base/chapters/ch03_submitting_data.md", "md_atom_type": "HEADING", "md_parent_section": "§3 [Submitting Data in Standard Format]", "md_verbatim": "## 3.2 Using the CDISC Domain Models in Regulatory Submissions — Dataset Metadata", "score": 0.3103, "match_basis": "verbatim_token+chapter_route:ch03"}, {"md_atom_id": "md_ch03_a021", "md_file": "knowledge_base/chapters/ch03_submitting_data.md", "md_atom_type": "HEADING", "md_parent_section": "§3.2 [Using the CDISC Domain Models in Regulatory Submissions — Dataset Metadata]", "md_verbatim": "### 3.2.1 Dataset-level Metadata", "score": 0.3, "match_basis": "verbatim_token+chapter_route:ch03"}], "candidate_count": 5, "zero_candidate": false}
{"pdf_atom_id": "sv20_p0034_a009", "pdf_atom_type": "SENTENCE", "pdf_source": "SDTM_v2.0", "pdf_page": 34, "pdf_parent_section": "§3.1.5 Timing Variables for All Classes", "pdf_verbatim": "The following timing variables are available for use in any domain based on one of the 3 general observation classes, except where restricted in the assumptions for the standard domain models in the implementation guides.", "figure_ref": null, "candidates": [{"md_atom_id": "md_ch03_a010", "md_file": "knowledge_base/chapters/ch03_submitting_data.md", "md_atom_type": "SENTENCE", "md_parent_section": "§3.1 [Standard Metadata for Dataset Contents and Attributes]", "md_verbatim": "In particular, these models illustrate the selection of a subset of the variables offered in 1 of the general observation classes, along with applicable timing variables.", "score": 0.4609, "match_basis": "verbatim_token+chapter_route:ch03"}, {"md_atom_id": "md_ch03_a009", "md_file": "knowledge_base/chapters/ch03_submitting_data.md", "md_atom_type": "SENTENCE", "md_parent_section": "§3.1 [Standard Metadata for Dataset Contents and Attributes]", "md_verbatim": "The domain models in Section 6, Domain Models Based on the General Observation Classes, illustrate how to apply the SDTM when creating a specific domain dataset.", "score": 0.4581, "match_basis": "verbatim_token+chapter_route:ch03"}, {"md_atom_id": "md_ch03_a011", "md_file": "knowledge_base/chapters/ch03_submitting_data.md", "md_atom_type": "SENTENCE", "md_parent_section": "§3.1 [Standard Metadata for Dataset Contents and Attributes]", "md_verbatim": "The models also show how a standard variable from a general observation class should be adjusted to meet the specific content needs of a particular domain, including making the label more meaningful, specifying controlled terminology, and creating domain-specific notes and examples.", "score": 0.4558, "match_basis": "verbatim_token+chapter_route:ch03"}, {"md_atom_id": "md_ch03_a095", "md_file": "knowledge_base/chapters/ch03_submitting_data.md", "md_atom_type": "SENTENCE", "md_parent_section": "§3.2.1.1 [Primary Keys]", "md_verbatim": "For all the general observation-class domains (and for some special-purpose domains), the --SEQ variable was created so that a unique record could be identified consistently across all of these domains via its use, along with STUDYID, USUBJID, and DOMAIN.", "score": 0.425, "match_basis": "verbatim_token+chapter_route:ch03"}, {"md_atom_id": "md_ch03_a089", "md_file": "knowledge_base/chapters/ch03_submitting_data.md", "md_atom_type": "SENTENCE", "md_parent_section": "§3.2.1 [Dataset-level Metadata]", "md_verbatim": "See Section 8.4, Relating Non-standard Variable Values to a Parent Domain.", "score": 0.4168, "match_basis": "verbatim_token+chapter_route:ch03"}], "candidate_count": 5, "zero_candidate": false}
{"pdf_atom_id": "sv20_p0034_a010", "pdf_atom_type": "SENTENCE", "pdf_source": "SDTM_v2.0", "pdf_page": 34, "pdf_parent_section": "§3.1.5 Timing Variables for All Classes", "pdf_verbatim": "See Section 3.2, Special-purpose Domains, for additional guidance relating to special-purpose domains.", "figure_ref": null, "candidates": [{"md_atom_id": "md_ch03_a089", "md_file": "knowledge_base/chapters/ch03_submitting_data.md", "md_atom_type": "SENTENCE", "md_parent_section": "§3.2.1 [Dataset-level Metadata]", "md_verbatim": "See Section 8.4, Relating Non-standard Variable Values to a Parent Domain.", "score": 0.4574, "match_basis": "verbatim_token+chapter_route:ch03"}, {"md_atom_id": "md_ch03_a098", "md_file": "knowledge_base/chapters/ch03_submitting_data.md", "md_atom_type": "SENTENCE", "md_parent_section": "§3.2.1.1 [Primary Keys]", "md_verbatim": "See Section 4.1.9, Assigning Natural Keys in the Metadata, for how this should be represented, and for additional information on keys.", "score": 0.4098, "match_basis": "verbatim_token+chapter_route:ch03"}, {"md_atom_id": "md_ch03_a009", "md_file": "knowledge_base/chapters/ch03_submitting_data.md", "md_atom_type": "SENTENCE", "md_parent_section": "§3.1 [Standard Metadata for Dataset Contents and Attributes]", "md_verbatim": "The domain models in Section 6, Domain Models Based on the General Observation Classes, illustrate how to apply the SDTM when creating a specific domain dataset.", "score": 0.4, "match_basis": "verbatim_token+chapter_route:ch03"}, {"md_atom_id": "md_ch03_a095", "md_file": "knowledge_base/chapters/ch03_submitting_data.md", "md_atom_type": "SENTENCE", "md_parent_section": "§3.2.1.1 [Primary Keys]", "md_verbatim": "For all the general observation-class domains (and for some special-purpose domains), the --SEQ variable was created so that a unique record could be identified consistently across all of these domains via its use, along with STUDYID, USUBJID, and DOMAIN.", "score": 0.3905, "match_basis": "verbatim_token+chapter_route:ch03"}, {"md_atom_id": "md_ch03_a006", "md_file": "knowledge_base/chapters/ch03_submitting_data.md", "md_atom_type": "SENTENCE", "md_parent_section": "§3.1 [Standard Metadata for Dataset Contents and Attributes]", "md_verbatim": "In addition, the CDISC domain models include 2 shaded columns that are not sent to the FDA, but which assist sponsors:", "score": 0.3723, "match_basis": "verbatim_token+chapter_route:ch03"}], "candidate_count": 5, "zero_candidate": false}
{"pdf_atom_id": "sv20_p0035_a001", "pdf_atom_type": "HEADING", "pdf_source": "SDTM_v2.0", "pdf_page": 35, "pdf_parent_section": "§3.1.5 Timing Variables for All Classes", "pdf_verbatim": "All Observation Classes—Timing Variables", "figure_ref": null, "candidates": [{"md_atom_id": "md_ch03_a013", "md_file": "knowledge_base/chapters/ch03_submitting_data.md", "md_atom_type": "HEADING", "md_parent_section": "§3 [Submitting Data in Standard Format]", "md_verbatim": "## 3.2 Using the CDISC Domain Models in Regulatory Submissions — Dataset Metadata", "score": 0.3185, "match_basis": "verbatim_token+chapter_route:ch03"}, {"md_atom_id": "md_ch03_a102", "md_file": "knowledge_base/chapters/ch03_submitting_data.md", "md_atom_type": "HEADING", "md_parent_section": "§3.2.1 [Dataset-level Metadata]", "md_verbatim": "### 3.2.1.2 CDISC Submission Value-level Metadata", "score": 0.3125, "match_basis": "verbatim_token+chapter_route:ch03"}, {"md_atom_id": "md_ch03_a001", "md_file": "knowledge_base/chapters/ch03_submitting_data.md", "md_atom_type": "HEADING", "md_parent_section": "§3 [Submitting Data in Standard Format]", "md_verbatim": "# SDTMIG v3.4 — Chapter 3: Submitting Data in Standard Format", "score": 0.3111, "match_basis": "verbatim_token+chapter_route:ch03"}, {"md_atom_id": "md_ch03_a003", "md_file": "knowledge_base/chapters/ch03_submitting_data.md", "md_atom_type": "HEADING", "md_parent_section": "§3 [Submitting Data in Standard Format]", "md_verbatim": "## 3.1 Standard Metadata for Dataset Contents and Attributes", "score": 0.3, "match_basis": "verbatim_token+chapter_route:ch03"}, {"md_atom_id": "md_ch03_a021", "md_file": "knowledge_base/chapters/ch03_submitting_data.md", "md_atom_type": "HEADING", "md_parent_section": "§3.2 [Using the CDISC Domain Models in Regulatory Submissions — Dataset Metadata]", "md_verbatim": "### 3.2.1 Dataset-level Metadata", "score": 0.3, "match_basis": "verbatim_token+chapter_route:ch03"}], "candidate_count": 5, "zero_candidate": false}
{"pdf_atom_id": "sv20_p0035_a002", "pdf_atom_type": "TABLE_HEADER", "pdf_source": "SDTM_v2.0", "pdf_page": 35, "pdf_parent_section": "§3.1.5 Timing Variables for All Classes", "pdf_verbatim": "| # | Variable Name | Variable Label | Type | Format | Role | Variable(s) Qualified | Usage Restrictions | Variable C-code | Definition | Notes | Examples |", "figure_ref": null, "candidates": [{"md_atom_id": "md_ch03_a024", "md_file": "knowledge_base/chapters/ch03_submitting_data.md", "md_atom_type": "TABLE_HEADER", "md_parent_section": "§3.2.1 [Dataset-level Metadata]", "md_verbatim": "| Dataset | Description | Class | Structure | Purpose | Keys | Location |\n|---------|-------------|-------|-----------|---------|------|----------|", "score": 0.3205, "match_basis": "verbatim_token+chapter_route:ch03"}, {"md_atom_id": "md_ch03_a086", "md_file": "knowledge_base/chapters/ch03_submitting_data.md", "md_atom_type": "TABLE_ROW", "md_parent_section": "§3.2.1 [Dataset-level Metadata]", "md_verbatim": "| SUPP-- | Supplemental Qualifiers for [domain name] | Relationship | One record per supplemental qualifier per related parent domain record(s) | Tabulation | STUDYID, RDOMAIN, USUBJID, IDVAR, IDVARVAL, QNAM | supp--.xpt |", "score": 0.3157, "match_basis": "verbatim_token+chapter_route:ch03"}, {"md_atom_id": "md_ch03_a080", "md_file": "knowledge_base/chapters/ch03_submitting_data.md", "md_atom_type": "TABLE_ROW", "md_parent_section": "§3.2.1 [Dataset-level Metadata]", "md_verbatim": "| TM | Trial Disease Milestones | Trial Design | One record per Disease Milestone type | Tabulation | STUDYID, MIDSTYPE | tm.xpt |", "score": 0.2916, "match_basis": "verbatim_token+chapter_route:ch03"}, {"md_atom_id": "md_ch03_a062", "md_file": "knowledge_base/chapters/ch03_submitting_data.md", "md_atom_type": "TABLE_ROW", "md_parent_section": "§3.2.1 [Dataset-level Metadata]", "md_verbatim": "| PE | Physical Examination | Findings | One record per body system or abnormality per visit per subject | Tabulation | STUDYID, USUBJID, PETESTCD, VISITNUM | pe.xpt |", "score": 0.2904, "match_basis": "verbatim_token+chapter_route:ch03"}, {"md_atom_id": "md_ch03_a071", "md_file": "knowledge_base/chapters/ch03_submitting_data.md", "md_atom_type": "TABLE_ROW", "md_parent_section": "§3.2.1 [Dataset-level Metadata]", "md_verbatim": "| TU | Tumor/Lesion Identification | Findings | One record per identified tumor per subject per assessor | Tabulation | STUDYID, USUBJID, TUEVALID, TULNKID | tu.xpt |", "score": 0.2814, "match_basis": "verbatim_token+chapter_route:ch03"}], "candidate_count": 5, "zero_candidate": false}
{"pdf_atom_id": "sv20_p0035_a003", "pdf_atom_type": "TABLE_ROW", "pdf_source": "SDTM_v2.0", "pdf_page": 35, "pdf_parent_section": "§3.1.5 Timing Variables for All Classes", "pdf_verbatim": "| 1 | VISITNUM | Visit Number | Num | | Timing | | | C83101 | An assigned numeric identifier that aligns to the chronological order of a clinical encounter. | Numeric version of VISIT, used for sorting. VISITNUM does not have to be an integer value. | 1, 1.1, 503.75 |", "figure_ref": null, "candidates": [{"md_atom_id": "md_ch03_a067", "md_file": "knowledge_base/chapters/ch03_submitting_data.md", "md_atom_type": "TABLE_ROW", "md_parent_section": "§3.2.1 [Dataset-level Metadata]", "md_verbatim": "| RS | Disease Response and Clin Classification | Findings | One record per response assessment or clinical classification assessment per time point per visit per subject per assessor per medical evaluator | Tabulation | STUDYID, USUBJID, RSTESTCD, VISITNUM, RSTPTREF, RSEVAL, RSPTPNUM, RSEVALID | rs.xpt |", "score": 0.3852, "match_basis": "verbatim_token+chapter_route:ch03"}, {"md_atom_id": "md_ch03_a071", "md_file": "knowledge_base/chapters/ch03_submitting_data.md", "md_atom_type": "TABLE_ROW", "md_parent_section": "§3.2.1 [Dataset-level Metadata]", "md_verbatim": "| TU | Tumor/Lesion Identification | Findings | One record per identified tumor per subject per assessor | Tabulation | STUDYID, USUBJID, TUEVALID, TULNKID | tu.xpt |", "score": 0.3671, "match_basis": "verbatim_token+chapter_route:ch03"}, {"md_atom_id": "md_ch03_a073", "md_file": "knowledge_base/chapters/ch03_submitting_data.md", "md_atom_type": "TABLE_ROW", "md_parent_section": "§3.2.1 [Dataset-level Metadata]", "md_verbatim": "| VS | Vital Signs | Findings | One record per vital sign measurement per time point per visit per subject | Tabulation | STUDYID, USUBJID, VSTESTCD, VISITNUM, VSTPTREF, VSTPTNUM | vs.xpt |", "score": 0.3608, "match_basis": "verbatim_token+chapter_route:ch03"}, {"md_atom_id": "md_ch03_a074", "md_file": "knowledge_base/chapters/ch03_submitting_data.md", "md_atom_type": "TABLE_ROW", "md_parent_section": "§3.2.1 [Dataset-level Metadata]", "md_verbatim": "| FA | Findings About Events or Interventions | Findings About | One record per finding, per object, per time point, per visit per subject | Tabulation | STUDYID, USUBJID, FATESTCD, FAOBJ, VISITNUM, FATPTREF, FATPTNUM | fa.xpt |", "score": 0.3604, "match_basis": "verbatim_token+chapter_route:ch03"}, {"md_atom_id": "md_ch03_a070", "md_file": "knowledge_base/chapters/ch03_submitting_data.md", "md_atom_type": "TABLE_ROW", "md_parent_section": "§3.2.1 [Dataset-level Metadata]", "md_verbatim": "| TR | Tumor/Lesion Results | Findings | One record per tumor measurement/assessment per visit per subject per assessor | Tabulation | STUDYID, USUBJID, TRTESTCD, TREVALID, VISITNUM | tr.xpt |", "score": 0.3577, "match_basis": "verbatim_token+chapter_route:ch03"}], "candidate_count": 5, "zero_candidate": false}
{"pdf_atom_id": "sv20_p0035_a004", "pdf_atom_type": "TABLE_ROW", "pdf_source": "SDTM_v2.0", "pdf_page": 35, "pdf_parent_section": "§3.1.5 Timing Variables for All Classes", "pdf_verbatim": "| 2 | VISIT | Visit Name | Char | | Timing | | | C171010 | The label for a protocol-defined clinical encounter. | | |", "figure_ref": null, "candidates": [{"md_atom_id": "md_ch03_a063", "md_file": "knowledge_base/chapters/ch03_submitting_data.md", "md_atom_type": "TABLE_ROW", "md_parent_section": "§3.2.1 [Dataset-level Metadata]", "md_verbatim": "| PP | Pharmacokinetics Parameters | Findings | One record per PK parameter per time-concentration profile per modeling method per subject | Tabulation | STUDYID, USUBJID, PPTESTCD, PPCAT, VISITNUM, PPRFTDTC | pp.xpt |", "score": 0.3541, "match_basis": "verbatim_token+chapter_route:ch03"}, {"md_atom_id": "md_ch03_a068", "md_file": "knowledge_base/chapters/ch03_submitting_data.md", "md_atom_type": "TABLE_ROW", "md_parent_section": "§3.2.1 [Dataset-level Metadata]", "md_verbatim": "| SC | Subject Characteristics | Findings | One record per characteristic per visit per subject. | Tabulation | STUDYID, USUBJID, SCTESTCD, VISITNUM | sc.xpt |", "score": 0.3505, "match_basis": "verbatim_token+chapter_route:ch03"}, {"md_atom_id": "md_ch03_a067", "md_file": "knowledge_base/chapters/ch03_submitting_data.md", "md_atom_type": "TABLE_ROW", "md_parent_section": "§3.2.1 [Dataset-level Metadata]", "md_verbatim": "| RS | Disease Response and Clin Classification | Findings | One record per response assessment or clinical classification assessment per time point per visit per subject per assessor per medical evaluator | Tabulation | STUDYID, USUBJID, RSTESTCD, VISITNUM, RSTPTREF, RSEVAL, RSPTPNUM, RSEVALID | rs.xpt |", "score": 0.3503, "match_basis": "verbatim_token+chapter_route:ch03"}, {"md_atom_id": "md_ch03_a039", "md_file": "knowledge_base/chapters/ch03_submitting_data.md", "md_atom_type": "TABLE_ROW", "md_parent_section": "§3.2.1 [Dataset-level Metadata]", "md_verbatim": "| CE | Clinical Events | Events | One record per event per subject | Tabulation | STUDYID, USUBJID, CETERM, CESTDTC | ce.xpt |", "score": 0.3494, "match_basis": "verbatim_token+chapter_route:ch03"}, {"md_atom_id": "md_ch03_a061", "md_file": "knowledge_base/chapters/ch03_submitting_data.md", "md_atom_type": "TABLE_ROW", "md_parent_section": "§3.2.1 [Dataset-level Metadata]", "md_verbatim": "| PC | Pharmacokinetics Concentrations | Findings | One record per sample characteristic or time-point concentration per reference time point or per analyte per subject | Tabulation | STUDYID, USUBJID, PCTESTCD, VISITNUM, PCTPTREF, PCTPTNUM | pc.xpt |", "score": 0.3482, "match_basis": "verbatim_token+chapter_route:ch03"}], "candidate_count": 5, "zero_candidate": false}
{"pdf_atom_id": "sv20_p0035_a005", "pdf_atom_type": "TABLE_ROW", "pdf_source": "SDTM_v2.0", "pdf_page": 35, "pdf_parent_section": "§3.1.5 Timing Variables for All Classes", "pdf_verbatim": "| 3 | VISITDY | Planned Study Day of Visit | Num | | Timing | | | C171011 | The planned study day of a clinical encounter relative to the sponsor-defined reference start date. | Should be an integer. | |", "figure_ref": null, "candidates": [{"md_atom_id": "md_ch03_a067", "md_file": "knowledge_base/chapters/ch03_submitting_data.md", "md_atom_type": "TABLE_ROW", "md_parent_section": "§3.2.1 [Dataset-level Metadata]", "md_verbatim": "| RS | Disease Response and Clin Classification | Findings | One record per response assessment or clinical classification assessment per time point per visit per subject per assessor per medical evaluator | Tabulation | STUDYID, USUBJID, RSTESTCD, VISITNUM, RSTPTREF, RSEVAL, RSPTPNUM, RSEVALID | rs.xpt |", "score": 0.3911, "match_basis": "verbatim_token+chapter_route:ch03"}, {"md_atom_id": "md_ch03_a061", "md_file": "knowledge_base/chapters/ch03_submitting_data.md", "md_atom_type": "TABLE_ROW", "md_parent_section": "§3.2.1 [Dataset-level Metadata]", "md_verbatim": "| PC | Pharmacokinetics Concentrations | Findings | One record per sample characteristic or time-point concentration per reference time point or per analyte per subject | Tabulation | STUDYID, USUBJID, PCTESTCD, VISITNUM, PCTPTREF, PCTPTNUM | pc.xpt |", "score": 0.3908, "match_basis": "verbatim_token+chapter_route:ch03"}, {"md_atom_id": "md_ch03_a074", "md_file": "knowledge_base/chapters/ch03_submitting_data.md", "md_atom_type": "TABLE_ROW", "md_parent_section": "§3.2.1 [Dataset-level Metadata]", "md_verbatim": "| FA | Findings About Events or Interventions | Findings About | One record per finding, per object, per time point, per visit per subject | Tabulation | STUDYID, USUBJID, FATESTCD, FAOBJ, VISITNUM, FATPTREF, FATPTNUM | fa.xpt |", "score": 0.385, "match_basis": "verbatim_token+chapter_route:ch03"}, {"md_atom_id": "md_ch03_a082", "md_file": "knowledge_base/chapters/ch03_submitting_data.md", "md_atom_type": "TABLE_ROW", "md_parent_section": "§3.2.1 [Dataset-level Metadata]", "md_verbatim": "| TV | Trial Visits | Trial Design | One record per planned Visit per Arm | Tabulation | STUDYID, ARM, VISIT | tv.xpt |", "score": 0.3812, "match_basis": "verbatim_token+chapter_route:ch03"}, {"md_atom_id": "md_ch03_a075", "md_file": "knowledge_base/chapters/ch03_submitting_data.md", "md_atom_type": "TABLE_ROW", "md_parent_section": "§3.2.1 [Dataset-level Metadata]", "md_verbatim": "| SR | Skin Response | Findings About | One record per finding, per object, per time point, per visit per subject | Tabulation | STUDYID, USUBJID, SRTESTCD, SROBJ, VISITNUM, SRTPTREF, SRTPTNUM | sr.xpt |", "score": 0.381, "match_basis": "verbatim_token+chapter_route:ch03"}], "candidate_count": 5, "zero_candidate": false}
{"pdf_atom_id": "sv20_p0035_a006", "pdf_atom_type": "TABLE_ROW", "pdf_source": "SDTM_v2.0", "pdf_page": 35, "pdf_parent_section": "§3.1.5 Timing Variables for All Classes", "pdf_verbatim": "| 4 | TAETORD | Planned Order of Element Within Arm | Num | | Timing | | | C83438 | An assigned numeric identifier that gives the planned order of the element within the trial arm of the study. | See Section 5.1.1.2, Trial Arms. | |", "figure_ref": null, "candidates": [{"md_atom_id": "md_ch03_a076", "md_file": "knowledge_base/chapters/ch03_submitting_data.md", "md_atom_type": "TABLE_ROW", "md_parent_section": "§3.2.1 [Dataset-level Metadata]", "md_verbatim": "| TA | Trial Arms | Trial Design | One record per planned Element per Arm | Tabulation | STUDYID, ARMCD, TAETORD | ta.xpt |", "score": 0.4929, "match_basis": "verbatim_token+chapter_route:ch03"}, {"md_atom_id": "md_ch03_a078", "md_file": "knowledge_base/chapters/ch03_submitting_data.md", "md_atom_type": "TABLE_ROW", "md_parent_section": "§3.2.1 [Dataset-level Metadata]", "md_verbatim": "| TE | Trial Elements | Trial Design | One record per planned Element | Tabulation | STUDYID, ETCD | te.xpt |", "score": 0.4482, "match_basis": "verbatim_token+chapter_route:ch03"}, {"md_atom_id": "md_ch03_a077", "md_file": "knowledge_base/chapters/ch03_submitting_data.md", "md_atom_type": "TABLE_ROW", "md_parent_section": "§3.2.1 [Dataset-level Metadata]", "md_verbatim": "| TD | Trial Disease Assessments | Trial Design | One record per planned constant assessment period | Tabulation | STUDYID, TDORDER | td.xpt |", "score": 0.4282, "match_basis": "verbatim_token+chapter_route:ch03"}, {"md_atom_id": "md_ch03_a082", "md_file": "knowledge_base/chapters/ch03_submitting_data.md", "md_atom_type": "TABLE_ROW", "md_parent_section": "§3.2.1 [Dataset-level Metadata]", "md_verbatim": "| TV | Trial Visits | Trial Design | One record per planned Visit per Arm | Tabulation | STUDYID, ARM, VISIT | tv.xpt |", "score": 0.4186, "match_basis": "verbatim_token+chapter_route:ch03"}, {"md_atom_id": "md_ch03_a044", "md_file": "knowledge_base/chapters/ch03_submitting_data.md", "md_atom_type": "TABLE_ROW", "md_parent_section": "§3.2.1 [Dataset-level Metadata]", "md_verbatim": "| BS | Biospecimen Findings | Findings | One record per measurement per biospecimen identifier per subject | Tabulation | STUDYID, USUBJID, BSREFID, BSTESTCD | bs.xpt |", "score": 0.3923, "match_basis": "verbatim_token+chapter_route:ch03"}], "candidate_count": 5, "zero_candidate": false}
{"pdf_atom_id": "sv20_p0035_a007", "pdf_atom_type": "TABLE_ROW", "pdf_source": "SDTM_v2.0", "pdf_page": 35, "pdf_parent_section": "§3.1.5 Timing Variables for All Classes", "pdf_verbatim": "| 5 | EPOCH | Epoch | Char | | Timing | | | C71738 | A time period defined in the protocol with a study-specific purpose. | The epoch associated with an observation is determined by the start date or start date and time of the observation, or the date/time of collection if start date/time is not collected (see Section 5.1.1.2, Trial Arms). | |", "figure_ref": null, "candidates": [{"md_atom_id": "md_ch03_a032", "md_file": "knowledge_base/chapters/ch03_submitting_data.md", "md_atom_type": "TABLE_ROW", "md_parent_section": "§3.2.1 [Dataset-level Metadata]", "md_verbatim": "| EC | Exposure as Collected | Interventions | One record per protocol-specified study treatment, collected-dosing interval, per subject, per mood | Tabulation | STUDYID, USUBJID, ECTRT, ECSTDTC, ECMOOD | ec.xpt |", "score": 0.4225, "match_basis": "verbatim_token+chapter_route:ch03"}, {"md_atom_id": "md_ch03_a033", "md_file": "knowledge_base/chapters/ch03_submitting_data.md", "md_atom_type": "TABLE_ROW", "md_parent_section": "§3.2.1 [Dataset-level Metadata]", "md_verbatim": "| EX | Exposure | Interventions | One record per protocol-specified study treatment, constant-dosing interval, per subject | Tabulation | STUDYID, USUBJID, EXTRT, EXSTDTC | ex.xpt |", "score": 0.4049, "match_basis": "verbatim_token+chapter_route:ch03"}, {"md_atom_id": "md_ch03_a029", "md_file": "knowledge_base/chapters/ch03_submitting_data.md", "md_atom_type": "TABLE_ROW", "md_parent_section": "§3.2.1 [Dataset-level Metadata]", "md_verbatim": "| SV | Subject Visits | Special Purpose | One record per actual or planned visit per subject | Tabulation | STUDYID, USUBJID, SVTERM | sv.xpt |", "score": 0.4041, "match_basis": "verbatim_token+chapter_route:ch03"}, {"md_atom_id": "md_ch03_a026", "md_file": "knowledge_base/chapters/ch03_submitting_data.md", "md_atom_type": "TABLE_ROW", "md_parent_section": "§3.2.1 [Dataset-level Metadata]", "md_verbatim": "| DM | Demographics | Special Purpose | One record per subject | Tabulation | STUDYID, USUBJID | dm.xpt |", "score": 0.3923, "match_basis": "verbatim_token+chapter_route:ch03"}, {"md_atom_id": "md_ch03_a025", "md_file": "knowledge_base/chapters/ch03_submitting_data.md", "md_atom_type": "TABLE_ROW", "md_parent_section": "§3.2.1 [Dataset-level Metadata]", "md_verbatim": "| CO | Comments | Special Purpose | One record per comment per subject | Tabulation | STUDYID, USUBJID, IDVAR, COREF, COOTC | co.xpt |", "score": 0.3893, "match_basis": "verbatim_token+chapter_route:ch03"}], "candidate_count": 5, "zero_candidate": false}
{"pdf_atom_id": "sv20_p0035_a008", "pdf_atom_type": "TABLE_ROW", "pdf_source": "SDTM_v2.0", "pdf_page": 35, "pdf_parent_section": "§3.1.5 Timing Variables for All Classes", "pdf_verbatim": "| 6 | RPHASE | Repro Phase | Char | | Timing | | Not in human clinical trials | | Reproductive phase with which the reproductive stage of the reproductive path is associated. Defined in Trial Paths domain. The RPHASE variable is Required when any Reproductive Phase Day variable is used. | | |", "figure_ref": null, "candidates": [{"md_atom_id": "md_ch03_a066", "md_file": "knowledge_base/chapters/ch03_submitting_data.md", "md_atom_type": "TABLE_ROW", "md_parent_section": "§3.2.1 [Dataset-level Metadata]", "md_verbatim": "| RP | Reproductive System Findings | Findings | One record per finding or result per time point per visit per subject | Tabulation | STUDYID, DOMAIN, USUBJID, RPTESTCD, VISITNUM | rp.xpt |", "score": 0.375, "match_basis": "verbatim_token+chapter_route:ch03"}, {"md_atom_id": "md_ch03_a067", "md_file": "knowledge_base/chapters/ch03_submitting_data.md", "md_atom_type": "TABLE_ROW", "md_parent_section": "§3.2.1 [Dataset-level Metadata]", "md_verbatim": "| RS | Disease Response and Clin Classification | Findings | One record per response assessment or clinical classification assessment per time point per visit per subject per assessor per medical evaluator | Tabulation | STUDYID, USUBJID, RSTESTCD, VISITNUM, RSTPTREF, RSEVAL, RSPTPNUM, RSEVALID | rs.xpt |", "score": 0.3404, "match_basis": "verbatim_token+chapter_route:ch03"}, {"md_atom_id": "md_ch03_a083", "md_file": "knowledge_base/chapters/ch03_submitting_data.md", "md_atom_type": "TABLE_ROW", "md_parent_section": "§3.2.1 [Dataset-level Metadata]", "md_verbatim": "| RELREC | Related Records | Relationship | One record per related record, group of records or dataset | Tabulation | STUDYID, RDOMAIN, USUBJID, IDVAR, IDVARVAL, RELID | relrec.xpt |", "score": 0.3372, "match_basis": "verbatim_token+chapter_route:ch03"}, {"md_atom_id": "md_ch03_a047", "md_file": "knowledge_base/chapters/ch03_submitting_data.md", "md_atom_type": "TABLE_ROW", "md_parent_section": "§3.2.1 [Dataset-level Metadata]", "md_verbatim": "| DA | Product Accountability | Findings | One record per product accountability finding per subject | Tabulation | STUDYID, USUBJID, DATESTCD, DADTC | da.xpt |", "score": 0.3366, "match_basis": "verbatim_token+chapter_route:ch03"}, {"md_atom_id": "md_ch03_a077", "md_file": "knowledge_base/chapters/ch03_submitting_data.md", "md_atom_type": "TABLE_ROW", "md_parent_section": "§3.2.1 [Dataset-level Metadata]", "md_verbatim": "| TD | Trial Disease Assessments | Trial Design | One record per planned constant assessment period | Tabulation | STUDYID, TDORDER | td.xpt |", "score": 0.3318, "match_basis": "verbatim_token+chapter_route:ch03"}], "candidate_count": 5, "zero_candidate": false}
{"pdf_atom_id": "sv20_p0035_a009", "pdf_atom_type": "TABLE_ROW", "pdf_source": "SDTM_v2.0", "pdf_page": 35, "pdf_parent_section": "§3.1.5 Timing Variables for All Classes", "pdf_verbatim": "| 7 | RPPLDY | Planned Repro Phase Day of Observation | Num | | Timing | | Not in human clinical trials | C170506 | The day within the reproductive phase on which the test or observation was scheduled to occur. | Expressed as an integer. | |", "figure_ref": null, "candidates": [{"md_atom_id": "md_ch03_a066", "md_file": "knowledge_base/chapters/ch03_submitting_data.md", "md_atom_type": "TABLE_ROW", "md_parent_section": "§3.2.1 [Dataset-level Metadata]", "md_verbatim": "| RP | Reproductive System Findings | Findings | One record per finding or result per time point per visit per subject | Tabulation | STUDYID, DOMAIN, USUBJID, RPTESTCD, VISITNUM | rp.xpt |", "score": 0.3845, "match_basis": "verbatim_token+chapter_route:ch03"}, {"md_atom_id": "md_ch03_a049", "md_file": "knowledge_base/chapters/ch03_submitting_data.md", "md_atom_type": "TABLE_ROW", "md_parent_section": "§3.2.1 [Dataset-level Metadata]", "md_verbatim": "| EG | ECG Test Results | Findings | One record per ECG observation per replicate per time point or one record per ECG observation per beat per visit per subject | Tabulation | STUDYID, USUBJID, EGTESTCD, VISITNUM, EGTPTREF, EGTPTNUM, EGREPNUM | eg.xpt |", "score": 0.3706, "match_basis": "verbatim_token+chapter_route:ch03"}, {"md_atom_id": "md_ch03_a067", "md_file": "knowledge_base/chapters/ch03_submitting_data.md", "md_atom_type": "TABLE_ROW", "md_parent_section": "§3.2.1 [Dataset-level Metadata]", "md_verbatim": "| RS | Disease Response and Clin Classification | Findings | One record per response assessment or clinical classification assessment per time point per visit per subject per assessor per medical evaluator | Tabulation | STUDYID, USUBJID, RSTESTCD, VISITNUM, RSTPTREF, RSEVAL, RSPTPNUM, RSEVALID | rs.xpt |", "score": 0.3633, "match_basis": "verbatim_token+chapter_route:ch03"}, {"md_atom_id": "md_ch03_a077", "md_file": "knowledge_base/chapters/ch03_submitting_data.md", "md_atom_type": "TABLE_ROW", "md_parent_section": "§3.2.1 [Dataset-level Metadata]", "md_verbatim": "| TD | Trial Disease Assessments | Trial Design | One record per planned constant assessment period | Tabulation | STUDYID, TDORDER | td.xpt |", "score": 0.3627, "match_basis": "verbatim_token+chapter_route:ch03"}, {"md_atom_id": "md_ch03_a034", "md_file": "knowledge_base/chapters/ch03_submitting_data.md", "md_atom_type": "TABLE_ROW", "md_parent_section": "§3.2.1 [Dataset-level Metadata]", "md_verbatim": "| ML | Meal Data | Interventions | One record per food product occurrence or constant intake interval per subject | Tabulation | STUDYID, USUBJID, MLTRT, MLSTDTC | ml.xpt |", "score": 0.3608, "match_basis": "verbatim_token+chapter_route:ch03"}], "candidate_count": 5, "zero_candidate": false}
{"pdf_atom_id": "sv20_p0035_a010", "pdf_atom_type": "TABLE_ROW", "pdf_source": "SDTM_v2.0", "pdf_page": 35, "pdf_parent_section": "§3.1.5 Timing Variables for All Classes", "pdf_verbatim": "| 8 | RPPLSTDY | Planned Repro Phase Day of Obs Start | Num | | Timing | | Not in human clinical trials | C170508 | The day within the reproductive phase on which the test or observation was scheduled to begin. | Expressed as an integer. | |", "figure_ref": null, "candidates": [{"md_atom_id": "md_ch03_a066", "md_file": "knowledge_base/chapters/ch03_submitting_data.md", "md_atom_type": "TABLE_ROW", "md_parent_section": "§3.2.1 [Dataset-level Metadata]", "md_verbatim": "| RP | Reproductive System Findings | Findings | One record per finding or result per time point per visit per subject | Tabulation | STUDYID, DOMAIN, USUBJID, RPTESTCD, VISITNUM | rp.xpt |", "score": 0.3816, "match_basis": "verbatim_token+chapter_route:ch03"}, {"md_atom_id": "md_ch03_a049", "md_file": "knowledge_base/chapters/ch03_submitting_data.md", "md_atom_type": "TABLE_ROW", "md_parent_section": "§3.2.1 [Dataset-level Metadata]", "md_verbatim": "| EG | ECG Test Results | Findings | One record per ECG observation per replicate per time point or one record per ECG observation per beat per visit per subject | Tabulation | STUDYID, USUBJID, EGTESTCD, VISITNUM, EGTPTREF, EGTPTNUM, EGREPNUM | eg.xpt |", "score": 0.3684, "match_basis": "verbatim_token+chapter_route:ch03"}, {"md_atom_id": "md_ch03_a077", "md_file": "knowledge_base/chapters/ch03_submitting_data.md", "md_atom_type": "TABLE_ROW", "md_parent_section": "§3.2.1 [Dataset-level Metadata]", "md_verbatim": "| TD | Trial Disease Assessments | Trial Design | One record per planned constant assessment period | Tabulation | STUDYID, TDORDER | td.xpt |", "score": 0.3652, "match_basis": "verbatim_token+chapter_route:ch03"}, {"md_atom_id": "md_ch03_a067", "md_file": "knowledge_base/chapters/ch03_submitting_data.md", "md_atom_type": "TABLE_ROW", "md_parent_section": "§3.2.1 [Dataset-level Metadata]", "md_verbatim": "| RS | Disease Response and Clin Classification | Findings | One record per response assessment or clinical classification assessment per time point per visit per subject per assessor per medical evaluator | Tabulation | STUDYID, USUBJID, RSTESTCD, VISITNUM, RSTPTREF, RSEVAL, RSPTPNUM, RSEVALID | rs.xpt |", "score": 0.3616, "match_basis": "verbatim_token+chapter_route:ch03"}, {"md_atom_id": "md_ch03_a034", "md_file": "knowledge_base/chapters/ch03_submitting_data.md", "md_atom_type": "TABLE_ROW", "md_parent_section": "§3.2.1 [Dataset-level Metadata]", "md_verbatim": "| ML | Meal Data | Interventions | One record per food product occurrence or constant intake interval per subject | Tabulation | STUDYID, USUBJID, MLTRT, MLSTDTC | ml.xpt |", "score": 0.3588, "match_basis": "verbatim_token+chapter_route:ch03"}], "candidate_count": 5, "zero_candidate": false}
{"pdf_atom_id": "sv20_p0035_a011", "pdf_atom_type": "TABLE_ROW", "pdf_source": "SDTM_v2.0", "pdf_page": 35, "pdf_parent_section": "§3.1.5 Timing Variables for All Classes", "pdf_verbatim": "| 9 | RPPLENDY | Planned Repro Phase Day of Obs End | Num | | Timing | | Not in human clinical trials | C170507 | The day within the reproductive phase on which the test or observation was scheduled to end. | Expressed as an integer. | |", "figure_ref": null, "candidates": [{"md_atom_id": "md_ch03_a066", "md_file": "knowledge_base/chapters/ch03_submitting_data.md", "md_atom_type": "TABLE_ROW", "md_parent_section": "§3.2.1 [Dataset-level Metadata]", "md_verbatim": "| RP | Reproductive System Findings | Findings | One record per finding or result per time point per visit per subject | Tabulation | STUDYID, DOMAIN, USUBJID, RPTESTCD, VISITNUM | rp.xpt |", "score": 0.3851, "match_basis": "verbatim_token+chapter_route:ch03"}, {"md_atom_id": "md_ch03_a049", "md_file": "knowledge_base/chapters/ch03_submitting_data.md", "md_atom_type": "TABLE_ROW", "md_parent_section": "§3.2.1 [Dataset-level Metadata]", "md_verbatim": "| EG | ECG Test Results | Findings | One record per ECG observation per replicate per time point or one record per ECG observation per beat per visit per subject | Tabulation | STUDYID, USUBJID, EGTESTCD, VISITNUM, EGTPTREF, EGTPTNUM, EGREPNUM | eg.xpt |", "score": 0.3711, "match_basis": "verbatim_token+chapter_route:ch03"}, {"md_atom_id": "md_ch03_a067", "md_file": "knowledge_base/chapters/ch03_submitting_data.md", "md_atom_type": "TABLE_ROW", "md_parent_section": "§3.2.1 [Dataset-level Metadata]", "md_verbatim": "| RS | Disease Response and Clin Classification | Findings | One record per response assessment or clinical classification assessment per time point per visit per subject per assessor per medical evaluator | Tabulation | STUDYID, USUBJID, RSTESTCD, VISITNUM, RSTPTREF, RSEVAL, RSPTPNUM, RSEVALID | rs.xpt |", "score": 0.3637, "match_basis": "verbatim_token+chapter_route:ch03"}, {"md_atom_id": "md_ch03_a077", "md_file": "knowledge_base/chapters/ch03_submitting_data.md", "md_atom_type": "TABLE_ROW", "md_parent_section": "§3.2.1 [Dataset-level Metadata]", "md_verbatim": "| TD | Trial Disease Assessments | Trial Design | One record per planned constant assessment period | Tabulation | STUDYID, TDORDER | td.xpt |", "score": 0.3632, "match_basis": "verbatim_token+chapter_route:ch03"}, {"md_atom_id": "md_ch03_a082", "md_file": "knowledge_base/chapters/ch03_submitting_data.md", "md_atom_type": "TABLE_ROW", "md_parent_section": "§3.2.1 [Dataset-level Metadata]", "md_verbatim": "| TV | Trial Visits | Trial Design | One record per planned Visit per Arm | Tabulation | STUDYID, ARM, VISIT | tv.xpt |", "score": 0.3579, "match_basis": "verbatim_token+chapter_route:ch03"}], "candidate_count": 5, "zero_candidate": false}
{"pdf_atom_id": "sv20_p0035_a012", "pdf_atom_type": "TABLE_ROW", "pdf_source": "SDTM_v2.0", "pdf_page": 35, "pdf_parent_section": "§3.1.5 Timing Variables for All Classes", "pdf_verbatim": "| 10 | --DTC | Date/Time of Collection | Char | ISO 8601 datetime or interval | Timing | | | C82515 | The date or date and time of the assessment or the specimen or data collection from the subject, represented in a standardized character format. | | |", "figure_ref": null, "candidates": [{"md_atom_id": "md_ch03_a032", "md_file": "knowledge_base/chapters/ch03_submitting_data.md", "md_atom_type": "TABLE_ROW", "md_parent_section": "§3.2.1 [Dataset-level Metadata]", "md_verbatim": "| EC | Exposure as Collected | Interventions | One record per protocol-specified study treatment, collected-dosing interval, per subject, per mood | Tabulation | STUDYID, USUBJID, ECTRT, ECSTDTC, ECMOOD | ec.xpt |", "score": 0.4147, "match_basis": "verbatim_token+chapter_route:ch03"}, {"md_atom_id": "md_ch03_a033", "md_file": "knowledge_base/chapters/ch03_submitting_data.md", "md_atom_type": "TABLE_ROW", "md_parent_section": "§3.2.1 [Dataset-level Metadata]", "md_verbatim": "| EX | Exposure | Interventions | One record per protocol-specified study treatment, constant-dosing interval, per subject | Tabulation | STUDYID, USUBJID, EXTRT, EXSTDTC | ex.xpt |", "score": 0.4015, "match_basis": "verbatim_token+chapter_route:ch03"}, {"md_atom_id": "md_ch03_a053", "md_file": "knowledge_base/chapters/ch03_submitting_data.md", "md_atom_type": "TABLE_ROW", "md_parent_section": "§3.2.1 [Dataset-level Metadata]", "md_verbatim": "| IS | Immunogenicity Specimen Assessments | Findings | One record per test per visit per subject | Tabulation | STUDYID, USUBJID, ISTESTCD, ISBDAGNT, ISSCMBDL, ISSTOPO, VISITNUM | is.xpt |", "score": 0.3869, "match_basis": "verbatim_token+chapter_route:ch03"}, {"md_atom_id": "md_ch03_a034", "md_file": "knowledge_base/chapters/ch03_submitting_data.md", "md_atom_type": "TABLE_ROW", "md_parent_section": "§3.2.1 [Dataset-level Metadata]", "md_verbatim": "| ML | Meal Data | Interventions | One record per food product occurrence or constant intake interval per subject | Tabulation | STUDYID, USUBJID, MLTRT, MLSTDTC | ml.xpt |", "score": 0.3857, "match_basis": "verbatim_token+chapter_route:ch03"}, {"md_atom_id": "md_ch03_a038", "md_file": "knowledge_base/chapters/ch03_submitting_data.md", "md_atom_type": "TABLE_ROW", "md_parent_section": "§3.2.1 [Dataset-level Metadata]", "md_verbatim": "| BE | Biospecimen Events | Events | One record per instance per biospecimen event per biospecimen identifier per subject | Tabulation | STUDYID, USUBJID, BEREFID, BETERM, BESTDTC | be.xpt |", "score": 0.3844, "match_basis": "verbatim_token+chapter_route:ch03"}], "candidate_count": 5, "zero_candidate": false}
{"pdf_atom_id": "sv20_p0035_a013", "pdf_atom_type": "TABLE_ROW", "pdf_source": "SDTM_v2.0", "pdf_page": 35, "pdf_parent_section": "§3.1.5 Timing Variables for All Classes", "pdf_verbatim": "| 11 | --STDTC | Start Date/Time of Observation | Char | ISO 8601 datetime or interval | Timing | | Not in Findings class domains | C82517 | The start date or date and time of an intervention or event, represented in a standardized character format. | The start date of a Findings class record is stored in the --DTC variable. | |", "figure_ref": null, "candidates": [{"md_atom_id": "md_ch03_a074", "md_file": "knowledge_base/chapters/ch03_submitting_data.md", "md_atom_type": "TABLE_ROW", "md_parent_section": "§3.2.1 [Dataset-level Metadata]", "md_verbatim": "| FA | Findings About Events or Interventions | Findings About | One record per finding, per object, per time point, per visit per subject | Tabulation | STUDYID, USUBJID, FATESTCD, FAOBJ, VISITNUM, FATPTREF, FATPTNUM | fa.xpt |", "score": 0.4049, "match_basis": "verbatim_token+chapter_route:ch03"}, {"md_atom_id": "md_ch03_a049", "md_file": "knowledge_base/chapters/ch03_submitting_data.md", "md_atom_type": "TABLE_ROW", "md_parent_section": "§3.2.1 [Dataset-level Metadata]", "md_verbatim": "| EG | ECG Test Results | Findings | One record per ECG observation per replicate per time point or one record per ECG observation per beat per visit per subject | Tabulation | STUDYID, USUBJID, EGTESTCD, VISITNUM, EGTPTREF, EGTPTNUM, EGREPNUM | eg.xpt |", "score": 0.3987, "match_basis": "verbatim_token+chapter_route:ch03"}, {"md_atom_id": "md_ch03_a066", "md_file": "knowledge_base/chapters/ch03_submitting_data.md", "md_atom_type": "TABLE_ROW", "md_parent_section": "§3.2.1 [Dataset-level Metadata]", "md_verbatim": "| RP | Reproductive System Findings | Findings | One record per finding or result per time point per visit per subject | Tabulation | STUDYID, DOMAIN, USUBJID, RPTESTCD, VISITNUM | rp.xpt |", "score": 0.3952, "match_basis": "verbatim_token+chapter_route:ch03"}, {"md_atom_id": "md_ch03_a034", "md_file": "knowledge_base/chapters/ch03_submitting_data.md", "md_atom_type": "TABLE_ROW", "md_parent_section": "§3.2.1 [Dataset-level Metadata]", "md_verbatim": "| ML | Meal Data | Interventions | One record per food product occurrence or constant intake interval per subject | Tabulation | STUDYID, USUBJID, MLTRT, MLSTDTC | ml.xpt |", "score": 0.3945, "match_basis": "verbatim_token+chapter_route:ch03"}, {"md_atom_id": "md_ch03_a036", "md_file": "knowledge_base/chapters/ch03_submitting_data.md", "md_atom_type": "TABLE_ROW", "md_parent_section": "§3.2.1 [Dataset-level Metadata]", "md_verbatim": "| SU | Substance Use | Interventions | One record per substance type per reported occurrence per subject | Tabulation | STUDYID, USUBJID, SUTRT, SUSTDTC | su.xpt |", "score": 0.3943, "match_basis": "verbatim_token+chapter_route:ch03"}], "candidate_count": 5, "zero_candidate": false}
{"pdf_atom_id": "sv20_p0035_a014", "pdf_atom_type": "TABLE_ROW", "pdf_source": "SDTM_v2.0", "pdf_page": 35, "pdf_parent_section": "§3.1.5 Timing Variables for All Classes", "pdf_verbatim": "| 12 | --ENDTC | End Date/Time of Observation | Char | ISO 8601 datetime or interval | Timing | | | C82516 | The end date or date and time of an intervention, event, or finding, represented in a standardized character format. | | |", "figure_ref": null, "candidates": [{"md_atom_id": "md_ch03_a074", "md_file": "knowledge_base/chapters/ch03_submitting_data.md", "md_atom_type": "TABLE_ROW", "md_parent_section": "§3.2.1 [Dataset-level Metadata]", "md_verbatim": "| FA | Findings About Events or Interventions | Findings About | One record per finding, per object, per time point, per visit per subject | Tabulation | STUDYID, USUBJID, FATESTCD, FAOBJ, VISITNUM, FATPTREF, FATPTNUM | fa.xpt |", "score": 0.3984, "match_basis": "verbatim_token+chapter_route:ch03"}, {"md_atom_id": "md_ch03_a049", "md_file": "knowledge_base/chapters/ch03_submitting_data.md", "md_atom_type": "TABLE_ROW", "md_parent_section": "§3.2.1 [Dataset-level Metadata]", "md_verbatim": "| EG | ECG Test Results | Findings | One record per ECG observation per replicate per time point or one record per ECG observation per beat per visit per subject | Tabulation | STUDYID, USUBJID, EGTESTCD, VISITNUM, EGTPTREF, EGTPTNUM, EGREPNUM | eg.xpt |", "score": 0.3916, "match_basis": "verbatim_token+chapter_route:ch03"}, {"md_atom_id": "md_ch03_a061", "md_file": "knowledge_base/chapters/ch03_submitting_data.md", "md_atom_type": "TABLE_ROW", "md_parent_section": "§3.2.1 [Dataset-level Metadata]", "md_verbatim": "| PC | Pharmacokinetics Concentrations | Findings | One record per sample characteristic or time-point concentration per reference time point or per analyte per subject | Tabulation | STUDYID, USUBJID, PCTESTCD, VISITNUM, PCTPTREF, PCTPTNUM | pc.xpt |", "score": 0.3834, "match_basis": "verbatim_token+chapter_route:ch03"}, {"md_atom_id": "md_ch03_a034", "md_file": "knowledge_base/chapters/ch03_submitting_data.md", "md_atom_type": "TABLE_ROW", "md_parent_section": "§3.2.1 [Dataset-level Metadata]", "md_verbatim": "| ML | Meal Data | Interventions | One record per food product occurrence or constant intake interval per subject | Tabulation | STUDYID, USUBJID, MLTRT, MLSTDTC | ml.xpt |", "score": 0.381, "match_basis": "verbatim_token+chapter_route:ch03"}, {"md_atom_id": "md_ch03_a068", "md_file": "knowledge_base/chapters/ch03_submitting_data.md", "md_atom_type": "TABLE_ROW", "md_parent_section": "§3.2.1 [Dataset-level Metadata]", "md_verbatim": "| SC | Subject Characteristics | Findings | One record per characteristic per visit per subject. | Tabulation | STUDYID, USUBJID, SCTESTCD, VISITNUM | sc.xpt |", "score": 0.3804, "match_basis": "verbatim_token+chapter_route:ch03"}], "candidate_count": 5, "zero_candidate": false}
{"pdf_atom_id": "sv20_p0036_a001", "pdf_atom_type": "TABLE_ROW", "pdf_source": "SDTM_v2.0", "pdf_page": 36, "pdf_parent_section": "§3.1.5 Timing Variables for All Classes", "pdf_verbatim": "| 13 | --DY | Study Day of Visit/Collection/Exam | Num | | Timing | | | C170993 | The number of days from the sponsor-defined reference start date to the date of collection (--DTC), used in study data tabulation. | The sponsor-defined reference start date is RFSTDTC in Demographics. | |", "figure_ref": null, "candidates": [{"md_atom_id": "md_ch03_a026", "md_file": "knowledge_base/chapters/ch03_submitting_data.md", "md_atom_type": "TABLE_ROW", "md_parent_section": "§3.2.1 [Dataset-level Metadata]", "md_verbatim": "| DM | Demographics | Special Purpose | One record per subject | Tabulation | STUDYID, USUBJID | dm.xpt |", "score": 0.4245, "match_basis": "verbatim_token+chapter_route:ch03"}, {"md_atom_id": "md_ch03_a061", "md_file": "knowledge_base/chapters/ch03_submitting_data.md", "md_atom_type": "TABLE_ROW", "md_parent_section": "§3.2.1 [Dataset-level Metadata]", "md_verbatim": "| PC | Pharmacokinetics Concentrations | Findings | One record per sample characteristic or time-point concentration per reference time point or per analyte per subject | Tabulation | STUDYID, USUBJID, PCTESTCD, VISITNUM, PCTPTREF, PCTPTNUM | pc.xpt |", "score": 0.413, "match_basis": "verbatim_token+chapter_route:ch03"}, {"md_atom_id": "md_ch03_a060", "md_file": "knowledge_base/chapters/ch03_submitting_data.md", "md_atom_type": "TABLE_ROW", "md_parent_section": "§3.2.1 [Dataset-level Metadata]", "md_verbatim": "| OE | Ophthalmic Examinations | Findings | One record per ophthalmic finding per method per location, per time point per visit per subject | Tabulation | STUDYID, USUBJID, FOCID, OETESTCD, OETSTDTL, OEMETHOD, OELOC, OELAT, OEDIR, VISITNUM, OEDTC, OETPTREF, OETPTNUM, OEREPNUM | oe.xpt |", "score": 0.4091, "match_basis": "verbatim_token+chapter_route:ch03"}, {"md_atom_id": "md_ch03_a075", "md_file": "knowledge_base/chapters/ch03_submitting_data.md", "md_atom_type": "TABLE_ROW", "md_parent_section": "§3.2.1 [Dataset-level Metadata]", "md_verbatim": "| SR | Skin Response | Findings About | One record per finding, per object, per time point, per visit per subject | Tabulation | STUDYID, USUBJID, SRTESTCD, SROBJ, VISITNUM, SRTPTREF, SRTPTNUM | sr.xpt |", "score": 0.4078, "match_basis": "verbatim_token+chapter_route:ch03"}, {"md_atom_id": "md_ch03_a069", "md_file": "knowledge_base/chapters/ch03_submitting_data.md", "md_atom_type": "TABLE_ROW", "md_parent_section": "§3.2.1 [Dataset-level Metadata]", "md_verbatim": "| SS | Subject Status | Findings | One record per status per visit per subject | Tabulation | STUDYID, USUBJID, SSTESTCD, VISITNUM | ss.xpt |", "score": 0.4027, "match_basis": "verbatim_token+chapter_route:ch03"}], "candidate_count": 5, "zero_candidate": false}
{"pdf_atom_id": "sv20_p0036_a002", "pdf_atom_type": "TABLE_ROW", "pdf_source": "SDTM_v2.0", "pdf_page": 36, "pdf_parent_section": "§3.1.5 Timing Variables for All Classes", "pdf_verbatim": "| 14 | --STDY | Study Day of Start of Observation | Num | | Timing | | Not in Findings class domains | C171005 | The number of days from the sponsor-defined reference start date to the start of an intervention or event (--STDTC), used for study data tabulation. | The sponsor-defined reference start date is RFSTDTC in Demographics. | |", "figure_ref": null, "candidates": [{"md_atom_id": "md_ch03_a074", "md_file": "knowledge_base/chapters/ch03_submitting_data.md", "md_atom_type": "TABLE_ROW", "md_parent_section": "§3.2.1 [Dataset-level Metadata]", "md_verbatim": "| FA | Findings About Events or Interventions | Findings About | One record per finding, per object, per time point, per visit per subject | Tabulation | STUDYID, USUBJID, FATESTCD, FAOBJ, VISITNUM, FATPTREF, FATPTNUM | fa.xpt |", "score": 0.4329, "match_basis": "verbatim_token+chapter_route:ch03"}, {"md_atom_id": "md_ch03_a034", "md_file": "knowledge_base/chapters/ch03_submitting_data.md", "md_atom_type": "TABLE_ROW", "md_parent_section": "§3.2.1 [Dataset-level Metadata]", "md_verbatim": "| ML | Meal Data | Interventions | One record per food product occurrence or constant intake interval per subject | Tabulation | STUDYID, USUBJID, MLTRT, MLSTDTC | ml.xpt |", "score": 0.4268, "match_basis": "verbatim_token+chapter_route:ch03"}, {"md_atom_id": "md_ch03_a036", "md_file": "knowledge_base/chapters/ch03_submitting_data.md", "md_atom_type": "TABLE_ROW", "md_parent_section": "§3.2.1 [Dataset-level Metadata]", "md_verbatim": "| SU | Substance Use | Interventions | One record per substance type per reported occurrence per subject | Tabulation | STUDYID, USUBJID, SUTRT, SUSTDTC | su.xpt |", "score": 0.4226, "match_basis": "verbatim_token+chapter_route:ch03"}, {"md_atom_id": "md_ch03_a031", "md_file": "knowledge_base/chapters/ch03_submitting_data.md", "md_atom_type": "TABLE_ROW", "md_parent_section": "§3.2.1 [Dataset-level Metadata]", "md_verbatim": "| CM | Concomitant/Prior Medications | Interventions | One record per recorded intervention occurrence or constant-dosing interval per subject | Tabulation | STUDYID, USUBJID, CMTRT, CMSTDTC | cm.xpt |", "score": 0.4168, "match_basis": "verbatim_token+chapter_route:ch03"}, {"md_atom_id": "md_ch03_a035", "md_file": "knowledge_base/chapters/ch03_submitting_data.md", "md_atom_type": "TABLE_ROW", "md_parent_section": "§3.2.1 [Dataset-level Metadata]", "md_verbatim": "| PR | Procedures | Interventions | One record per recorded procedure per occurrence per subject | Tabulation | STUDYID, USUBJID, PRTRT, PRSTDTC | pr.xpt |", "score": 0.4156, "match_basis": "verbatim_token+chapter_route:ch03"}], "candidate_count": 5, "zero_candidate": false}
{"pdf_atom_id": "sv20_p0036_a003", "pdf_atom_type": "TABLE_ROW", "pdf_source": "SDTM_v2.0", "pdf_page": 36, "pdf_parent_section": "§3.1.5 Timing Variables for All Classes", "pdf_verbatim": "| 15 | --ENDY | Study Day of End of Observation | Num | | Timing | | | C170995 | The number of days from the sponsor-defined reference start date to the end of an intervention, event, or finding (--ENDTC), used for study data tabulation. | The sponsor-defined reference start date is RFSTDTC in Demographics. | |", "figure_ref": null, "candidates": [{"md_atom_id": "md_ch03_a074", "md_file": "knowledge_base/chapters/ch03_submitting_data.md", "md_atom_type": "TABLE_ROW", "md_parent_section": "§3.2.1 [Dataset-level Metadata]", "md_verbatim": "| FA | Findings About Events or Interventions | Findings About | One record per finding, per object, per time point, per visit per subject | Tabulation | STUDYID, USUBJID, FATESTCD, FAOBJ, VISITNUM, FATPTREF, FATPTNUM | fa.xpt |", "score": 0.4353, "match_basis": "verbatim_token+chapter_route:ch03"}, {"md_atom_id": "md_ch03_a034", "md_file": "knowledge_base/chapters/ch03_submitting_data.md", "md_atom_type": "TABLE_ROW", "md_parent_section": "§3.2.1 [Dataset-level Metadata]", "md_verbatim": "| ML | Meal Data | Interventions | One record per food product occurrence or constant intake interval per subject | Tabulation | STUDYID, USUBJID, MLTRT, MLSTDTC | ml.xpt |", "score": 0.4343, "match_basis": "verbatim_token+chapter_route:ch03"}, {"md_atom_id": "md_ch03_a036", "md_file": "knowledge_base/chapters/ch03_submitting_data.md", "md_atom_type": "TABLE_ROW", "md_parent_section": "§3.2.1 [Dataset-level Metadata]", "md_verbatim": "| SU | Substance Use | Interventions | One record per substance type per reported occurrence per subject | Tabulation | STUDYID, USUBJID, SUTRT, SUSTDTC | su.xpt |", "score": 0.4302, "match_basis": "verbatim_token+chapter_route:ch03"}, {"md_atom_id": "md_ch03_a031", "md_file": "knowledge_base/chapters/ch03_submitting_data.md", "md_atom_type": "TABLE_ROW", "md_parent_section": "§3.2.1 [Dataset-level Metadata]", "md_verbatim": "| CM | Concomitant/Prior Medications | Interventions | One record per recorded intervention occurrence or constant-dosing interval per subject | Tabulation | STUDYID, USUBJID, CMTRT, CMSTDTC | cm.xpt |", "score": 0.4234, "match_basis": "verbatim_token+chapter_route:ch03"}, {"md_atom_id": "md_ch03_a035", "md_file": "knowledge_base/chapters/ch03_submitting_data.md", "md_atom_type": "TABLE_ROW", "md_parent_section": "§3.2.1 [Dataset-level Metadata]", "md_verbatim": "| PR | Procedures | Interventions | One record per recorded procedure per occurrence per subject | Tabulation | STUDYID, USUBJID, PRTRT, PRSTDTC | pr.xpt |", "score": 0.4228, "match_basis": "verbatim_token+chapter_route:ch03"}], "candidate_count": 5, "zero_candidate": false}
{"pdf_atom_id": "sv20_p0036_a004", "pdf_atom_type": "TABLE_ROW", "pdf_source": "SDTM_v2.0", "pdf_page": 36, "pdf_parent_section": "§3.1.5 Timing Variables for All Classes", "pdf_verbatim": "| 16 | --NOMDY | Nominal Study Day for Tabulations | Num | | Timing | | Not in human clinical trials | C170498 | The nominal study day, relative to the sponsor-defined reference start date, used by data collection and reporting systems for grouping records for observations that may be scheduled to occur on different days into a single study day (e.g., for output on a tabulation report). | | |", "figure_ref": null, "candidates": [{"md_atom_id": "md_ch03_a036", "md_file": "knowledge_base/chapters/ch03_submitting_data.md", "md_atom_type": "TABLE_ROW", "md_parent_section": "§3.2.1 [Dataset-level Metadata]", "md_verbatim": "| SU | Substance Use | Interventions | One record per substance type per reported occurrence per subject | Tabulation | STUDYID, USUBJID, SUTRT, SUSTDTC | su.xpt |", "score": 0.4136, "match_basis": "verbatim_token+chapter_route:ch03"}, {"md_atom_id": "md_ch03_a031", "md_file": "knowledge_base/chapters/ch03_submitting_data.md", "md_atom_type": "TABLE_ROW", "md_parent_section": "§3.2.1 [Dataset-level Metadata]", "md_verbatim": "| CM | Concomitant/Prior Medications | Interventions | One record per recorded intervention occurrence or constant-dosing interval per subject | Tabulation | STUDYID, USUBJID, CMTRT, CMSTDTC | cm.xpt |", "score": 0.4055, "match_basis": "verbatim_token+chapter_route:ch03"}, {"md_atom_id": "md_ch03_a034", "md_file": "knowledge_base/chapters/ch03_submitting_data.md", "md_atom_type": "TABLE_ROW", "md_parent_section": "§3.2.1 [Dataset-level Metadata]", "md_verbatim": "| ML | Meal Data | Interventions | One record per food product occurrence or constant intake interval per subject | Tabulation | STUDYID, USUBJID, MLTRT, MLSTDTC | ml.xpt |", "score": 0.4011, "match_basis": "verbatim_token+chapter_route:ch03"}, {"md_atom_id": "md_ch03_a049", "md_file": "knowledge_base/chapters/ch03_submitting_data.md", "md_atom_type": "TABLE_ROW", "md_parent_section": "§3.2.1 [Dataset-level Metadata]", "md_verbatim": "| EG | ECG Test Results | Findings | One record per ECG observation per replicate per time point or one record per ECG observation per beat per visit per subject | Tabulation | STUDYID, USUBJID, EGTESTCD, VISITNUM, EGTPTREF, EGTPTNUM, EGREPNUM | eg.xpt |", "score": 0.4005, "match_basis": "verbatim_token+chapter_route:ch03"}, {"md_atom_id": "md_ch03_a067", "md_file": "knowledge_base/chapters/ch03_submitting_data.md", "md_atom_type": "TABLE_ROW", "md_parent_section": "§3.2.1 [Dataset-level Metadata]", "md_verbatim": "| RS | Disease Response and Clin Classification | Findings | One record per response assessment or clinical classification assessment per time point per visit per subject per assessor per medical evaluator | Tabulation | STUDYID, USUBJID, RSTESTCD, VISITNUM, RSTPTREF, RSEVAL, RSPTPNUM, RSEVALID | rs.xpt |", "score": 0.4005, "match_basis": "verbatim_token+chapter_route:ch03"}], "candidate_count": 5, "zero_candidate": false}
{"pdf_atom_id": "sv20_p0036_a005", "pdf_atom_type": "TABLE_ROW", "pdf_source": "SDTM_v2.0", "pdf_page": 36, "pdf_parent_section": "§3.1.5 Timing Variables for All Classes", "pdf_verbatim": "| 17 | --NOMLBL | Label for Nominal Study Day | Char | | Timing | | Not in human clinical trials | C170499 | The name for a protocol-defined nominal study day. | As presented in the study report. | |", "figure_ref": null, "candidates": [{"md_atom_id": "md_ch03_a039", "md_file": "knowledge_base/chapters/ch03_submitting_data.md", "md_atom_type": "TABLE_ROW", "md_parent_section": "§3.2.1 [Dataset-level Metadata]", "md_verbatim": "| CE | Clinical Events | Events | One record per event per subject | Tabulation | STUDYID, USUBJID, CETERM, CESTDTC | ce.xpt |", "score": 0.3588, "match_basis": "verbatim_token+chapter_route:ch03"}, {"md_atom_id": "md_ch03_a032", "md_file": "knowledge_base/chapters/ch03_submitting_data.md", "md_atom_type": "TABLE_ROW", "md_parent_section": "§3.2.1 [Dataset-level Metadata]", "md_verbatim": "| EC | Exposure as Collected | Interventions | One record per protocol-specified study treatment, collected-dosing interval, per subject, per mood | Tabulation | STUDYID, USUBJID, ECTRT, ECSTDTC, ECMOOD | ec.xpt |", "score": 0.3574, "match_basis": "verbatim_token+chapter_route:ch03"}, {"md_atom_id": "md_ch03_a041", "md_file": "knowledge_base/chapters/ch03_submitting_data.md", "md_atom_type": "TABLE_ROW", "md_parent_section": "§3.2.1 [Dataset-level Metadata]", "md_verbatim": "| DV | Protocol Deviations | Events | One record per protocol deviation per subject | Tabulation | STUDYID, USUBJID, DVTERM, DVSTDTC | dv.xpt |", "score": 0.3561, "match_basis": "verbatim_token+chapter_route:ch03"}, {"md_atom_id": "md_ch03_a033", "md_file": "knowledge_base/chapters/ch03_submitting_data.md", "md_atom_type": "TABLE_ROW", "md_parent_section": "§3.2.1 [Dataset-level Metadata]", "md_verbatim": "| EX | Exposure | Interventions | One record per protocol-specified study treatment, constant-dosing interval, per subject | Tabulation | STUDYID, USUBJID, EXTRT, EXSTDTC | ex.xpt |", "score": 0.3537, "match_basis": "verbatim_token+chapter_route:ch03"}, {"md_atom_id": "md_ch03_a067", "md_file": "knowledge_base/chapters/ch03_submitting_data.md", "md_atom_type": "TABLE_ROW", "md_parent_section": "§3.2.1 [Dataset-level Metadata]", "md_verbatim": "| RS | Disease Response and Clin Classification | Findings | One record per response assessment or clinical classification assessment per time point per visit per subject per assessor per medical evaluator | Tabulation | STUDYID, USUBJID, RSTESTCD, VISITNUM, RSTPTREF, RSEVAL, RSPTPNUM, RSEVALID | rs.xpt |", "score": 0.3522, "match_basis": "verbatim_token+chapter_route:ch03"}], "candidate_count": 5, "zero_candidate": false}
{"pdf_atom_id": "sv20_p0036_a006", "pdf_atom_type": "TABLE_ROW", "pdf_source": "SDTM_v2.0", "pdf_page": 36, "pdf_parent_section": "§3.1.5 Timing Variables for All Classes", "pdf_verbatim": "| 18 | --RPDY | Actual Repro Phase Day of Observation | Num | | Timing | | Not in human clinical trials | C170504 | The day within the reproductive phase on which the test or observation occurred. | Expressed as an integer. | |", "figure_ref": null, "candidates": [{"md_atom_id": "md_ch03_a066", "md_file": "knowledge_base/chapters/ch03_submitting_data.md", "md_atom_type": "TABLE_ROW", "md_parent_section": "§3.2.1 [Dataset-level Metadata]", "md_verbatim": "| RP | Reproductive System Findings | Findings | One record per finding or result per time point per visit per subject | Tabulation | STUDYID, DOMAIN, USUBJID, RPTESTCD, VISITNUM | rp.xpt |", "score": 0.3896, "match_basis": "verbatim_token+chapter_route:ch03"}, {"md_atom_id": "md_ch03_a049", "md_file": "knowledge_base/chapters/ch03_submitting_data.md", "md_atom_type": "TABLE_ROW", "md_parent_section": "§3.2.1 [Dataset-level Metadata]", "md_verbatim": "| EG | ECG Test Results | Findings | One record per ECG observation per replicate per time point or one record per ECG observation per beat per visit per subject | Tabulation | STUDYID, USUBJID, EGTESTCD, VISITNUM, EGTPTREF, EGTPTNUM, EGREPNUM | eg.xpt |", "score": 0.3745, "match_basis": "verbatim_token+chapter_route:ch03"}, {"md_atom_id": "md_ch03_a034", "md_file": "knowledge_base/chapters/ch03_submitting_data.md", "md_atom_type": "TABLE_ROW", "md_parent_section": "§3.2.1 [Dataset-level Metadata]", "md_verbatim": "| ML | Meal Data | Interventions | One record per food product occurrence or constant intake interval per subject | Tabulation | STUDYID, USUBJID, MLTRT, MLSTDTC | ml.xpt |", "score": 0.3739, "match_basis": "verbatim_token+chapter_route:ch03"}, {"md_atom_id": "md_ch03_a067", "md_file": "knowledge_base/chapters/ch03_submitting_data.md", "md_atom_type": "TABLE_ROW", "md_parent_section": "§3.2.1 [Dataset-level Metadata]", "md_verbatim": "| RS | Disease Response and Clin Classification | Findings | One record per response assessment or clinical classification assessment per time point per visit per subject per assessor per medical evaluator | Tabulation | STUDYID, USUBJID, RSTESTCD, VISITNUM, RSTPTREF, RSEVAL, RSPTPNUM, RSEVALID | rs.xpt |", "score": 0.3663, "match_basis": "verbatim_token+chapter_route:ch03"}, {"md_atom_id": "md_ch03_a035", "md_file": "knowledge_base/chapters/ch03_submitting_data.md", "md_atom_type": "TABLE_ROW", "md_parent_section": "§3.2.1 [Dataset-level Metadata]", "md_verbatim": "| PR | Procedures | Interventions | One record per recorded procedure per occurrence per subject | Tabulation | STUDYID, USUBJID, PRTRT, PRSTDTC | pr.xpt |", "score": 0.3595, "match_basis": "verbatim_token+chapter_route:ch03"}], "candidate_count": 5, "zero_candidate": false}
{"pdf_atom_id": "sv20_p0036_a007", "pdf_atom_type": "TABLE_ROW", "pdf_source": "SDTM_v2.0", "pdf_page": 36, "pdf_parent_section": "§3.1.5 Timing Variables for All Classes", "pdf_verbatim": "| 19 | --RPSTDY | Actual Repro Phase Day of Obs Start | Num | | Timing | | Not in human clinical trials | C170509 | The day within the reproductive phase on which the test or observation began. | Expressed as an integer. | |", "figure_ref": null, "candidates": [{"md_atom_id": "md_ch03_a066", "md_file": "knowledge_base/chapters/ch03_submitting_data.md", "md_atom_type": "TABLE_ROW", "md_parent_section": "§3.2.1 [Dataset-level Metadata]", "md_verbatim": "| RP | Reproductive System Findings | Findings | One record per finding or result per time point per visit per subject | Tabulation | STUDYID, DOMAIN, USUBJID, RPTESTCD, VISITNUM | rp.xpt |", "score": 0.3882, "match_basis": "verbatim_token+chapter_route:ch03"}, {"md_atom_id": "md_ch03_a049", "md_file": "knowledge_base/chapters/ch03_submitting_data.md", "md_atom_type": "TABLE_ROW", "md_parent_section": "§3.2.1 [Dataset-level Metadata]", "md_verbatim": "| EG | ECG Test Results | Findings | One record per ECG observation per replicate per time point or one record per ECG observation per beat per visit per subject | Tabulation | STUDYID, USUBJID, EGTESTCD, VISITNUM, EGTPTREF, EGTPTNUM, EGREPNUM | eg.xpt |", "score": 0.3735, "match_basis": "verbatim_token+chapter_route:ch03"}, {"md_atom_id": "md_ch03_a067", "md_file": "knowledge_base/chapters/ch03_submitting_data.md", "md_atom_type": "TABLE_ROW", "md_parent_section": "§3.2.1 [Dataset-level Metadata]", "md_verbatim": "| RS | Disease Response and Clin Classification | Findings | One record per response assessment or clinical classification assessment per time point per visit per subject per assessor per medical evaluator | Tabulation | STUDYID, USUBJID, RSTESTCD, VISITNUM, RSTPTREF, RSEVAL, RSPTPNUM, RSEVALID | rs.xpt |", "score": 0.3655, "match_basis": "verbatim_token+chapter_route:ch03"}, {"md_atom_id": "md_ch03_a034", "md_file": "knowledge_base/chapters/ch03_submitting_data.md", "md_atom_type": "TABLE_ROW", "md_parent_section": "§3.2.1 [Dataset-level Metadata]", "md_verbatim": "| ML | Meal Data | Interventions | One record per food product occurrence or constant intake interval per subject | Tabulation | STUDYID, USUBJID, MLTRT, MLSTDTC | ml.xpt |", "score": 0.3587, "match_basis": "verbatim_token+chapter_route:ch03"}, {"md_atom_id": "md_ch03_a039", "md_file": "knowledge_base/chapters/ch03_submitting_data.md", "md_atom_type": "TABLE_ROW", "md_parent_section": "§3.2.1 [Dataset-level Metadata]", "md_verbatim": "| CE | Clinical Events | Events | One record per event per subject | Tabulation | STUDYID, USUBJID, CETERM, CESTDTC | ce.xpt |", "score": 0.3555, "match_basis": "verbatim_token+chapter_route:ch03"}], "candidate_count": 5, "zero_candidate": false}
{"pdf_atom_id": "sv20_p0036_a008", "pdf_atom_type": "TABLE_ROW", "pdf_source": "SDTM_v2.0", "pdf_page": 36, "pdf_parent_section": "§3.1.5 Timing Variables for All Classes", "pdf_verbatim": "| 20 | --RPENDY | Actual Repro Phase Day of Obs End | Num | | Timing | | Not in human clinical trials | C170505 | The day within the reproductive phase on which the test or observation ended. | Expressed as an integer. | |", "figure_ref": null, "candidates": [{"md_atom_id": "md_ch03_a066", "md_file": "knowledge_base/chapters/ch03_submitting_data.md", "md_atom_type": "TABLE_ROW", "md_parent_section": "§3.2.1 [Dataset-level Metadata]", "md_verbatim": "| RP | Reproductive System Findings | Findings | One record per finding or result per time point per visit per subject | Tabulation | STUDYID, DOMAIN, USUBJID, RPTESTCD, VISITNUM | rp.xpt |", "score": 0.3909, "match_basis": "verbatim_token+chapter_route:ch03"}, {"md_atom_id": "md_ch03_a049", "md_file": "knowledge_base/chapters/ch03_submitting_data.md", "md_atom_type": "TABLE_ROW", "md_parent_section": "§3.2.1 [Dataset-level Metadata]", "md_verbatim": "| EG | ECG Test Results | Findings | One record per ECG observation per replicate per time point or one record per ECG observation per beat per visit per subject | Tabulation | STUDYID, USUBJID, EGTESTCD, VISITNUM, EGTPTREF, EGTPTNUM, EGREPNUM | eg.xpt |", "score": 0.3755, "match_basis": "verbatim_token+chapter_route:ch03"}, {"md_atom_id": "md_ch03_a067", "md_file": "knowledge_base/chapters/ch03_submitting_data.md", "md_atom_type": "TABLE_ROW", "md_parent_section": "§3.2.1 [Dataset-level Metadata]", "md_verbatim": "| RS | Disease Response and Clin Classification | Findings | One record per response assessment or clinical classification assessment per time point per visit per subject per assessor per medical evaluator | Tabulation | STUDYID, USUBJID, RSTESTCD, VISITNUM, RSTPTREF, RSEVAL, RSPTPNUM, RSEVALID | rs.xpt |", "score": 0.3671, "match_basis": "verbatim_token+chapter_route:ch03"}, {"md_atom_id": "md_ch03_a051", "md_file": "knowledge_base/chapters/ch03_submitting_data.md", "md_atom_type": "TABLE_ROW", "md_parent_section": "§3.2.1 [Dataset-level Metadata]", "md_verbatim": "| GF | Genomics Findings | Findings | One record per finding per observation per biospecimen per subject | Tabulation | STUDYID, USUBJID, GFTESTCD, GFSPEC, VISITNUM, GFTPTREF, GFTPTNUM | gf.xpt |", "score": 0.3553, "match_basis": "verbatim_token+chapter_route:ch03"}, {"md_atom_id": "md_ch03_a047", "md_file": "knowledge_base/chapters/ch03_submitting_data.md", "md_atom_type": "TABLE_ROW", "md_parent_section": "§3.2.1 [Dataset-level Metadata]", "md_verbatim": "| DA | Product Accountability | Findings | One record per product accountability finding per subject | Tabulation | STUDYID, USUBJID, DATESTCD, DADTC | da.xpt |", "score": 0.352, "match_basis": "verbatim_token+chapter_route:ch03"}], "candidate_count": 5, "zero_candidate": false}
{"pdf_atom_id": "sv20_p0036_a009", "pdf_atom_type": "TABLE_ROW", "pdf_source": "SDTM_v2.0", "pdf_page": 36, "pdf_parent_section": "§3.1.5 Timing Variables for All Classes", "pdf_verbatim": "| 21 | --XDY | Day of Obs Relative to Exposure | Num | | Timing | | | | The actual study day of an intervention, event, or finding, derived relative to the first exposure to any protocol-specified treatment. Expressed in integer days relative to RFXSTDTC in Demographics. | | |", "figure_ref": null, "candidates": [{"md_atom_id": "md_ch03_a033", "md_file": "knowledge_base/chapters/ch03_submitting_data.md", "md_atom_type": "TABLE_ROW", "md_parent_section": "§3.2.1 [Dataset-level Metadata]", "md_verbatim": "| EX | Exposure | Interventions | One record per protocol-specified study treatment, constant-dosing interval, per subject | Tabulation | STUDYID, USUBJID, EXTRT, EXSTDTC | ex.xpt |", "score": 0.5045, "match_basis": "verbatim_token+chapter_route:ch03"}, {"md_atom_id": "md_ch03_a032", "md_file": "knowledge_base/chapters/ch03_submitting_data.md", "md_atom_type": "TABLE_ROW", "md_parent_section": "§3.2.1 [Dataset-level Metadata]", "md_verbatim": "| EC | Exposure as Collected | Interventions | One record per protocol-specified study treatment, collected-dosing interval, per subject, per mood | Tabulation | STUDYID, USUBJID, ECTRT, ECSTDTC, ECMOOD | ec.xpt |", "score": 0.4941, "match_basis": "verbatim_token+chapter_route:ch03"}, {"md_atom_id": "md_ch03_a026", "md_file": "knowledge_base/chapters/ch03_submitting_data.md", "md_atom_type": "TABLE_ROW", "md_parent_section": "§3.2.1 [Dataset-level Metadata]", "md_verbatim": "| DM | Demographics | Special Purpose | One record per subject | Tabulation | STUDYID, USUBJID | dm.xpt |", "score": 0.4024, "match_basis": "verbatim_token+chapter_route:ch03"}, {"md_atom_id": "md_ch03_a074", "md_file": "knowledge_base/chapters/ch03_submitting_data.md", "md_atom_type": "TABLE_ROW", "md_parent_section": "§3.2.1 [Dataset-level Metadata]", "md_verbatim": "| FA | Findings About Events or Interventions | Findings About | One record per finding, per object, per time point, per visit per subject | Tabulation | STUDYID, USUBJID, FATESTCD, FAOBJ, VISITNUM, FATPTREF, FATPTNUM | fa.xpt |", "score": 0.3993, "match_basis": "verbatim_token+chapter_route:ch03"}, {"md_atom_id": "md_ch03_a035", "md_file": "knowledge_base/chapters/ch03_submitting_data.md", "md_atom_type": "TABLE_ROW", "md_parent_section": "§3.2.1 [Dataset-level Metadata]", "md_verbatim": "| PR | Procedures | Interventions | One record per recorded procedure per occurrence per subject | Tabulation | STUDYID, USUBJID, PRTRT, PRSTDTC | pr.xpt |", "score": 0.3964, "match_basis": "verbatim_token+chapter_route:ch03"}], "candidate_count": 5, "zero_candidate": false}
{"pdf_atom_id": "sv20_p0036_a010", "pdf_atom_type": "TABLE_ROW", "pdf_source": "SDTM_v2.0", "pdf_page": 36, "pdf_parent_section": "§3.1.5 Timing Variables for All Classes", "pdf_verbatim": "| 22 | --XSTDY | Start Day of Obs Relative to Exposure | Num | | Timing | | Not in Findings class domains | | The actual study day of the start of an intervention or event, derived relative to the first exposure to any protocol-specified treatment. Expressed in integer days relative to RFXSTDTC in Demographics. | | |", "figure_ref": null, "candidates": [{"md_atom_id": "md_ch03_a033", "md_file": "knowledge_base/chapters/ch03_submitting_data.md", "md_atom_type": "TABLE_ROW", "md_parent_section": "§3.2.1 [Dataset-level Metadata]", "md_verbatim": "| EX | Exposure | Interventions | One record per protocol-specified study treatment, constant-dosing interval, per subject | Tabulation | STUDYID, USUBJID, EXTRT, EXSTDTC | ex.xpt |", "score": 0.4917, "match_basis": "verbatim_token+chapter_route:ch03"}, {"md_atom_id": "md_ch03_a032", "md_file": "knowledge_base/chapters/ch03_submitting_data.md", "md_atom_type": "TABLE_ROW", "md_parent_section": "§3.2.1 [Dataset-level Metadata]", "md_verbatim": "| EC | Exposure as Collected | Interventions | One record per protocol-specified study treatment, collected-dosing interval, per subject, per mood | Tabulation | STUDYID, USUBJID, ECTRT, ECSTDTC, ECMOOD | ec.xpt |", "score": 0.4772, "match_basis": "verbatim_token+chapter_route:ch03"}, {"md_atom_id": "md_ch03_a074", "md_file": "knowledge_base/chapters/ch03_submitting_data.md", "md_atom_type": "TABLE_ROW", "md_parent_section": "§3.2.1 [Dataset-level Metadata]", "md_verbatim": "| FA | Findings About Events or Interventions | Findings About | One record per finding, per object, per time point, per visit per subject | Tabulation | STUDYID, USUBJID, FATESTCD, FAOBJ, VISITNUM, FATPTREF, FATPTNUM | fa.xpt |", "score": 0.3955, "match_basis": "verbatim_token+chapter_route:ch03"}, {"md_atom_id": "md_ch03_a026", "md_file": "knowledge_base/chapters/ch03_submitting_data.md", "md_atom_type": "TABLE_ROW", "md_parent_section": "§3.2.1 [Dataset-level Metadata]", "md_verbatim": "| DM | Demographics | Special Purpose | One record per subject | Tabulation | STUDYID, USUBJID | dm.xpt |", "score": 0.3926, "match_basis": "verbatim_token+chapter_route:ch03"}, {"md_atom_id": "md_ch03_a066", "md_file": "knowledge_base/chapters/ch03_submitting_data.md", "md_atom_type": "TABLE_ROW", "md_parent_section": "§3.2.1 [Dataset-level Metadata]", "md_verbatim": "| RP | Reproductive System Findings | Findings | One record per finding or result per time point per visit per subject | Tabulation | STUDYID, DOMAIN, USUBJID, RPTESTCD, VISITNUM | rp.xpt |", "score": 0.3911, "match_basis": "verbatim_token+chapter_route:ch03"}], "candidate_count": 5, "zero_candidate": false}
{"pdf_atom_id": "sv20_p0036_a011", "pdf_atom_type": "TABLE_ROW", "pdf_source": "SDTM_v2.0", "pdf_page": 36, "pdf_parent_section": "§3.1.5 Timing Variables for All Classes", "pdf_verbatim": "| 23 | --XENDY | End Day of Obs Relative to Exposure | Num | | Timing | | | | The actual study day of the end of an intervention, event, or finding, derived relative to the first exposure to any protocol-specified treatment. Expressed in integer days relative to RFXSTDTC in Demographics. | | |", "figure_ref": null, "candidates": [{"md_atom_id": "md_ch03_a033", "md_file": "knowledge_base/chapters/ch03_submitting_data.md", "md_atom_type": "TABLE_ROW", "md_parent_section": "§3.2.1 [Dataset-level Metadata]", "md_verbatim": "| EX | Exposure | Interventions | One record per protocol-specified study treatment, constant-dosing interval, per subject | Tabulation | STUDYID, USUBJID, EXTRT, EXSTDTC | ex.xpt |", "score": 0.5015, "match_basis": "verbatim_token+chapter_route:ch03"}, {"md_atom_id": "md_ch03_a032", "md_file": "knowledge_base/chapters/ch03_submitting_data.md", "md_atom_type": "TABLE_ROW", "md_parent_section": "§3.2.1 [Dataset-level Metadata]", "md_verbatim": "| EC | Exposure as Collected | Interventions | One record per protocol-specified study treatment, collected-dosing interval, per subject, per mood | Tabulation | STUDYID, USUBJID, ECTRT, ECSTDTC, ECMOOD | ec.xpt |", "score": 0.4913, "match_basis": "verbatim_token+chapter_route:ch03"}, {"md_atom_id": "md_ch03_a026", "md_file": "knowledge_base/chapters/ch03_submitting_data.md", "md_atom_type": "TABLE_ROW", "md_parent_section": "§3.2.1 [Dataset-level Metadata]", "md_verbatim": "| DM | Demographics | Special Purpose | One record per subject | Tabulation | STUDYID, USUBJID | dm.xpt |", "score": 0.4008, "match_basis": "verbatim_token+chapter_route:ch03"}, {"md_atom_id": "md_ch03_a074", "md_file": "knowledge_base/chapters/ch03_submitting_data.md", "md_atom_type": "TABLE_ROW", "md_parent_section": "§3.2.1 [Dataset-level Metadata]", "md_verbatim": "| FA | Findings About Events or Interventions | Findings About | One record per finding, per object, per time point, per visit per subject | Tabulation | STUDYID, USUBJID, FATESTCD, FAOBJ, VISITNUM, FATPTREF, FATPTNUM | fa.xpt |", "score": 0.398, "match_basis": "verbatim_token+chapter_route:ch03"}, {"md_atom_id": "md_ch03_a035", "md_file": "knowledge_base/chapters/ch03_submitting_data.md", "md_atom_type": "TABLE_ROW", "md_parent_section": "§3.2.1 [Dataset-level Metadata]", "md_verbatim": "| PR | Procedures | Interventions | One record per recorded procedure per occurrence per subject | Tabulation | STUDYID, USUBJID, PRTRT, PRSTDTC | pr.xpt |", "score": 0.395, "match_basis": "verbatim_token+chapter_route:ch03"}], "candidate_count": 5, "zero_candidate": false}
{"pdf_atom_id": "sv20_p0037_a001", "pdf_atom_type": "TABLE_ROW", "pdf_source": "SDTM_v2.0", "pdf_page": 37, "pdf_parent_section": "§3.1.5 Timing Variables for All Classes", "pdf_verbatim": "| 24 | --CHDY | Day of Obs Relative to Challenge Agent | Num | | Timing | | | | The actual study day of an intervention, event, or finding, derived relative to the first exposure to the challenge agent that induces the disease or condition that the investigational treatment is intended to cure, mitigate, treat, or prevent. Expressed in integer days relative to RFCSTDTC in Demographics. | | |", "figure_ref": null, "candidates": [{"md_atom_id": "md_ch03_a032", "md_file": "knowledge_base/chapters/ch03_submitting_data.md", "md_atom_type": "TABLE_ROW", "md_parent_section": "§3.2.1 [Dataset-level Metadata]", "md_verbatim": "| EC | Exposure as Collected | Interventions | One record per protocol-specified study treatment, collected-dosing interval, per subject, per mood | Tabulation | STUDYID, USUBJID, ECTRT, ECSTDTC, ECMOOD | ec.xpt |", "score": 0.4125, "match_basis": "verbatim_token+chapter_route:ch03"}, {"md_atom_id": "md_ch03_a033", "md_file": "knowledge_base/chapters/ch03_submitting_data.md", "md_atom_type": "TABLE_ROW", "md_parent_section": "§3.2.1 [Dataset-level Metadata]", "md_verbatim": "| EX | Exposure | Interventions | One record per protocol-specified study treatment, constant-dosing interval, per subject | Tabulation | STUDYID, USUBJID, EXTRT, EXSTDTC | ex.xpt |", "score": 0.4103, "match_basis": "verbatim_token+chapter_route:ch03"}, {"md_atom_id": "md_ch03_a074", "md_file": "knowledge_base/chapters/ch03_submitting_data.md", "md_atom_type": "TABLE_ROW", "md_parent_section": "§3.2.1 [Dataset-level Metadata]", "md_verbatim": "| FA | Findings About Events or Interventions | Findings About | One record per finding, per object, per time point, per visit per subject | Tabulation | STUDYID, USUBJID, FATESTCD, FAOBJ, VISITNUM, FATPTREF, FATPTNUM | fa.xpt |", "score": 0.3907, "match_basis": "verbatim_token+chapter_route:ch03"}, {"md_atom_id": "md_ch03_a035", "md_file": "knowledge_base/chapters/ch03_submitting_data.md", "md_atom_type": "TABLE_ROW", "md_parent_section": "§3.2.1 [Dataset-level Metadata]", "md_verbatim": "| PR | Procedures | Interventions | One record per recorded procedure per occurrence per subject | Tabulation | STUDYID, USUBJID, PRTRT, PRSTDTC | pr.xpt |", "score": 0.3836, "match_basis": "verbatim_token+chapter_route:ch03"}, {"md_atom_id": "md_ch03_a030", "md_file": "knowledge_base/chapters/ch03_submitting_data.md", "md_atom_type": "TABLE_ROW", "md_parent_section": "§3.2.1 [Dataset-level Metadata]", "md_verbatim": "| AG | Procedure Agents | Interventions | One record per recorded intervention occurrence per subject | Tabulation | STUDYID, USUBJID, AGTRT, AGSTDTC | ag.xpt |", "score": 0.3826, "match_basis": "verbatim_token+chapter_route:ch03"}], "candidate_count": 5, "zero_candidate": false}
{"pdf_atom_id": "sv20_p0037_a002", "pdf_atom_type": "TABLE_ROW", "pdf_source": "SDTM_v2.0", "pdf_page": 37, "pdf_parent_section": "§3.1.5 Timing Variables for All Classes", "pdf_verbatim": "| 25 | --CHSTDY | Start Day of Obs Rel to Challenge Agent | Num | | Timing | | Not in Findings class domains | | The actual study day of the start of an intervention or event derived relative to the first exposure to the challenge agent that induces the disease or condition that the investigational treatment is intended to cure, mitigate, treat, or prevent. Expressed in integer days relative to RFCSTDTC in Demographics. | | |", "figure_ref": null, "candidates": [{"md_atom_id": "md_ch03_a033", "md_file": "knowledge_base/chapters/ch03_submitting_data.md", "md_atom_type": "TABLE_ROW", "md_parent_section": "§3.2.1 [Dataset-level Metadata]", "md_verbatim": "| EX | Exposure | Interventions | One record per protocol-specified study treatment, constant-dosing interval, per subject | Tabulation | STUDYID, USUBJID, EXTRT, EXSTDTC | ex.xpt |", "score": 0.4059, "match_basis": "verbatim_token+chapter_route:ch03"}, {"md_atom_id": "md_ch03_a032", "md_file": "knowledge_base/chapters/ch03_submitting_data.md", "md_atom_type": "TABLE_ROW", "md_parent_section": "§3.2.1 [Dataset-level Metadata]", "md_verbatim": "| EC | Exposure as Collected | Interventions | One record per protocol-specified study treatment, collected-dosing interval, per subject, per mood | Tabulation | STUDYID, USUBJID, ECTRT, ECSTDTC, ECMOOD | ec.xpt |", "score": 0.4042, "match_basis": "verbatim_token+chapter_route:ch03"}, {"md_atom_id": "md_ch03_a067", "md_file": "knowledge_base/chapters/ch03_submitting_data.md", "md_atom_type": "TABLE_ROW", "md_parent_section": "§3.2.1 [Dataset-level Metadata]", "md_verbatim": "| RS | Disease Response and Clin Classification | Findings | One record per response assessment or clinical classification assessment per time point per visit per subject per assessor per medical evaluator | Tabulation | STUDYID, USUBJID, RSTESTCD, VISITNUM, RSTPTREF, RSEVAL, RSPTPNUM, RSEVALID | rs.xpt |", "score": 0.3885, "match_basis": "verbatim_token+chapter_route:ch03"}, {"md_atom_id": "md_ch03_a074", "md_file": "knowledge_base/chapters/ch03_submitting_data.md", "md_atom_type": "TABLE_ROW", "md_parent_section": "§3.2.1 [Dataset-level Metadata]", "md_verbatim": "| FA | Findings About Events or Interventions | Findings About | One record per finding, per object, per time point, per visit per subject | Tabulation | STUDYID, USUBJID, FATESTCD, FAOBJ, VISITNUM, FATPTREF, FATPTNUM | fa.xpt |", "score": 0.3876, "match_basis": "verbatim_token+chapter_route:ch03"}, {"md_atom_id": "md_ch03_a070", "md_file": "knowledge_base/chapters/ch03_submitting_data.md", "md_atom_type": "TABLE_ROW", "md_parent_section": "§3.2.1 [Dataset-level Metadata]", "md_verbatim": "| TR | Tumor/Lesion Results | Findings | One record per tumor measurement/assessment per visit per subject per assessor | Tabulation | STUDYID, USUBJID, TRTESTCD, TREVALID, VISITNUM | tr.xpt |", "score": 0.3808, "match_basis": "verbatim_token+chapter_route:ch03"}], "candidate_count": 5, "zero_candidate": false}
{"pdf_atom_id": "sv20_p0037_a003", "pdf_atom_type": "TABLE_ROW", "pdf_source": "SDTM_v2.0", "pdf_page": 37, "pdf_parent_section": "§3.1.5 Timing Variables for All Classes", "pdf_verbatim": "| 26 | --CHENDY | End Day of Obs Rel to Challenge Agent | Num | | Timing | | | | The actual study day of the end of an intervention, event, or finding derived relative to the first exposure to the challenge agent that induces the disease or condition that the investigational treatment is intended to cure, mitigate, treat, or prevent. Expressed in integer days relative to RFCSTDTC in Demographics. | | |", "figure_ref": null, "candidates": [{"md_atom_id": "md_ch03_a032", "md_file": "knowledge_base/chapters/ch03_submitting_data.md", "md_atom_type": "TABLE_ROW", "md_parent_section": "§3.2.1 [Dataset-level Metadata]", "md_verbatim": "| EC | Exposure as Collected | Interventions | One record per protocol-specified study treatment, collected-dosing interval, per subject, per mood | Tabulation | STUDYID, USUBJID, ECTRT, ECSTDTC, ECMOOD | ec.xpt |", "score": 0.4119, "match_basis": "verbatim_token+chapter_route:ch03"}, {"md_atom_id": "md_ch03_a033", "md_file": "knowledge_base/chapters/ch03_submitting_data.md", "md_atom_type": "TABLE_ROW", "md_parent_section": "§3.2.1 [Dataset-level Metadata]", "md_verbatim": "| EX | Exposure | Interventions | One record per protocol-specified study treatment, constant-dosing interval, per subject | Tabulation | STUDYID, USUBJID, EXTRT, EXSTDTC | ex.xpt |", "score": 0.4097, "match_basis": "verbatim_token+chapter_route:ch03"}, {"md_atom_id": "md_ch03_a074", "md_file": "knowledge_base/chapters/ch03_submitting_data.md", "md_atom_type": "TABLE_ROW", "md_parent_section": "§3.2.1 [Dataset-level Metadata]", "md_verbatim": "| FA | Findings About Events or Interventions | Findings About | One record per finding, per object, per time point, per visit per subject | Tabulation | STUDYID, USUBJID, FATESTCD, FAOBJ, VISITNUM, FATPTREF, FATPTNUM | fa.xpt |", "score": 0.3902, "match_basis": "verbatim_token+chapter_route:ch03"}, {"md_atom_id": "md_ch03_a035", "md_file": "knowledge_base/chapters/ch03_submitting_data.md", "md_atom_type": "TABLE_ROW", "md_parent_section": "§3.2.1 [Dataset-level Metadata]", "md_verbatim": "| PR | Procedures | Interventions | One record per recorded procedure per occurrence per subject | Tabulation | STUDYID, USUBJID, PRTRT, PRSTDTC | pr.xpt |", "score": 0.3831, "match_basis": "verbatim_token+chapter_route:ch03"}, {"md_atom_id": "md_ch03_a030", "md_file": "knowledge_base/chapters/ch03_submitting_data.md", "md_atom_type": "TABLE_ROW", "md_parent_section": "§3.2.1 [Dataset-level Metadata]", "md_verbatim": "| AG | Procedure Agents | Interventions | One record per recorded intervention occurrence per subject | Tabulation | STUDYID, USUBJID, AGTRT, AGSTDTC | ag.xpt |", "score": 0.3821, "match_basis": "verbatim_token+chapter_route:ch03"}], "candidate_count": 5, "zero_candidate": false}
{"pdf_atom_id": "sv20_p0037_a004", "pdf_atom_type": "TABLE_ROW", "pdf_source": "SDTM_v2.0", "pdf_page": 37, "pdf_parent_section": "§3.1.5 Timing Variables for All Classes", "pdf_verbatim": "| 27 | --DUR | Collected Duration | Char | ISO 8601 duration | Timing | | | C170992 | The collected length of time during which an observation continues, represented in a standardized character format. | Used only if collected on the CRF and not derived. | |", "figure_ref": null, "candidates": [{"md_atom_id": "md_ch03_a061", "md_file": "knowledge_base/chapters/ch03_submitting_data.md", "md_atom_type": "TABLE_ROW", "md_parent_section": "§3.2.1 [Dataset-level Metadata]", "md_verbatim": "| PC | Pharmacokinetics Concentrations | Findings | One record per sample characteristic or time-point concentration per reference time point or per analyte per subject | Tabulation | STUDYID, USUBJID, PCTESTCD, VISITNUM, PCTPTREF, PCTPTNUM | pc.xpt |", "score": 0.3663, "match_basis": "verbatim_token+chapter_route:ch03"}, {"md_atom_id": "md_ch03_a032", "md_file": "knowledge_base/chapters/ch03_submitting_data.md", "md_atom_type": "TABLE_ROW", "md_parent_section": "§3.2.1 [Dataset-level Metadata]", "md_verbatim": "| EC | Exposure as Collected | Interventions | One record per protocol-specified study treatment, collected-dosing interval, per subject, per mood | Tabulation | STUDYID, USUBJID, ECTRT, ECSTDTC, ECMOOD | ec.xpt |", "score": 0.3658, "match_basis": "verbatim_token+chapter_route:ch03"}, {"md_atom_id": "md_ch03_a036", "md_file": "knowledge_base/chapters/ch03_submitting_data.md", "md_atom_type": "TABLE_ROW", "md_parent_section": "§3.2.1 [Dataset-level Metadata]", "md_verbatim": "| SU | Substance Use | Interventions | One record per substance type per reported occurrence per subject | Tabulation | STUDYID, USUBJID, SUTRT, SUSTDTC | su.xpt |", "score": 0.3596, "match_basis": "verbatim_token+chapter_route:ch03"}, {"md_atom_id": "md_ch03_a068", "md_file": "knowledge_base/chapters/ch03_submitting_data.md", "md_atom_type": "TABLE_ROW", "md_parent_section": "§3.2.1 [Dataset-level Metadata]", "md_verbatim": "| SC | Subject Characteristics | Findings | One record per characteristic per visit per subject. | Tabulation | STUDYID, USUBJID, SCTESTCD, VISITNUM | sc.xpt |", "score": 0.3586, "match_basis": "verbatim_token+chapter_route:ch03"}, {"md_atom_id": "md_ch03_a033", "md_file": "knowledge_base/chapters/ch03_submitting_data.md", "md_atom_type": "TABLE_ROW", "md_parent_section": "§3.2.1 [Dataset-level Metadata]", "md_verbatim": "| EX | Exposure | Interventions | One record per protocol-specified study treatment, constant-dosing interval, per subject | Tabulation | STUDYID, USUBJID, EXTRT, EXSTDTC | ex.xpt |", "score": 0.3584, "match_basis": "verbatim_token+chapter_route:ch03"}], "candidate_count": 5, "zero_candidate": false}
{"pdf_atom_id": "sv20_p0037_a005", "pdf_atom_type": "TABLE_ROW", "pdf_source": "SDTM_v2.0", "pdf_page": 37, "pdf_parent_section": "§3.1.5 Timing Variables for All Classes", "pdf_verbatim": "| 28 | --TPT | Planned Time Point Name | Char | | Timing | | | C171029 | The description of the time when a protocol-defined activity is planned to occur, used for study data tabulation. | This may be represented as an elapsed time relative to a fixed reference point (e.g., time since last dose). See --TPTNUM and --TPTREF. | \"PREDOSE\", \"1 HOUR POST-DOSE\" |", "figure_ref": null, "candidates": [{"md_atom_id": "md_ch03_a061", "md_file": "knowledge_base/chapters/ch03_submitting_data.md", "md_atom_type": "TABLE_ROW", "md_parent_section": "§3.2.1 [Dataset-level Metadata]", "md_verbatim": "| PC | Pharmacokinetics Concentrations | Findings | One record per sample characteristic or time-point concentration per reference time point or per analyte per subject | Tabulation | STUDYID, USUBJID, PCTESTCD, VISITNUM, PCTPTREF, PCTPTNUM | pc.xpt |", "score": 0.4187, "match_basis": "verbatim_token+chapter_route:ch03"}, {"md_atom_id": "md_ch03_a050", "md_file": "knowledge_base/chapters/ch03_submitting_data.md", "md_atom_type": "TABLE_ROW", "md_parent_section": "§3.2.1 [Dataset-level Metadata]", "md_verbatim": "| FT | Functional Tests | Findings | One record per Functional Test finding per time point per visit per subject | Tabulation | STUDYID, USUBJID, FTTESTCD, VISITNUM, FTTPTREF, FTTPTNUM | ft.xpt |", "score": 0.402, "match_basis": "verbatim_token+chapter_route:ch03"}, {"md_atom_id": "md_ch03_a073", "md_file": "knowledge_base/chapters/ch03_submitting_data.md", "md_atom_type": "TABLE_ROW", "md_parent_section": "§3.2.1 [Dataset-level Metadata]", "md_verbatim": "| VS | Vital Signs | Findings | One record per vital sign measurement per time point per visit per subject | Tabulation | STUDYID, USUBJID, VSTESTCD, VISITNUM, VSTPTREF, VSTPTNUM | vs.xpt |", "score": 0.4012, "match_basis": "verbatim_token+chapter_route:ch03"}, {"md_atom_id": "md_ch03_a066", "md_file": "knowledge_base/chapters/ch03_submitting_data.md", "md_atom_type": "TABLE_ROW", "md_parent_section": "§3.2.1 [Dataset-level Metadata]", "md_verbatim": "| RP | Reproductive System Findings | Findings | One record per finding or result per time point per visit per subject | Tabulation | STUDYID, DOMAIN, USUBJID, RPTESTCD, VISITNUM | rp.xpt |", "score": 0.4006, "match_basis": "verbatim_token+chapter_route:ch03"}, {"md_atom_id": "md_ch03_a074", "md_file": "knowledge_base/chapters/ch03_submitting_data.md", "md_atom_type": "TABLE_ROW", "md_parent_section": "§3.2.1 [Dataset-level Metadata]", "md_verbatim": "| FA | Findings About Events or Interventions | Findings About | One record per finding, per object, per time point, per visit per subject | Tabulation | STUDYID, USUBJID, FATESTCD, FAOBJ, VISITNUM, FATPTREF, FATPTNUM | fa.xpt |", "score": 0.4006, "match_basis": "verbatim_token+chapter_route:ch03"}], "candidate_count": 5, "zero_candidate": false}
{"pdf_atom_id": "sv20_p0037_a006", "pdf_atom_type": "TABLE_ROW", "pdf_source": "SDTM_v2.0", "pdf_page": 37, "pdf_parent_section": "§3.1.5 Timing Variables for All Classes", "pdf_verbatim": "| 29 | --TPTNUM | Planned Time Point Number | Num | | Timing | | | C82545 | The numeric identifier of when an observation is planned to occur. | Used in sorting. | |", "figure_ref": null, "candidates": [{"md_atom_id": "md_ch03_a049", "md_file": "knowledge_base/chapters/ch03_submitting_data.md", "md_atom_type": "TABLE_ROW", "md_parent_section": "§3.2.1 [Dataset-level Metadata]", "md_verbatim": "| EG | ECG Test Results | Findings | One record per ECG observation per replicate per time point or one record per ECG observation per beat per visit per subject | Tabulation | STUDYID, USUBJID, EGTESTCD, VISITNUM, EGTPTREF, EGTPTNUM, EGREPNUM | eg.xpt |", "score": 0.395, "match_basis": "verbatim_token+chapter_route:ch03"}, {"md_atom_id": "md_ch03_a074", "md_file": "knowledge_base/chapters/ch03_submitting_data.md", "md_atom_type": "TABLE_ROW", "md_parent_section": "§3.2.1 [Dataset-level Metadata]", "md_verbatim": "| FA | Findings About Events or Interventions | Findings About | One record per finding, per object, per time point, per visit per subject | Tabulation | STUDYID, USUBJID, FATESTCD, FAOBJ, VISITNUM, FATPTREF, FATPTNUM | fa.xpt |", "score": 0.3842, "match_basis": "verbatim_token+chapter_route:ch03"}, {"md_atom_id": "md_ch03_a051", "md_file": "knowledge_base/chapters/ch03_submitting_data.md", "md_atom_type": "TABLE_ROW", "md_parent_section": "§3.2.1 [Dataset-level Metadata]", "md_verbatim": "| GF | Genomics Findings | Findings | One record per finding per observation per biospecimen per subject | Tabulation | STUDYID, USUBJID, GFTESTCD, GFSPEC, VISITNUM, GFTPTREF, GFTPTNUM | gf.xpt |", "score": 0.3769, "match_basis": "verbatim_token+chapter_route:ch03"}, {"md_atom_id": "md_ch03_a059", "md_file": "knowledge_base/chapters/ch03_submitting_data.md", "md_atom_type": "TABLE_ROW", "md_parent_section": "§3.2.1 [Dataset-level Metadata]", "md_verbatim": "| NV | Nervous System Findings | Findings | One record per finding per location per time point per visit per subject | Tabulation | STUDYID, USUBJID, VISITNUM, NVTPTNUM, NVLOC, NVTESTCD | nv.xpt |", "score": 0.3757, "match_basis": "verbatim_token+chapter_route:ch03"}, {"md_atom_id": "md_ch03_a073", "md_file": "knowledge_base/chapters/ch03_submitting_data.md", "md_atom_type": "TABLE_ROW", "md_parent_section": "§3.2.1 [Dataset-level Metadata]", "md_verbatim": "| VS | Vital Signs | Findings | One record per vital sign measurement per time point per visit per subject | Tabulation | STUDYID, USUBJID, VSTESTCD, VISITNUM, VSTPTREF, VSTPTNUM | vs.xpt |", "score": 0.373, "match_basis": "verbatim_token+chapter_route:ch03"}], "candidate_count": 5, "zero_candidate": false}
{"pdf_atom_id": "sv20_p0037_a007", "pdf_atom_type": "TABLE_ROW", "pdf_source": "SDTM_v2.0", "pdf_page": 37, "pdf_parent_section": "§3.1.5 Timing Variables for All Classes", "pdf_verbatim": "| 30 | --ELTM | Planned Elapsed Time from Time Point Ref | Char | ISO 8601 duration | Timing | | | C170994 | The interval of time between a planned time point and a fixed reference point, represented in a standardized character format. | The fixed reference point is in --TPTREF. This variable is useful where there are repetitive measures. Not a clock time or a date/time variable, but an interval. | |", "figure_ref": null, "candidates": [{"md_atom_id": "md_ch03_a061", "md_file": "knowledge_base/chapters/ch03_submitting_data.md", "md_atom_type": "TABLE_ROW", "md_parent_section": "§3.2.1 [Dataset-level Metadata]", "md_verbatim": "| PC | Pharmacokinetics Concentrations | Findings | One record per sample characteristic or time-point concentration per reference time point or per analyte per subject | Tabulation | STUDYID, USUBJID, PCTESTCD, VISITNUM, PCTPTREF, PCTPTNUM | pc.xpt |", "score": 0.3923, "match_basis": "verbatim_token+chapter_route:ch03"}, {"md_atom_id": "md_ch03_a073", "md_file": "knowledge_base/chapters/ch03_submitting_data.md", "md_atom_type": "TABLE_ROW", "md_parent_section": "§3.2.1 [Dataset-level Metadata]", "md_verbatim": "| VS | Vital Signs | Findings | One record per vital sign measurement per time point per visit per subject | Tabulation | STUDYID, USUBJID, VSTESTCD, VISITNUM, VSTPTREF, VSTPTNUM | vs.xpt |", "score": 0.3651, "match_basis": "verbatim_token+chapter_route:ch03"}, {"md_atom_id": "md_ch03_a074", "md_file": "knowledge_base/chapters/ch03_submitting_data.md", "md_atom_type": "TABLE_ROW", "md_parent_section": "§3.2.1 [Dataset-level Metadata]", "md_verbatim": "| FA | Findings About Events or Interventions | Findings About | One record per finding, per object, per time point, per visit per subject | Tabulation | STUDYID, USUBJID, FATESTCD, FAOBJ, VISITNUM, FATPTREF, FATPTNUM | fa.xpt |", "score": 0.361, "match_basis": "verbatim_token+chapter_route:ch03"}, {"md_atom_id": "md_ch03_a049", "md_file": "knowledge_base/chapters/ch03_submitting_data.md", "md_atom_type": "TABLE_ROW", "md_parent_section": "§3.2.1 [Dataset-level Metadata]", "md_verbatim": "| EG | ECG Test Results | Findings | One record per ECG observation per replicate per time point or one record per ECG observation per beat per visit per subject | Tabulation | STUDYID, USUBJID, EGTESTCD, VISITNUM, EGTPTREF, EGTPTNUM, EGREPNUM | eg.xpt |", "score": 0.3581, "match_basis": "verbatim_token+chapter_route:ch03"}, {"md_atom_id": "md_ch03_a034", "md_file": "knowledge_base/chapters/ch03_submitting_data.md", "md_atom_type": "TABLE_ROW", "md_parent_section": "§3.2.1 [Dataset-level Metadata]", "md_verbatim": "| ML | Meal Data | Interventions | One record per food product occurrence or constant intake interval per subject | Tabulation | STUDYID, USUBJID, MLTRT, MLSTDTC | ml.xpt |", "score": 0.357, "match_basis": "verbatim_token+chapter_route:ch03"}], "candidate_count": 5, "zero_candidate": false}
{"pdf_atom_id": "sv20_p0038_a001", "pdf_atom_type": "TABLE_ROW", "pdf_source": "SDTM_v2.0", "pdf_page": 38, "pdf_parent_section": "§3.1.5 Timing Variables for All Classes", "pdf_verbatim": "| 31 | --TPTREF | Time Point Reference | Char | | Timing | | | C171030 | The description of a time point that acts as a fixed reference for a series of planned time points, used for study data tabulation. | Description of the fixed reference point referred to by --ELTM, --TPTNUM, --TPT, --STINT, and --ENINT. | \"PREVIOUS DOSE\", \"PREVIOUS MEAL\" |", "figure_ref": null, "candidates": [{"md_atom_id": "md_ch03_a061", "md_file": "knowledge_base/chapters/ch03_submitting_data.md", "md_atom_type": "TABLE_ROW", "md_parent_section": "§3.2.1 [Dataset-level Metadata]", "md_verbatim": "| PC | Pharmacokinetics Concentrations | Findings | One record per sample characteristic or time-point concentration per reference time point or per analyte per subject | Tabulation | STUDYID, USUBJID, PCTESTCD, VISITNUM, PCTPTREF, PCTPTNUM | pc.xpt |", "score": 0.4338, "match_basis": "verbatim_token+chapter_route:ch03"}, {"md_atom_id": "md_ch03_a050", "md_file": "knowledge_base/chapters/ch03_submitting_data.md", "md_atom_type": "TABLE_ROW", "md_parent_section": "§3.2.1 [Dataset-level Metadata]", "md_verbatim": "| FT | Functional Tests | Findings | One record per Functional Test finding per time point per visit per subject | Tabulation | STUDYID, USUBJID, FTTESTCD, VISITNUM, FTTPTREF, FTTPTNUM | ft.xpt |", "score": 0.4116, "match_basis": "verbatim_token+chapter_route:ch03"}, {"md_atom_id": "md_ch03_a073", "md_file": "knowledge_base/chapters/ch03_submitting_data.md", "md_atom_type": "TABLE_ROW", "md_parent_section": "§3.2.1 [Dataset-level Metadata]", "md_verbatim": "| VS | Vital Signs | Findings | One record per vital sign measurement per time point per visit per subject | Tabulation | STUDYID, USUBJID, VSTESTCD, VISITNUM, VSTPTREF, VSTPTNUM | vs.xpt |", "score": 0.4103, "match_basis": "verbatim_token+chapter_route:ch03"}, {"md_atom_id": "md_ch03_a074", "md_file": "knowledge_base/chapters/ch03_submitting_data.md", "md_atom_type": "TABLE_ROW", "md_parent_section": "§3.2.1 [Dataset-level Metadata]", "md_verbatim": "| FA | Findings About Events or Interventions | Findings About | One record per finding, per object, per time point, per visit per subject | Tabulation | STUDYID, USUBJID, FATESTCD, FAOBJ, VISITNUM, FATPTREF, FATPTNUM | fa.xpt |", "score": 0.4095, "match_basis": "verbatim_token+chapter_route:ch03"}, {"md_atom_id": "md_ch03_a075", "md_file": "knowledge_base/chapters/ch03_submitting_data.md", "md_atom_type": "TABLE_ROW", "md_parent_section": "§3.2.1 [Dataset-level Metadata]", "md_verbatim": "| SR | Skin Response | Findings About | One record per finding, per object, per time point, per visit per subject | Tabulation | STUDYID, USUBJID, SRTESTCD, SROBJ, VISITNUM, SRTPTREF, SRTPTNUM | sr.xpt |", "score": 0.4059, "match_basis": "verbatim_token+chapter_route:ch03"}], "candidate_count": 5, "zero_candidate": false}
{"pdf_atom_id": "sv20_p0038_a002", "pdf_atom_type": "TABLE_ROW", "pdf_source": "SDTM_v2.0", "pdf_page": 38, "pdf_parent_section": "§3.1.5 Timing Variables for All Classes", "pdf_verbatim": "| 32 | --RFTDTC | Date/Time of Reference Time Point | Char | ISO 8601 datetime or interval | Timing | | | C82518 | The actual date or date and time of a time point that acts as a fixed reference for a series of planned time points, represented in a standardized character format. | The fixed reference point is in --TPTREF. | |", "figure_ref": null, "candidates": [{"md_atom_id": "md_ch03_a061", "md_file": "knowledge_base/chapters/ch03_submitting_data.md", "md_atom_type": "TABLE_ROW", "md_parent_section": "§3.2.1 [Dataset-level Metadata]", "md_verbatim": "| PC | Pharmacokinetics Concentrations | Findings | One record per sample characteristic or time-point concentration per reference time point or per analyte per subject | Tabulation | STUDYID, USUBJID, PCTESTCD, VISITNUM, PCTPTREF, PCTPTNUM | pc.xpt |", "score": 0.4, "match_basis": "verbatim_token+chapter_route:ch03"}, {"md_atom_id": "md_ch03_a074", "md_file": "knowledge_base/chapters/ch03_submitting_data.md", "md_atom_type": "TABLE_ROW", "md_parent_section": "§3.2.1 [Dataset-level Metadata]", "md_verbatim": "| FA | Findings About Events or Interventions | Findings About | One record per finding, per object, per time point, per visit per subject | Tabulation | STUDYID, USUBJID, FATESTCD, FAOBJ, VISITNUM, FATPTREF, FATPTNUM | fa.xpt |", "score": 0.3671, "match_basis": "verbatim_token+chapter_route:ch03"}, {"md_atom_id": "md_ch03_a049", "md_file": "knowledge_base/chapters/ch03_submitting_data.md", "md_atom_type": "TABLE_ROW", "md_parent_section": "§3.2.1 [Dataset-level Metadata]", "md_verbatim": "| EG | ECG Test Results | Findings | One record per ECG observation per replicate per time point or one record per ECG observation per beat per visit per subject | Tabulation | STUDYID, USUBJID, EGTESTCD, VISITNUM, EGTPTREF, EGTPTNUM, EGREPNUM | eg.xpt |", "score": 0.3632, "match_basis": "verbatim_token+chapter_route:ch03"}, {"md_atom_id": "md_ch03_a034", "md_file": "knowledge_base/chapters/ch03_submitting_data.md", "md_atom_type": "TABLE_ROW", "md_parent_section": "§3.2.1 [Dataset-level Metadata]", "md_verbatim": "| ML | Meal Data | Interventions | One record per food product occurrence or constant intake interval per subject | Tabulation | STUDYID, USUBJID, MLTRT, MLSTDTC | ml.xpt |", "score": 0.3621, "match_basis": "verbatim_token+chapter_route:ch03"}, {"md_atom_id": "md_ch03_a036", "md_file": "knowledge_base/chapters/ch03_submitting_data.md", "md_atom_type": "TABLE_ROW", "md_parent_section": "§3.2.1 [Dataset-level Metadata]", "md_verbatim": "| SU | Substance Use | Interventions | One record per substance type per reported occurrence per subject | Tabulation | STUDYID, USUBJID, SUTRT, SUSTDTC | su.xpt |", "score": 0.3604, "match_basis": "verbatim_token+chapter_route:ch03"}], "candidate_count": 5, "zero_candidate": false}
{"pdf_atom_id": "sv20_p0038_a003", "pdf_atom_type": "TABLE_ROW", "pdf_source": "SDTM_v2.0", "pdf_page": 38, "pdf_parent_section": "§3.1.5 Timing Variables for All Classes", "pdf_verbatim": "| 33 | --STRF | Start Relative to Reference Period | Char | | Timing | | | C82559 | The characterization of the start of an observation relative to the study reference period. | The sponsor-defined reference period is a continuous period of time defined by a discrete starting point and a discrete ending point represented by RFSTDTC and RFENDTC in Demographics. | |", "figure_ref": null, "candidates": [{"md_atom_id": "md_ch03_a061", "md_file": "knowledge_base/chapters/ch03_submitting_data.md", "md_atom_type": "TABLE_ROW", "md_parent_section": "§3.2.1 [Dataset-level Metadata]", "md_verbatim": "| PC | Pharmacokinetics Concentrations | Findings | One record per sample characteristic or time-point concentration per reference time point or per analyte per subject | Tabulation | STUDYID, USUBJID, PCTESTCD, VISITNUM, PCTPTREF, PCTPTNUM | pc.xpt |", "score": 0.4247, "match_basis": "verbatim_token+chapter_route:ch03"}, {"md_atom_id": "md_ch03_a031", "md_file": "knowledge_base/chapters/ch03_submitting_data.md", "md_atom_type": "TABLE_ROW", "md_parent_section": "§3.2.1 [Dataset-level Metadata]", "md_verbatim": "| CM | Concomitant/Prior Medications | Interventions | One record per recorded intervention occurrence or constant-dosing interval per subject | Tabulation | STUDYID, USUBJID, CMTRT, CMSTDTC | cm.xpt |", "score": 0.394, "match_basis": "verbatim_token+chapter_route:ch03"}, {"md_atom_id": "md_ch03_a036", "md_file": "knowledge_base/chapters/ch03_submitting_data.md", "md_atom_type": "TABLE_ROW", "md_parent_section": "§3.2.1 [Dataset-level Metadata]", "md_verbatim": "| SU | Substance Use | Interventions | One record per substance type per reported occurrence per subject | Tabulation | STUDYID, USUBJID, SUTRT, SUSTDTC | su.xpt |", "score": 0.3929, "match_basis": "verbatim_token+chapter_route:ch03"}, {"md_atom_id": "md_ch03_a049", "md_file": "knowledge_base/chapters/ch03_submitting_data.md", "md_atom_type": "TABLE_ROW", "md_parent_section": "§3.2.1 [Dataset-level Metadata]", "md_verbatim": "| EG | ECG Test Results | Findings | One record per ECG observation per replicate per time point or one record per ECG observation per beat per visit per subject | Tabulation | STUDYID, USUBJID, EGTESTCD, VISITNUM, EGTPTREF, EGTPTNUM, EGREPNUM | eg.xpt |", "score": 0.3929, "match_basis": "verbatim_token+chapter_route:ch03"}, {"md_atom_id": "md_ch03_a074", "md_file": "knowledge_base/chapters/ch03_submitting_data.md", "md_atom_type": "TABLE_ROW", "md_parent_section": "§3.2.1 [Dataset-level Metadata]", "md_verbatim": "| FA | Findings About Events or Interventions | Findings About | One record per finding, per object, per time point, per visit per subject | Tabulation | STUDYID, USUBJID, FATESTCD, FAOBJ, VISITNUM, FATPTREF, FATPTNUM | fa.xpt |", "score": 0.3894, "match_basis": "verbatim_token+chapter_route:ch03"}], "candidate_count": 5, "zero_candidate": false}
{"pdf_atom_id": "sv20_p0038_a004", "pdf_atom_type": "TABLE_ROW", "pdf_source": "SDTM_v2.0", "pdf_page": 38, "pdf_parent_section": "§3.1.5 Timing Variables for All Classes", "pdf_verbatim": "| 34 | --ENRF | End Relative to Reference Period | Char | | Timing | | | C82557 | The characterization of the end of an observation relative to the study reference period. | The sponsor-defined reference period is a continuous period of time defined by a discrete starting point and a discrete ending point represented by RFSTDTC and RFENDTC in Demographics. | |", "figure_ref": null, "candidates": [{"md_atom_id": "md_ch03_a061", "md_file": "knowledge_base/chapters/ch03_submitting_data.md", "md_atom_type": "TABLE_ROW", "md_parent_section": "§3.2.1 [Dataset-level Metadata]", "md_verbatim": "| PC | Pharmacokinetics Concentrations | Findings | One record per sample characteristic or time-point concentration per reference time point or per analyte per subject | Tabulation | STUDYID, USUBJID, PCTESTCD, VISITNUM, PCTPTREF, PCTPTNUM | pc.xpt |", "score": 0.4247, "match_basis": "verbatim_token+chapter_route:ch03"}, {"md_atom_id": "md_ch03_a031", "md_file": "knowledge_base/chapters/ch03_submitting_data.md", "md_atom_type": "TABLE_ROW", "md_parent_section": "§3.2.1 [Dataset-level Metadata]", "md_verbatim": "| CM | Concomitant/Prior Medications | Interventions | One record per recorded intervention occurrence or constant-dosing interval per subject | Tabulation | STUDYID, USUBJID, CMTRT, CMSTDTC | cm.xpt |", "score": 0.394, "match_basis": "verbatim_token+chapter_route:ch03"}, {"md_atom_id": "md_ch03_a036", "md_file": "knowledge_base/chapters/ch03_submitting_data.md", "md_atom_type": "TABLE_ROW", "md_parent_section": "§3.2.1 [Dataset-level Metadata]", "md_verbatim": "| SU | Substance Use | Interventions | One record per substance type per reported occurrence per subject | Tabulation | STUDYID, USUBJID, SUTRT, SUSTDTC | su.xpt |", "score": 0.3929, "match_basis": "verbatim_token+chapter_route:ch03"}, {"md_atom_id": "md_ch03_a049", "md_file": "knowledge_base/chapters/ch03_submitting_data.md", "md_atom_type": "TABLE_ROW", "md_parent_section": "§3.2.1 [Dataset-level Metadata]", "md_verbatim": "| EG | ECG Test Results | Findings | One record per ECG observation per replicate per time point or one record per ECG observation per beat per visit per subject | Tabulation | STUDYID, USUBJID, EGTESTCD, VISITNUM, EGTPTREF, EGTPTNUM, EGREPNUM | eg.xpt |", "score": 0.3929, "match_basis": "verbatim_token+chapter_route:ch03"}, {"md_atom_id": "md_ch03_a074", "md_file": "knowledge_base/chapters/ch03_submitting_data.md", "md_atom_type": "TABLE_ROW", "md_parent_section": "§3.2.1 [Dataset-level Metadata]", "md_verbatim": "| FA | Findings About Events or Interventions | Findings About | One record per finding, per object, per time point, per visit per subject | Tabulation | STUDYID, USUBJID, FATESTCD, FAOBJ, VISITNUM, FATPTREF, FATPTNUM | fa.xpt |", "score": 0.3894, "match_basis": "verbatim_token+chapter_route:ch03"}], "candidate_count": 5, "zero_candidate": false}
{"pdf_atom_id": "sv20_p0038_a005", "pdf_atom_type": "TABLE_ROW", "pdf_source": "SDTM_v2.0", "pdf_page": 38, "pdf_parent_section": "§3.1.5 Timing Variables for All Classes", "pdf_verbatim": "| 35 | --EVLINT | Evaluation Interval | Char | ISO 8601 duration or interval | Timing | | | C82534 | The planned time interval for which an observation is assessed, represented in a standardized character format. | Usually used with --DTC to describe an interval of this duration that ended at the time represented in --DTC. | \"-P2M\" to represent a period of the past 2 months as the evaluation interval for a question from a questionnaire. |", "figure_ref": null, "candidates": [{"md_atom_id": "md_ch03_a077", "md_file": "knowledge_base/chapters/ch03_submitting_data.md", "md_atom_type": "TABLE_ROW", "md_parent_section": "§3.2.1 [Dataset-level Metadata]", "md_verbatim": "| TD | Trial Disease Assessments | Trial Design | One record per planned constant assessment period | Tabulation | STUDYID, TDORDER | td.xpt |", "score": 0.375, "match_basis": "verbatim_token+chapter_route:ch03"}, {"md_atom_id": "md_ch03_a064", "md_file": "knowledge_base/chapters/ch03_submitting_data.md", "md_atom_type": "TABLE_ROW", "md_parent_section": "§3.2.1 [Dataset-level Metadata]", "md_verbatim": "| QS | Questionnaires | Findings | One record per questionnaire per question per time point per visit per subject | Tabulation | STUDYID, USUBJID, QSCAT, QSSCAT, VISITNUM, QSTESTCD | qs.xpt |", "score": 0.3683, "match_basis": "verbatim_token+chapter_route:ch03"}, {"md_atom_id": "md_ch03_a067", "md_file": "knowledge_base/chapters/ch03_submitting_data.md", "md_atom_type": "TABLE_ROW", "md_parent_section": "§3.2.1 [Dataset-level Metadata]", "md_verbatim": "| RS | Disease Response and Clin Classification | Findings | One record per response assessment or clinical classification assessment per time point per visit per subject per assessor per medical evaluator | Tabulation | STUDYID, USUBJID, RSTESTCD, VISITNUM, RSTPTREF, RSEVAL, RSPTPNUM, RSEVALID | rs.xpt |", "score": 0.3663, "match_basis": "verbatim_token+chapter_route:ch03"}, {"md_atom_id": "md_ch03_a061", "md_file": "knowledge_base/chapters/ch03_submitting_data.md", "md_atom_type": "TABLE_ROW", "md_parent_section": "§3.2.1 [Dataset-level Metadata]", "md_verbatim": "| PC | Pharmacokinetics Concentrations | Findings | One record per sample characteristic or time-point concentration per reference time point or per analyte per subject | Tabulation | STUDYID, USUBJID, PCTESTCD, VISITNUM, PCTPTREF, PCTPTNUM | pc.xpt |", "score": 0.3653, "match_basis": "verbatim_token+chapter_route:ch03"}, {"md_atom_id": "md_ch03_a031", "md_file": "knowledge_base/chapters/ch03_submitting_data.md", "md_atom_type": "TABLE_ROW", "md_parent_section": "§3.2.1 [Dataset-level Metadata]", "md_verbatim": "| CM | Concomitant/Prior Medications | Interventions | One record per recorded intervention occurrence or constant-dosing interval per subject | Tabulation | STUDYID, USUBJID, CMTRT, CMSTDTC | cm.xpt |", "score": 0.359, "match_basis": "verbatim_token+chapter_route:ch03"}], "candidate_count": 5, "zero_candidate": false}
{"pdf_atom_id": "sv20_p0038_a006", "pdf_atom_type": "TABLE_ROW", "pdf_source": "SDTM_v2.0", "pdf_page": 38, "pdf_parent_section": "§3.1.5 Timing Variables for All Classes", "pdf_verbatim": "| 36 | --EVINTX | Evaluation Interval Text | Char | | Timing | | | C117044 | A textual description of the planned time interval for which an observation is assessed, where the interval is not able to be represented in a standardized character format. | A value that cannot be represented in ISO 8601 format. | \"LIFETIME\", \"LAST NIGHT\", \"RECENTLY\", \"OVER THE LAST FEW WEEKS\" |", "figure_ref": null, "candidates": [{"md_atom_id": "md_ch03_a077", "md_file": "knowledge_base/chapters/ch03_submitting_data.md", "md_atom_type": "TABLE_ROW", "md_parent_section": "§3.2.1 [Dataset-level Metadata]", "md_verbatim": "| TD | Trial Disease Assessments | Trial Design | One record per planned constant assessment period | Tabulation | STUDYID, TDORDER | td.xpt |", "score": 0.3638, "match_basis": "verbatim_token+chapter_route:ch03"}, {"md_atom_id": "md_ch03_a067", "md_file": "knowledge_base/chapters/ch03_submitting_data.md", "md_atom_type": "TABLE_ROW", "md_parent_section": "§3.2.1 [Dataset-level Metadata]", "md_verbatim": "| RS | Disease Response and Clin Classification | Findings | One record per response assessment or clinical classification assessment per time point per visit per subject per assessor per medical evaluator | Tabulation | STUDYID, USUBJID, RSTESTCD, VISITNUM, RSTPTREF, RSEVAL, RSPTPNUM, RSEVALID | rs.xpt |", "score": 0.3609, "match_basis": "verbatim_token+chapter_route:ch03"}, {"md_atom_id": "md_ch03_a061", "md_file": "knowledge_base/chapters/ch03_submitting_data.md", "md_atom_type": "TABLE_ROW", "md_parent_section": "§3.2.1 [Dataset-level Metadata]", "md_verbatim": "| PC | Pharmacokinetics Concentrations | Findings | One record per sample characteristic or time-point concentration per reference time point or per analyte per subject | Tabulation | STUDYID, USUBJID, PCTESTCD, VISITNUM, PCTPTREF, PCTPTNUM | pc.xpt |", "score": 0.3597, "match_basis": "verbatim_token+chapter_route:ch03"}, {"md_atom_id": "md_ch03_a049", "md_file": "knowledge_base/chapters/ch03_submitting_data.md", "md_atom_type": "TABLE_ROW", "md_parent_section": "§3.2.1 [Dataset-level Metadata]", "md_verbatim": "| EG | ECG Test Results | Findings | One record per ECG observation per replicate per time point or one record per ECG observation per beat per visit per subject | Tabulation | STUDYID, USUBJID, EGTESTCD, VISITNUM, EGTPTREF, EGTPTNUM, EGREPNUM | eg.xpt |", "score": 0.3522, "match_basis": "verbatim_token+chapter_route:ch03"}, {"md_atom_id": "md_ch03_a033", "md_file": "knowledge_base/chapters/ch03_submitting_data.md", "md_atom_type": "TABLE_ROW", "md_parent_section": "§3.2.1 [Dataset-level Metadata]", "md_verbatim": "| EX | Exposure | Interventions | One record per protocol-specified study treatment, constant-dosing interval, per subject | Tabulation | STUDYID, USUBJID, EXTRT, EXSTDTC | ex.xpt |", "score": 0.3489, "match_basis": "verbatim_token+chapter_route:ch03"}], "candidate_count": 5, "zero_candidate": false}
{"pdf_atom_id": "sv20_p0038_a007", "pdf_atom_type": "TABLE_ROW", "pdf_source": "SDTM_v2.0", "pdf_page": 38, "pdf_parent_section": "§3.1.5 Timing Variables for All Classes", "pdf_verbatim": "| 37 | --STRTPT | Start Relative to Reference Time Point | Char | | Timing | | | C82560 | The characterization of the start of an observation relative to a reference time point. | The sponsor-defined reference time point is in --STTPT. | |", "figure_ref": null, "candidates": [{"md_atom_id": "md_ch03_a061", "md_file": "knowledge_base/chapters/ch03_submitting_data.md", "md_atom_type": "TABLE_ROW", "md_parent_section": "§3.2.1 [Dataset-level Metadata]", "md_verbatim": "| PC | Pharmacokinetics Concentrations | Findings | One record per sample characteristic or time-point concentration per reference time point or per analyte per subject | Tabulation | STUDYID, USUBJID, PCTESTCD, VISITNUM, PCTPTREF, PCTPTNUM | pc.xpt |", "score": 0.4261, "match_basis": "verbatim_token+chapter_route:ch03"}, {"md_atom_id": "md_ch03_a049", "md_file": "knowledge_base/chapters/ch03_submitting_data.md", "md_atom_type": "TABLE_ROW", "md_parent_section": "§3.2.1 [Dataset-level Metadata]", "md_verbatim": "| EG | ECG Test Results | Findings | One record per ECG observation per replicate per time point or one record per ECG observation per beat per visit per subject | Tabulation | STUDYID, USUBJID, EGTESTCD, VISITNUM, EGTPTREF, EGTPTNUM, EGREPNUM | eg.xpt |", "score": 0.3898, "match_basis": "verbatim_token+chapter_route:ch03"}, {"md_atom_id": "md_ch03_a075", "md_file": "knowledge_base/chapters/ch03_submitting_data.md", "md_atom_type": "TABLE_ROW", "md_parent_section": "§3.2.1 [Dataset-level Metadata]", "md_verbatim": "| SR | Skin Response | Findings About | One record per finding, per object, per time point, per visit per subject | Tabulation | STUDYID, USUBJID, SRTESTCD, SROBJ, VISITNUM, SRTPTREF, SRTPTNUM | sr.xpt |", "score": 0.3864, "match_basis": "verbatim_token+chapter_route:ch03"}, {"md_atom_id": "md_ch03_a074", "md_file": "knowledge_base/chapters/ch03_submitting_data.md", "md_atom_type": "TABLE_ROW", "md_parent_section": "§3.2.1 [Dataset-level Metadata]", "md_verbatim": "| FA | Findings About Events or Interventions | Findings About | One record per finding, per object, per time point, per visit per subject | Tabulation | STUDYID, USUBJID, FATESTCD, FAOBJ, VISITNUM, FATPTREF, FATPTNUM | fa.xpt |", "score": 0.3793, "match_basis": "verbatim_token+chapter_route:ch03"}, {"md_atom_id": "md_ch03_a068", "md_file": "knowledge_base/chapters/ch03_submitting_data.md", "md_atom_type": "TABLE_ROW", "md_parent_section": "§3.2.1 [Dataset-level Metadata]", "md_verbatim": "| SC | Subject Characteristics | Findings | One record per characteristic per visit per subject. | Tabulation | STUDYID, USUBJID, SCTESTCD, VISITNUM | sc.xpt |", "score": 0.3778, "match_basis": "verbatim_token+chapter_route:ch03"}], "candidate_count": 5, "zero_candidate": false}
{"pdf_atom_id": "sv20_p0038_a008", "pdf_atom_type": "TABLE_ROW", "pdf_source": "SDTM_v2.0", "pdf_page": 38, "pdf_parent_section": "§3.1.5 Timing Variables for All Classes", "pdf_verbatim": "| 38 | --STTPT | Start Reference Time Point | Char | | Timing | | | C82575 | The description or date and/or time of a time point that acts as a fixed reference for characterizing the start of an observation. | This is the sponsor-defined reference point referred to by --STRTPT. | \"2003-12-15\", \"VISIT 1\" |", "figure_ref": null, "candidates": [{"md_atom_id": "md_ch03_a061", "md_file": "knowledge_base/chapters/ch03_submitting_data.md", "md_atom_type": "TABLE_ROW", "md_parent_section": "§3.2.1 [Dataset-level Metadata]", "md_verbatim": "| PC | Pharmacokinetics Concentrations | Findings | One record per sample characteristic or time-point concentration per reference time point or per analyte per subject | Tabulation | STUDYID, USUBJID, PCTESTCD, VISITNUM, PCTPTREF, PCTPTNUM | pc.xpt |", "score": 0.4177, "match_basis": "verbatim_token+chapter_route:ch03"}, {"md_atom_id": "md_ch03_a049", "md_file": "knowledge_base/chapters/ch03_submitting_data.md", "md_atom_type": "TABLE_ROW", "md_parent_section": "§3.2.1 [Dataset-level Metadata]", "md_verbatim": "| EG | ECG Test Results | Findings | One record per ECG observation per replicate per time point or one record per ECG observation per beat per visit per subject | Tabulation | STUDYID, USUBJID, EGTESTCD, VISITNUM, EGTPTREF, EGTPTNUM, EGREPNUM | eg.xpt |", "score": 0.3904, "match_basis": "verbatim_token+chapter_route:ch03"}, {"md_atom_id": "md_ch03_a075", "md_file": "knowledge_base/chapters/ch03_submitting_data.md", "md_atom_type": "TABLE_ROW", "md_parent_section": "§3.2.1 [Dataset-level Metadata]", "md_verbatim": "| SR | Skin Response | Findings About | One record per finding, per object, per time point, per visit per subject | Tabulation | STUDYID, USUBJID, SRTESTCD, SROBJ, VISITNUM, SRTPTREF, SRTPTNUM | sr.xpt |", "score": 0.3826, "match_basis": "verbatim_token+chapter_route:ch03"}, {"md_atom_id": "md_ch03_a074", "md_file": "knowledge_base/chapters/ch03_submitting_data.md", "md_atom_type": "TABLE_ROW", "md_parent_section": "§3.2.1 [Dataset-level Metadata]", "md_verbatim": "| FA | Findings About Events or Interventions | Findings About | One record per finding, per object, per time point, per visit per subject | Tabulation | STUDYID, USUBJID, FATESTCD, FAOBJ, VISITNUM, FATPTREF, FATPTNUM | fa.xpt |", "score": 0.3814, "match_basis": "verbatim_token+chapter_route:ch03"}, {"md_atom_id": "md_ch03_a068", "md_file": "knowledge_base/chapters/ch03_submitting_data.md", "md_atom_type": "TABLE_ROW", "md_parent_section": "§3.2.1 [Dataset-level Metadata]", "md_verbatim": "| SC | Subject Characteristics | Findings | One record per characteristic per visit per subject. | Tabulation | STUDYID, USUBJID, SCTESTCD, VISITNUM | sc.xpt |", "score": 0.375, "match_basis": "verbatim_token+chapter_route:ch03"}], "candidate_count": 5, "zero_candidate": false}
{"pdf_atom_id": "sv20_p0038_a009", "pdf_atom_type": "TABLE_ROW", "pdf_source": "SDTM_v2.0", "pdf_page": 38, "pdf_parent_section": "§3.1.5 Timing Variables for All Classes", "pdf_verbatim": "| 39 | --ENRTPT | End Relative to Reference Time Point | Char | | Timing | | | C82558 | The characterization of the end of an observation relative to a reference time point. | The sponsor-defined reference time point is in --ENTPT. | |", "figure_ref": null, "candidates": [{"md_atom_id": "md_ch03_a061", "md_file": "knowledge_base/chapters/ch03_submitting_data.md", "md_atom_type": "TABLE_ROW", "md_parent_section": "§3.2.1 [Dataset-level Metadata]", "md_verbatim": "| PC | Pharmacokinetics Concentrations | Findings | One record per sample characteristic or time-point concentration per reference time point or per analyte per subject | Tabulation | STUDYID, USUBJID, PCTESTCD, VISITNUM, PCTPTREF, PCTPTNUM | pc.xpt |", "score": 0.4333, "match_basis": "verbatim_token+chapter_route:ch03"}, {"md_atom_id": "md_ch03_a049", "md_file": "knowledge_base/chapters/ch03_submitting_data.md", "md_atom_type": "TABLE_ROW", "md_parent_section": "§3.2.1 [Dataset-level Metadata]", "md_verbatim": "| EG | ECG Test Results | Findings | One record per ECG observation per replicate per time point or one record per ECG observation per beat per visit per subject | Tabulation | STUDYID, USUBJID, EGTESTCD, VISITNUM, EGTPTREF, EGTPTNUM, EGREPNUM | eg.xpt |", "score": 0.3912, "match_basis": "verbatim_token+chapter_route:ch03"}, {"md_atom_id": "md_ch03_a075", "md_file": "knowledge_base/chapters/ch03_submitting_data.md", "md_atom_type": "TABLE_ROW", "md_parent_section": "§3.2.1 [Dataset-level Metadata]", "md_verbatim": "| SR | Skin Response | Findings About | One record per finding, per object, per time point, per visit per subject | Tabulation | STUDYID, USUBJID, SRTESTCD, SROBJ, VISITNUM, SRTPTREF, SRTPTNUM | sr.xpt |", "score": 0.3879, "match_basis": "verbatim_token+chapter_route:ch03"}, {"md_atom_id": "md_ch03_a074", "md_file": "knowledge_base/chapters/ch03_submitting_data.md", "md_atom_type": "TABLE_ROW", "md_parent_section": "§3.2.1 [Dataset-level Metadata]", "md_verbatim": "| FA | Findings About Events or Interventions | Findings About | One record per finding, per object, per time point, per visit per subject | Tabulation | STUDYID, USUBJID, FATESTCD, FAOBJ, VISITNUM, FATPTREF, FATPTNUM | fa.xpt |", "score": 0.3864, "match_basis": "verbatim_token+chapter_route:ch03"}, {"md_atom_id": "md_ch03_a068", "md_file": "knowledge_base/chapters/ch03_submitting_data.md", "md_atom_type": "TABLE_ROW", "md_parent_section": "§3.2.1 [Dataset-level Metadata]", "md_verbatim": "| SC | Subject Characteristics | Findings | One record per characteristic per visit per subject. | Tabulation | STUDYID, USUBJID, SCTESTCD, VISITNUM | sc.xpt |", "score": 0.3792, "match_basis": "verbatim_token+chapter_route:ch03"}], "candidate_count": 5, "zero_candidate": false}
{"pdf_atom_id": "sv20_p0038_a010", "pdf_atom_type": "TABLE_ROW", "pdf_source": "SDTM_v2.0", "pdf_page": 38, "pdf_parent_section": "§3.1.5 Timing Variables for All Classes", "pdf_verbatim": "| 40 | --ENTPT | End Reference Time Point | Char | | Timing | | | C82574 | The description or date and/or time of a time point that acts as a fixed reference for characterizing the end of an observation. | This is the sponsor-defined reference point referred to by --ENRTPT. | \"2003-12-25\", \"VISIT 2\" |", "figure_ref": null, "candidates": [{"md_atom_id": "md_ch03_a061", "md_file": "knowledge_base/chapters/ch03_submitting_data.md", "md_atom_type": "TABLE_ROW", "md_parent_section": "§3.2.1 [Dataset-level Metadata]", "md_verbatim": "| PC | Pharmacokinetics Concentrations | Findings | One record per sample characteristic or time-point concentration per reference time point or per analyte per subject | Tabulation | STUDYID, USUBJID, PCTESTCD, VISITNUM, PCTPTREF, PCTPTNUM | pc.xpt |", "score": 0.4239, "match_basis": "verbatim_token+chapter_route:ch03"}, {"md_atom_id": "md_ch03_a049", "md_file": "knowledge_base/chapters/ch03_submitting_data.md", "md_atom_type": "TABLE_ROW", "md_parent_section": "§3.2.1 [Dataset-level Metadata]", "md_verbatim": "| EG | ECG Test Results | Findings | One record per ECG observation per replicate per time point or one record per ECG observation per beat per visit per subject | Tabulation | STUDYID, USUBJID, EGTESTCD, VISITNUM, EGTPTREF, EGTPTNUM, EGREPNUM | eg.xpt |", "score": 0.3917, "match_basis": "verbatim_token+chapter_route:ch03"}, {"md_atom_id": "md_ch03_a074", "md_file": "knowledge_base/chapters/ch03_submitting_data.md", "md_atom_type": "TABLE_ROW", "md_parent_section": "§3.2.1 [Dataset-level Metadata]", "md_verbatim": "| FA | Findings About Events or Interventions | Findings About | One record per finding, per object, per time point, per visit per subject | Tabulation | STUDYID, USUBJID, FATESTCD, FAOBJ, VISITNUM, FATPTREF, FATPTNUM | fa.xpt |", "score": 0.3876, "match_basis": "verbatim_token+chapter_route:ch03"}, {"md_atom_id": "md_ch03_a075", "md_file": "knowledge_base/chapters/ch03_submitting_data.md", "md_atom_type": "TABLE_ROW", "md_parent_section": "§3.2.1 [Dataset-level Metadata]", "md_verbatim": "| SR | Skin Response | Findings About | One record per finding, per object, per time point, per visit per subject | Tabulation | STUDYID, USUBJID, SRTESTCD, SROBJ, VISITNUM, SRTPTREF, SRTPTNUM | sr.xpt |", "score": 0.3838, "match_basis": "verbatim_token+chapter_route:ch03"}, {"md_atom_id": "md_ch03_a068", "md_file": "knowledge_base/chapters/ch03_submitting_data.md", "md_atom_type": "TABLE_ROW", "md_parent_section": "§3.2.1 [Dataset-level Metadata]", "md_verbatim": "| SC | Subject Characteristics | Findings | One record per characteristic per visit per subject. | Tabulation | STUDYID, USUBJID, SCTESTCD, VISITNUM | sc.xpt |", "score": 0.3762, "match_basis": "verbatim_token+chapter_route:ch03"}], "candidate_count": 5, "zero_candidate": false}
