{"pdf_atom_id": "ig34_p0378_a001", "pdf_atom_type": "LIST_ITEM", "pdf_source": "SDTMIG_v3.4", "pdf_page": 378, "pdf_parent_section": "SR – Assumptions", "pdf_verbatim": "Because a subject is typically exposed to many test materials at the same time, SROBJ is needed to represent the test material for each response record. The method of assessment could be a skin-prick test, a skin-scratch test, or other method of introducing the challenge substance into the skin.", "figure_ref": null, "candidates": [{"md_atom_id": "md_dmSR_assn_a004", "md_file": "knowledge_base/domains/SR/assumptions.md", "md_atom_type": "LIST_ITEM", "md_parent_section": "§SR [SR — Assumptions]", "md_verbatim": "3. Because a subject is typically exposed to many test materials at the same time, SROBJ is needed to represent the test material for each response record. The method of assessment could be a skin-prick test, a skin-scratch test, or other method of introducing the challenge substance into the skin.", "score": 1.0, "match_basis": "verbatim_token+domain_route:SR"}, {"md_atom_id": "md_dmSR_assn_a003", "md_file": "knowledge_base/domains/SR/assumptions.md", "md_atom_type": "LIST_ITEM", "md_parent_section": "§SR [SR — Assumptions]", "md_verbatim": "2. This domain is intended specifically for tests of the immune response to substances that are intended to provoke such a response (e.g., allergens used in allergy testing). SR is not intended for other injection-site reactions, including reactogenicity events that may follow a vaccine administration.", "score": 0.5066, "match_basis": "verbatim_token+domain_route:SR"}, {"md_atom_id": "md_dmSR_assn_a002", "md_file": "knowledge_base/domains/SR/assumptions.md", "md_atom_type": "LIST_ITEM", "md_parent_section": "§SR [SR — Assumptions]", "md_verbatim": "1. The Skin Response (SR) domain is used to represent findings about an intervention, but it has its own domain code, SR, rather than the domain code FA.", "score": 0.4943, "match_basis": "verbatim_token+domain_route:SR"}, {"md_atom_id": "md_dmSR_assn_a005", "md_file": "knowledge_base/domains/SR/assumptions.md", "md_atom_type": "LIST_ITEM", "md_parent_section": "§SR [SR — Assumptions]", "md_verbatim": "4. Any Identifier variables, Timing variables, or Findings general observation class qualifiers may be added to the SR domain, but the following qualifiers would not generally be used: --POS, --BODSYS, --ORNRLO, --ORNRHI, --STNRLO, --STNRHI, --STNRC, --NRIND, --RESCAT, --XFN, --LOINC, --SPCCND, --FAST, --TOX, --TOXGR, --SEV.", "score": 0.4478, "match_basis": "verbatim_token+domain_route:SR"}, {"md_atom_id": "md_dmSR_ex_a018", "md_file": "knowledge_base/domains/SR/examples.md", "md_atom_type": "SENTENCE", "md_parent_section": "§SR.2 [Example 2]", "md_verbatim": "In this example, the study product dose, Dog Epi IgG, was administered at increasing concentrations. The size of the wheal is being measured (reaction to Dog Epi IgG) to evaluate the efficacy of the Dog Epi IgG extract versus a negative control (NC) and a positive control (PC) in the testing of allergenic extracts. While SROBJ is populated with information about the substance administered, full details regarding the study product would be submitted in the Exposure (EX) dataset. The relationship between SR records and EX records would be represented using RELREC.", "score": 0.4166, "match_basis": "verbatim_token+domain_route:SR"}], "candidate_count": 5, "zero_candidate": false}
{"pdf_atom_id": "ig34_p0378_a002", "pdf_atom_type": "LIST_ITEM", "pdf_source": "SDTMIG_v3.4", "pdf_page": 378, "pdf_parent_section": "SR – Assumptions", "pdf_verbatim": "Any Identifier variables, Timing variables, or Findings general observation class qualifiers may be added to the SR domain, but the following qualifiers would not generally be used: --POS, --BODSYS, --ORNRLO, --ORNRHI, --STNRLO, --STNRHI, --STNRC, --NRIND, --RESCAT, --XFN, --LOINC, --SPCCND, --FAST, --TOX, --TOXGR, --SEV.", "figure_ref": null, "candidates": [{"md_atom_id": "md_dmSR_assn_a005", "md_file": "knowledge_base/domains/SR/assumptions.md", "md_atom_type": "LIST_ITEM", "md_parent_section": "§SR [SR — Assumptions]", "md_verbatim": "4. Any Identifier variables, Timing variables, or Findings general observation class qualifiers may be added to the SR domain, but the following qualifiers would not generally be used: --POS, --BODSYS, --ORNRLO, --ORNRHI, --STNRLO, --STNRHI, --STNRC, --NRIND, --RESCAT, --XFN, --LOINC, --SPCCND, --FAST, --TOX, --TOXGR, --SEV.", "score": 1.0, "match_basis": "verbatim_token+domain_route:SR"}, {"md_atom_id": "md_dmSR_assn_a002", "md_file": "knowledge_base/domains/SR/assumptions.md", "md_atom_type": "LIST_ITEM", "md_parent_section": "§SR [SR — Assumptions]", "md_verbatim": "1. The Skin Response (SR) domain is used to represent findings about an intervention, but it has its own domain code, SR, rather than the domain code FA.", "score": 0.4889, "match_basis": "verbatim_token+domain_route:SR"}, {"md_atom_id": "md_dmSR_assn_a003", "md_file": "knowledge_base/domains/SR/assumptions.md", "md_atom_type": "LIST_ITEM", "md_parent_section": "§SR [SR — Assumptions]", "md_verbatim": "2. This domain is intended specifically for tests of the immune response to substances that are intended to provoke such a response (e.g., allergens used in allergy testing). SR is not intended for other injection-site reactions, including reactogenicity events that may follow a vaccine administration.", "score": 0.4818, "match_basis": "verbatim_token+domain_route:SR"}, {"md_atom_id": "md_dmSR_assn_a004", "md_file": "knowledge_base/domains/SR/assumptions.md", "md_atom_type": "LIST_ITEM", "md_parent_section": "§SR [SR — Assumptions]", "md_verbatim": "3. Because a subject is typically exposed to many test materials at the same time, SROBJ is needed to represent the test material for each response record. The method of assessment could be a skin-prick test, a skin-scratch test, or other method of introducing the challenge substance into the skin.", "score": 0.4478, "match_basis": "verbatim_token+domain_route:SR"}, {"md_atom_id": "md_dmSR_ex_a065", "md_file": "knowledge_base/domains/SR/examples.md", "md_atom_type": "SENTENCE", "md_parent_section": "§SR.3 [Example 3]", "md_verbatim": "This example shows the results from a tuberculin purified protein derivative (PPD) skin test administered using the Mantoux technique. The subject was given an intradermal injection of standard PPD (i.e., PPD-S) in the left forearm at visit 1; see the Procedure Agents (AG) record below. At visit 2, the induration diameter and presence of blistering were recorded. Because the tuberculin PPD skin test cannot be interpreted using the induration diameter and blistering alone (e.g., risk for being infected with TB must also be considered), the interpretation of the skin test resides in its own row. Time point variables show that the planned time for reading the test was 48 hours after Mantoux administration. However, a comparison of datetime values in SRDTC and SRRFTDTC shows that in this case the test was read at 53 hours and 56 minutes after Mantoux administration.", "score": 0.3635, "match_basis": "verbatim_token+domain_route:SR"}], "candidate_count": 5, "zero_candidate": false}
{"pdf_atom_id": "ig34_p0378_a003", "pdf_atom_type": "HEADING", "pdf_source": "SDTMIG_v3.4", "pdf_page": 378, "pdf_parent_section": "§6.4.5 Skin Response (SR)", "pdf_verbatim": "SR – Examples", "figure_ref": null, "candidates": [{"md_atom_id": "md_dmSR_ex_a001", "md_file": "knowledge_base/domains/SR/examples.md", "md_atom_type": "HEADING", "md_parent_section": "§SR [SR — Examples]", "md_verbatim": "# SR — Examples", "score": 1.0, "match_basis": "verbatim_token+domain_route:SR"}, {"md_atom_id": "md_dmSR_ex_a002", "md_file": "knowledge_base/domains/SR/examples.md", "md_atom_type": "HEADING", "md_parent_section": "§SR [SR — Examples]", "md_verbatim": "## Example 1", "score": 0.9, "match_basis": "verbatim_token+domain_route:SR"}, {"md_atom_id": "md_dmSR_ex_a017", "md_file": "knowledge_base/domains/SR/examples.md", "md_atom_type": "HEADING", "md_parent_section": "§SR [SR — Examples]", "md_verbatim": "## Example 2", "score": 0.9, "match_basis": "verbatim_token+domain_route:SR"}, {"md_atom_id": "md_dmSR_ex_a064", "md_file": "knowledge_base/domains/SR/examples.md", "md_atom_type": "HEADING", "md_parent_section": "§SR [SR — Examples]", "md_verbatim": "## Example 3", "score": 0.9, "match_basis": "verbatim_token+domain_route:SR"}, {"md_atom_id": "md_dmSR_assn_a001", "md_file": "knowledge_base/domains/SR/assumptions.md", "md_atom_type": "HEADING", "md_parent_section": "§SR [SR — Assumptions]", "md_verbatim": "# SR — Assumptions", "score": 0.4, "match_basis": "verbatim_token+domain_route:SR"}], "candidate_count": 5, "zero_candidate": false}
{"pdf_atom_id": "ig34_p0378_a004", "pdf_atom_type": "HEADING", "pdf_source": "SDTMIG_v3.4", "pdf_page": 378, "pdf_parent_section": "SR – Examples", "pdf_verbatim": "Example 1", "figure_ref": null, "candidates": [{"md_atom_id": "md_dmSR_ex_a002", "md_file": "knowledge_base/domains/SR/examples.md", "md_atom_type": "HEADING", "md_parent_section": "§SR [SR — Examples]", "md_verbatim": "## Example 1", "score": 1.0, "match_basis": "verbatim_token+domain_route:SR"}, {"md_atom_id": "md_dmSR_ex_a017", "md_file": "knowledge_base/domains/SR/examples.md", "md_atom_type": "HEADING", "md_parent_section": "§SR [SR — Examples]", "md_verbatim": "## Example 2", "score": 1.0, "match_basis": "verbatim_token+domain_route:SR"}, {"md_atom_id": "md_dmSR_ex_a064", "md_file": "knowledge_base/domains/SR/examples.md", "md_atom_type": "HEADING", "md_parent_section": "§SR [SR — Examples]", "md_verbatim": "## Example 3", "score": 1.0, "match_basis": "verbatim_token+domain_route:SR"}, {"md_atom_id": "md_dmSR_ex_a001", "md_file": "knowledge_base/domains/SR/examples.md", "md_atom_type": "HEADING", "md_parent_section": "§SR [SR — Examples]", "md_verbatim": "# SR — Examples", "score": 0.9, "match_basis": "verbatim_token+domain_route:SR"}, {"md_atom_id": "md_dmSR_assn_a001", "md_file": "knowledge_base/domains/SR/assumptions.md", "md_atom_type": "HEADING", "md_parent_section": "§SR [SR — Assumptions]", "md_verbatim": "# SR — Assumptions", "score": 0.4, "match_basis": "verbatim_token+domain_route:SR"}], "candidate_count": 5, "zero_candidate": false}
{"pdf_atom_id": "ig34_p0378_a005", "pdf_atom_type": "SENTENCE", "pdf_source": "SDTMIG_v3.4", "pdf_page": 378, "pdf_parent_section": "SR – Examples", "pdf_verbatim": "In this example, the subject is dosed with increasing concentrations of Johnson grass IgE.", "figure_ref": null, "candidates": [{"md_atom_id": "md_dmSR_ex_a003", "md_file": "knowledge_base/domains/SR/examples.md", "md_atom_type": "SENTENCE", "md_parent_section": "§SR.1 [Example 1]", "md_verbatim": "In this example, the subject is dosed with increasing concentrations of Johnson grass IgE.", "score": 1.0, "match_basis": "verbatim_token+domain_route:SR"}, {"md_atom_id": "md_dmSR_ex_a005", "md_file": "knowledge_base/domains/SR/examples.md", "md_atom_type": "SENTENCE", "md_parent_section": "§SR.1 [Example 1]", "md_verbatim": "**Rows 5-8:** Show responses associated with the administration of Johnson grass IgE. These records describe the dose response to different concentrations of Johnson grass IgE antigen, as reflected in SROBJ.", "score": 0.5588, "match_basis": "verbatim_token+domain_route:SR"}, {"md_atom_id": "md_dmSR_ex_a004", "md_file": "knowledge_base/domains/SR/examples.md", "md_atom_type": "SENTENCE", "md_parent_section": "§SR.1 [Example 1]", "md_verbatim": "**Rows 1-4:** Show responses associated with the administration of a histamine control.", "score": 0.5, "match_basis": "verbatim_token+domain_route:SR"}, {"md_atom_id": "md_dmSR_ex_a018", "md_file": "knowledge_base/domains/SR/examples.md", "md_atom_type": "SENTENCE", "md_parent_section": "§SR.2 [Example 2]", "md_verbatim": "In this example, the study product dose, Dog Epi IgG, was administered at increasing concentrations. The size of the wheal is being measured (reaction to Dog Epi IgG) to evaluate the efficacy of the Dog Epi IgG extract versus a negative control (NC) and a positive control (PC) in the testing of allergenic extracts. While SROBJ is populated with information about the substance administered, full details regarding the study product would be submitted in the Exposure (EX) dataset. The relationship between SR records and EX records would be represented using RELREC.", "score": 0.4957, "match_basis": "verbatim_token+domain_route:SR"}, {"md_atom_id": "md_dmSR_ex_a066", "md_file": "knowledge_base/domains/SR/examples.md", "md_atom_type": "SENTENCE", "md_parent_section": "§SR.3 [Example 3]", "md_verbatim": "**Row 1:** Shows the longest diameter in millimeters of the induration after receiving an intradermal injection of 0.1 mL containing 5TU of PPD-S in the left forearm.", "score": 0.4692, "match_basis": "verbatim_token+domain_route:SR"}], "candidate_count": 5, "zero_candidate": false}
{"pdf_atom_id": "ig34_p0378_a006", "pdf_atom_type": "LIST_ITEM", "pdf_source": "SDTMIG_v3.4", "pdf_page": 378, "pdf_parent_section": "SR – Examples", "pdf_verbatim": "Rows 1-4: Show responses associated with the administration of a histamine control.", "figure_ref": null, "candidates": [{"md_atom_id": "md_dmSR_ex_a004", "md_file": "knowledge_base/domains/SR/examples.md", "md_atom_type": "SENTENCE", "md_parent_section": "§SR.1 [Example 1]", "md_verbatim": "**Rows 1-4:** Show responses associated with the administration of a histamine control.", "score": 0.91, "match_basis": "verbatim_token+domain_route:SR"}, {"md_atom_id": "md_dmSR_ex_a005", "md_file": "knowledge_base/domains/SR/examples.md", "md_atom_type": "SENTENCE", "md_parent_section": "§SR.1 [Example 1]", "md_verbatim": "**Rows 5-8:** Show responses associated with the administration of Johnson grass IgE. These records describe the dose response to different concentrations of Johnson grass IgE antigen, as reflected in SROBJ.", "score": 0.55, "match_basis": "verbatim_token+domain_route:SR"}, {"md_atom_id": "md_dmSR_assn_a003", "md_file": "knowledge_base/domains/SR/assumptions.md", "md_atom_type": "LIST_ITEM", "md_parent_section": "§SR [SR — Assumptions]", "md_verbatim": "2. This domain is intended specifically for tests of the immune response to substances that are intended to provoke such a response (e.g., allergens used in allergy testing). SR is not intended for other injection-site reactions, including reactogenicity events that may follow a vaccine administration.", "score": 0.493, "match_basis": "verbatim_token+domain_route:SR"}, {"md_atom_id": "md_dmSR_assn_a002", "md_file": "knowledge_base/domains/SR/assumptions.md", "md_atom_type": "LIST_ITEM", "md_parent_section": "§SR [SR — Assumptions]", "md_verbatim": "1. The Skin Response (SR) domain is used to represent findings about an intervention, but it has its own domain code, SR, rather than the domain code FA.", "score": 0.4714, "match_basis": "verbatim_token+domain_route:SR"}, {"md_atom_id": "md_dmSR_assn_a004", "md_file": "knowledge_base/domains/SR/assumptions.md", "md_atom_type": "LIST_ITEM", "md_parent_section": "§SR [SR — Assumptions]", "md_verbatim": "3. Because a subject is typically exposed to many test materials at the same time, SROBJ is needed to represent the test material for each response record. The method of assessment could be a skin-prick test, a skin-scratch test, or other method of introducing the challenge substance into the skin.", "score": 0.4592, "match_basis": "verbatim_token+domain_route:SR"}], "candidate_count": 5, "zero_candidate": false}
{"pdf_atom_id": "ig34_p0378_a007", "pdf_atom_type": "LIST_ITEM", "pdf_source": "SDTMIG_v3.4", "pdf_page": 378, "pdf_parent_section": "SR – Examples", "pdf_verbatim": "Rows 5-8: Show responses associated with the administration of Johnson grass IgE. These records describe the dose response to different concentrations of Johnson grass IgE antigen, as reflected in SROBJ.", "figure_ref": null, "candidates": [{"md_atom_id": "md_dmSR_ex_a005", "md_file": "knowledge_base/domains/SR/examples.md", "md_atom_type": "SENTENCE", "md_parent_section": "§SR.1 [Example 1]", "md_verbatim": "**Rows 5-8:** Show responses associated with the administration of Johnson grass IgE. These records describe the dose response to different concentrations of Johnson grass IgE antigen, as reflected in SROBJ.", "score": 0.91, "match_basis": "verbatim_token+domain_route:SR"}, {"md_atom_id": "md_dmSR_ex_a004", "md_file": "knowledge_base/domains/SR/examples.md", "md_atom_type": "SENTENCE", "md_parent_section": "§SR.1 [Example 1]", "md_verbatim": "**Rows 1-4:** Show responses associated with the administration of a histamine control.", "score": 0.55, "match_basis": "verbatim_token+domain_route:SR"}, {"md_atom_id": "md_dmSR_ex_a019", "md_file": "knowledge_base/domains/SR/examples.md", "md_atom_type": "SENTENCE", "md_parent_section": "§SR.2 [Example 2]", "md_verbatim": "**Rows 1-6:** Show the response (description and reaction grade) to the study product at a series of different dose levels, the latter reflected in SROBJ. The descriptions of SRORRES values are correlated to a grade, and the grade values are stored in SRSTRESC.", "score": 0.496, "match_basis": "verbatim_token+domain_route:SR"}, {"md_atom_id": "md_dmSR_assn_a004", "md_file": "knowledge_base/domains/SR/assumptions.md", "md_atom_type": "LIST_ITEM", "md_parent_section": "§SR [SR — Assumptions]", "md_verbatim": "3. Because a subject is typically exposed to many test materials at the same time, SROBJ is needed to represent the test material for each response record. The method of assessment could be a skin-prick test, a skin-scratch test, or other method of introducing the challenge substance into the skin.", "score": 0.4888, "match_basis": "verbatim_token+domain_route:SR"}, {"md_atom_id": "md_dmSR_assn_a003", "md_file": "knowledge_base/domains/SR/assumptions.md", "md_atom_type": "LIST_ITEM", "md_parent_section": "§SR [SR — Assumptions]", "md_verbatim": "2. This domain is intended specifically for tests of the immune response to substances that are intended to provoke such a response (e.g., allergens used in allergy testing). SR is not intended for other injection-site reactions, including reactogenicity events that may follow a vaccine administration.", "score": 0.4771, "match_basis": "verbatim_token+domain_route:SR"}], "candidate_count": 5, "zero_candidate": false}
{"pdf_atom_id": "ig34_p0378_a008", "pdf_atom_type": "SENTENCE", "pdf_source": "SDTMIG_v3.4", "pdf_page": 378, "pdf_parent_section": "SR – Examples", "pdf_verbatim": "All rows show a specific location on the back (e.g., SITE1), represented in FOCID.", "figure_ref": null, "candidates": [{"md_atom_id": "md_dmSR_ex_a006", "md_file": "knowledge_base/domains/SR/examples.md", "md_atom_type": "SENTENCE", "md_parent_section": "§SR.1 [Example 1]", "md_verbatim": "All rows show a specific location on the back (e.g., SITE1), represented in FOCID.", "score": 1.0, "match_basis": "verbatim_token+domain_route:SR"}, {"md_atom_id": "md_dmSR_ex_a043", "md_file": "knowledge_base/domains/SR/examples.md", "md_atom_type": "SENTENCE", "md_parent_section": "§SR.2 [Example 2]", "md_verbatim": "The relationships between SR and EX records are represented at the record level in RELREC.", "score": 0.53, "match_basis": "verbatim_token+domain_route:SR"}, {"md_atom_id": "md_dmSR_ex_a074", "md_file": "knowledge_base/domains/SR/examples.md", "md_atom_type": "SENTENCE", "md_parent_section": "§SR.3 [Example 3]", "md_verbatim": "The tuberculin PPD skin test administration was represented in the AG domain.", "score": 0.5258, "match_basis": "verbatim_token+domain_route:SR"}, {"md_atom_id": "md_dmSR_ex_a067", "md_file": "knowledge_base/domains/SR/examples.md", "md_atom_type": "SENTENCE", "md_parent_section": "§SR.3 [Example 3]", "md_verbatim": "**Row 2:** Shows the presence of blistering at the tuberculin PPD skin test site.", "score": 0.5138, "match_basis": "verbatim_token+domain_route:SR"}, {"md_atom_id": "md_dmSR_ex_a004", "md_file": "knowledge_base/domains/SR/examples.md", "md_atom_type": "SENTENCE", "md_parent_section": "§SR.1 [Example 1]", "md_verbatim": "**Rows 1-4:** Show responses associated with the administration of a histamine control.", "score": 0.4971, "match_basis": "verbatim_token+domain_route:SR"}], "candidate_count": 5, "zero_candidate": false}
{"pdf_atom_id": "ig34_p0378_a009", "pdf_atom_type": "CODE_LITERAL", "pdf_source": "SDTMIG_v3.4", "pdf_page": 378, "pdf_parent_section": "SR – Examples", "pdf_verbatim": "sr.xpt", "figure_ref": null, "candidates": [{"md_atom_id": "md_dmSR_ex_a007", "md_file": "knowledge_base/domains/SR/examples.md", "md_atom_type": "SENTENCE", "md_parent_section": "§SR.1 [Example 1]", "md_verbatim": "**sr.xpt**", "score": 0.79, "match_basis": "verbatim_token+domain_route:SR"}, {"md_atom_id": "md_dmSR_ex_a021", "md_file": "knowledge_base/domains/SR/examples.md", "md_atom_type": "SENTENCE", "md_parent_section": "§SR.2 [Example 2]", "md_verbatim": "**sr.xpt**", "score": 0.79, "match_basis": "verbatim_token+domain_route:SR"}, {"md_atom_id": "md_dmSR_ex_a035", "md_file": "knowledge_base/domains/SR/examples.md", "md_atom_type": "SENTENCE", "md_parent_section": "§SR.2 [Example 2]", "md_verbatim": "**ex.xpt**", "score": 0.79, "match_basis": "verbatim_token+domain_route:SR"}, {"md_atom_id": "md_dmSR_ex_a069", "md_file": "knowledge_base/domains/SR/examples.md", "md_atom_type": "SENTENCE", "md_parent_section": "§SR.3 [Example 3]", "md_verbatim": "**sr.xpt**", "score": 0.79, "match_basis": "verbatim_token+domain_route:SR"}, {"md_atom_id": "md_dmSR_ex_a075", "md_file": "knowledge_base/domains/SR/examples.md", "md_atom_type": "SENTENCE", "md_parent_section": "§SR.3 [Example 3]", "md_verbatim": "**ag.xpt**", "score": 0.79, "match_basis": "verbatim_token+domain_route:SR"}, {"md_atom_id": "md_dmSR_ex_a044", "md_file": "knowledge_base/domains/SR/examples.md", "md_atom_type": "SENTENCE", "md_parent_section": "§SR.2 [Example 2]", "md_verbatim": "**relrec.xpt**", "score": 0.31, "match_basis": "verbatim_token+domain_route:SR"}, {"md_atom_id": "md_dmSR_ex_a079", "md_file": "knowledge_base/domains/SR/examples.md", "md_atom_type": "SENTENCE", "md_parent_section": "§SR.3 [Example 3]", "md_verbatim": "**relrec.xpt**", "score": 0.31, "match_basis": "verbatim_token+domain_route:SR"}, {"md_atom_id": "md_dmSR_assn_a001", "md_file": "knowledge_base/domains/SR/assumptions.md", "md_atom_type": "HEADING", "md_parent_section": "§SR [SR — Assumptions]", "md_verbatim": "# SR — Assumptions", "score": 0.19, "match_basis": "verbatim_token+domain_route:SR"}, {"md_atom_id": "md_dmSR_assn_a002", "md_file": "knowledge_base/domains/SR/assumptions.md", "md_atom_type": "LIST_ITEM", "md_parent_section": "§SR [SR — Assumptions]", "md_verbatim": "1. The Skin Response (SR) domain is used to represent findings about an intervention, but it has its own domain code, SR, rather than the domain code FA.", "score": 0.19, "match_basis": "verbatim_token+domain_route:SR"}, {"md_atom_id": "md_dmSR_assn_a003", "md_file": "knowledge_base/domains/SR/assumptions.md", "md_atom_type": "LIST_ITEM", "md_parent_section": "§SR [SR — Assumptions]", "md_verbatim": "2. This domain is intended specifically for tests of the immune response to substances that are intended to provoke such a response (e.g., allergens used in allergy testing). SR is not intended for other injection-site reactions, including reactogenicity events that may follow a vaccine administration.", "score": 0.19, "match_basis": "verbatim_token+domain_route:SR"}], "candidate_count": 10, "zero_candidate": false}
{"pdf_atom_id": "ig34_p0378_a010", "pdf_atom_type": "TABLE_HEADER", "pdf_source": "SDTMIG_v3.4", "pdf_page": 378, "pdf_parent_section": "SR – Examples", "pdf_verbatim": "| Row | STUDYID | DOMAIN | USUBJID | FOCID | SRSEQ | SRTESTCD | SRTEST | SROBJ | SRORRES | SRORRESU | SRSTRESC | SRSTRESN | SRSTRESU | SRLOC | VISITNUM | VISIT |", "figure_ref": null, "candidates": [{"md_atom_id": "md_dmSR_ex_a008", "md_file": "knowledge_base/domains/SR/examples.md", "md_atom_type": "TABLE_HEADER", "md_parent_section": "§SR.1 [Example 1]", "md_verbatim": "| Row | STUDYID | DOMAIN | USUBJID | FOCID | SRSEQ | SRTESTCD | SRTEST | SROBJ | SRORRES | SRORRESU | SRSTRESC | SRSTRESN | SRSTRESU | SRLOC | VISITNUM | VISIT |", "score": 1.0, "match_basis": "verbatim_token+domain_route:SR"}, {"md_atom_id": "md_dmSR_ex_a022", "md_file": "knowledge_base/domains/SR/examples.md", "md_atom_type": "TABLE_HEADER", "md_parent_section": "§SR.2 [Example 2]", "md_verbatim": "| Row | STUDYID | DOMAIN | USUBJID | SRSEQ | SRSPID | SRTESTCD | SRTEST | SROBJ | SRORRES | SRORRESU | SRSTRESC | SRSTRESN | SRSTRESU | SRLOC | VISITNUM | VISIT |", "score": 0.9308, "match_basis": "verbatim_token+domain_route:SR"}, {"md_atom_id": "md_dmSR_ex_a070", "md_file": "knowledge_base/domains/SR/examples.md", "md_atom_type": "TABLE_HEADER", "md_parent_section": "§SR.3 [Example 3]", "md_verbatim": "| Row | STUDYID | DOMAIN | USUBJID | SRSEQ | SRGRPID | SRTESTCD | SRTEST | SROBJ | SRORRES | SRORRESU | SRSTRESC | SRSTRESN | SRSTRESU | SRLOC | SRLAT | SRMETHOD | VISITNUM | VISIT | EPOCH | SRDTC | SRTPT | SRELTM | SRTPTREF | SRRFTDTC |", "score": 0.7407, "match_basis": "verbatim_token+domain_route:SR"}, {"md_atom_id": "md_dmSR_ex_a076", "md_file": "knowledge_base/domains/SR/examples.md", "md_atom_type": "TABLE_HEADER", "md_parent_section": "§SR.3 [Example 3]", "md_verbatim": "| Row | STUDYID | DOMAIN | USUBJID | AGSEQ | AGTRT | AGDOSE | AGDOSU | AGVAMT | AGVAMTU | VISITNUM | VISIT | EPOCH | AGSTDTC |", "score": 0.5859, "match_basis": "verbatim_token+domain_route:SR"}, {"md_atom_id": "md_dmSR_ex_a045", "md_file": "knowledge_base/domains/SR/examples.md", "md_atom_type": "TABLE_HEADER", "md_parent_section": "§SR.2 [Example 2]", "md_verbatim": "| Row | STUDYID | RDOMAIN | USUBJID | IDVAR | IDVARVAL | RELTYPE | RELID |", "score": 0.5429, "match_basis": "verbatim_token+domain_route:SR"}], "candidate_count": 5, "zero_candidate": false}
{"pdf_atom_id": "ig34_p0378_a011", "pdf_atom_type": "TABLE_ROW", "pdf_source": "SDTMIG_v3.4", "pdf_page": 378, "pdf_parent_section": "SR – Examples", "pdf_verbatim": "| 1 | SPI-001 | SR | SPI-001-11035 | SITE1 | 1 | FLRMDIAM | Flare Mean Diameter | Histamine Control 10 mg/mL | 5 | mm | 5 | 5 | mm | BACK | 1 | VISIT 1 |", "figure_ref": null, "candidates": [{"md_atom_id": "md_dmSR_ex_a009", "md_file": "knowledge_base/domains/SR/examples.md", "md_atom_type": "TABLE_ROW", "md_parent_section": "§SR.1 [Example 1]", "md_verbatim": "| 1 | SPI-001 | SR | SPI-001-11035 | SITE1 | 1 | FLRMDIAM | Flare Mean Diameter | Histamine Control 10 mg/mL | 5 | mm | 5 | 5 | mm | BACK | 1 | VISIT 1 |", "score": 1.0, "match_basis": "verbatim_token+domain_route:SR"}, {"md_atom_id": "md_dmSR_ex_a010", "md_file": "knowledge_base/domains/SR/examples.md", "md_atom_type": "TABLE_ROW", "md_parent_section": "§SR.1 [Example 1]", "md_verbatim": "| 2 | SPI-001 | SR | SPI-001-11035 | SITE2 | 2 | FLRMDIAM | Flare Mean Diameter | Histamine Control 10 mg/mL | 4 | mm | 4 | 4 | mm | BACK | 1 | VISIT 1 |", "score": 0.97, "match_basis": "verbatim_token+domain_route:SR"}, {"md_atom_id": "md_dmSR_ex_a011", "md_file": "knowledge_base/domains/SR/examples.md", "md_atom_type": "TABLE_ROW", "md_parent_section": "§SR.1 [Example 1]", "md_verbatim": "| 3 | SPI-001 | SR | SPI-001-11035 | SITE3 | 3 | FLRMDIAM | Flare Mean Diameter | Histamine Control 10 mg/mL | 5 | mm | 5 | 5 | mm | BACK | 1 | VISIT 1 |", "score": 0.97, "match_basis": "verbatim_token+domain_route:SR"}, {"md_atom_id": "md_dmSR_ex_a012", "md_file": "knowledge_base/domains/SR/examples.md", "md_atom_type": "TABLE_ROW", "md_parent_section": "§SR.1 [Example 1]", "md_verbatim": "| 4 | SPI-001 | SR | SPI-001-11035 | SITE4 | 4 | FLRMDIAM | Flare Mean Diameter | Histamine Control 10 mg/mL | 5 | mm | 5 | 5 | mm | BACK | 1 | VISIT 1 |", "score": 0.97, "match_basis": "verbatim_token+domain_route:SR"}, {"md_atom_id": "md_dmSR_ex_a013", "md_file": "knowledge_base/domains/SR/examples.md", "md_atom_type": "TABLE_ROW", "md_parent_section": "§SR.1 [Example 1]", "md_verbatim": "| 5 | SPI-001 | SR | SPI-001-11035 | SITE5 | 5 | FLRMDIAM | Flare Mean Diameter | Johnson Grass 0.05 BAU/mL | 10 | mm | 10 | 10 | mm | BACK | 1 | VISIT 1 |", "score": 0.7184, "match_basis": "verbatim_token+domain_route:SR"}], "candidate_count": 5, "zero_candidate": false}
{"pdf_atom_id": "ig34_p0378_a012", "pdf_atom_type": "TABLE_ROW", "pdf_source": "SDTMIG_v3.4", "pdf_page": 378, "pdf_parent_section": "SR – Examples", "pdf_verbatim": "| 2 | SPI-001 | SR | SPI-001-11035 | SITE2 | 2 | FLRMDIAM | Flare Mean Diameter | Histamine Control 10 mg/mL | 4 | mm | 4 | 4 | mm | BACK | 1 | VISIT 1 |", "figure_ref": null, "candidates": [{"md_atom_id": "md_dmSR_ex_a010", "md_file": "knowledge_base/domains/SR/examples.md", "md_atom_type": "TABLE_ROW", "md_parent_section": "§SR.1 [Example 1]", "md_verbatim": "| 2 | SPI-001 | SR | SPI-001-11035 | SITE2 | 2 | FLRMDIAM | Flare Mean Diameter | Histamine Control 10 mg/mL | 4 | mm | 4 | 4 | mm | BACK | 1 | VISIT 1 |", "score": 1.0, "match_basis": "verbatim_token+domain_route:SR"}, {"md_atom_id": "md_dmSR_ex_a009", "md_file": "knowledge_base/domains/SR/examples.md", "md_atom_type": "TABLE_ROW", "md_parent_section": "§SR.1 [Example 1]", "md_verbatim": "| 1 | SPI-001 | SR | SPI-001-11035 | SITE1 | 1 | FLRMDIAM | Flare Mean Diameter | Histamine Control 10 mg/mL | 5 | mm | 5 | 5 | mm | BACK | 1 | VISIT 1 |", "score": 0.97, "match_basis": "verbatim_token+domain_route:SR"}, {"md_atom_id": "md_dmSR_ex_a011", "md_file": "knowledge_base/domains/SR/examples.md", "md_atom_type": "TABLE_ROW", "md_parent_section": "§SR.1 [Example 1]", "md_verbatim": "| 3 | SPI-001 | SR | SPI-001-11035 | SITE3 | 3 | FLRMDIAM | Flare Mean Diameter | Histamine Control 10 mg/mL | 5 | mm | 5 | 5 | mm | BACK | 1 | VISIT 1 |", "score": 0.97, "match_basis": "verbatim_token+domain_route:SR"}, {"md_atom_id": "md_dmSR_ex_a012", "md_file": "knowledge_base/domains/SR/examples.md", "md_atom_type": "TABLE_ROW", "md_parent_section": "§SR.1 [Example 1]", "md_verbatim": "| 4 | SPI-001 | SR | SPI-001-11035 | SITE4 | 4 | FLRMDIAM | Flare Mean Diameter | Histamine Control 10 mg/mL | 5 | mm | 5 | 5 | mm | BACK | 1 | VISIT 1 |", "score": 0.97, "match_basis": "verbatim_token+domain_route:SR"}, {"md_atom_id": "md_dmSR_ex_a013", "md_file": "knowledge_base/domains/SR/examples.md", "md_atom_type": "TABLE_ROW", "md_parent_section": "§SR.1 [Example 1]", "md_verbatim": "| 5 | SPI-001 | SR | SPI-001-11035 | SITE5 | 5 | FLRMDIAM | Flare Mean Diameter | Johnson Grass 0.05 BAU/mL | 10 | mm | 10 | 10 | mm | BACK | 1 | VISIT 1 |", "score": 0.7184, "match_basis": "verbatim_token+domain_route:SR"}], "candidate_count": 5, "zero_candidate": false}
{"pdf_atom_id": "ig34_p0378_a013", "pdf_atom_type": "TABLE_ROW", "pdf_source": "SDTMIG_v3.4", "pdf_page": 378, "pdf_parent_section": "SR – Examples", "pdf_verbatim": "| 3 | SPI-001 | SR | SPI-001-11035 | SITE3 | 3 | FLRMDIAM | Flare Mean Diameter | Histamine Control 10 mg/mL | 5 | mm | 5 | 5 | mm | BACK | 1 | VISIT 1 |", "figure_ref": null, "candidates": [{"md_atom_id": "md_dmSR_ex_a011", "md_file": "knowledge_base/domains/SR/examples.md", "md_atom_type": "TABLE_ROW", "md_parent_section": "§SR.1 [Example 1]", "md_verbatim": "| 3 | SPI-001 | SR | SPI-001-11035 | SITE3 | 3 | FLRMDIAM | Flare Mean Diameter | Histamine Control 10 mg/mL | 5 | mm | 5 | 5 | mm | BACK | 1 | VISIT 1 |", "score": 1.0, "match_basis": "verbatim_token+domain_route:SR"}, {"md_atom_id": "md_dmSR_ex_a009", "md_file": "knowledge_base/domains/SR/examples.md", "md_atom_type": "TABLE_ROW", "md_parent_section": "§SR.1 [Example 1]", "md_verbatim": "| 1 | SPI-001 | SR | SPI-001-11035 | SITE1 | 1 | FLRMDIAM | Flare Mean Diameter | Histamine Control 10 mg/mL | 5 | mm | 5 | 5 | mm | BACK | 1 | VISIT 1 |", "score": 0.97, "match_basis": "verbatim_token+domain_route:SR"}, {"md_atom_id": "md_dmSR_ex_a010", "md_file": "knowledge_base/domains/SR/examples.md", "md_atom_type": "TABLE_ROW", "md_parent_section": "§SR.1 [Example 1]", "md_verbatim": "| 2 | SPI-001 | SR | SPI-001-11035 | SITE2 | 2 | FLRMDIAM | Flare Mean Diameter | Histamine Control 10 mg/mL | 4 | mm | 4 | 4 | mm | BACK | 1 | VISIT 1 |", "score": 0.97, "match_basis": "verbatim_token+domain_route:SR"}, {"md_atom_id": "md_dmSR_ex_a012", "md_file": "knowledge_base/domains/SR/examples.md", "md_atom_type": "TABLE_ROW", "md_parent_section": "§SR.1 [Example 1]", "md_verbatim": "| 4 | SPI-001 | SR | SPI-001-11035 | SITE4 | 4 | FLRMDIAM | Flare Mean Diameter | Histamine Control 10 mg/mL | 5 | mm | 5 | 5 | mm | BACK | 1 | VISIT 1 |", "score": 0.97, "match_basis": "verbatim_token+domain_route:SR"}, {"md_atom_id": "md_dmSR_ex_a013", "md_file": "knowledge_base/domains/SR/examples.md", "md_atom_type": "TABLE_ROW", "md_parent_section": "§SR.1 [Example 1]", "md_verbatim": "| 5 | SPI-001 | SR | SPI-001-11035 | SITE5 | 5 | FLRMDIAM | Flare Mean Diameter | Johnson Grass 0.05 BAU/mL | 10 | mm | 10 | 10 | mm | BACK | 1 | VISIT 1 |", "score": 0.7184, "match_basis": "verbatim_token+domain_route:SR"}], "candidate_count": 5, "zero_candidate": false}
{"pdf_atom_id": "ig34_p0378_a014", "pdf_atom_type": "TABLE_ROW", "pdf_source": "SDTMIG_v3.4", "pdf_page": 378, "pdf_parent_section": "SR – Examples", "pdf_verbatim": "| 4 | SPI-001 | SR | SPI-001-11035 | SITE4 | 4 | FLRMDIAM | Flare Mean Diameter | Histamine Control 10 mg/mL | 5 | mm | 5 | 5 | mm | BACK | 1 | VISIT 1 |", "figure_ref": null, "candidates": [{"md_atom_id": "md_dmSR_ex_a012", "md_file": "knowledge_base/domains/SR/examples.md", "md_atom_type": "TABLE_ROW", "md_parent_section": "§SR.1 [Example 1]", "md_verbatim": "| 4 | SPI-001 | SR | SPI-001-11035 | SITE4 | 4 | FLRMDIAM | Flare Mean Diameter | Histamine Control 10 mg/mL | 5 | mm | 5 | 5 | mm | BACK | 1 | VISIT 1 |", "score": 1.0, "match_basis": "verbatim_token+domain_route:SR"}, {"md_atom_id": "md_dmSR_ex_a009", "md_file": "knowledge_base/domains/SR/examples.md", "md_atom_type": "TABLE_ROW", "md_parent_section": "§SR.1 [Example 1]", "md_verbatim": "| 1 | SPI-001 | SR | SPI-001-11035 | SITE1 | 1 | FLRMDIAM | Flare Mean Diameter | Histamine Control 10 mg/mL | 5 | mm | 5 | 5 | mm | BACK | 1 | VISIT 1 |", "score": 0.97, "match_basis": "verbatim_token+domain_route:SR"}, {"md_atom_id": "md_dmSR_ex_a010", "md_file": "knowledge_base/domains/SR/examples.md", "md_atom_type": "TABLE_ROW", "md_parent_section": "§SR.1 [Example 1]", "md_verbatim": "| 2 | SPI-001 | SR | SPI-001-11035 | SITE2 | 2 | FLRMDIAM | Flare Mean Diameter | Histamine Control 10 mg/mL | 4 | mm | 4 | 4 | mm | BACK | 1 | VISIT 1 |", "score": 0.97, "match_basis": "verbatim_token+domain_route:SR"}, {"md_atom_id": "md_dmSR_ex_a011", "md_file": "knowledge_base/domains/SR/examples.md", "md_atom_type": "TABLE_ROW", "md_parent_section": "§SR.1 [Example 1]", "md_verbatim": "| 3 | SPI-001 | SR | SPI-001-11035 | SITE3 | 3 | FLRMDIAM | Flare Mean Diameter | Histamine Control 10 mg/mL | 5 | mm | 5 | 5 | mm | BACK | 1 | VISIT 1 |", "score": 0.97, "match_basis": "verbatim_token+domain_route:SR"}, {"md_atom_id": "md_dmSR_ex_a013", "md_file": "knowledge_base/domains/SR/examples.md", "md_atom_type": "TABLE_ROW", "md_parent_section": "§SR.1 [Example 1]", "md_verbatim": "| 5 | SPI-001 | SR | SPI-001-11035 | SITE5 | 5 | FLRMDIAM | Flare Mean Diameter | Johnson Grass 0.05 BAU/mL | 10 | mm | 10 | 10 | mm | BACK | 1 | VISIT 1 |", "score": 0.7184, "match_basis": "verbatim_token+domain_route:SR"}], "candidate_count": 5, "zero_candidate": false}
{"pdf_atom_id": "ig34_p0378_a015", "pdf_atom_type": "TABLE_ROW", "pdf_source": "SDTMIG_v3.4", "pdf_page": 378, "pdf_parent_section": "SR – Examples", "pdf_verbatim": "| 5 | SPI-001 | SR | SPI-001-11035 | SITE5 | 5 | FLRMDIAM | Flare Mean Diameter | Johnson Grass 0.05 BAU/mL | 10 | mm | 10 | 10 | mm | BACK | 1 | VISIT 1 |", "figure_ref": null, "candidates": [{"md_atom_id": "md_dmSR_ex_a013", "md_file": "knowledge_base/domains/SR/examples.md", "md_atom_type": "TABLE_ROW", "md_parent_section": "§SR.1 [Example 1]", "md_verbatim": "| 5 | SPI-001 | SR | SPI-001-11035 | SITE5 | 5 | FLRMDIAM | Flare Mean Diameter | Johnson Grass 0.05 BAU/mL | 10 | mm | 10 | 10 | mm | BACK | 1 | VISIT 1 |", "score": 1.0, "match_basis": "verbatim_token+domain_route:SR"}, {"md_atom_id": "md_dmSR_ex_a014", "md_file": "knowledge_base/domains/SR/examples.md", "md_atom_type": "TABLE_ROW", "md_parent_section": "§SR.1 [Example 1]", "md_verbatim": "| 6 | SPI-001 | SR | SPI-001-11035 | SITE6 | 6 | FLRMDIAM | Flare Mean Diameter | Johnson Grass 0.10 BAU/mL | 11 | mm | 11 | 11 | mm | BACK | 1 | VISIT 1 |", "score": 0.9676, "match_basis": "verbatim_token+domain_route:SR"}, {"md_atom_id": "md_dmSR_ex_a015", "md_file": "knowledge_base/domains/SR/examples.md", "md_atom_type": "TABLE_ROW", "md_parent_section": "§SR.1 [Example 1]", "md_verbatim": "| 7 | SPI-001 | SR | SPI-001-11035 | SITE7 | 7 | FLRMDIAM | Flare Mean Diameter | Johnson Grass 0.15 BAU/mL | 20 | mm | 20 | 20 | mm | BACK | 1 | VISIT 1 |", "score": 0.9676, "match_basis": "verbatim_token+domain_route:SR"}, {"md_atom_id": "md_dmSR_ex_a016", "md_file": "knowledge_base/domains/SR/examples.md", "md_atom_type": "TABLE_ROW", "md_parent_section": "§SR.1 [Example 1]", "md_verbatim": "| 8 | SPI-001 | SR | SPI-001-11035 | SITE8 | 8 | FLRMDIAM | Flare Mean Diameter | Johnson Grass 0.20 BAU/mL | 30 | mm | 30 | 30 | mm | BACK | 1 | VISIT 1 |", "score": 0.9676, "match_basis": "verbatim_token+domain_route:SR"}, {"md_atom_id": "md_dmSR_ex_a009", "md_file": "knowledge_base/domains/SR/examples.md", "md_atom_type": "TABLE_ROW", "md_parent_section": "§SR.1 [Example 1]", "md_verbatim": "| 1 | SPI-001 | SR | SPI-001-11035 | SITE1 | 1 | FLRMDIAM | Flare Mean Diameter | Histamine Control 10 mg/mL | 5 | mm | 5 | 5 | mm | BACK | 1 | VISIT 1 |", "score": 0.7184, "match_basis": "verbatim_token+domain_route:SR"}], "candidate_count": 5, "zero_candidate": false}
{"pdf_atom_id": "ig34_p0378_a016", "pdf_atom_type": "TABLE_ROW", "pdf_source": "SDTMIG_v3.4", "pdf_page": 378, "pdf_parent_section": "SR – Examples", "pdf_verbatim": "| 6 | SPI-001 | SR | SPI-001-11035 | SITE6 | 6 | FLRMDIAM | Flare Mean Diameter | Johnson Grass 0.10 BAU/mL | 11 | mm | 11 | 11 | mm | BACK | 1 | VISIT 1 |", "figure_ref": null, "candidates": [{"md_atom_id": "md_dmSR_ex_a014", "md_file": "knowledge_base/domains/SR/examples.md", "md_atom_type": "TABLE_ROW", "md_parent_section": "§SR.1 [Example 1]", "md_verbatim": "| 6 | SPI-001 | SR | SPI-001-11035 | SITE6 | 6 | FLRMDIAM | Flare Mean Diameter | Johnson Grass 0.10 BAU/mL | 11 | mm | 11 | 11 | mm | BACK | 1 | VISIT 1 |", "score": 1.0, "match_basis": "verbatim_token+domain_route:SR"}, {"md_atom_id": "md_dmSR_ex_a013", "md_file": "knowledge_base/domains/SR/examples.md", "md_atom_type": "TABLE_ROW", "md_parent_section": "§SR.1 [Example 1]", "md_verbatim": "| 5 | SPI-001 | SR | SPI-001-11035 | SITE5 | 5 | FLRMDIAM | Flare Mean Diameter | Johnson Grass 0.05 BAU/mL | 10 | mm | 10 | 10 | mm | BACK | 1 | VISIT 1 |", "score": 0.9676, "match_basis": "verbatim_token+domain_route:SR"}, {"md_atom_id": "md_dmSR_ex_a015", "md_file": "knowledge_base/domains/SR/examples.md", "md_atom_type": "TABLE_ROW", "md_parent_section": "§SR.1 [Example 1]", "md_verbatim": "| 7 | SPI-001 | SR | SPI-001-11035 | SITE7 | 7 | FLRMDIAM | Flare Mean Diameter | Johnson Grass 0.15 BAU/mL | 20 | mm | 20 | 20 | mm | BACK | 1 | VISIT 1 |", "score": 0.9676, "match_basis": "verbatim_token+domain_route:SR"}, {"md_atom_id": "md_dmSR_ex_a016", "md_file": "knowledge_base/domains/SR/examples.md", "md_atom_type": "TABLE_ROW", "md_parent_section": "§SR.1 [Example 1]", "md_verbatim": "| 8 | SPI-001 | SR | SPI-001-11035 | SITE8 | 8 | FLRMDIAM | Flare Mean Diameter | Johnson Grass 0.20 BAU/mL | 30 | mm | 30 | 30 | mm | BACK | 1 | VISIT 1 |", "score": 0.9676, "match_basis": "verbatim_token+domain_route:SR"}, {"md_atom_id": "md_dmSR_ex_a009", "md_file": "knowledge_base/domains/SR/examples.md", "md_atom_type": "TABLE_ROW", "md_parent_section": "§SR.1 [Example 1]", "md_verbatim": "| 1 | SPI-001 | SR | SPI-001-11035 | SITE1 | 1 | FLRMDIAM | Flare Mean Diameter | Histamine Control 10 mg/mL | 5 | mm | 5 | 5 | mm | BACK | 1 | VISIT 1 |", "score": 0.7184, "match_basis": "verbatim_token+domain_route:SR"}], "candidate_count": 5, "zero_candidate": false}
{"pdf_atom_id": "ig34_p0378_a017", "pdf_atom_type": "TABLE_ROW", "pdf_source": "SDTMIG_v3.4", "pdf_page": 378, "pdf_parent_section": "SR – Examples", "pdf_verbatim": "| 7 | SPI-001 | SR | SPI-001-11035 | SITE7 | 7 | FLRMDIAM | Flare Mean Diameter | Johnson Grass 0.15 BAU mL | 20 | mm | 20 | 20 | mm | BACK | 1 | VISIT 1 |", "figure_ref": null, "candidates": [{"md_atom_id": "md_dmSR_ex_a015", "md_file": "knowledge_base/domains/SR/examples.md", "md_atom_type": "TABLE_ROW", "md_parent_section": "§SR.1 [Example 1]", "md_verbatim": "| 7 | SPI-001 | SR | SPI-001-11035 | SITE7 | 7 | FLRMDIAM | Flare Mean Diameter | Johnson Grass 0.15 BAU/mL | 20 | mm | 20 | 20 | mm | BACK | 1 | VISIT 1 |", "score": 1.0, "match_basis": "verbatim_token+domain_route:SR"}, {"md_atom_id": "md_dmSR_ex_a013", "md_file": "knowledge_base/domains/SR/examples.md", "md_atom_type": "TABLE_ROW", "md_parent_section": "§SR.1 [Example 1]", "md_verbatim": "| 5 | SPI-001 | SR | SPI-001-11035 | SITE5 | 5 | FLRMDIAM | Flare Mean Diameter | Johnson Grass 0.05 BAU/mL | 10 | mm | 10 | 10 | mm | BACK | 1 | VISIT 1 |", "score": 0.9676, "match_basis": "verbatim_token+domain_route:SR"}, {"md_atom_id": "md_dmSR_ex_a014", "md_file": "knowledge_base/domains/SR/examples.md", "md_atom_type": "TABLE_ROW", "md_parent_section": "§SR.1 [Example 1]", "md_verbatim": "| 6 | SPI-001 | SR | SPI-001-11035 | SITE6 | 6 | FLRMDIAM | Flare Mean Diameter | Johnson Grass 0.10 BAU/mL | 11 | mm | 11 | 11 | mm | BACK | 1 | VISIT 1 |", "score": 0.9676, "match_basis": "verbatim_token+domain_route:SR"}, {"md_atom_id": "md_dmSR_ex_a016", "md_file": "knowledge_base/domains/SR/examples.md", "md_atom_type": "TABLE_ROW", "md_parent_section": "§SR.1 [Example 1]", "md_verbatim": "| 8 | SPI-001 | SR | SPI-001-11035 | SITE8 | 8 | FLRMDIAM | Flare Mean Diameter | Johnson Grass 0.20 BAU/mL | 30 | mm | 30 | 30 | mm | BACK | 1 | VISIT 1 |", "score": 0.9676, "match_basis": "verbatim_token+domain_route:SR"}, {"md_atom_id": "md_dmSR_ex_a009", "md_file": "knowledge_base/domains/SR/examples.md", "md_atom_type": "TABLE_ROW", "md_parent_section": "§SR.1 [Example 1]", "md_verbatim": "| 1 | SPI-001 | SR | SPI-001-11035 | SITE1 | 1 | FLRMDIAM | Flare Mean Diameter | Histamine Control 10 mg/mL | 5 | mm | 5 | 5 | mm | BACK | 1 | VISIT 1 |", "score": 0.7184, "match_basis": "verbatim_token+domain_route:SR"}], "candidate_count": 5, "zero_candidate": false}
{"pdf_atom_id": "ig34_p0378_a018", "pdf_atom_type": "TABLE_ROW", "pdf_source": "SDTMIG_v3.4", "pdf_page": 378, "pdf_parent_section": "SR – Examples", "pdf_verbatim": "| 8 | SPI-001 | SR | SPI-001-11035 | SITE8 | 8 | FLRMDIAM | Flare Mean Diameter | Johnson Grass 0.20 BAU/mL | 30 | mm | 30 | 30 | mm | BACK | 1 | VISIT 1 |", "figure_ref": null, "candidates": [{"md_atom_id": "md_dmSR_ex_a016", "md_file": "knowledge_base/domains/SR/examples.md", "md_atom_type": "TABLE_ROW", "md_parent_section": "§SR.1 [Example 1]", "md_verbatim": "| 8 | SPI-001 | SR | SPI-001-11035 | SITE8 | 8 | FLRMDIAM | Flare Mean Diameter | Johnson Grass 0.20 BAU/mL | 30 | mm | 30 | 30 | mm | BACK | 1 | VISIT 1 |", "score": 1.0, "match_basis": "verbatim_token+domain_route:SR"}, {"md_atom_id": "md_dmSR_ex_a013", "md_file": "knowledge_base/domains/SR/examples.md", "md_atom_type": "TABLE_ROW", "md_parent_section": "§SR.1 [Example 1]", "md_verbatim": "| 5 | SPI-001 | SR | SPI-001-11035 | SITE5 | 5 | FLRMDIAM | Flare Mean Diameter | Johnson Grass 0.05 BAU/mL | 10 | mm | 10 | 10 | mm | BACK | 1 | VISIT 1 |", "score": 0.9676, "match_basis": "verbatim_token+domain_route:SR"}, {"md_atom_id": "md_dmSR_ex_a014", "md_file": "knowledge_base/domains/SR/examples.md", "md_atom_type": "TABLE_ROW", "md_parent_section": "§SR.1 [Example 1]", "md_verbatim": "| 6 | SPI-001 | SR | SPI-001-11035 | SITE6 | 6 | FLRMDIAM | Flare Mean Diameter | Johnson Grass 0.10 BAU/mL | 11 | mm | 11 | 11 | mm | BACK | 1 | VISIT 1 |", "score": 0.9676, "match_basis": "verbatim_token+domain_route:SR"}, {"md_atom_id": "md_dmSR_ex_a015", "md_file": "knowledge_base/domains/SR/examples.md", "md_atom_type": "TABLE_ROW", "md_parent_section": "§SR.1 [Example 1]", "md_verbatim": "| 7 | SPI-001 | SR | SPI-001-11035 | SITE7 | 7 | FLRMDIAM | Flare Mean Diameter | Johnson Grass 0.15 BAU/mL | 20 | mm | 20 | 20 | mm | BACK | 1 | VISIT 1 |", "score": 0.9676, "match_basis": "verbatim_token+domain_route:SR"}, {"md_atom_id": "md_dmSR_ex_a009", "md_file": "knowledge_base/domains/SR/examples.md", "md_atom_type": "TABLE_ROW", "md_parent_section": "§SR.1 [Example 1]", "md_verbatim": "| 1 | SPI-001 | SR | SPI-001-11035 | SITE1 | 1 | FLRMDIAM | Flare Mean Diameter | Histamine Control 10 mg/mL | 5 | mm | 5 | 5 | mm | BACK | 1 | VISIT 1 |", "score": 0.7184, "match_basis": "verbatim_token+domain_route:SR"}], "candidate_count": 5, "zero_candidate": false}
{"pdf_atom_id": "ig34_p0378_a019", "pdf_atom_type": "HEADING", "pdf_source": "SDTMIG_v3.4", "pdf_page": 378, "pdf_parent_section": "SR – Examples", "pdf_verbatim": "Example 2", "figure_ref": null, "candidates": [{"md_atom_id": "md_dmSR_ex_a002", "md_file": "knowledge_base/domains/SR/examples.md", "md_atom_type": "HEADING", "md_parent_section": "§SR [SR — Examples]", "md_verbatim": "## Example 1", "score": 1.0, "match_basis": "verbatim_token+domain_route:SR"}, {"md_atom_id": "md_dmSR_ex_a017", "md_file": "knowledge_base/domains/SR/examples.md", "md_atom_type": "HEADING", "md_parent_section": "§SR [SR — Examples]", "md_verbatim": "## Example 2", "score": 1.0, "match_basis": "verbatim_token+domain_route:SR"}, {"md_atom_id": "md_dmSR_ex_a064", "md_file": "knowledge_base/domains/SR/examples.md", "md_atom_type": "HEADING", "md_parent_section": "§SR [SR — Examples]", "md_verbatim": "## Example 3", "score": 1.0, "match_basis": "verbatim_token+domain_route:SR"}, {"md_atom_id": "md_dmSR_ex_a001", "md_file": "knowledge_base/domains/SR/examples.md", "md_atom_type": "HEADING", "md_parent_section": "§SR [SR — Examples]", "md_verbatim": "# SR — Examples", "score": 0.9, "match_basis": "verbatim_token+domain_route:SR"}, {"md_atom_id": "md_dmSR_assn_a001", "md_file": "knowledge_base/domains/SR/assumptions.md", "md_atom_type": "HEADING", "md_parent_section": "§SR [SR — Assumptions]", "md_verbatim": "# SR — Assumptions", "score": 0.4, "match_basis": "verbatim_token+domain_route:SR"}], "candidate_count": 5, "zero_candidate": false}
{"pdf_atom_id": "ig34_p0378_a020", "pdf_atom_type": "SENTENCE", "pdf_source": "SDTMIG_v3.4", "pdf_page": 378, "pdf_parent_section": "SR – Examples", "pdf_verbatim": "In this example, the study product dose, Dog Epi IgG, was administered at increasing concentrations. The size of the wheal is being measured (reaction to Dog Epi IgG ) to evaluate the efficacy of the Dog Epi IgG extract versus a negative control (NC) and a positive control (PC) in the testing of allergenic extracts. While SROBJ is populated with information about the substance administered, full details regarding the study product would be submitted in the Exposure (EX) dataset. The relationship between SR records and EX records would be represented using RELREC.", "figure_ref": null, "candidates": [{"md_atom_id": "md_dmSR_ex_a018", "md_file": "knowledge_base/domains/SR/examples.md", "md_atom_type": "SENTENCE", "md_parent_section": "§SR.2 [Example 2]", "md_verbatim": "In this example, the study product dose, Dog Epi IgG, was administered at increasing concentrations. The size of the wheal is being measured (reaction to Dog Epi IgG) to evaluate the efficacy of the Dog Epi IgG extract versus a negative control (NC) and a positive control (PC) in the testing of allergenic extracts. While SROBJ is populated with information about the substance administered, full details regarding the study product would be submitted in the Exposure (EX) dataset. The relationship between SR records and EX records would be represented using RELREC.", "score": 1.0, "match_basis": "verbatim_token+domain_route:SR"}, {"md_atom_id": "md_dmSR_ex_a065", "md_file": "knowledge_base/domains/SR/examples.md", "md_atom_type": "SENTENCE", "md_parent_section": "§SR.3 [Example 3]", "md_verbatim": "This example shows the results from a tuberculin purified protein derivative (PPD) skin test administered using the Mantoux technique. The subject was given an intradermal injection of standard PPD (i.e., PPD-S) in the left forearm at visit 1; see the Procedure Agents (AG) record below. At visit 2, the induration diameter and presence of blistering were recorded. Because the tuberculin PPD skin test cannot be interpreted using the induration diameter and blistering alone (e.g., risk for being infected with TB must also be considered), the interpretation of the skin test resides in its own row. Time point variables show that the planned time for reading the test was 48 hours after Mantoux administration. However, a comparison of datetime values in SRDTC and SRRFTDTC shows that in this case the test was read at 53 hours and 56 minutes after Mantoux administration.", "score": 0.5168, "match_basis": "verbatim_token+domain_route:SR"}, {"md_atom_id": "md_dmSR_ex_a043", "md_file": "knowledge_base/domains/SR/examples.md", "md_atom_type": "SENTENCE", "md_parent_section": "§SR.2 [Example 2]", "md_verbatim": "The relationships between SR and EX records are represented at the record level in RELREC.", "score": 0.5, "match_basis": "verbatim_token+domain_route:SR"}, {"md_atom_id": "md_dmSR_ex_a003", "md_file": "knowledge_base/domains/SR/examples.md", "md_atom_type": "SENTENCE", "md_parent_section": "§SR.1 [Example 1]", "md_verbatim": "In this example, the subject is dosed with increasing concentrations of Johnson grass IgE.", "score": 0.4957, "match_basis": "verbatim_token+domain_route:SR"}, {"md_atom_id": "md_dmSR_ex_a005", "md_file": "knowledge_base/domains/SR/examples.md", "md_atom_type": "SENTENCE", "md_parent_section": "§SR.1 [Example 1]", "md_verbatim": "**Rows 5-8:** Show responses associated with the administration of Johnson grass IgE. These records describe the dose response to different concentrations of Johnson grass IgE antigen, as reflected in SROBJ.", "score": 0.4933, "match_basis": "verbatim_token+domain_route:SR"}], "candidate_count": 5, "zero_candidate": false}
{"pdf_atom_id": "ig34_p0378_a021", "pdf_atom_type": "LIST_ITEM", "pdf_source": "SDTMIG_v3.4", "pdf_page": 378, "pdf_parent_section": "SR – Examples", "pdf_verbatim": "Rows 1-6: Show the response (description and reaction grade) to the study product at a series of different dose levels, the latter reflected in SROBJ. The descriptions of SRORRES values are correlated to a grade, and the grade values are stored in SRSTRESC.", "figure_ref": null, "candidates": [{"md_atom_id": "md_dmSR_ex_a019", "md_file": "knowledge_base/domains/SR/examples.md", "md_atom_type": "SENTENCE", "md_parent_section": "§SR.2 [Example 2]", "md_verbatim": "**Rows 1-6:** Show the response (description and reaction grade) to the study product at a series of different dose levels, the latter reflected in SROBJ. The descriptions of SRORRES values are correlated to a grade, and the grade values are stored in SRSTRESC.", "score": 0.91, "match_basis": "verbatim_token+domain_route:SR"}, {"md_atom_id": "md_dmSR_ex_a020", "md_file": "knowledge_base/domains/SR/examples.md", "md_atom_type": "SENTENCE", "md_parent_section": "§SR.2 [Example 2]", "md_verbatim": "**Rows 7-12:** Show the results of wheal diameter measurements in response to the study product at a series of different dose levels.", "score": 0.5156, "match_basis": "verbatim_token+domain_route:SR"}, {"md_atom_id": "md_dmSR_ex_a005", "md_file": "knowledge_base/domains/SR/examples.md", "md_atom_type": "SENTENCE", "md_parent_section": "§SR.1 [Example 1]", "md_verbatim": "**Rows 5-8:** Show responses associated with the administration of Johnson grass IgE. These records describe the dose response to different concentrations of Johnson grass IgE antigen, as reflected in SROBJ.", "score": 0.496, "match_basis": "verbatim_token+domain_route:SR"}, {"md_atom_id": "md_dmSR_assn_a004", "md_file": "knowledge_base/domains/SR/assumptions.md", "md_atom_type": "LIST_ITEM", "md_parent_section": "§SR [SR — Assumptions]", "md_verbatim": "3. Because a subject is typically exposed to many test materials at the same time, SROBJ is needed to represent the test material for each response record. The method of assessment could be a skin-prick test, a skin-scratch test, or other method of introducing the challenge substance into the skin.", "score": 0.4746, "match_basis": "verbatim_token+domain_route:SR"}, {"md_atom_id": "md_dmSR_assn_a003", "md_file": "knowledge_base/domains/SR/assumptions.md", "md_atom_type": "LIST_ITEM", "md_parent_section": "§SR [SR — Assumptions]", "md_verbatim": "2. This domain is intended specifically for tests of the immune response to substances that are intended to provoke such a response (e.g., allergens used in allergy testing). SR is not intended for other injection-site reactions, including reactogenicity events that may follow a vaccine administration.", "score": 0.4606, "match_basis": "verbatim_token+domain_route:SR"}], "candidate_count": 5, "zero_candidate": false}
{"pdf_atom_id": "ig34_p0379_a001", "pdf_atom_type": "LIST_ITEM", "pdf_source": "SDTMIG_v3.4", "pdf_page": 379, "pdf_parent_section": "SR – Examples", "pdf_verbatim": "Rows 7-12: Show the results of wheal diameter measurements in response to the study product at a series of different dose levels.", "figure_ref": null, "candidates": [{"md_atom_id": "md_dmSR_ex_a020", "md_file": "knowledge_base/domains/SR/examples.md", "md_atom_type": "SENTENCE", "md_parent_section": "§SR.2 [Example 2]", "md_verbatim": "**Rows 7-12:** Show the results of wheal diameter measurements in response to the study product at a series of different dose levels.", "score": 0.91, "match_basis": "verbatim_token+domain_route:SR"}, {"md_atom_id": "md_dmSR_ex_a019", "md_file": "knowledge_base/domains/SR/examples.md", "md_atom_type": "SENTENCE", "md_parent_section": "§SR.2 [Example 2]", "md_verbatim": "**Rows 1-6:** Show the response (description and reaction grade) to the study product at a series of different dose levels, the latter reflected in SROBJ. The descriptions of SRORRES values are correlated to a grade, and the grade values are stored in SRSTRESC.", "score": 0.5156, "match_basis": "verbatim_token+domain_route:SR"}, {"md_atom_id": "md_dmSR_assn_a004", "md_file": "knowledge_base/domains/SR/assumptions.md", "md_atom_type": "LIST_ITEM", "md_parent_section": "§SR [SR — Assumptions]", "md_verbatim": "3. Because a subject is typically exposed to many test materials at the same time, SROBJ is needed to represent the test material for each response record. The method of assessment could be a skin-prick test, a skin-scratch test, or other method of introducing the challenge substance into the skin.", "score": 0.4667, "match_basis": "verbatim_token+domain_route:SR"}, {"md_atom_id": "md_dmSR_assn_a002", "md_file": "knowledge_base/domains/SR/assumptions.md", "md_atom_type": "LIST_ITEM", "md_parent_section": "§SR [SR — Assumptions]", "md_verbatim": "1. The Skin Response (SR) domain is used to represent findings about an intervention, but it has its own domain code, SR, rather than the domain code FA.", "score": 0.4545, "match_basis": "verbatim_token+domain_route:SR"}, {"md_atom_id": "md_dmSR_assn_a003", "md_file": "knowledge_base/domains/SR/assumptions.md", "md_atom_type": "LIST_ITEM", "md_parent_section": "§SR [SR — Assumptions]", "md_verbatim": "2. This domain is intended specifically for tests of the immune response to substances that are intended to provoke such a response (e.g., allergens used in allergy testing). SR is not intended for other injection-site reactions, including reactogenicity events that may follow a vaccine administration.", "score": 0.4395, "match_basis": "verbatim_token+domain_route:SR"}], "candidate_count": 5, "zero_candidate": false}
{"pdf_atom_id": "ig34_p0379_a002", "pdf_atom_type": "CODE_LITERAL", "pdf_source": "SDTMIG_v3.4", "pdf_page": 379, "pdf_parent_section": "SR – Examples", "pdf_verbatim": "sr.xpt", "figure_ref": null, "candidates": [{"md_atom_id": "md_dmSR_ex_a007", "md_file": "knowledge_base/domains/SR/examples.md", "md_atom_type": "SENTENCE", "md_parent_section": "§SR.1 [Example 1]", "md_verbatim": "**sr.xpt**", "score": 0.79, "match_basis": "verbatim_token+domain_route:SR"}, {"md_atom_id": "md_dmSR_ex_a021", "md_file": "knowledge_base/domains/SR/examples.md", "md_atom_type": "SENTENCE", "md_parent_section": "§SR.2 [Example 2]", "md_verbatim": "**sr.xpt**", "score": 0.79, "match_basis": "verbatim_token+domain_route:SR"}, {"md_atom_id": "md_dmSR_ex_a035", "md_file": "knowledge_base/domains/SR/examples.md", "md_atom_type": "SENTENCE", "md_parent_section": "§SR.2 [Example 2]", "md_verbatim": "**ex.xpt**", "score": 0.79, "match_basis": "verbatim_token+domain_route:SR"}, {"md_atom_id": "md_dmSR_ex_a069", "md_file": "knowledge_base/domains/SR/examples.md", "md_atom_type": "SENTENCE", "md_parent_section": "§SR.3 [Example 3]", "md_verbatim": "**sr.xpt**", "score": 0.79, "match_basis": "verbatim_token+domain_route:SR"}, {"md_atom_id": "md_dmSR_ex_a075", "md_file": "knowledge_base/domains/SR/examples.md", "md_atom_type": "SENTENCE", "md_parent_section": "§SR.3 [Example 3]", "md_verbatim": "**ag.xpt**", "score": 0.79, "match_basis": "verbatim_token+domain_route:SR"}, {"md_atom_id": "md_dmSR_ex_a044", "md_file": "knowledge_base/domains/SR/examples.md", "md_atom_type": "SENTENCE", "md_parent_section": "§SR.2 [Example 2]", "md_verbatim": "**relrec.xpt**", "score": 0.31, "match_basis": "verbatim_token+domain_route:SR"}, {"md_atom_id": "md_dmSR_ex_a079", "md_file": "knowledge_base/domains/SR/examples.md", "md_atom_type": "SENTENCE", "md_parent_section": "§SR.3 [Example 3]", "md_verbatim": "**relrec.xpt**", "score": 0.31, "match_basis": "verbatim_token+domain_route:SR"}, {"md_atom_id": "md_dmSR_assn_a001", "md_file": "knowledge_base/domains/SR/assumptions.md", "md_atom_type": "HEADING", "md_parent_section": "§SR [SR — Assumptions]", "md_verbatim": "# SR — Assumptions", "score": 0.19, "match_basis": "verbatim_token+domain_route:SR"}, {"md_atom_id": "md_dmSR_assn_a002", "md_file": "knowledge_base/domains/SR/assumptions.md", "md_atom_type": "LIST_ITEM", "md_parent_section": "§SR [SR — Assumptions]", "md_verbatim": "1. The Skin Response (SR) domain is used to represent findings about an intervention, but it has its own domain code, SR, rather than the domain code FA.", "score": 0.19, "match_basis": "verbatim_token+domain_route:SR"}, {"md_atom_id": "md_dmSR_assn_a003", "md_file": "knowledge_base/domains/SR/assumptions.md", "md_atom_type": "LIST_ITEM", "md_parent_section": "§SR [SR — Assumptions]", "md_verbatim": "2. This domain is intended specifically for tests of the immune response to substances that are intended to provoke such a response (e.g., allergens used in allergy testing). SR is not intended for other injection-site reactions, including reactogenicity events that may follow a vaccine administration.", "score": 0.19, "match_basis": "verbatim_token+domain_route:SR"}], "candidate_count": 10, "zero_candidate": false}
{"pdf_atom_id": "ig34_p0379_a003", "pdf_atom_type": "TABLE_HEADER", "pdf_source": "SDTMIG_v3.4", "pdf_page": 379, "pdf_parent_section": "SR – Examples", "pdf_verbatim": "| Row | STUDYID | DOMAIN | USUBJID | SRSEQ | SRSPID | SRTESTCD | SRTEST | SROBJ | SRORRES | SRORRESU | SRSTRESC | SRSTRESN | SRSTRESU | SRLOC | VISITNUM | VISIT |", "figure_ref": null, "candidates": [{"md_atom_id": "md_dmSR_ex_a022", "md_file": "knowledge_base/domains/SR/examples.md", "md_atom_type": "TABLE_HEADER", "md_parent_section": "§SR.2 [Example 2]", "md_verbatim": "| Row | STUDYID | DOMAIN | USUBJID | SRSEQ | SRSPID | SRTESTCD | SRTEST | SROBJ | SRORRES | SRORRESU | SRSTRESC | SRSTRESN | SRSTRESU | SRLOC | VISITNUM | VISIT |", "score": 1.0, "match_basis": "verbatim_token+domain_route:SR"}, {"md_atom_id": "md_dmSR_ex_a008", "md_file": "knowledge_base/domains/SR/examples.md", "md_atom_type": "TABLE_HEADER", "md_parent_section": "§SR.1 [Example 1]", "md_verbatim": "| Row | STUDYID | DOMAIN | USUBJID | FOCID | SRSEQ | SRTESTCD | SRTEST | SROBJ | SRORRES | SRORRESU | SRSTRESC | SRSTRESN | SRSTRESU | SRLOC | VISITNUM | VISIT |", "score": 0.9308, "match_basis": "verbatim_token+domain_route:SR"}, {"md_atom_id": "md_dmSR_ex_a070", "md_file": "knowledge_base/domains/SR/examples.md", "md_atom_type": "TABLE_HEADER", "md_parent_section": "§SR.3 [Example 3]", "md_verbatim": "| Row | STUDYID | DOMAIN | USUBJID | SRSEQ | SRGRPID | SRTESTCD | SRTEST | SROBJ | SRORRES | SRORRESU | SRSTRESC | SRSTRESN | SRSTRESU | SRLOC | SRLAT | SRMETHOD | VISITNUM | VISIT | EPOCH | SRDTC | SRTPT | SRELTM | SRTPTREF | SRRFTDTC |", "score": 0.7525, "match_basis": "verbatim_token+domain_route:SR"}, {"md_atom_id": "md_dmSR_ex_a076", "md_file": "knowledge_base/domains/SR/examples.md", "md_atom_type": "TABLE_HEADER", "md_parent_section": "§SR.3 [Example 3]", "md_verbatim": "| Row | STUDYID | DOMAIN | USUBJID | AGSEQ | AGTRT | AGDOSE | AGDOSU | AGVAMT | AGVAMTU | VISITNUM | VISIT | EPOCH | AGSTDTC |", "score": 0.5859, "match_basis": "verbatim_token+domain_route:SR"}, {"md_atom_id": "md_dmSR_ex_a036", "md_file": "knowledge_base/domains/SR/examples.md", "md_atom_type": "TABLE_HEADER", "md_parent_section": "§SR.2 [Example 2]", "md_verbatim": "| Row | STUDYID | DOMAIN | USUBJID | EXSPID | EXTRT | EXDOSE | EXDOSEU | EXROUTE | EXLOC |", "score": 0.5636, "match_basis": "verbatim_token+domain_route:SR"}], "candidate_count": 5, "zero_candidate": false}
{"pdf_atom_id": "ig34_p0379_a004", "pdf_atom_type": "TABLE_ROW", "pdf_source": "SDTMIG_v3.4", "pdf_page": 379, "pdf_parent_section": "SR – Examples", "pdf_verbatim": "| 1 | CC-001 | SR | CC-001-101 | 1 | 1 | REACTGR | Reaction Grade | Dog Epi 0.1 mg | NEGATIVE | | NEGATIVE | | | FOREARM | 1 | WEEK 1 |", "figure_ref": null, "candidates": [{"md_atom_id": "md_dmSR_ex_a023", "md_file": "knowledge_base/domains/SR/examples.md", "md_atom_type": "TABLE_ROW", "md_parent_section": "§SR.2 [Example 2]", "md_verbatim": "| 1 | CC-001 | SR | CC-001-101 | 1 | 1 | REACTGR | Reaction Grade | Dog Epi 0 mg | NEGATIVE | | NEGATIVE | | | FOREARM | 1 | WEEK 1 |", "score": 1.0, "match_basis": "verbatim_token+domain_route:SR"}, {"md_atom_id": "md_dmSR_ex_a024", "md_file": "knowledge_base/domains/SR/examples.md", "md_atom_type": "TABLE_ROW", "md_parent_section": "§SR.2 [Example 2]", "md_verbatim": "| 2 | CC-001 | SR | CC-001-101 | 2 | 2 | REACTGR | Reaction Grade | Dog Epi 0.1 mg | NEGATIVE | | NEGATIVE | | | FOREARM | 1 | WEEK 1 |", "score": 1.0, "match_basis": "verbatim_token+domain_route:SR"}, {"md_atom_id": "md_dmSR_ex_a026", "md_file": "knowledge_base/domains/SR/examples.md", "md_atom_type": "TABLE_ROW", "md_parent_section": "§SR.2 [Example 2]", "md_verbatim": "| 4 | CC-001 | SR | CC-001-101 | 4 | 4 | REACTGR | Reaction Grade | Dog Epi 1 mg | ERYTHEMA, INFILTRATION, PAPULES, VESICLES | | 2+ | | | FOREARM | 1 | WEEK 1 |", "score": 0.664, "match_basis": "verbatim_token+domain_route:SR"}, {"md_atom_id": "md_dmSR_ex_a027", "md_file": "knowledge_base/domains/SR/examples.md", "md_atom_type": "TABLE_ROW", "md_parent_section": "§SR.2 [Example 2]", "md_verbatim": "| 5 | CC-001 | SR | CC-001-101 | 5 | 5 | REACTGR | Reaction Grade | Dog Epi 1.5 mg | ERYTHEMA, INFILTRATION, PAPULES, VESICLES | | 2+ | | | FOREARM | 1 | WEEK 1 |", "score": 0.664, "match_basis": "verbatim_token+domain_route:SR"}, {"md_atom_id": "md_dmSR_ex_a025", "md_file": "knowledge_base/domains/SR/examples.md", "md_atom_type": "TABLE_ROW", "md_parent_section": "§SR.2 [Example 2]", "md_verbatim": "| 3 | CC-001 | SR | CC-001-101 | 3 | 3 | REACTGR | Reaction Grade | Dog Epi 0.5 mg | ERYTHEMA, INFILTRATION, POSSIBLY DISCRETE PAPULES | | 1+ | | | FOREARM | 1 | WEEK 1 |", "score": 0.6316, "match_basis": "verbatim_token+domain_route:SR"}], "candidate_count": 5, "zero_candidate": false}
{"pdf_atom_id": "ig34_p0379_a005", "pdf_atom_type": "TABLE_ROW", "pdf_source": "SDTMIG_v3.4", "pdf_page": 379, "pdf_parent_section": "SR – Examples", "pdf_verbatim": "| 2 | CC-001 | SR | CC-001-101 | 2 | 2 | REACTGR | Reaction Grade | Dog Epi 0.1 mg | NEGATIVE | | NEGATIVE | | | FOREARM | 1 | WEEK 1 |", "figure_ref": null, "candidates": [{"md_atom_id": "md_dmSR_ex_a023", "md_file": "knowledge_base/domains/SR/examples.md", "md_atom_type": "TABLE_ROW", "md_parent_section": "§SR.2 [Example 2]", "md_verbatim": "| 1 | CC-001 | SR | CC-001-101 | 1 | 1 | REACTGR | Reaction Grade | Dog Epi 0 mg | NEGATIVE | | NEGATIVE | | | FOREARM | 1 | WEEK 1 |", "score": 1.0, "match_basis": "verbatim_token+domain_route:SR"}, {"md_atom_id": "md_dmSR_ex_a024", "md_file": "knowledge_base/domains/SR/examples.md", "md_atom_type": "TABLE_ROW", "md_parent_section": "§SR.2 [Example 2]", "md_verbatim": "| 2 | CC-001 | SR | CC-001-101 | 2 | 2 | REACTGR | Reaction Grade | Dog Epi 0.1 mg | NEGATIVE | | NEGATIVE | | | FOREARM | 1 | WEEK 1 |", "score": 1.0, "match_basis": "verbatim_token+domain_route:SR"}, {"md_atom_id": "md_dmSR_ex_a026", "md_file": "knowledge_base/domains/SR/examples.md", "md_atom_type": "TABLE_ROW", "md_parent_section": "§SR.2 [Example 2]", "md_verbatim": "| 4 | CC-001 | SR | CC-001-101 | 4 | 4 | REACTGR | Reaction Grade | Dog Epi 1 mg | ERYTHEMA, INFILTRATION, PAPULES, VESICLES | | 2+ | | | FOREARM | 1 | WEEK 1 |", "score": 0.664, "match_basis": "verbatim_token+domain_route:SR"}, {"md_atom_id": "md_dmSR_ex_a027", "md_file": "knowledge_base/domains/SR/examples.md", "md_atom_type": "TABLE_ROW", "md_parent_section": "§SR.2 [Example 2]", "md_verbatim": "| 5 | CC-001 | SR | CC-001-101 | 5 | 5 | REACTGR | Reaction Grade | Dog Epi 1.5 mg | ERYTHEMA, INFILTRATION, PAPULES, VESICLES | | 2+ | | | FOREARM | 1 | WEEK 1 |", "score": 0.664, "match_basis": "verbatim_token+domain_route:SR"}, {"md_atom_id": "md_dmSR_ex_a025", "md_file": "knowledge_base/domains/SR/examples.md", "md_atom_type": "TABLE_ROW", "md_parent_section": "§SR.2 [Example 2]", "md_verbatim": "| 3 | CC-001 | SR | CC-001-101 | 3 | 3 | REACTGR | Reaction Grade | Dog Epi 0.5 mg | ERYTHEMA, INFILTRATION, POSSIBLY DISCRETE PAPULES | | 1+ | | | FOREARM | 1 | WEEK 1 |", "score": 0.6316, "match_basis": "verbatim_token+domain_route:SR"}], "candidate_count": 5, "zero_candidate": false}
{"pdf_atom_id": "ig34_p0379_a006", "pdf_atom_type": "TABLE_ROW", "pdf_source": "SDTMIG_v3.4", "pdf_page": 379, "pdf_parent_section": "SR – Examples", "pdf_verbatim": "| 3 | CC-001 | SR | CC-001-101 | 3 | 3 | REACTGR | Reaction Grade | Dog Epi 0.5 mg | ERYTHEMA, INFILTRATION, POSSIBLY DISCRETE PAPULES | | 1+ | | | FOREARM | 1 | WEEK 1 |", "figure_ref": null, "candidates": [{"md_atom_id": "md_dmSR_ex_a025", "md_file": "knowledge_base/domains/SR/examples.md", "md_atom_type": "TABLE_ROW", "md_parent_section": "§SR.2 [Example 2]", "md_verbatim": "| 3 | CC-001 | SR | CC-001-101 | 3 | 3 | REACTGR | Reaction Grade | Dog Epi 0.5 mg | ERYTHEMA, INFILTRATION, POSSIBLY DISCRETE PAPULES | | 1+ | | | FOREARM | 1 | WEEK 1 |", "score": 1.0, "match_basis": "verbatim_token+domain_route:SR"}, {"md_atom_id": "md_dmSR_ex_a026", "md_file": "knowledge_base/domains/SR/examples.md", "md_atom_type": "TABLE_ROW", "md_parent_section": "§SR.2 [Example 2]", "md_verbatim": "| 4 | CC-001 | SR | CC-001-101 | 4 | 4 | REACTGR | Reaction Grade | Dog Epi 1 mg | ERYTHEMA, INFILTRATION, PAPULES, VESICLES | | 2+ | | | FOREARM | 1 | WEEK 1 |", "score": 0.8211, "match_basis": "verbatim_token+domain_route:SR"}, {"md_atom_id": "md_dmSR_ex_a027", "md_file": "knowledge_base/domains/SR/examples.md", "md_atom_type": "TABLE_ROW", "md_parent_section": "§SR.2 [Example 2]", "md_verbatim": "| 5 | CC-001 | SR | CC-001-101 | 5 | 5 | REACTGR | Reaction Grade | Dog Epi 1.5 mg | ERYTHEMA, INFILTRATION, PAPULES, VESICLES | | 2+ | | | FOREARM | 1 | WEEK 1 |", "score": 0.8211, "match_basis": "verbatim_token+domain_route:SR"}, {"md_atom_id": "md_dmSR_ex_a028", "md_file": "knowledge_base/domains/SR/examples.md", "md_atom_type": "TABLE_ROW", "md_parent_section": "§SR.2 [Example 2]", "md_verbatim": "| 6 | CC-001 | SR | CC-001-101 | 6 | 6 | REACTGR | Reaction Grade | Dog Epi 2 mg | ERYTHEMA, INFILTRATION, PAPULES, COALESCING VESICLES | | 3+ | | | FOREARM | 1 | WEEK 1 |", "score": 0.775, "match_basis": "verbatim_token+domain_route:SR"}, {"md_atom_id": "md_dmSR_ex_a023", "md_file": "knowledge_base/domains/SR/examples.md", "md_atom_type": "TABLE_ROW", "md_parent_section": "§SR.2 [Example 2]", "md_verbatim": "| 1 | CC-001 | SR | CC-001-101 | 1 | 1 | REACTGR | Reaction Grade | Dog Epi 0 mg | NEGATIVE | | NEGATIVE | | | FOREARM | 1 | WEEK 1 |", "score": 0.6316, "match_basis": "verbatim_token+domain_route:SR"}], "candidate_count": 5, "zero_candidate": false}
{"pdf_atom_id": "ig34_p0379_a007", "pdf_atom_type": "TABLE_ROW", "pdf_source": "SDTMIG_v3.4", "pdf_page": 379, "pdf_parent_section": "SR – Examples", "pdf_verbatim": "| 4 | CC-001 | SR | CC-001-101 | 4 | 4 | REACTGR | Reaction Grade | Dog Epi 1 mg | ERYTHEMA, INFILTRATION, PAPULES, VESICLES | | 2+ | | | FOREARM | 1 | WEEK 1 |", "figure_ref": null, "candidates": [{"md_atom_id": "md_dmSR_ex_a026", "md_file": "knowledge_base/domains/SR/examples.md", "md_atom_type": "TABLE_ROW", "md_parent_section": "§SR.2 [Example 2]", "md_verbatim": "| 4 | CC-001 | SR | CC-001-101 | 4 | 4 | REACTGR | Reaction Grade | Dog Epi 1 mg | ERYTHEMA, INFILTRATION, PAPULES, VESICLES | | 2+ | | | FOREARM | 1 | WEEK 1 |", "score": 1.0, "match_basis": "verbatim_token+domain_route:SR"}, {"md_atom_id": "md_dmSR_ex_a027", "md_file": "knowledge_base/domains/SR/examples.md", "md_atom_type": "TABLE_ROW", "md_parent_section": "§SR.2 [Example 2]", "md_verbatim": "| 5 | CC-001 | SR | CC-001-101 | 5 | 5 | REACTGR | Reaction Grade | Dog Epi 1.5 mg | ERYTHEMA, INFILTRATION, PAPULES, VESICLES | | 2+ | | | FOREARM | 1 | WEEK 1 |", "score": 1.0, "match_basis": "verbatim_token+domain_route:SR"}, {"md_atom_id": "md_dmSR_ex_a028", "md_file": "knowledge_base/domains/SR/examples.md", "md_atom_type": "TABLE_ROW", "md_parent_section": "§SR.2 [Example 2]", "md_verbatim": "| 6 | CC-001 | SR | CC-001-101 | 6 | 6 | REACTGR | Reaction Grade | Dog Epi 2 mg | ERYTHEMA, INFILTRATION, PAPULES, COALESCING VESICLES | | 3+ | | | FOREARM | 1 | WEEK 1 |", "score": 0.9192, "match_basis": "verbatim_token+domain_route:SR"}, {"md_atom_id": "md_dmSR_ex_a025", "md_file": "knowledge_base/domains/SR/examples.md", "md_atom_type": "TABLE_ROW", "md_parent_section": "§SR.2 [Example 2]", "md_verbatim": "| 3 | CC-001 | SR | CC-001-101 | 3 | 3 | REACTGR | Reaction Grade | Dog Epi 0.5 mg | ERYTHEMA, INFILTRATION, POSSIBLY DISCRETE PAPULES | | 1+ | | | FOREARM | 1 | WEEK 1 |", "score": 0.8211, "match_basis": "verbatim_token+domain_route:SR"}, {"md_atom_id": "md_dmSR_ex_a023", "md_file": "knowledge_base/domains/SR/examples.md", "md_atom_type": "TABLE_ROW", "md_parent_section": "§SR.2 [Example 2]", "md_verbatim": "| 1 | CC-001 | SR | CC-001-101 | 1 | 1 | REACTGR | Reaction Grade | Dog Epi 0 mg | NEGATIVE | | NEGATIVE | | | FOREARM | 1 | WEEK 1 |", "score": 0.664, "match_basis": "verbatim_token+domain_route:SR"}], "candidate_count": 5, "zero_candidate": false}
{"pdf_atom_id": "ig34_p0379_a008", "pdf_atom_type": "TABLE_ROW", "pdf_source": "SDTMIG_v3.4", "pdf_page": 379, "pdf_parent_section": "SR – Examples", "pdf_verbatim": "| 5 | CC-001 | SR | CC-001-101 | 5 | 5 | REACTGR | Reaction Grade | Dog Epi 1.5 mg | ERYTHEMA, INFILTRATION, PAPULES, VESICLES | | 2+ | | | FOREARM | 1 | WEEK 1 |", "figure_ref": null, "candidates": [{"md_atom_id": "md_dmSR_ex_a026", "md_file": "knowledge_base/domains/SR/examples.md", "md_atom_type": "TABLE_ROW", "md_parent_section": "§SR.2 [Example 2]", "md_verbatim": "| 4 | CC-001 | SR | CC-001-101 | 4 | 4 | REACTGR | Reaction Grade | Dog Epi 1 mg | ERYTHEMA, INFILTRATION, PAPULES, VESICLES | | 2+ | | | FOREARM | 1 | WEEK 1 |", "score": 1.0, "match_basis": "verbatim_token+domain_route:SR"}, {"md_atom_id": "md_dmSR_ex_a027", "md_file": "knowledge_base/domains/SR/examples.md", "md_atom_type": "TABLE_ROW", "md_parent_section": "§SR.2 [Example 2]", "md_verbatim": "| 5 | CC-001 | SR | CC-001-101 | 5 | 5 | REACTGR | Reaction Grade | Dog Epi 1.5 mg | ERYTHEMA, INFILTRATION, PAPULES, VESICLES | | 2+ | | | FOREARM | 1 | WEEK 1 |", "score": 1.0, "match_basis": "verbatim_token+domain_route:SR"}, {"md_atom_id": "md_dmSR_ex_a028", "md_file": "knowledge_base/domains/SR/examples.md", "md_atom_type": "TABLE_ROW", "md_parent_section": "§SR.2 [Example 2]", "md_verbatim": "| 6 | CC-001 | SR | CC-001-101 | 6 | 6 | REACTGR | Reaction Grade | Dog Epi 2 mg | ERYTHEMA, INFILTRATION, PAPULES, COALESCING VESICLES | | 3+ | | | FOREARM | 1 | WEEK 1 |", "score": 0.9192, "match_basis": "verbatim_token+domain_route:SR"}, {"md_atom_id": "md_dmSR_ex_a025", "md_file": "knowledge_base/domains/SR/examples.md", "md_atom_type": "TABLE_ROW", "md_parent_section": "§SR.2 [Example 2]", "md_verbatim": "| 3 | CC-001 | SR | CC-001-101 | 3 | 3 | REACTGR | Reaction Grade | Dog Epi 0.5 mg | ERYTHEMA, INFILTRATION, POSSIBLY DISCRETE PAPULES | | 1+ | | | FOREARM | 1 | WEEK 1 |", "score": 0.8211, "match_basis": "verbatim_token+domain_route:SR"}, {"md_atom_id": "md_dmSR_ex_a023", "md_file": "knowledge_base/domains/SR/examples.md", "md_atom_type": "TABLE_ROW", "md_parent_section": "§SR.2 [Example 2]", "md_verbatim": "| 1 | CC-001 | SR | CC-001-101 | 1 | 1 | REACTGR | Reaction Grade | Dog Epi 0 mg | NEGATIVE | | NEGATIVE | | | FOREARM | 1 | WEEK 1 |", "score": 0.664, "match_basis": "verbatim_token+domain_route:SR"}], "candidate_count": 5, "zero_candidate": false}
{"pdf_atom_id": "ig34_p0379_a009", "pdf_atom_type": "TABLE_ROW", "pdf_source": "SDTMIG_v3.4", "pdf_page": 379, "pdf_parent_section": "SR – Examples", "pdf_verbatim": "| 6 | CC-001 | SR | CC-001-101 | 6 | 6 | REACTGR | Reaction Grade | Dog Epi 2 mg | ERYTHEMA, INFILTRATION, COALESCING VESICLES | | 3+ | | | FOREARM | 1 | WEEK 1 |", "figure_ref": null, "candidates": [{"md_atom_id": "md_dmSR_ex_a028", "md_file": "knowledge_base/domains/SR/examples.md", "md_atom_type": "TABLE_ROW", "md_parent_section": "§SR.2 [Example 2]", "md_verbatim": "| 6 | CC-001 | SR | CC-001-101 | 6 | 6 | REACTGR | Reaction Grade | Dog Epi 2 mg | ERYTHEMA, INFILTRATION, PAPULES, COALESCING VESICLES | | 3+ | | | FOREARM | 1 | WEEK 1 |", "score": 0.9538, "match_basis": "verbatim_token+domain_route:SR"}, {"md_atom_id": "md_dmSR_ex_a026", "md_file": "knowledge_base/domains/SR/examples.md", "md_atom_type": "TABLE_ROW", "md_parent_section": "§SR.2 [Example 2]", "md_verbatim": "| 4 | CC-001 | SR | CC-001-101 | 4 | 4 | REACTGR | Reaction Grade | Dog Epi 1 mg | ERYTHEMA, INFILTRATION, PAPULES, VESICLES | | 2+ | | | FOREARM | 1 | WEEK 1 |", "score": 0.8731, "match_basis": "verbatim_token+domain_route:SR"}, {"md_atom_id": "md_dmSR_ex_a027", "md_file": "knowledge_base/domains/SR/examples.md", "md_atom_type": "TABLE_ROW", "md_parent_section": "§SR.2 [Example 2]", "md_verbatim": "| 5 | CC-001 | SR | CC-001-101 | 5 | 5 | REACTGR | Reaction Grade | Dog Epi 1.5 mg | ERYTHEMA, INFILTRATION, PAPULES, VESICLES | | 2+ | | | FOREARM | 1 | WEEK 1 |", "score": 0.8731, "match_basis": "verbatim_token+domain_route:SR"}, {"md_atom_id": "md_dmSR_ex_a025", "md_file": "knowledge_base/domains/SR/examples.md", "md_atom_type": "TABLE_ROW", "md_parent_section": "§SR.2 [Example 2]", "md_verbatim": "| 3 | CC-001 | SR | CC-001-101 | 3 | 3 | REACTGR | Reaction Grade | Dog Epi 0.5 mg | ERYTHEMA, INFILTRATION, POSSIBLY DISCRETE PAPULES | | 1+ | | | FOREARM | 1 | WEEK 1 |", "score": 0.7375, "match_basis": "verbatim_token+domain_route:SR"}, {"md_atom_id": "md_dmSR_ex_a023", "md_file": "knowledge_base/domains/SR/examples.md", "md_atom_type": "TABLE_ROW", "md_parent_section": "§SR.2 [Example 2]", "md_verbatim": "| 1 | CC-001 | SR | CC-001-101 | 1 | 1 | REACTGR | Reaction Grade | Dog Epi 0 mg | NEGATIVE | | NEGATIVE | | | FOREARM | 1 | WEEK 1 |", "score": 0.6491, "match_basis": "verbatim_token+domain_route:SR"}], "candidate_count": 5, "zero_candidate": false}
{"pdf_atom_id": "ig34_p0379_a010", "pdf_atom_type": "TABLE_ROW", "pdf_source": "SDTMIG_v3.4", "pdf_page": 379, "pdf_parent_section": "SR – Examples", "pdf_verbatim": "| 7 | CC-001 | SR | CC-001-101 | 7 | 7 | FLRMDIAM | Flare Mean Diameter | Dog Epi 0 mg | 5 | mm | 5 | 5 | mm | FOREARM | 1 | WEEK 1 |", "figure_ref": null, "candidates": [{"md_atom_id": "md_dmSR_ex_a029", "md_file": "knowledge_base/domains/SR/examples.md", "md_atom_type": "TABLE_ROW", "md_parent_section": "§SR.2 [Example 2]", "md_verbatim": "| 7 | CC-001 | SR | CC-001-101 | 7 | 7 | FLRMDIAM | Flare Mean Diameter | Dog Epi 0 mg | 5 | mm | 5 | 5 | mm | FOREARM | 1 | WEEK 1 |", "score": 1.0, "match_basis": "verbatim_token+domain_route:SR"}, {"md_atom_id": "md_dmSR_ex_a030", "md_file": "knowledge_base/domains/SR/examples.md", "md_atom_type": "TABLE_ROW", "md_parent_section": "§SR.2 [Example 2]", "md_verbatim": "| 8 | CC-001 | SR | CC-001-101 | 8 | 8 | FLRMDIAM | Flare Mean Diameter | Dog Epi 0.1 mg | 10 | mm | 10 | 10 | mm | FOREARM | 1 | WEEK 1 |", "score": 1.0, "match_basis": "verbatim_token+domain_route:SR"}, {"md_atom_id": "md_dmSR_ex_a031", "md_file": "knowledge_base/domains/SR/examples.md", "md_atom_type": "TABLE_ROW", "md_parent_section": "§SR.2 [Example 2]", "md_verbatim": "| 9 | CC-001 | SR | CC-001-101 | 9 | 9 | FLRMDIAM | Flare Mean Diameter | Dog Epi 0.5 mg | 22 | mm | 22 | 22 | mm | FOREARM | 1 | WEEK 1 |", "score": 1.0, "match_basis": "verbatim_token+domain_route:SR"}, {"md_atom_id": "md_dmSR_ex_a033", "md_file": "knowledge_base/domains/SR/examples.md", "md_atom_type": "TABLE_ROW", "md_parent_section": "§SR.2 [Example 2]", "md_verbatim": "| 11 | CC-001 | SR | CC-001-101 | 11 | 11 | FLRMDIAM | Flare Mean Diameter | Dog Epi 1.5 mg | 1 | mm | 1 | 1 | mm | FOREARM | 1 | WEEK 1 |", "score": 1.0, "match_basis": "verbatim_token+domain_route:SR"}, {"md_atom_id": "md_dmSR_ex_a034", "md_file": "knowledge_base/domains/SR/examples.md", "md_atom_type": "TABLE_ROW", "md_parent_section": "§SR.2 [Example 2]", "md_verbatim": "| 12 | CC-001 | SR | CC-001-101 | 12 | 12 | FLRMDIAM | Flare Mean Diameter | Dog Epi 2 mg | 8 | mm | 8 | 8 | mm | FOREARM | 1 | WEEK 1 |", "score": 1.0, "match_basis": "verbatim_token+domain_route:SR"}], "candidate_count": 5, "zero_candidate": false}
{"pdf_atom_id": "ig34_p0379_a011", "pdf_atom_type": "TABLE_ROW", "pdf_source": "SDTMIG_v3.4", "pdf_page": 379, "pdf_parent_section": "SR – Examples", "pdf_verbatim": "| 8 | CC-001 | SR | CC-001-101 | 8 | 8 | FLRMDIAM | Flare Mean Diameter | Dog Epi 0.1 mg | 10 | mm | 10 | 10 | mm | FOREARM | 1 | WEEK 1 |", "figure_ref": null, "candidates": [{"md_atom_id": "md_dmSR_ex_a029", "md_file": "knowledge_base/domains/SR/examples.md", "md_atom_type": "TABLE_ROW", "md_parent_section": "§SR.2 [Example 2]", "md_verbatim": "| 7 | CC-001 | SR | CC-001-101 | 7 | 7 | FLRMDIAM | Flare Mean Diameter | Dog Epi 0 mg | 5 | mm | 5 | 5 | mm | FOREARM | 1 | WEEK 1 |", "score": 1.0, "match_basis": "verbatim_token+domain_route:SR"}, {"md_atom_id": "md_dmSR_ex_a030", "md_file": "knowledge_base/domains/SR/examples.md", "md_atom_type": "TABLE_ROW", "md_parent_section": "§SR.2 [Example 2]", "md_verbatim": "| 8 | CC-001 | SR | CC-001-101 | 8 | 8 | FLRMDIAM | Flare Mean Diameter | Dog Epi 0.1 mg | 10 | mm | 10 | 10 | mm | FOREARM | 1 | WEEK 1 |", "score": 1.0, "match_basis": "verbatim_token+domain_route:SR"}, {"md_atom_id": "md_dmSR_ex_a031", "md_file": "knowledge_base/domains/SR/examples.md", "md_atom_type": "TABLE_ROW", "md_parent_section": "§SR.2 [Example 2]", "md_verbatim": "| 9 | CC-001 | SR | CC-001-101 | 9 | 9 | FLRMDIAM | Flare Mean Diameter | Dog Epi 0.5 mg | 22 | mm | 22 | 22 | mm | FOREARM | 1 | WEEK 1 |", "score": 1.0, "match_basis": "verbatim_token+domain_route:SR"}, {"md_atom_id": "md_dmSR_ex_a033", "md_file": "knowledge_base/domains/SR/examples.md", "md_atom_type": "TABLE_ROW", "md_parent_section": "§SR.2 [Example 2]", "md_verbatim": "| 11 | CC-001 | SR | CC-001-101 | 11 | 11 | FLRMDIAM | Flare Mean Diameter | Dog Epi 1.5 mg | 1 | mm | 1 | 1 | mm | FOREARM | 1 | WEEK 1 |", "score": 1.0, "match_basis": "verbatim_token+domain_route:SR"}, {"md_atom_id": "md_dmSR_ex_a034", "md_file": "knowledge_base/domains/SR/examples.md", "md_atom_type": "TABLE_ROW", "md_parent_section": "§SR.2 [Example 2]", "md_verbatim": "| 12 | CC-001 | SR | CC-001-101 | 12 | 12 | FLRMDIAM | Flare Mean Diameter | Dog Epi 2 mg | 8 | mm | 8 | 8 | mm | FOREARM | 1 | WEEK 1 |", "score": 1.0, "match_basis": "verbatim_token+domain_route:SR"}], "candidate_count": 5, "zero_candidate": false}
{"pdf_atom_id": "ig34_p0379_a012", "pdf_atom_type": "TABLE_ROW", "pdf_source": "SDTMIG_v3.4", "pdf_page": 379, "pdf_parent_section": "SR – Examples", "pdf_verbatim": "| 9 | CC-001 | SR | CC-001-101 | 9 | 9 | FLRMDIAM | Flare Mean Diameter | Dog Epi 0.5 mg | 22 | mm | 22 | 22 | mm | FOREARM | 1 | WEEK 1 |", "figure_ref": null, "candidates": [{"md_atom_id": "md_dmSR_ex_a029", "md_file": "knowledge_base/domains/SR/examples.md", "md_atom_type": "TABLE_ROW", "md_parent_section": "§SR.2 [Example 2]", "md_verbatim": "| 7 | CC-001 | SR | CC-001-101 | 7 | 7 | FLRMDIAM | Flare Mean Diameter | Dog Epi 0 mg | 5 | mm | 5 | 5 | mm | FOREARM | 1 | WEEK 1 |", "score": 1.0, "match_basis": "verbatim_token+domain_route:SR"}, {"md_atom_id": "md_dmSR_ex_a030", "md_file": "knowledge_base/domains/SR/examples.md", "md_atom_type": "TABLE_ROW", "md_parent_section": "§SR.2 [Example 2]", "md_verbatim": "| 8 | CC-001 | SR | CC-001-101 | 8 | 8 | FLRMDIAM | Flare Mean Diameter | Dog Epi 0.1 mg | 10 | mm | 10 | 10 | mm | FOREARM | 1 | WEEK 1 |", "score": 1.0, "match_basis": "verbatim_token+domain_route:SR"}, {"md_atom_id": "md_dmSR_ex_a031", "md_file": "knowledge_base/domains/SR/examples.md", "md_atom_type": "TABLE_ROW", "md_parent_section": "§SR.2 [Example 2]", "md_verbatim": "| 9 | CC-001 | SR | CC-001-101 | 9 | 9 | FLRMDIAM | Flare Mean Diameter | Dog Epi 0.5 mg | 22 | mm | 22 | 22 | mm | FOREARM | 1 | WEEK 1 |", "score": 1.0, "match_basis": "verbatim_token+domain_route:SR"}, {"md_atom_id": "md_dmSR_ex_a033", "md_file": "knowledge_base/domains/SR/examples.md", "md_atom_type": "TABLE_ROW", "md_parent_section": "§SR.2 [Example 2]", "md_verbatim": "| 11 | CC-001 | SR | CC-001-101 | 11 | 11 | FLRMDIAM | Flare Mean Diameter | Dog Epi 1.5 mg | 1 | mm | 1 | 1 | mm | FOREARM | 1 | WEEK 1 |", "score": 1.0, "match_basis": "verbatim_token+domain_route:SR"}, {"md_atom_id": "md_dmSR_ex_a034", "md_file": "knowledge_base/domains/SR/examples.md", "md_atom_type": "TABLE_ROW", "md_parent_section": "§SR.2 [Example 2]", "md_verbatim": "| 12 | CC-001 | SR | CC-001-101 | 12 | 12 | FLRMDIAM | Flare Mean Diameter | Dog Epi 2 mg | 8 | mm | 8 | 8 | mm | FOREARM | 1 | WEEK 1 |", "score": 1.0, "match_basis": "verbatim_token+domain_route:SR"}], "candidate_count": 5, "zero_candidate": false}
{"pdf_atom_id": "ig34_p0379_a013", "pdf_atom_type": "TABLE_ROW", "pdf_source": "SDTMIG_v3.4", "pdf_page": 379, "pdf_parent_section": "SR – Examples", "pdf_verbatim": "| 10 | CC-001 | SR | CC-001-101 | 10 | 10 | FLRMDIAM | Flare Mean Diameter | Dog Epi 1 mg | 100 | mm | 100 | 100 | mm | FOREARM | 1 | WEEK 1 |", "figure_ref": null, "candidates": [{"md_atom_id": "md_dmSR_ex_a032", "md_file": "knowledge_base/domains/SR/examples.md", "md_atom_type": "TABLE_ROW", "md_parent_section": "§SR.2 [Example 2]", "md_verbatim": "| 10 | CC-001 | SR | CC-001-101 | 10 | 10 | FLRMDIAM | Flare Mean Diameter | Dog Epi 1 mg | 100 | mm | 100 | 100 | mm | FOREARM | 1 | WEEK 1 |", "score": 1.0, "match_basis": "verbatim_token+domain_route:SR"}, {"md_atom_id": "md_dmSR_ex_a029", "md_file": "knowledge_base/domains/SR/examples.md", "md_atom_type": "TABLE_ROW", "md_parent_section": "§SR.2 [Example 2]", "md_verbatim": "| 7 | CC-001 | SR | CC-001-101 | 7 | 7 | FLRMDIAM | Flare Mean Diameter | Dog Epi 0 mg | 5 | mm | 5 | 5 | mm | FOREARM | 1 | WEEK 1 |", "score": 0.9778, "match_basis": "verbatim_token+domain_route:SR"}, {"md_atom_id": "md_dmSR_ex_a030", "md_file": "knowledge_base/domains/SR/examples.md", "md_atom_type": "TABLE_ROW", "md_parent_section": "§SR.2 [Example 2]", "md_verbatim": "| 8 | CC-001 | SR | CC-001-101 | 8 | 8 | FLRMDIAM | Flare Mean Diameter | Dog Epi 0.1 mg | 10 | mm | 10 | 10 | mm | FOREARM | 1 | WEEK 1 |", "score": 0.9778, "match_basis": "verbatim_token+domain_route:SR"}, {"md_atom_id": "md_dmSR_ex_a031", "md_file": "knowledge_base/domains/SR/examples.md", "md_atom_type": "TABLE_ROW", "md_parent_section": "§SR.2 [Example 2]", "md_verbatim": "| 9 | CC-001 | SR | CC-001-101 | 9 | 9 | FLRMDIAM | Flare Mean Diameter | Dog Epi 0.5 mg | 22 | mm | 22 | 22 | mm | FOREARM | 1 | WEEK 1 |", "score": 0.9778, "match_basis": "verbatim_token+domain_route:SR"}, {"md_atom_id": "md_dmSR_ex_a033", "md_file": "knowledge_base/domains/SR/examples.md", "md_atom_type": "TABLE_ROW", "md_parent_section": "§SR.2 [Example 2]", "md_verbatim": "| 11 | CC-001 | SR | CC-001-101 | 11 | 11 | FLRMDIAM | Flare Mean Diameter | Dog Epi 1.5 mg | 1 | mm | 1 | 1 | mm | FOREARM | 1 | WEEK 1 |", "score": 0.9778, "match_basis": "verbatim_token+domain_route:SR"}], "candidate_count": 5, "zero_candidate": false}
{"pdf_atom_id": "ig34_p0379_a014", "pdf_atom_type": "TABLE_ROW", "pdf_source": "SDTMIG_v3.4", "pdf_page": 379, "pdf_parent_section": "SR – Examples", "pdf_verbatim": "| 11 | CC-001 | SR | CC-001-101 | 11 | 11 | FLRMDIAM | Flare Mean Diameter | Dog Epi 1.5 mg | 1 | mm | 1 | 1 | mm | FOREARM | 1 | WEEK 1 |", "figure_ref": null, "candidates": [{"md_atom_id": "md_dmSR_ex_a029", "md_file": "knowledge_base/domains/SR/examples.md", "md_atom_type": "TABLE_ROW", "md_parent_section": "§SR.2 [Example 2]", "md_verbatim": "| 7 | CC-001 | SR | CC-001-101 | 7 | 7 | FLRMDIAM | Flare Mean Diameter | Dog Epi 0 mg | 5 | mm | 5 | 5 | mm | FOREARM | 1 | WEEK 1 |", "score": 1.0, "match_basis": "verbatim_token+domain_route:SR"}, {"md_atom_id": "md_dmSR_ex_a030", "md_file": "knowledge_base/domains/SR/examples.md", "md_atom_type": "TABLE_ROW", "md_parent_section": "§SR.2 [Example 2]", "md_verbatim": "| 8 | CC-001 | SR | CC-001-101 | 8 | 8 | FLRMDIAM | Flare Mean Diameter | Dog Epi 0.1 mg | 10 | mm | 10 | 10 | mm | FOREARM | 1 | WEEK 1 |", "score": 1.0, "match_basis": "verbatim_token+domain_route:SR"}, {"md_atom_id": "md_dmSR_ex_a031", "md_file": "knowledge_base/domains/SR/examples.md", "md_atom_type": "TABLE_ROW", "md_parent_section": "§SR.2 [Example 2]", "md_verbatim": "| 9 | CC-001 | SR | CC-001-101 | 9 | 9 | FLRMDIAM | Flare Mean Diameter | Dog Epi 0.5 mg | 22 | mm | 22 | 22 | mm | FOREARM | 1 | WEEK 1 |", "score": 1.0, "match_basis": "verbatim_token+domain_route:SR"}, {"md_atom_id": "md_dmSR_ex_a033", "md_file": "knowledge_base/domains/SR/examples.md", "md_atom_type": "TABLE_ROW", "md_parent_section": "§SR.2 [Example 2]", "md_verbatim": "| 11 | CC-001 | SR | CC-001-101 | 11 | 11 | FLRMDIAM | Flare Mean Diameter | Dog Epi 1.5 mg | 1 | mm | 1 | 1 | mm | FOREARM | 1 | WEEK 1 |", "score": 1.0, "match_basis": "verbatim_token+domain_route:SR"}, {"md_atom_id": "md_dmSR_ex_a034", "md_file": "knowledge_base/domains/SR/examples.md", "md_atom_type": "TABLE_ROW", "md_parent_section": "§SR.2 [Example 2]", "md_verbatim": "| 12 | CC-001 | SR | CC-001-101 | 12 | 12 | FLRMDIAM | Flare Mean Diameter | Dog Epi 2 mg | 8 | mm | 8 | 8 | mm | FOREARM | 1 | WEEK 1 |", "score": 1.0, "match_basis": "verbatim_token+domain_route:SR"}], "candidate_count": 5, "zero_candidate": false}
{"pdf_atom_id": "ig34_p0379_a015", "pdf_atom_type": "TABLE_ROW", "pdf_source": "SDTMIG_v3.4", "pdf_page": 379, "pdf_parent_section": "SR – Examples", "pdf_verbatim": "| 12 | CC-001 | SR | CC-001-101 | 12 | 12 | FLRMDIAM | Flare Mean Diameter | Dog Epi 2 mg | 8 | mm | 8 | 8 | mm | FOREARM | 1 | WEEK 1 |", "figure_ref": null, "candidates": [{"md_atom_id": "md_dmSR_ex_a029", "md_file": "knowledge_base/domains/SR/examples.md", "md_atom_type": "TABLE_ROW", "md_parent_section": "§SR.2 [Example 2]", "md_verbatim": "| 7 | CC-001 | SR | CC-001-101 | 7 | 7 | FLRMDIAM | Flare Mean Diameter | Dog Epi 0 mg | 5 | mm | 5 | 5 | mm | FOREARM | 1 | WEEK 1 |", "score": 1.0, "match_basis": "verbatim_token+domain_route:SR"}, {"md_atom_id": "md_dmSR_ex_a030", "md_file": "knowledge_base/domains/SR/examples.md", "md_atom_type": "TABLE_ROW", "md_parent_section": "§SR.2 [Example 2]", "md_verbatim": "| 8 | CC-001 | SR | CC-001-101 | 8 | 8 | FLRMDIAM | Flare Mean Diameter | Dog Epi 0.1 mg | 10 | mm | 10 | 10 | mm | FOREARM | 1 | WEEK 1 |", "score": 1.0, "match_basis": "verbatim_token+domain_route:SR"}, {"md_atom_id": "md_dmSR_ex_a031", "md_file": "knowledge_base/domains/SR/examples.md", "md_atom_type": "TABLE_ROW", "md_parent_section": "§SR.2 [Example 2]", "md_verbatim": "| 9 | CC-001 | SR | CC-001-101 | 9 | 9 | FLRMDIAM | Flare Mean Diameter | Dog Epi 0.5 mg | 22 | mm | 22 | 22 | mm | FOREARM | 1 | WEEK 1 |", "score": 1.0, "match_basis": "verbatim_token+domain_route:SR"}, {"md_atom_id": "md_dmSR_ex_a033", "md_file": "knowledge_base/domains/SR/examples.md", "md_atom_type": "TABLE_ROW", "md_parent_section": "§SR.2 [Example 2]", "md_verbatim": "| 11 | CC-001 | SR | CC-001-101 | 11 | 11 | FLRMDIAM | Flare Mean Diameter | Dog Epi 1.5 mg | 1 | mm | 1 | 1 | mm | FOREARM | 1 | WEEK 1 |", "score": 1.0, "match_basis": "verbatim_token+domain_route:SR"}, {"md_atom_id": "md_dmSR_ex_a034", "md_file": "knowledge_base/domains/SR/examples.md", "md_atom_type": "TABLE_ROW", "md_parent_section": "§SR.2 [Example 2]", "md_verbatim": "| 12 | CC-001 | SR | CC-001-101 | 12 | 12 | FLRMDIAM | Flare Mean Diameter | Dog Epi 2 mg | 8 | mm | 8 | 8 | mm | FOREARM | 1 | WEEK 1 |", "score": 1.0, "match_basis": "verbatim_token+domain_route:SR"}], "candidate_count": 5, "zero_candidate": false}
{"pdf_atom_id": "ig34_p0379_a016", "pdf_atom_type": "CODE_LITERAL", "pdf_source": "SDTMIG_v3.4", "pdf_page": 379, "pdf_parent_section": "SR – Examples", "pdf_verbatim": "ex.xpt", "figure_ref": null, "candidates": [{"md_atom_id": "md_dmSR_ex_a007", "md_file": "knowledge_base/domains/SR/examples.md", "md_atom_type": "SENTENCE", "md_parent_section": "§SR.1 [Example 1]", "md_verbatim": "**sr.xpt**", "score": 0.79, "match_basis": "verbatim_token+domain_route:SR"}, {"md_atom_id": "md_dmSR_ex_a021", "md_file": "knowledge_base/domains/SR/examples.md", "md_atom_type": "SENTENCE", "md_parent_section": "§SR.2 [Example 2]", "md_verbatim": "**sr.xpt**", "score": 0.79, "match_basis": "verbatim_token+domain_route:SR"}, {"md_atom_id": "md_dmSR_ex_a035", "md_file": "knowledge_base/domains/SR/examples.md", "md_atom_type": "SENTENCE", "md_parent_section": "§SR.2 [Example 2]", "md_verbatim": "**ex.xpt**", "score": 0.79, "match_basis": "verbatim_token+domain_route:SR"}, {"md_atom_id": "md_dmSR_ex_a069", "md_file": "knowledge_base/domains/SR/examples.md", "md_atom_type": "SENTENCE", "md_parent_section": "§SR.3 [Example 3]", "md_verbatim": "**sr.xpt**", "score": 0.79, "match_basis": "verbatim_token+domain_route:SR"}, {"md_atom_id": "md_dmSR_ex_a075", "md_file": "knowledge_base/domains/SR/examples.md", "md_atom_type": "SENTENCE", "md_parent_section": "§SR.3 [Example 3]", "md_verbatim": "**ag.xpt**", "score": 0.79, "match_basis": "verbatim_token+domain_route:SR"}, {"md_atom_id": "md_dmSR_ex_a044", "md_file": "knowledge_base/domains/SR/examples.md", "md_atom_type": "SENTENCE", "md_parent_section": "§SR.2 [Example 2]", "md_verbatim": "**relrec.xpt**", "score": 0.31, "match_basis": "verbatim_token+domain_route:SR"}, {"md_atom_id": "md_dmSR_ex_a079", "md_file": "knowledge_base/domains/SR/examples.md", "md_atom_type": "SENTENCE", "md_parent_section": "§SR.3 [Example 3]", "md_verbatim": "**relrec.xpt**", "score": 0.31, "match_basis": "verbatim_token+domain_route:SR"}, {"md_atom_id": "md_dmSR_assn_a001", "md_file": "knowledge_base/domains/SR/assumptions.md", "md_atom_type": "HEADING", "md_parent_section": "§SR [SR — Assumptions]", "md_verbatim": "# SR — Assumptions", "score": 0.19, "match_basis": "verbatim_token+domain_route:SR"}, {"md_atom_id": "md_dmSR_assn_a002", "md_file": "knowledge_base/domains/SR/assumptions.md", "md_atom_type": "LIST_ITEM", "md_parent_section": "§SR [SR — Assumptions]", "md_verbatim": "1. The Skin Response (SR) domain is used to represent findings about an intervention, but it has its own domain code, SR, rather than the domain code FA.", "score": 0.19, "match_basis": "verbatim_token+domain_route:SR"}, {"md_atom_id": "md_dmSR_assn_a003", "md_file": "knowledge_base/domains/SR/assumptions.md", "md_atom_type": "LIST_ITEM", "md_parent_section": "§SR [SR — Assumptions]", "md_verbatim": "2. This domain is intended specifically for tests of the immune response to substances that are intended to provoke such a response (e.g., allergens used in allergy testing). SR is not intended for other injection-site reactions, including reactogenicity events that may follow a vaccine administration.", "score": 0.19, "match_basis": "verbatim_token+domain_route:SR"}], "candidate_count": 10, "zero_candidate": false}
{"pdf_atom_id": "ig34_p0379_a017", "pdf_atom_type": "TABLE_HEADER", "pdf_source": "SDTMIG_v3.4", "pdf_page": 379, "pdf_parent_section": "SR – Examples", "pdf_verbatim": "| Row | STUDYID | DOMAIN | USUBJID | EXSPID | EXTRT | EXDOSE | EXDOSEU | EXROUTE | EXLOC |", "figure_ref": null, "candidates": [{"md_atom_id": "md_dmSR_ex_a036", "md_file": "knowledge_base/domains/SR/examples.md", "md_atom_type": "TABLE_HEADER", "md_parent_section": "§SR.2 [Example 2]", "md_verbatim": "| Row | STUDYID | DOMAIN | USUBJID | EXSPID | EXTRT | EXDOSE | EXDOSEU | EXROUTE | EXLOC |", "score": 1.0, "match_basis": "verbatim_token+domain_route:SR"}, {"md_atom_id": "md_dmSR_ex_a045", "md_file": "knowledge_base/domains/SR/examples.md", "md_atom_type": "TABLE_HEADER", "md_parent_section": "§SR.2 [Example 2]", "md_verbatim": "| Row | STUDYID | RDOMAIN | USUBJID | IDVAR | IDVARVAL | RELTYPE | RELID |", "score": 0.5837, "match_basis": "verbatim_token+domain_route:SR"}, {"md_atom_id": "md_dmSR_ex_a080", "md_file": "knowledge_base/domains/SR/examples.md", "md_atom_type": "TABLE_HEADER", "md_parent_section": "§SR.3 [Example 3]", "md_verbatim": "| Row | STUDYID | RDOMAIN | USUBJID | IDVAR | IDVARVAL | RELTYPE | RELID |", "score": 0.5837, "match_basis": "verbatim_token+domain_route:SR"}, {"md_atom_id": "md_dmSR_ex_a076", "md_file": "knowledge_base/domains/SR/examples.md", "md_atom_type": "TABLE_HEADER", "md_parent_section": "§SR.3 [Example 3]", "md_verbatim": "| Row | STUDYID | DOMAIN | USUBJID | AGSEQ | AGTRT | AGDOSE | AGDOSU | AGVAMT | AGVAMTU | VISITNUM | VISIT | EPOCH | AGSTDTC |", "score": 0.577, "match_basis": "verbatim_token+domain_route:SR"}, {"md_atom_id": "md_dmSR_ex_a022", "md_file": "knowledge_base/domains/SR/examples.md", "md_atom_type": "TABLE_HEADER", "md_parent_section": "§SR.2 [Example 2]", "md_verbatim": "| Row | STUDYID | DOMAIN | USUBJID | SRSEQ | SRSPID | SRTESTCD | SRTEST | SROBJ | SRORRES | SRORRESU | SRSTRESC | SRSTRESN | SRSTRESU | SRLOC | VISITNUM | VISIT |", "score": 0.5636, "match_basis": "verbatim_token+domain_route:SR"}], "candidate_count": 5, "zero_candidate": false}
{"pdf_atom_id": "ig34_p0379_a018", "pdf_atom_type": "TABLE_ROW", "pdf_source": "SDTMIG_v3.4", "pdf_page": 379, "pdf_parent_section": "SR – Examples", "pdf_verbatim": "| 1 | CC-001 | EX | 101 | 1 | Dog Epi IgG | 0 | mg | CUTANEOUS | FOREARM |", "figure_ref": null, "candidates": [{"md_atom_id": "md_dmSR_ex_a037", "md_file": "knowledge_base/domains/SR/examples.md", "md_atom_type": "TABLE_ROW", "md_parent_section": "§SR.2 [Example 2]", "md_verbatim": "| 1 | CC-001 | EX | 101 | 1 | Dog Epi IgG | 0 | mg | CUTANEOUS | FOREARM |", "score": 1.0, "match_basis": "verbatim_token+domain_route:SR"}, {"md_atom_id": "md_dmSR_ex_a038", "md_file": "knowledge_base/domains/SR/examples.md", "md_atom_type": "TABLE_ROW", "md_parent_section": "§SR.2 [Example 2]", "md_verbatim": "| 2 | CC-001 | EX | 101 | 2 | Dog Epi IgG | 0.1 | mg | CUTANEOUS | FOREARM |", "score": 1.0, "match_basis": "verbatim_token+domain_route:SR"}, {"md_atom_id": "md_dmSR_ex_a039", "md_file": "knowledge_base/domains/SR/examples.md", "md_atom_type": "TABLE_ROW", "md_parent_section": "§SR.2 [Example 2]", "md_verbatim": "| 3 | CC-001 | EX | 101 | 3 | Dog Epi IgG | 0.5 | mg | CUTANEOUS | FOREARM |", "score": 1.0, "match_basis": "verbatim_token+domain_route:SR"}, {"md_atom_id": "md_dmSR_ex_a040", "md_file": "knowledge_base/domains/SR/examples.md", "md_atom_type": "TABLE_ROW", "md_parent_section": "§SR.2 [Example 2]", "md_verbatim": "| 4 | CC-001 | EX | 101 | 4 | Dog Epi IgG | 1 | mg | CUTANEOUS | FOREARM |", "score": 1.0, "match_basis": "verbatim_token+domain_route:SR"}, {"md_atom_id": "md_dmSR_ex_a041", "md_file": "knowledge_base/domains/SR/examples.md", "md_atom_type": "TABLE_ROW", "md_parent_section": "§SR.2 [Example 2]", "md_verbatim": "| 5 | CC-001 | EX | 101 | 5 | Dog Epi IgG | 1.5 | mg | CUTANEOUS | FOREARM |", "score": 1.0, "match_basis": "verbatim_token+domain_route:SR"}], "candidate_count": 5, "zero_candidate": false}
{"pdf_atom_id": "ig34_p0379_a019", "pdf_atom_type": "TABLE_ROW", "pdf_source": "SDTMIG_v3.4", "pdf_page": 379, "pdf_parent_section": "SR – Examples", "pdf_verbatim": "| 2 | CC-001 | EX | 101 | 2 | Dog Epi IgG | 0.1 | mg | CUTANEOUS | FOREARM |", "figure_ref": null, "candidates": [{"md_atom_id": "md_dmSR_ex_a037", "md_file": "knowledge_base/domains/SR/examples.md", "md_atom_type": "TABLE_ROW", "md_parent_section": "§SR.2 [Example 2]", "md_verbatim": "| 1 | CC-001 | EX | 101 | 1 | Dog Epi IgG | 0 | mg | CUTANEOUS | FOREARM |", "score": 1.0, "match_basis": "verbatim_token+domain_route:SR"}, {"md_atom_id": "md_dmSR_ex_a038", "md_file": "knowledge_base/domains/SR/examples.md", "md_atom_type": "TABLE_ROW", "md_parent_section": "§SR.2 [Example 2]", "md_verbatim": "| 2 | CC-001 | EX | 101 | 2 | Dog Epi IgG | 0.1 | mg | CUTANEOUS | FOREARM |", "score": 1.0, "match_basis": "verbatim_token+domain_route:SR"}, {"md_atom_id": "md_dmSR_ex_a039", "md_file": "knowledge_base/domains/SR/examples.md", "md_atom_type": "TABLE_ROW", "md_parent_section": "§SR.2 [Example 2]", "md_verbatim": "| 3 | CC-001 | EX | 101 | 3 | Dog Epi IgG | 0.5 | mg | CUTANEOUS | FOREARM |", "score": 1.0, "match_basis": "verbatim_token+domain_route:SR"}, {"md_atom_id": "md_dmSR_ex_a040", "md_file": "knowledge_base/domains/SR/examples.md", "md_atom_type": "TABLE_ROW", "md_parent_section": "§SR.2 [Example 2]", "md_verbatim": "| 4 | CC-001 | EX | 101 | 4 | Dog Epi IgG | 1 | mg | CUTANEOUS | FOREARM |", "score": 1.0, "match_basis": "verbatim_token+domain_route:SR"}, {"md_atom_id": "md_dmSR_ex_a041", "md_file": "knowledge_base/domains/SR/examples.md", "md_atom_type": "TABLE_ROW", "md_parent_section": "§SR.2 [Example 2]", "md_verbatim": "| 5 | CC-001 | EX | 101 | 5 | Dog Epi IgG | 1.5 | mg | CUTANEOUS | FOREARM |", "score": 1.0, "match_basis": "verbatim_token+domain_route:SR"}], "candidate_count": 5, "zero_candidate": false}
{"pdf_atom_id": "ig34_p0379_a020", "pdf_atom_type": "TABLE_ROW", "pdf_source": "SDTMIG_v3.4", "pdf_page": 379, "pdf_parent_section": "SR – Examples", "pdf_verbatim": "| 3 | CC-001 | EX | 101 | 3 | Dog Epi IgG | 0.5 | mg | CUTANEOUS | FOREARM |", "figure_ref": null, "candidates": [{"md_atom_id": "md_dmSR_ex_a037", "md_file": "knowledge_base/domains/SR/examples.md", "md_atom_type": "TABLE_ROW", "md_parent_section": "§SR.2 [Example 2]", "md_verbatim": "| 1 | CC-001 | EX | 101 | 1 | Dog Epi IgG | 0 | mg | CUTANEOUS | FOREARM |", "score": 1.0, "match_basis": "verbatim_token+domain_route:SR"}, {"md_atom_id": "md_dmSR_ex_a038", "md_file": "knowledge_base/domains/SR/examples.md", "md_atom_type": "TABLE_ROW", "md_parent_section": "§SR.2 [Example 2]", "md_verbatim": "| 2 | CC-001 | EX | 101 | 2 | Dog Epi IgG | 0.1 | mg | CUTANEOUS | FOREARM |", "score": 1.0, "match_basis": "verbatim_token+domain_route:SR"}, {"md_atom_id": "md_dmSR_ex_a039", "md_file": "knowledge_base/domains/SR/examples.md", "md_atom_type": "TABLE_ROW", "md_parent_section": "§SR.2 [Example 2]", "md_verbatim": "| 3 | CC-001 | EX | 101 | 3 | Dog Epi IgG | 0.5 | mg | CUTANEOUS | FOREARM |", "score": 1.0, "match_basis": "verbatim_token+domain_route:SR"}, {"md_atom_id": "md_dmSR_ex_a040", "md_file": "knowledge_base/domains/SR/examples.md", "md_atom_type": "TABLE_ROW", "md_parent_section": "§SR.2 [Example 2]", "md_verbatim": "| 4 | CC-001 | EX | 101 | 4 | Dog Epi IgG | 1 | mg | CUTANEOUS | FOREARM |", "score": 1.0, "match_basis": "verbatim_token+domain_route:SR"}, {"md_atom_id": "md_dmSR_ex_a041", "md_file": "knowledge_base/domains/SR/examples.md", "md_atom_type": "TABLE_ROW", "md_parent_section": "§SR.2 [Example 2]", "md_verbatim": "| 5 | CC-001 | EX | 101 | 5 | Dog Epi IgG | 1.5 | mg | CUTANEOUS | FOREARM |", "score": 1.0, "match_basis": "verbatim_token+domain_route:SR"}], "candidate_count": 5, "zero_candidate": false}
{"pdf_atom_id": "ig34_p0379_a021", "pdf_atom_type": "TABLE_ROW", "pdf_source": "SDTMIG_v3.4", "pdf_page": 379, "pdf_parent_section": "SR – Examples", "pdf_verbatim": "| 4 | CC-001 | EX | 101 | 4 | Dog Epi IgG | 1 | mg | CUTANEOUS | FOREARM |", "figure_ref": null, "candidates": [{"md_atom_id": "md_dmSR_ex_a037", "md_file": "knowledge_base/domains/SR/examples.md", "md_atom_type": "TABLE_ROW", "md_parent_section": "§SR.2 [Example 2]", "md_verbatim": "| 1 | CC-001 | EX | 101 | 1 | Dog Epi IgG | 0 | mg | CUTANEOUS | FOREARM |", "score": 1.0, "match_basis": "verbatim_token+domain_route:SR"}, {"md_atom_id": "md_dmSR_ex_a038", "md_file": "knowledge_base/domains/SR/examples.md", "md_atom_type": "TABLE_ROW", "md_parent_section": "§SR.2 [Example 2]", "md_verbatim": "| 2 | CC-001 | EX | 101 | 2 | Dog Epi IgG | 0.1 | mg | CUTANEOUS | FOREARM |", "score": 1.0, "match_basis": "verbatim_token+domain_route:SR"}, {"md_atom_id": "md_dmSR_ex_a039", "md_file": "knowledge_base/domains/SR/examples.md", "md_atom_type": "TABLE_ROW", "md_parent_section": "§SR.2 [Example 2]", "md_verbatim": "| 3 | CC-001 | EX | 101 | 3 | Dog Epi IgG | 0.5 | mg | CUTANEOUS | FOREARM |", "score": 1.0, "match_basis": "verbatim_token+domain_route:SR"}, {"md_atom_id": "md_dmSR_ex_a040", "md_file": "knowledge_base/domains/SR/examples.md", "md_atom_type": "TABLE_ROW", "md_parent_section": "§SR.2 [Example 2]", "md_verbatim": "| 4 | CC-001 | EX | 101 | 4 | Dog Epi IgG | 1 | mg | CUTANEOUS | FOREARM |", "score": 1.0, "match_basis": "verbatim_token+domain_route:SR"}, {"md_atom_id": "md_dmSR_ex_a041", "md_file": "knowledge_base/domains/SR/examples.md", "md_atom_type": "TABLE_ROW", "md_parent_section": "§SR.2 [Example 2]", "md_verbatim": "| 5 | CC-001 | EX | 101 | 5 | Dog Epi IgG | 1.5 | mg | CUTANEOUS | FOREARM |", "score": 1.0, "match_basis": "verbatim_token+domain_route:SR"}], "candidate_count": 5, "zero_candidate": false}
{"pdf_atom_id": "ig34_p0379_a022", "pdf_atom_type": "TABLE_ROW", "pdf_source": "SDTMIG_v3.4", "pdf_page": 379, "pdf_parent_section": "SR – Examples", "pdf_verbatim": "| 5 | CC-001 | EX | 101 | 5 | Dog Epi IgG | 1.5 | mg | CUTANEOUS | FOREARM |", "figure_ref": null, "candidates": [{"md_atom_id": "md_dmSR_ex_a037", "md_file": "knowledge_base/domains/SR/examples.md", "md_atom_type": "TABLE_ROW", "md_parent_section": "§SR.2 [Example 2]", "md_verbatim": "| 1 | CC-001 | EX | 101 | 1 | Dog Epi IgG | 0 | mg | CUTANEOUS | FOREARM |", "score": 1.0, "match_basis": "verbatim_token+domain_route:SR"}, {"md_atom_id": "md_dmSR_ex_a038", "md_file": "knowledge_base/domains/SR/examples.md", "md_atom_type": "TABLE_ROW", "md_parent_section": "§SR.2 [Example 2]", "md_verbatim": "| 2 | CC-001 | EX | 101 | 2 | Dog Epi IgG | 0.1 | mg | CUTANEOUS | FOREARM |", "score": 1.0, "match_basis": "verbatim_token+domain_route:SR"}, {"md_atom_id": "md_dmSR_ex_a039", "md_file": "knowledge_base/domains/SR/examples.md", "md_atom_type": "TABLE_ROW", "md_parent_section": "§SR.2 [Example 2]", "md_verbatim": "| 3 | CC-001 | EX | 101 | 3 | Dog Epi IgG | 0.5 | mg | CUTANEOUS | FOREARM |", "score": 1.0, "match_basis": "verbatim_token+domain_route:SR"}, {"md_atom_id": "md_dmSR_ex_a040", "md_file": "knowledge_base/domains/SR/examples.md", "md_atom_type": "TABLE_ROW", "md_parent_section": "§SR.2 [Example 2]", "md_verbatim": "| 4 | CC-001 | EX | 101 | 4 | Dog Epi IgG | 1 | mg | CUTANEOUS | FOREARM |", "score": 1.0, "match_basis": "verbatim_token+domain_route:SR"}, {"md_atom_id": "md_dmSR_ex_a041", "md_file": "knowledge_base/domains/SR/examples.md", "md_atom_type": "TABLE_ROW", "md_parent_section": "§SR.2 [Example 2]", "md_verbatim": "| 5 | CC-001 | EX | 101 | 5 | Dog Epi IgG | 1.5 | mg | CUTANEOUS | FOREARM |", "score": 1.0, "match_basis": "verbatim_token+domain_route:SR"}], "candidate_count": 5, "zero_candidate": false}
{"pdf_atom_id": "ig34_p0379_a023", "pdf_atom_type": "TABLE_ROW", "pdf_source": "SDTMIG_v3.4", "pdf_page": 379, "pdf_parent_section": "SR – Examples", "pdf_verbatim": "| 6 | CC-001 | EX | 101 | 6 | Dog Epi IgG | 2 | mg | CUTANEOUS | FOREARM |", "figure_ref": null, "candidates": [{"md_atom_id": "md_dmSR_ex_a037", "md_file": "knowledge_base/domains/SR/examples.md", "md_atom_type": "TABLE_ROW", "md_parent_section": "§SR.2 [Example 2]", "md_verbatim": "| 1 | CC-001 | EX | 101 | 1 | Dog Epi IgG | 0 | mg | CUTANEOUS | FOREARM |", "score": 1.0, "match_basis": "verbatim_token+domain_route:SR"}, {"md_atom_id": "md_dmSR_ex_a038", "md_file": "knowledge_base/domains/SR/examples.md", "md_atom_type": "TABLE_ROW", "md_parent_section": "§SR.2 [Example 2]", "md_verbatim": "| 2 | CC-001 | EX | 101 | 2 | Dog Epi IgG | 0.1 | mg | CUTANEOUS | FOREARM |", "score": 1.0, "match_basis": "verbatim_token+domain_route:SR"}, {"md_atom_id": "md_dmSR_ex_a039", "md_file": "knowledge_base/domains/SR/examples.md", "md_atom_type": "TABLE_ROW", "md_parent_section": "§SR.2 [Example 2]", "md_verbatim": "| 3 | CC-001 | EX | 101 | 3 | Dog Epi IgG | 0.5 | mg | CUTANEOUS | FOREARM |", "score": 1.0, "match_basis": "verbatim_token+domain_route:SR"}, {"md_atom_id": "md_dmSR_ex_a040", "md_file": "knowledge_base/domains/SR/examples.md", "md_atom_type": "TABLE_ROW", "md_parent_section": "§SR.2 [Example 2]", "md_verbatim": "| 4 | CC-001 | EX | 101 | 4 | Dog Epi IgG | 1 | mg | CUTANEOUS | FOREARM |", "score": 1.0, "match_basis": "verbatim_token+domain_route:SR"}, {"md_atom_id": "md_dmSR_ex_a041", "md_file": "knowledge_base/domains/SR/examples.md", "md_atom_type": "TABLE_ROW", "md_parent_section": "§SR.2 [Example 2]", "md_verbatim": "| 5 | CC-001 | EX | 101 | 5 | Dog Epi IgG | 1.5 | mg | CUTANEOUS | FOREARM |", "score": 1.0, "match_basis": "verbatim_token+domain_route:SR"}], "candidate_count": 5, "zero_candidate": false}
{"pdf_atom_id": "ig34_p0380_a001", "pdf_atom_type": "SENTENCE", "pdf_source": "SDTMIG_v3.4", "pdf_page": 380, "pdf_parent_section": "SR – Examples", "pdf_verbatim": "The relationships between SR and EX records are represented at the record level in RELREC.", "figure_ref": null, "candidates": [{"md_atom_id": "md_dmSR_ex_a043", "md_file": "knowledge_base/domains/SR/examples.md", "md_atom_type": "SENTENCE", "md_parent_section": "§SR.2 [Example 2]", "md_verbatim": "The relationships between SR and EX records are represented at the record level in RELREC.", "score": 1.0, "match_basis": "verbatim_token+domain_route:SR"}, {"md_atom_id": "md_dmSR_ex_a078", "md_file": "knowledge_base/domains/SR/examples.md", "md_atom_type": "SENTENCE", "md_parent_section": "§SR.3 [Example 3]", "md_verbatim": "Relationships between SR and AG records were shown in RELREC.", "score": 0.7349, "match_basis": "verbatim_token+domain_route:SR"}, {"md_atom_id": "md_dmSR_ex_a006", "md_file": "knowledge_base/domains/SR/examples.md", "md_atom_type": "SENTENCE", "md_parent_section": "§SR.1 [Example 1]", "md_verbatim": "All rows show a specific location on the back (e.g., SITE1), represented in FOCID.", "score": 0.53, "match_basis": "verbatim_token+domain_route:SR"}, {"md_atom_id": "md_dmSR_ex_a074", "md_file": "knowledge_base/domains/SR/examples.md", "md_atom_type": "SENTENCE", "md_parent_section": "§SR.3 [Example 3]", "md_verbatim": "The tuberculin PPD skin test administration was represented in the AG domain.", "score": 0.52, "match_basis": "verbatim_token+domain_route:SR"}, {"md_atom_id": "md_dmSR_ex_a018", "md_file": "knowledge_base/domains/SR/examples.md", "md_atom_type": "SENTENCE", "md_parent_section": "§SR.2 [Example 2]", "md_verbatim": "In this example, the study product dose, Dog Epi IgG, was administered at increasing concentrations. The size of the wheal is being measured (reaction to Dog Epi IgG) to evaluate the efficacy of the Dog Epi IgG extract versus a negative control (NC) and a positive control (PC) in the testing of allergenic extracts. While SROBJ is populated with information about the substance administered, full details regarding the study product would be submitted in the Exposure (EX) dataset. The relationship between SR records and EX records would be represented using RELREC.", "score": 0.5, "match_basis": "verbatim_token+domain_route:SR"}], "candidate_count": 5, "zero_candidate": false}
{"pdf_atom_id": "ig34_p0380_a002", "pdf_atom_type": "CODE_LITERAL", "pdf_source": "SDTMIG_v3.4", "pdf_page": 380, "pdf_parent_section": "SR – Examples", "pdf_verbatim": "relrec.xpt", "figure_ref": null, "candidates": [{"md_atom_id": "md_dmSR_ex_a044", "md_file": "knowledge_base/domains/SR/examples.md", "md_atom_type": "SENTENCE", "md_parent_section": "§SR.2 [Example 2]", "md_verbatim": "**relrec.xpt**", "score": 0.79, "match_basis": "verbatim_token+domain_route:SR"}, {"md_atom_id": "md_dmSR_ex_a079", "md_file": "knowledge_base/domains/SR/examples.md", "md_atom_type": "SENTENCE", "md_parent_section": "§SR.3 [Example 3]", "md_verbatim": "**relrec.xpt**", "score": 0.79, "match_basis": "verbatim_token+domain_route:SR"}, {"md_atom_id": "md_dmSR_ex_a007", "md_file": "knowledge_base/domains/SR/examples.md", "md_atom_type": "SENTENCE", "md_parent_section": "§SR.1 [Example 1]", "md_verbatim": "**sr.xpt**", "score": 0.31, "match_basis": "verbatim_token+domain_route:SR"}, {"md_atom_id": "md_dmSR_ex_a021", "md_file": "knowledge_base/domains/SR/examples.md", "md_atom_type": "SENTENCE", "md_parent_section": "§SR.2 [Example 2]", "md_verbatim": "**sr.xpt**", "score": 0.31, "match_basis": "verbatim_token+domain_route:SR"}, {"md_atom_id": "md_dmSR_ex_a035", "md_file": "knowledge_base/domains/SR/examples.md", "md_atom_type": "SENTENCE", "md_parent_section": "§SR.2 [Example 2]", "md_verbatim": "**ex.xpt**", "score": 0.31, "match_basis": "verbatim_token+domain_route:SR"}, {"md_atom_id": "md_dmSR_ex_a069", "md_file": "knowledge_base/domains/SR/examples.md", "md_atom_type": "SENTENCE", "md_parent_section": "§SR.3 [Example 3]", "md_verbatim": "**sr.xpt**", "score": 0.31, "match_basis": "verbatim_token+domain_route:SR"}, {"md_atom_id": "md_dmSR_ex_a075", "md_file": "knowledge_base/domains/SR/examples.md", "md_atom_type": "SENTENCE", "md_parent_section": "§SR.3 [Example 3]", "md_verbatim": "**ag.xpt**", "score": 0.31, "match_basis": "verbatim_token+domain_route:SR"}, {"md_atom_id": "md_dmSR_ex_a078", "md_file": "knowledge_base/domains/SR/examples.md", "md_atom_type": "SENTENCE", "md_parent_section": "§SR.3 [Example 3]", "md_verbatim": "Relationships between SR and AG records were shown in RELREC.", "score": 0.27, "match_basis": "verbatim_token+domain_route:SR"}, {"md_atom_id": "md_dmSR_ex_a043", "md_file": "knowledge_base/domains/SR/examples.md", "md_atom_type": "SENTENCE", "md_parent_section": "§SR.2 [Example 2]", "md_verbatim": "The relationships between SR and EX records are represented at the record level in RELREC.", "score": 0.2515, "match_basis": "verbatim_token+domain_route:SR"}, {"md_atom_id": "md_dmSR_ex_a045", "md_file": "knowledge_base/domains/SR/examples.md", "md_atom_type": "TABLE_HEADER", "md_parent_section": "§SR.2 [Example 2]", "md_verbatim": "| Row | STUDYID | RDOMAIN | USUBJID | IDVAR | IDVARVAL | RELTYPE | RELID |", "score": 0.2082, "match_basis": "verbatim_token+domain_route:SR"}], "candidate_count": 10, "zero_candidate": false}
{"pdf_atom_id": "ig34_p0380_a003", "pdf_atom_type": "TABLE_HEADER", "pdf_source": "SDTMIG_v3.4", "pdf_page": 380, "pdf_parent_section": "SR – Examples", "pdf_verbatim": "| Row | STUDYID | RDOMAIN | USUBJID | IDVAR | IDVARVAL | RELTYPE | RELID |", "figure_ref": null, "candidates": [{"md_atom_id": "md_dmSR_ex_a045", "md_file": "knowledge_base/domains/SR/examples.md", "md_atom_type": "TABLE_HEADER", "md_parent_section": "§SR.2 [Example 2]", "md_verbatim": "| Row | STUDYID | RDOMAIN | USUBJID | IDVAR | IDVARVAL | RELTYPE | RELID |", "score": 1.0, "match_basis": "verbatim_token+domain_route:SR"}, {"md_atom_id": "md_dmSR_ex_a080", "md_file": "knowledge_base/domains/SR/examples.md", "md_atom_type": "TABLE_HEADER", "md_parent_section": "§SR.3 [Example 3]", "md_verbatim": "| Row | STUDYID | RDOMAIN | USUBJID | IDVAR | IDVARVAL | RELTYPE | RELID |", "score": 1.0, "match_basis": "verbatim_token+domain_route:SR"}, {"md_atom_id": "md_dmSR_ex_a036", "md_file": "knowledge_base/domains/SR/examples.md", "md_atom_type": "TABLE_HEADER", "md_parent_section": "§SR.2 [Example 2]", "md_verbatim": "| Row | STUDYID | DOMAIN | USUBJID | EXSPID | EXTRT | EXDOSE | EXDOSEU | EXROUTE | EXLOC |", "score": 0.5837, "match_basis": "verbatim_token+domain_route:SR"}, {"md_atom_id": "md_dmSR_ex_a076", "md_file": "knowledge_base/domains/SR/examples.md", "md_atom_type": "TABLE_HEADER", "md_parent_section": "§SR.3 [Example 3]", "md_verbatim": "| Row | STUDYID | DOMAIN | USUBJID | AGSEQ | AGTRT | AGDOSE | AGDOSU | AGVAMT | AGVAMTU | VISITNUM | VISIT | EPOCH | AGSTDTC |", "score": 0.5552, "match_basis": "verbatim_token+domain_route:SR"}, {"md_atom_id": "md_dmSR_ex_a008", "md_file": "knowledge_base/domains/SR/examples.md", "md_atom_type": "TABLE_HEADER", "md_parent_section": "§SR.1 [Example 1]", "md_verbatim": "| Row | STUDYID | DOMAIN | USUBJID | FOCID | SRSEQ | SRTESTCD | SRTEST | SROBJ | SRORRES | SRORRESU | SRSTRESC | SRSTRESN | SRSTRESU | SRLOC | VISITNUM | VISIT |", "score": 0.5429, "match_basis": "verbatim_token+domain_route:SR"}], "candidate_count": 5, "zero_candidate": false}
{"pdf_atom_id": "ig34_p0380_a004", "pdf_atom_type": "TABLE_ROW", "pdf_source": "SDTMIG_v3.4", "pdf_page": 380, "pdf_parent_section": "SR – Examples", "pdf_verbatim": "| 1 | CC-001 | SR | CC-001-101 | SRSPID | 1 | | R1 |", "figure_ref": null, "candidates": [{"md_atom_id": "md_dmSR_ex_a046", "md_file": "knowledge_base/domains/SR/examples.md", "md_atom_type": "TABLE_ROW", "md_parent_section": "§SR.2 [Example 2]", "md_verbatim": "| 1 | CC-001 | SR | CC-001-101 | SRSPID | 1 | | R1 |", "score": 1.0, "match_basis": "verbatim_token+domain_route:SR"}, {"md_atom_id": "md_dmSR_ex_a048", "md_file": "knowledge_base/domains/SR/examples.md", "md_atom_type": "TABLE_ROW", "md_parent_section": "§SR.2 [Example 2]", "md_verbatim": "| 3 | CC-001 | SR | CC-001-101 | SRSPID | 7 | | R1 |", "score": 1.0, "match_basis": "verbatim_token+domain_route:SR"}, {"md_atom_id": "md_dmSR_ex_a049", "md_file": "knowledge_base/domains/SR/examples.md", "md_atom_type": "TABLE_ROW", "md_parent_section": "§SR.2 [Example 2]", "md_verbatim": "| 4 | CC-001 | SR | CC-001-101 | SRSPID | 2 | | R2 |", "score": 1.0, "match_basis": "verbatim_token+domain_route:SR"}, {"md_atom_id": "md_dmSR_ex_a051", "md_file": "knowledge_base/domains/SR/examples.md", "md_atom_type": "TABLE_ROW", "md_parent_section": "§SR.2 [Example 2]", "md_verbatim": "| 6 | CC-001 | SR | CC-001-101 | SRSPID | 8 | | R2 |", "score": 1.0, "match_basis": "verbatim_token+domain_route:SR"}, {"md_atom_id": "md_dmSR_ex_a052", "md_file": "knowledge_base/domains/SR/examples.md", "md_atom_type": "TABLE_ROW", "md_parent_section": "§SR.2 [Example 2]", "md_verbatim": "| 7 | CC-001 | SR | CC-001-101 | SRSPID | 3 | | R3 |", "score": 1.0, "match_basis": "verbatim_token+domain_route:SR"}], "candidate_count": 5, "zero_candidate": false}
{"pdf_atom_id": "ig34_p0380_a005", "pdf_atom_type": "TABLE_ROW", "pdf_source": "SDTMIG_v3.4", "pdf_page": 380, "pdf_parent_section": "SR – Examples", "pdf_verbatim": "| 2 | CC-001 | SR | CC-001-101 | SRSPID | 7 | | R1 |", "figure_ref": null, "candidates": [{"md_atom_id": "md_dmSR_ex_a046", "md_file": "knowledge_base/domains/SR/examples.md", "md_atom_type": "TABLE_ROW", "md_parent_section": "§SR.2 [Example 2]", "md_verbatim": "| 1 | CC-001 | SR | CC-001-101 | SRSPID | 1 | | R1 |", "score": 1.0, "match_basis": "verbatim_token+domain_route:SR"}, {"md_atom_id": "md_dmSR_ex_a048", "md_file": "knowledge_base/domains/SR/examples.md", "md_atom_type": "TABLE_ROW", "md_parent_section": "§SR.2 [Example 2]", "md_verbatim": "| 3 | CC-001 | SR | CC-001-101 | SRSPID | 7 | | R1 |", "score": 1.0, "match_basis": "verbatim_token+domain_route:SR"}, {"md_atom_id": "md_dmSR_ex_a049", "md_file": "knowledge_base/domains/SR/examples.md", "md_atom_type": "TABLE_ROW", "md_parent_section": "§SR.2 [Example 2]", "md_verbatim": "| 4 | CC-001 | SR | CC-001-101 | SRSPID | 2 | | R2 |", "score": 1.0, "match_basis": "verbatim_token+domain_route:SR"}, {"md_atom_id": "md_dmSR_ex_a051", "md_file": "knowledge_base/domains/SR/examples.md", "md_atom_type": "TABLE_ROW", "md_parent_section": "§SR.2 [Example 2]", "md_verbatim": "| 6 | CC-001 | SR | CC-001-101 | SRSPID | 8 | | R2 |", "score": 1.0, "match_basis": "verbatim_token+domain_route:SR"}, {"md_atom_id": "md_dmSR_ex_a052", "md_file": "knowledge_base/domains/SR/examples.md", "md_atom_type": "TABLE_ROW", "md_parent_section": "§SR.2 [Example 2]", "md_verbatim": "| 7 | CC-001 | SR | CC-001-101 | SRSPID | 3 | | R3 |", "score": 1.0, "match_basis": "verbatim_token+domain_route:SR"}], "candidate_count": 5, "zero_candidate": false}
{"pdf_atom_id": "ig34_p0380_a006", "pdf_atom_type": "TABLE_ROW", "pdf_source": "SDTMIG_v3.4", "pdf_page": 380, "pdf_parent_section": "SR – Examples", "pdf_verbatim": "| 3 | CC-001 | EX | CC-001-101 | EXSPID | 1 | | R1 |", "figure_ref": null, "candidates": [{"md_atom_id": "md_dmSR_ex_a047", "md_file": "knowledge_base/domains/SR/examples.md", "md_atom_type": "TABLE_ROW", "md_parent_section": "§SR.2 [Example 2]", "md_verbatim": "| 2 | CC-001 | EX | CC-001-101 | EXSPID | 1 | | R1 |", "score": 1.0, "match_basis": "verbatim_token+domain_route:SR"}, {"md_atom_id": "md_dmSR_ex_a050", "md_file": "knowledge_base/domains/SR/examples.md", "md_atom_type": "TABLE_ROW", "md_parent_section": "§SR.2 [Example 2]", "md_verbatim": "| 5 | CC-001 | EX | CC-001-101 | EXSPID | 2 | | R2 |", "score": 1.0, "match_basis": "verbatim_token+domain_route:SR"}, {"md_atom_id": "md_dmSR_ex_a053", "md_file": "knowledge_base/domains/SR/examples.md", "md_atom_type": "TABLE_ROW", "md_parent_section": "§SR.2 [Example 2]", "md_verbatim": "| 8 | CC-001 | EX | CC-001-101 | EXSPID | 3 | | R3 |", "score": 1.0, "match_basis": "verbatim_token+domain_route:SR"}, {"md_atom_id": "md_dmSR_ex_a057", "md_file": "knowledge_base/domains/SR/examples.md", "md_atom_type": "TABLE_ROW", "md_parent_section": "§SR.2 [Example 2]", "md_verbatim": "| 12 | CC-001 | EX | CC-001-101 | EXSPID | 4 | | R4 |", "score": 1.0, "match_basis": "verbatim_token+domain_route:SR"}, {"md_atom_id": "md_dmSR_ex_a060", "md_file": "knowledge_base/domains/SR/examples.md", "md_atom_type": "TABLE_ROW", "md_parent_section": "§SR.2 [Example 2]", "md_verbatim": "| 15 | CC-001 | EX | CC-001-101 | EXSPID | 5 | | R5 |", "score": 1.0, "match_basis": "verbatim_token+domain_route:SR"}], "candidate_count": 5, "zero_candidate": false}
{"pdf_atom_id": "ig34_p0380_a007", "pdf_atom_type": "TABLE_ROW", "pdf_source": "SDTMIG_v3.4", "pdf_page": 380, "pdf_parent_section": "SR – Examples", "pdf_verbatim": "| 4 | CC-001 | SR | CC-001-101 | SRSPID | 2 | | R2 |", "figure_ref": null, "candidates": [{"md_atom_id": "md_dmSR_ex_a046", "md_file": "knowledge_base/domains/SR/examples.md", "md_atom_type": "TABLE_ROW", "md_parent_section": "§SR.2 [Example 2]", "md_verbatim": "| 1 | CC-001 | SR | CC-001-101 | SRSPID | 1 | | R1 |", "score": 1.0, "match_basis": "verbatim_token+domain_route:SR"}, {"md_atom_id": "md_dmSR_ex_a048", "md_file": "knowledge_base/domains/SR/examples.md", "md_atom_type": "TABLE_ROW", "md_parent_section": "§SR.2 [Example 2]", "md_verbatim": "| 3 | CC-001 | SR | CC-001-101 | SRSPID | 7 | | R1 |", "score": 1.0, "match_basis": "verbatim_token+domain_route:SR"}, {"md_atom_id": "md_dmSR_ex_a049", "md_file": "knowledge_base/domains/SR/examples.md", "md_atom_type": "TABLE_ROW", "md_parent_section": "§SR.2 [Example 2]", "md_verbatim": "| 4 | CC-001 | SR | CC-001-101 | SRSPID | 2 | | R2 |", "score": 1.0, "match_basis": "verbatim_token+domain_route:SR"}, {"md_atom_id": "md_dmSR_ex_a051", "md_file": "knowledge_base/domains/SR/examples.md", "md_atom_type": "TABLE_ROW", "md_parent_section": "§SR.2 [Example 2]", "md_verbatim": "| 6 | CC-001 | SR | CC-001-101 | SRSPID | 8 | | R2 |", "score": 1.0, "match_basis": "verbatim_token+domain_route:SR"}, {"md_atom_id": "md_dmSR_ex_a052", "md_file": "knowledge_base/domains/SR/examples.md", "md_atom_type": "TABLE_ROW", "md_parent_section": "§SR.2 [Example 2]", "md_verbatim": "| 7 | CC-001 | SR | CC-001-101 | SRSPID | 3 | | R3 |", "score": 1.0, "match_basis": "verbatim_token+domain_route:SR"}], "candidate_count": 5, "zero_candidate": false}
{"pdf_atom_id": "ig34_p0380_a008", "pdf_atom_type": "TABLE_ROW", "pdf_source": "SDTMIG_v3.4", "pdf_page": 380, "pdf_parent_section": "SR – Examples", "pdf_verbatim": "| 5 | CC-001 | SR | CC-001-101 | SRSPID | 8 | | R2 |", "figure_ref": null, "candidates": [{"md_atom_id": "md_dmSR_ex_a046", "md_file": "knowledge_base/domains/SR/examples.md", "md_atom_type": "TABLE_ROW", "md_parent_section": "§SR.2 [Example 2]", "md_verbatim": "| 1 | CC-001 | SR | CC-001-101 | SRSPID | 1 | | R1 |", "score": 1.0, "match_basis": "verbatim_token+domain_route:SR"}, {"md_atom_id": "md_dmSR_ex_a048", "md_file": "knowledge_base/domains/SR/examples.md", "md_atom_type": "TABLE_ROW", "md_parent_section": "§SR.2 [Example 2]", "md_verbatim": "| 3 | CC-001 | SR | CC-001-101 | SRSPID | 7 | | R1 |", "score": 1.0, "match_basis": "verbatim_token+domain_route:SR"}, {"md_atom_id": "md_dmSR_ex_a049", "md_file": "knowledge_base/domains/SR/examples.md", "md_atom_type": "TABLE_ROW", "md_parent_section": "§SR.2 [Example 2]", "md_verbatim": "| 4 | CC-001 | SR | CC-001-101 | SRSPID | 2 | | R2 |", "score": 1.0, "match_basis": "verbatim_token+domain_route:SR"}, {"md_atom_id": "md_dmSR_ex_a051", "md_file": "knowledge_base/domains/SR/examples.md", "md_atom_type": "TABLE_ROW", "md_parent_section": "§SR.2 [Example 2]", "md_verbatim": "| 6 | CC-001 | SR | CC-001-101 | SRSPID | 8 | | R2 |", "score": 1.0, "match_basis": "verbatim_token+domain_route:SR"}, {"md_atom_id": "md_dmSR_ex_a052", "md_file": "knowledge_base/domains/SR/examples.md", "md_atom_type": "TABLE_ROW", "md_parent_section": "§SR.2 [Example 2]", "md_verbatim": "| 7 | CC-001 | SR | CC-001-101 | SRSPID | 3 | | R3 |", "score": 1.0, "match_basis": "verbatim_token+domain_route:SR"}], "candidate_count": 5, "zero_candidate": false}
{"pdf_atom_id": "ig34_p0380_a009", "pdf_atom_type": "TABLE_ROW", "pdf_source": "SDTMIG_v3.4", "pdf_page": 380, "pdf_parent_section": "SR – Examples", "pdf_verbatim": "| 6 | CC-001 | EX | CC-001-101 | EXSPID | 2 | | R2 |", "figure_ref": null, "candidates": [{"md_atom_id": "md_dmSR_ex_a047", "md_file": "knowledge_base/domains/SR/examples.md", "md_atom_type": "TABLE_ROW", "md_parent_section": "§SR.2 [Example 2]", "md_verbatim": "| 2 | CC-001 | EX | CC-001-101 | EXSPID | 1 | | R1 |", "score": 1.0, "match_basis": "verbatim_token+domain_route:SR"}, {"md_atom_id": "md_dmSR_ex_a050", "md_file": "knowledge_base/domains/SR/examples.md", "md_atom_type": "TABLE_ROW", "md_parent_section": "§SR.2 [Example 2]", "md_verbatim": "| 5 | CC-001 | EX | CC-001-101 | EXSPID | 2 | | R2 |", "score": 1.0, "match_basis": "verbatim_token+domain_route:SR"}, {"md_atom_id": "md_dmSR_ex_a053", "md_file": "knowledge_base/domains/SR/examples.md", "md_atom_type": "TABLE_ROW", "md_parent_section": "§SR.2 [Example 2]", "md_verbatim": "| 8 | CC-001 | EX | CC-001-101 | EXSPID | 3 | | R3 |", "score": 1.0, "match_basis": "verbatim_token+domain_route:SR"}, {"md_atom_id": "md_dmSR_ex_a057", "md_file": "knowledge_base/domains/SR/examples.md", "md_atom_type": "TABLE_ROW", "md_parent_section": "§SR.2 [Example 2]", "md_verbatim": "| 12 | CC-001 | EX | CC-001-101 | EXSPID | 4 | | R4 |", "score": 1.0, "match_basis": "verbatim_token+domain_route:SR"}, {"md_atom_id": "md_dmSR_ex_a060", "md_file": "knowledge_base/domains/SR/examples.md", "md_atom_type": "TABLE_ROW", "md_parent_section": "§SR.2 [Example 2]", "md_verbatim": "| 15 | CC-001 | EX | CC-001-101 | EXSPID | 5 | | R5 |", "score": 1.0, "match_basis": "verbatim_token+domain_route:SR"}], "candidate_count": 5, "zero_candidate": false}
{"pdf_atom_id": "ig34_p0380_a010", "pdf_atom_type": "TABLE_ROW", "pdf_source": "SDTMIG_v3.4", "pdf_page": 380, "pdf_parent_section": "SR – Examples", "pdf_verbatim": "| 7 | CC-001 | SR | CC-001-101 | SRSPID | 3 | | R3 |", "figure_ref": null, "candidates": [{"md_atom_id": "md_dmSR_ex_a046", "md_file": "knowledge_base/domains/SR/examples.md", "md_atom_type": "TABLE_ROW", "md_parent_section": "§SR.2 [Example 2]", "md_verbatim": "| 1 | CC-001 | SR | CC-001-101 | SRSPID | 1 | | R1 |", "score": 1.0, "match_basis": "verbatim_token+domain_route:SR"}, {"md_atom_id": "md_dmSR_ex_a048", "md_file": "knowledge_base/domains/SR/examples.md", "md_atom_type": "TABLE_ROW", "md_parent_section": "§SR.2 [Example 2]", "md_verbatim": "| 3 | CC-001 | SR | CC-001-101 | SRSPID | 7 | | R1 |", "score": 1.0, "match_basis": "verbatim_token+domain_route:SR"}, {"md_atom_id": "md_dmSR_ex_a049", "md_file": "knowledge_base/domains/SR/examples.md", "md_atom_type": "TABLE_ROW", "md_parent_section": "§SR.2 [Example 2]", "md_verbatim": "| 4 | CC-001 | SR | CC-001-101 | SRSPID | 2 | | R2 |", "score": 1.0, "match_basis": "verbatim_token+domain_route:SR"}, {"md_atom_id": "md_dmSR_ex_a051", "md_file": "knowledge_base/domains/SR/examples.md", "md_atom_type": "TABLE_ROW", "md_parent_section": "§SR.2 [Example 2]", "md_verbatim": "| 6 | CC-001 | SR | CC-001-101 | SRSPID | 8 | | R2 |", "score": 1.0, "match_basis": "verbatim_token+domain_route:SR"}, {"md_atom_id": "md_dmSR_ex_a052", "md_file": "knowledge_base/domains/SR/examples.md", "md_atom_type": "TABLE_ROW", "md_parent_section": "§SR.2 [Example 2]", "md_verbatim": "| 7 | CC-001 | SR | CC-001-101 | SRSPID | 3 | | R3 |", "score": 1.0, "match_basis": "verbatim_token+domain_route:SR"}], "candidate_count": 5, "zero_candidate": false}
{"pdf_atom_id": "ig34_p0380_a011", "pdf_atom_type": "TABLE_ROW", "pdf_source": "SDTMIG_v3.4", "pdf_page": 380, "pdf_parent_section": "SR – Examples", "pdf_verbatim": "| 8 | CC-001 | SR | CC-001-101 | SRSPID | 9 | | R3 |", "figure_ref": null, "candidates": [{"md_atom_id": "md_dmSR_ex_a046", "md_file": "knowledge_base/domains/SR/examples.md", "md_atom_type": "TABLE_ROW", "md_parent_section": "§SR.2 [Example 2]", "md_verbatim": "| 1 | CC-001 | SR | CC-001-101 | SRSPID | 1 | | R1 |", "score": 1.0, "match_basis": "verbatim_token+domain_route:SR"}, {"md_atom_id": "md_dmSR_ex_a048", "md_file": "knowledge_base/domains/SR/examples.md", "md_atom_type": "TABLE_ROW", "md_parent_section": "§SR.2 [Example 2]", "md_verbatim": "| 3 | CC-001 | SR | CC-001-101 | SRSPID | 7 | | R1 |", "score": 1.0, "match_basis": "verbatim_token+domain_route:SR"}, {"md_atom_id": "md_dmSR_ex_a049", "md_file": "knowledge_base/domains/SR/examples.md", "md_atom_type": "TABLE_ROW", "md_parent_section": "§SR.2 [Example 2]", "md_verbatim": "| 4 | CC-001 | SR | CC-001-101 | SRSPID | 2 | | R2 |", "score": 1.0, "match_basis": "verbatim_token+domain_route:SR"}, {"md_atom_id": "md_dmSR_ex_a051", "md_file": "knowledge_base/domains/SR/examples.md", "md_atom_type": "TABLE_ROW", "md_parent_section": "§SR.2 [Example 2]", "md_verbatim": "| 6 | CC-001 | SR | CC-001-101 | SRSPID | 8 | | R2 |", "score": 1.0, "match_basis": "verbatim_token+domain_route:SR"}, {"md_atom_id": "md_dmSR_ex_a052", "md_file": "knowledge_base/domains/SR/examples.md", "md_atom_type": "TABLE_ROW", "md_parent_section": "§SR.2 [Example 2]", "md_verbatim": "| 7 | CC-001 | SR | CC-001-101 | SRSPID | 3 | | R3 |", "score": 1.0, "match_basis": "verbatim_token+domain_route:SR"}], "candidate_count": 5, "zero_candidate": false}
{"pdf_atom_id": "ig34_p0380_a012", "pdf_atom_type": "TABLE_ROW", "pdf_source": "SDTMIG_v3.4", "pdf_page": 380, "pdf_parent_section": "SR – Examples", "pdf_verbatim": "| 9 | CC-001 | EX | CC-001-101 | EXSPID | 3 | | R3 |", "figure_ref": null, "candidates": [{"md_atom_id": "md_dmSR_ex_a047", "md_file": "knowledge_base/domains/SR/examples.md", "md_atom_type": "TABLE_ROW", "md_parent_section": "§SR.2 [Example 2]", "md_verbatim": "| 2 | CC-001 | EX | CC-001-101 | EXSPID | 1 | | R1 |", "score": 1.0, "match_basis": "verbatim_token+domain_route:SR"}, {"md_atom_id": "md_dmSR_ex_a050", "md_file": "knowledge_base/domains/SR/examples.md", "md_atom_type": "TABLE_ROW", "md_parent_section": "§SR.2 [Example 2]", "md_verbatim": "| 5 | CC-001 | EX | CC-001-101 | EXSPID | 2 | | R2 |", "score": 1.0, "match_basis": "verbatim_token+domain_route:SR"}, {"md_atom_id": "md_dmSR_ex_a053", "md_file": "knowledge_base/domains/SR/examples.md", "md_atom_type": "TABLE_ROW", "md_parent_section": "§SR.2 [Example 2]", "md_verbatim": "| 8 | CC-001 | EX | CC-001-101 | EXSPID | 3 | | R3 |", "score": 1.0, "match_basis": "verbatim_token+domain_route:SR"}, {"md_atom_id": "md_dmSR_ex_a057", "md_file": "knowledge_base/domains/SR/examples.md", "md_atom_type": "TABLE_ROW", "md_parent_section": "§SR.2 [Example 2]", "md_verbatim": "| 12 | CC-001 | EX | CC-001-101 | EXSPID | 4 | | R4 |", "score": 1.0, "match_basis": "verbatim_token+domain_route:SR"}, {"md_atom_id": "md_dmSR_ex_a060", "md_file": "knowledge_base/domains/SR/examples.md", "md_atom_type": "TABLE_ROW", "md_parent_section": "§SR.2 [Example 2]", "md_verbatim": "| 15 | CC-001 | EX | CC-001-101 | EXSPID | 5 | | R5 |", "score": 1.0, "match_basis": "verbatim_token+domain_route:SR"}], "candidate_count": 5, "zero_candidate": false}
{"pdf_atom_id": "ig34_p0380_a013", "pdf_atom_type": "TABLE_ROW", "pdf_source": "SDTMIG_v3.4", "pdf_page": 380, "pdf_parent_section": "SR – Examples", "pdf_verbatim": "| 10 | CC-001 | SR | CC-001-101 | SRSPID | 4 | | R4 |", "figure_ref": null, "candidates": [{"md_atom_id": "md_dmSR_ex_a046", "md_file": "knowledge_base/domains/SR/examples.md", "md_atom_type": "TABLE_ROW", "md_parent_section": "§SR.2 [Example 2]", "md_verbatim": "| 1 | CC-001 | SR | CC-001-101 | SRSPID | 1 | | R1 |", "score": 1.0, "match_basis": "verbatim_token+domain_route:SR"}, {"md_atom_id": "md_dmSR_ex_a048", "md_file": "knowledge_base/domains/SR/examples.md", "md_atom_type": "TABLE_ROW", "md_parent_section": "§SR.2 [Example 2]", "md_verbatim": "| 3 | CC-001 | SR | CC-001-101 | SRSPID | 7 | | R1 |", "score": 1.0, "match_basis": "verbatim_token+domain_route:SR"}, {"md_atom_id": "md_dmSR_ex_a049", "md_file": "knowledge_base/domains/SR/examples.md", "md_atom_type": "TABLE_ROW", "md_parent_section": "§SR.2 [Example 2]", "md_verbatim": "| 4 | CC-001 | SR | CC-001-101 | SRSPID | 2 | | R2 |", "score": 1.0, "match_basis": "verbatim_token+domain_route:SR"}, {"md_atom_id": "md_dmSR_ex_a051", "md_file": "knowledge_base/domains/SR/examples.md", "md_atom_type": "TABLE_ROW", "md_parent_section": "§SR.2 [Example 2]", "md_verbatim": "| 6 | CC-001 | SR | CC-001-101 | SRSPID | 8 | | R2 |", "score": 1.0, "match_basis": "verbatim_token+domain_route:SR"}, {"md_atom_id": "md_dmSR_ex_a052", "md_file": "knowledge_base/domains/SR/examples.md", "md_atom_type": "TABLE_ROW", "md_parent_section": "§SR.2 [Example 2]", "md_verbatim": "| 7 | CC-001 | SR | CC-001-101 | SRSPID | 3 | | R3 |", "score": 1.0, "match_basis": "verbatim_token+domain_route:SR"}], "candidate_count": 5, "zero_candidate": false}
{"pdf_atom_id": "ig34_p0380_a014", "pdf_atom_type": "TABLE_ROW", "pdf_source": "SDTMIG_v3.4", "pdf_page": 380, "pdf_parent_section": "SR – Examples", "pdf_verbatim": "| 11 | CC-001 | SR | CC-001-101 | SRSPID | 10 | | R4 |", "figure_ref": null, "candidates": [{"md_atom_id": "md_dmSR_ex_a046", "md_file": "knowledge_base/domains/SR/examples.md", "md_atom_type": "TABLE_ROW", "md_parent_section": "§SR.2 [Example 2]", "md_verbatim": "| 1 | CC-001 | SR | CC-001-101 | SRSPID | 1 | | R1 |", "score": 1.0, "match_basis": "verbatim_token+domain_route:SR"}, {"md_atom_id": "md_dmSR_ex_a048", "md_file": "knowledge_base/domains/SR/examples.md", "md_atom_type": "TABLE_ROW", "md_parent_section": "§SR.2 [Example 2]", "md_verbatim": "| 3 | CC-001 | SR | CC-001-101 | SRSPID | 7 | | R1 |", "score": 1.0, "match_basis": "verbatim_token+domain_route:SR"}, {"md_atom_id": "md_dmSR_ex_a049", "md_file": "knowledge_base/domains/SR/examples.md", "md_atom_type": "TABLE_ROW", "md_parent_section": "§SR.2 [Example 2]", "md_verbatim": "| 4 | CC-001 | SR | CC-001-101 | SRSPID | 2 | | R2 |", "score": 1.0, "match_basis": "verbatim_token+domain_route:SR"}, {"md_atom_id": "md_dmSR_ex_a051", "md_file": "knowledge_base/domains/SR/examples.md", "md_atom_type": "TABLE_ROW", "md_parent_section": "§SR.2 [Example 2]", "md_verbatim": "| 6 | CC-001 | SR | CC-001-101 | SRSPID | 8 | | R2 |", "score": 1.0, "match_basis": "verbatim_token+domain_route:SR"}, {"md_atom_id": "md_dmSR_ex_a052", "md_file": "knowledge_base/domains/SR/examples.md", "md_atom_type": "TABLE_ROW", "md_parent_section": "§SR.2 [Example 2]", "md_verbatim": "| 7 | CC-001 | SR | CC-001-101 | SRSPID | 3 | | R3 |", "score": 1.0, "match_basis": "verbatim_token+domain_route:SR"}], "candidate_count": 5, "zero_candidate": false}
{"pdf_atom_id": "ig34_p0380_a015", "pdf_atom_type": "TABLE_ROW", "pdf_source": "SDTMIG_v3.4", "pdf_page": 380, "pdf_parent_section": "SR – Examples", "pdf_verbatim": "| 12 | CC-001 | EX | CC-001-101 | EXSPID | 4 | | R4 |", "figure_ref": null, "candidates": [{"md_atom_id": "md_dmSR_ex_a047", "md_file": "knowledge_base/domains/SR/examples.md", "md_atom_type": "TABLE_ROW", "md_parent_section": "§SR.2 [Example 2]", "md_verbatim": "| 2 | CC-001 | EX | CC-001-101 | EXSPID | 1 | | R1 |", "score": 1.0, "match_basis": "verbatim_token+domain_route:SR"}, {"md_atom_id": "md_dmSR_ex_a050", "md_file": "knowledge_base/domains/SR/examples.md", "md_atom_type": "TABLE_ROW", "md_parent_section": "§SR.2 [Example 2]", "md_verbatim": "| 5 | CC-001 | EX | CC-001-101 | EXSPID | 2 | | R2 |", "score": 1.0, "match_basis": "verbatim_token+domain_route:SR"}, {"md_atom_id": "md_dmSR_ex_a053", "md_file": "knowledge_base/domains/SR/examples.md", "md_atom_type": "TABLE_ROW", "md_parent_section": "§SR.2 [Example 2]", "md_verbatim": "| 8 | CC-001 | EX | CC-001-101 | EXSPID | 3 | | R3 |", "score": 1.0, "match_basis": "verbatim_token+domain_route:SR"}, {"md_atom_id": "md_dmSR_ex_a057", "md_file": "knowledge_base/domains/SR/examples.md", "md_atom_type": "TABLE_ROW", "md_parent_section": "§SR.2 [Example 2]", "md_verbatim": "| 12 | CC-001 | EX | CC-001-101 | EXSPID | 4 | | R4 |", "score": 1.0, "match_basis": "verbatim_token+domain_route:SR"}, {"md_atom_id": "md_dmSR_ex_a060", "md_file": "knowledge_base/domains/SR/examples.md", "md_atom_type": "TABLE_ROW", "md_parent_section": "§SR.2 [Example 2]", "md_verbatim": "| 15 | CC-001 | EX | CC-001-101 | EXSPID | 5 | | R5 |", "score": 1.0, "match_basis": "verbatim_token+domain_route:SR"}], "candidate_count": 5, "zero_candidate": false}
{"pdf_atom_id": "ig34_p0380_a016", "pdf_atom_type": "TABLE_ROW", "pdf_source": "SDTMIG_v3.4", "pdf_page": 380, "pdf_parent_section": "SR – Examples", "pdf_verbatim": "| 13 | CC-001 | SR | CC-001-101 | SRSPID | 5 | | R5 |", "figure_ref": null, "candidates": [{"md_atom_id": "md_dmSR_ex_a046", "md_file": "knowledge_base/domains/SR/examples.md", "md_atom_type": "TABLE_ROW", "md_parent_section": "§SR.2 [Example 2]", "md_verbatim": "| 1 | CC-001 | SR | CC-001-101 | SRSPID | 1 | | R1 |", "score": 1.0, "match_basis": "verbatim_token+domain_route:SR"}, {"md_atom_id": "md_dmSR_ex_a048", "md_file": "knowledge_base/domains/SR/examples.md", "md_atom_type": "TABLE_ROW", "md_parent_section": "§SR.2 [Example 2]", "md_verbatim": "| 3 | CC-001 | SR | CC-001-101 | SRSPID | 7 | | R1 |", "score": 1.0, "match_basis": "verbatim_token+domain_route:SR"}, {"md_atom_id": "md_dmSR_ex_a049", "md_file": "knowledge_base/domains/SR/examples.md", "md_atom_type": "TABLE_ROW", "md_parent_section": "§SR.2 [Example 2]", "md_verbatim": "| 4 | CC-001 | SR | CC-001-101 | SRSPID | 2 | | R2 |", "score": 1.0, "match_basis": "verbatim_token+domain_route:SR"}, {"md_atom_id": "md_dmSR_ex_a051", "md_file": "knowledge_base/domains/SR/examples.md", "md_atom_type": "TABLE_ROW", "md_parent_section": "§SR.2 [Example 2]", "md_verbatim": "| 6 | CC-001 | SR | CC-001-101 | SRSPID | 8 | | R2 |", "score": 1.0, "match_basis": "verbatim_token+domain_route:SR"}, {"md_atom_id": "md_dmSR_ex_a052", "md_file": "knowledge_base/domains/SR/examples.md", "md_atom_type": "TABLE_ROW", "md_parent_section": "§SR.2 [Example 2]", "md_verbatim": "| 7 | CC-001 | SR | CC-001-101 | SRSPID | 3 | | R3 |", "score": 1.0, "match_basis": "verbatim_token+domain_route:SR"}], "candidate_count": 5, "zero_candidate": false}
{"pdf_atom_id": "ig34_p0380_a017", "pdf_atom_type": "TABLE_ROW", "pdf_source": "SDTMIG_v3.4", "pdf_page": 380, "pdf_parent_section": "SR – Examples", "pdf_verbatim": "| 14 | CC-001 | SR | CC-001-101 | SRSPID | 11 | | R5 |", "figure_ref": null, "candidates": [{"md_atom_id": "md_dmSR_ex_a046", "md_file": "knowledge_base/domains/SR/examples.md", "md_atom_type": "TABLE_ROW", "md_parent_section": "§SR.2 [Example 2]", "md_verbatim": "| 1 | CC-001 | SR | CC-001-101 | SRSPID | 1 | | R1 |", "score": 1.0, "match_basis": "verbatim_token+domain_route:SR"}, {"md_atom_id": "md_dmSR_ex_a048", "md_file": "knowledge_base/domains/SR/examples.md", "md_atom_type": "TABLE_ROW", "md_parent_section": "§SR.2 [Example 2]", "md_verbatim": "| 3 | CC-001 | SR | CC-001-101 | SRSPID | 7 | | R1 |", "score": 1.0, "match_basis": "verbatim_token+domain_route:SR"}, {"md_atom_id": "md_dmSR_ex_a049", "md_file": "knowledge_base/domains/SR/examples.md", "md_atom_type": "TABLE_ROW", "md_parent_section": "§SR.2 [Example 2]", "md_verbatim": "| 4 | CC-001 | SR | CC-001-101 | SRSPID | 2 | | R2 |", "score": 1.0, "match_basis": "verbatim_token+domain_route:SR"}, {"md_atom_id": "md_dmSR_ex_a051", "md_file": "knowledge_base/domains/SR/examples.md", "md_atom_type": "TABLE_ROW", "md_parent_section": "§SR.2 [Example 2]", "md_verbatim": "| 6 | CC-001 | SR | CC-001-101 | SRSPID | 8 | | R2 |", "score": 1.0, "match_basis": "verbatim_token+domain_route:SR"}, {"md_atom_id": "md_dmSR_ex_a052", "md_file": "knowledge_base/domains/SR/examples.md", "md_atom_type": "TABLE_ROW", "md_parent_section": "§SR.2 [Example 2]", "md_verbatim": "| 7 | CC-001 | SR | CC-001-101 | SRSPID | 3 | | R3 |", "score": 1.0, "match_basis": "verbatim_token+domain_route:SR"}], "candidate_count": 5, "zero_candidate": false}
{"pdf_atom_id": "ig34_p0380_a018", "pdf_atom_type": "TABLE_ROW", "pdf_source": "SDTMIG_v3.4", "pdf_page": 380, "pdf_parent_section": "SR – Examples", "pdf_verbatim": "| 15 | CC-001 | EX | CC-001-101 | EXSPID | 5 | | R5 |", "figure_ref": null, "candidates": [{"md_atom_id": "md_dmSR_ex_a047", "md_file": "knowledge_base/domains/SR/examples.md", "md_atom_type": "TABLE_ROW", "md_parent_section": "§SR.2 [Example 2]", "md_verbatim": "| 2 | CC-001 | EX | CC-001-101 | EXSPID | 1 | | R1 |", "score": 1.0, "match_basis": "verbatim_token+domain_route:SR"}, {"md_atom_id": "md_dmSR_ex_a050", "md_file": "knowledge_base/domains/SR/examples.md", "md_atom_type": "TABLE_ROW", "md_parent_section": "§SR.2 [Example 2]", "md_verbatim": "| 5 | CC-001 | EX | CC-001-101 | EXSPID | 2 | | R2 |", "score": 1.0, "match_basis": "verbatim_token+domain_route:SR"}, {"md_atom_id": "md_dmSR_ex_a053", "md_file": "knowledge_base/domains/SR/examples.md", "md_atom_type": "TABLE_ROW", "md_parent_section": "§SR.2 [Example 2]", "md_verbatim": "| 8 | CC-001 | EX | CC-001-101 | EXSPID | 3 | | R3 |", "score": 1.0, "match_basis": "verbatim_token+domain_route:SR"}, {"md_atom_id": "md_dmSR_ex_a057", "md_file": "knowledge_base/domains/SR/examples.md", "md_atom_type": "TABLE_ROW", "md_parent_section": "§SR.2 [Example 2]", "md_verbatim": "| 12 | CC-001 | EX | CC-001-101 | EXSPID | 4 | | R4 |", "score": 1.0, "match_basis": "verbatim_token+domain_route:SR"}, {"md_atom_id": "md_dmSR_ex_a060", "md_file": "knowledge_base/domains/SR/examples.md", "md_atom_type": "TABLE_ROW", "md_parent_section": "§SR.2 [Example 2]", "md_verbatim": "| 15 | CC-001 | EX | CC-001-101 | EXSPID | 5 | | R5 |", "score": 1.0, "match_basis": "verbatim_token+domain_route:SR"}], "candidate_count": 5, "zero_candidate": false}
{"pdf_atom_id": "ig34_p0380_a019", "pdf_atom_type": "TABLE_ROW", "pdf_source": "SDTMIG_v3.4", "pdf_page": 380, "pdf_parent_section": "SR – Examples", "pdf_verbatim": "| 16 | CC-001 | SR | CC-001-101 | SRSPID | 6 | | R6 |", "figure_ref": null, "candidates": [{"md_atom_id": "md_dmSR_ex_a046", "md_file": "knowledge_base/domains/SR/examples.md", "md_atom_type": "TABLE_ROW", "md_parent_section": "§SR.2 [Example 2]", "md_verbatim": "| 1 | CC-001 | SR | CC-001-101 | SRSPID | 1 | | R1 |", "score": 1.0, "match_basis": "verbatim_token+domain_route:SR"}, {"md_atom_id": "md_dmSR_ex_a048", "md_file": "knowledge_base/domains/SR/examples.md", "md_atom_type": "TABLE_ROW", "md_parent_section": "§SR.2 [Example 2]", "md_verbatim": "| 3 | CC-001 | SR | CC-001-101 | SRSPID | 7 | | R1 |", "score": 1.0, "match_basis": "verbatim_token+domain_route:SR"}, {"md_atom_id": "md_dmSR_ex_a049", "md_file": "knowledge_base/domains/SR/examples.md", "md_atom_type": "TABLE_ROW", "md_parent_section": "§SR.2 [Example 2]", "md_verbatim": "| 4 | CC-001 | SR | CC-001-101 | SRSPID | 2 | | R2 |", "score": 1.0, "match_basis": "verbatim_token+domain_route:SR"}, {"md_atom_id": "md_dmSR_ex_a051", "md_file": "knowledge_base/domains/SR/examples.md", "md_atom_type": "TABLE_ROW", "md_parent_section": "§SR.2 [Example 2]", "md_verbatim": "| 6 | CC-001 | SR | CC-001-101 | SRSPID | 8 | | R2 |", "score": 1.0, "match_basis": "verbatim_token+domain_route:SR"}, {"md_atom_id": "md_dmSR_ex_a052", "md_file": "knowledge_base/domains/SR/examples.md", "md_atom_type": "TABLE_ROW", "md_parent_section": "§SR.2 [Example 2]", "md_verbatim": "| 7 | CC-001 | SR | CC-001-101 | SRSPID | 3 | | R3 |", "score": 1.0, "match_basis": "verbatim_token+domain_route:SR"}], "candidate_count": 5, "zero_candidate": false}
{"pdf_atom_id": "ig34_p0380_a020", "pdf_atom_type": "TABLE_ROW", "pdf_source": "SDTMIG_v3.4", "pdf_page": 380, "pdf_parent_section": "SR – Examples", "pdf_verbatim": "| 17 | CC-001 | SR | CC-001-101 | SRSPID | 12 | | R6 |", "figure_ref": null, "candidates": [{"md_atom_id": "md_dmSR_ex_a046", "md_file": "knowledge_base/domains/SR/examples.md", "md_atom_type": "TABLE_ROW", "md_parent_section": "§SR.2 [Example 2]", "md_verbatim": "| 1 | CC-001 | SR | CC-001-101 | SRSPID | 1 | | R1 |", "score": 1.0, "match_basis": "verbatim_token+domain_route:SR"}, {"md_atom_id": "md_dmSR_ex_a048", "md_file": "knowledge_base/domains/SR/examples.md", "md_atom_type": "TABLE_ROW", "md_parent_section": "§SR.2 [Example 2]", "md_verbatim": "| 3 | CC-001 | SR | CC-001-101 | SRSPID | 7 | | R1 |", "score": 1.0, "match_basis": "verbatim_token+domain_route:SR"}, {"md_atom_id": "md_dmSR_ex_a049", "md_file": "knowledge_base/domains/SR/examples.md", "md_atom_type": "TABLE_ROW", "md_parent_section": "§SR.2 [Example 2]", "md_verbatim": "| 4 | CC-001 | SR | CC-001-101 | SRSPID | 2 | | R2 |", "score": 1.0, "match_basis": "verbatim_token+domain_route:SR"}, {"md_atom_id": "md_dmSR_ex_a051", "md_file": "knowledge_base/domains/SR/examples.md", "md_atom_type": "TABLE_ROW", "md_parent_section": "§SR.2 [Example 2]", "md_verbatim": "| 6 | CC-001 | SR | CC-001-101 | SRSPID | 8 | | R2 |", "score": 1.0, "match_basis": "verbatim_token+domain_route:SR"}, {"md_atom_id": "md_dmSR_ex_a052", "md_file": "knowledge_base/domains/SR/examples.md", "md_atom_type": "TABLE_ROW", "md_parent_section": "§SR.2 [Example 2]", "md_verbatim": "| 7 | CC-001 | SR | CC-001-101 | SRSPID | 3 | | R3 |", "score": 1.0, "match_basis": "verbatim_token+domain_route:SR"}], "candidate_count": 5, "zero_candidate": false}
{"pdf_atom_id": "ig34_p0380_a021", "pdf_atom_type": "TABLE_ROW", "pdf_source": "SDTMIG_v3.4", "pdf_page": 380, "pdf_parent_section": "SR – Examples", "pdf_verbatim": "| 18 | CC-001 | EX | CC-001-101 | EXSPID | 6 | | R6 |", "figure_ref": null, "candidates": [{"md_atom_id": "md_dmSR_ex_a047", "md_file": "knowledge_base/domains/SR/examples.md", "md_atom_type": "TABLE_ROW", "md_parent_section": "§SR.2 [Example 2]", "md_verbatim": "| 2 | CC-001 | EX | CC-001-101 | EXSPID | 1 | | R1 |", "score": 1.0, "match_basis": "verbatim_token+domain_route:SR"}, {"md_atom_id": "md_dmSR_ex_a050", "md_file": "knowledge_base/domains/SR/examples.md", "md_atom_type": "TABLE_ROW", "md_parent_section": "§SR.2 [Example 2]", "md_verbatim": "| 5 | CC-001 | EX | CC-001-101 | EXSPID | 2 | | R2 |", "score": 1.0, "match_basis": "verbatim_token+domain_route:SR"}, {"md_atom_id": "md_dmSR_ex_a053", "md_file": "knowledge_base/domains/SR/examples.md", "md_atom_type": "TABLE_ROW", "md_parent_section": "§SR.2 [Example 2]", "md_verbatim": "| 8 | CC-001 | EX | CC-001-101 | EXSPID | 3 | | R3 |", "score": 1.0, "match_basis": "verbatim_token+domain_route:SR"}, {"md_atom_id": "md_dmSR_ex_a057", "md_file": "knowledge_base/domains/SR/examples.md", "md_atom_type": "TABLE_ROW", "md_parent_section": "§SR.2 [Example 2]", "md_verbatim": "| 12 | CC-001 | EX | CC-001-101 | EXSPID | 4 | | R4 |", "score": 1.0, "match_basis": "verbatim_token+domain_route:SR"}, {"md_atom_id": "md_dmSR_ex_a060", "md_file": "knowledge_base/domains/SR/examples.md", "md_atom_type": "TABLE_ROW", "md_parent_section": "§SR.2 [Example 2]", "md_verbatim": "| 15 | CC-001 | EX | CC-001-101 | EXSPID | 5 | | R5 |", "score": 1.0, "match_basis": "verbatim_token+domain_route:SR"}], "candidate_count": 5, "zero_candidate": false}
{"pdf_atom_id": "ig34_p0380_a022", "pdf_atom_type": "HEADING", "pdf_source": "SDTMIG_v3.4", "pdf_page": 380, "pdf_parent_section": "SR – Examples", "pdf_verbatim": "Example 3", "figure_ref": null, "candidates": [{"md_atom_id": "md_dmSR_ex_a002", "md_file": "knowledge_base/domains/SR/examples.md", "md_atom_type": "HEADING", "md_parent_section": "§SR [SR — Examples]", "md_verbatim": "## Example 1", "score": 1.0, "match_basis": "verbatim_token+domain_route:SR"}, {"md_atom_id": "md_dmSR_ex_a017", "md_file": "knowledge_base/domains/SR/examples.md", "md_atom_type": "HEADING", "md_parent_section": "§SR [SR — Examples]", "md_verbatim": "## Example 2", "score": 1.0, "match_basis": "verbatim_token+domain_route:SR"}, {"md_atom_id": "md_dmSR_ex_a064", "md_file": "knowledge_base/domains/SR/examples.md", "md_atom_type": "HEADING", "md_parent_section": "§SR [SR — Examples]", "md_verbatim": "## Example 3", "score": 1.0, "match_basis": "verbatim_token+domain_route:SR"}, {"md_atom_id": "md_dmSR_ex_a001", "md_file": "knowledge_base/domains/SR/examples.md", "md_atom_type": "HEADING", "md_parent_section": "§SR [SR — Examples]", "md_verbatim": "# SR — Examples", "score": 0.9, "match_basis": "verbatim_token+domain_route:SR"}, {"md_atom_id": "md_dmSR_assn_a001", "md_file": "knowledge_base/domains/SR/assumptions.md", "md_atom_type": "HEADING", "md_parent_section": "§SR [SR — Assumptions]", "md_verbatim": "# SR — Assumptions", "score": 0.4, "match_basis": "verbatim_token+domain_route:SR"}], "candidate_count": 5, "zero_candidate": false}
{"pdf_atom_id": "ig34_p0380_a023", "pdf_atom_type": "SENTENCE", "pdf_source": "SDTMIG_v3.4", "pdf_page": 380, "pdf_parent_section": "SR – Examples", "pdf_verbatim": "This example shows the results from a tuberculin purified protein derivative (PPD) skin test administered using the Mantoux technique. The subject was given an intradermal injection of standard tuberculin PPD (i.e., PPD-S) in the left forearm at visit 1; see the Procedure Agents (AG) record below. At visit 2, the induration diameter and presence of blistering were recorded. Because the tuberculin PPD skin test cannot be interpreted using the induration diameter and blistering alone (e.g., risk for being infected with TB must also be considered), the interpretation of the skin test resides in its own row. The time point variables show that the planned time for reading the test was 48 hours after Mantoux administration. However, a comparison of datetime values in SRDTC and SRRFTDTC shows that in this case the test was read at 53 hours and 56 minutes after Mantoux administration.", "figure_ref": null, "candidates": [{"md_atom_id": "md_dmSR_ex_a065", "md_file": "knowledge_base/domains/SR/examples.md", "md_atom_type": "SENTENCE", "md_parent_section": "§SR.3 [Example 3]", "md_verbatim": "This example shows the results from a tuberculin purified protein derivative (PPD) skin test administered using the Mantoux technique. The subject was given an intradermal injection of standard PPD (i.e., PPD-S) in the left forearm at visit 1; see the Procedure Agents (AG) record below. At visit 2, the induration diameter and presence of blistering were recorded. Because the tuberculin PPD skin test cannot be interpreted using the induration diameter and blistering alone (e.g., risk for being infected with TB must also be considered), the interpretation of the skin test resides in its own row. Time point variables show that the planned time for reading the test was 48 hours after Mantoux administration. However, a comparison of datetime values in SRDTC and SRRFTDTC shows that in this case the test was read at 53 hours and 56 minutes after Mantoux administration.", "score": 1.0, "match_basis": "verbatim_token+domain_route:SR"}, {"md_atom_id": "md_dmSR_ex_a018", "md_file": "knowledge_base/domains/SR/examples.md", "md_atom_type": "SENTENCE", "md_parent_section": "§SR.2 [Example 2]", "md_verbatim": "In this example, the study product dose, Dog Epi IgG, was administered at increasing concentrations. The size of the wheal is being measured (reaction to Dog Epi IgG) to evaluate the efficacy of the Dog Epi IgG extract versus a negative control (NC) and a positive control (PC) in the testing of allergenic extracts. While SROBJ is populated with information about the substance administered, full details regarding the study product would be submitted in the Exposure (EX) dataset. The relationship between SR records and EX records would be represented using RELREC.", "score": 0.5168, "match_basis": "verbatim_token+domain_route:SR"}, {"md_atom_id": "md_dmSR_ex_a066", "md_file": "knowledge_base/domains/SR/examples.md", "md_atom_type": "SENTENCE", "md_parent_section": "§SR.3 [Example 3]", "md_verbatim": "**Row 1:** Shows the longest diameter in millimeters of the induration after receiving an intradermal injection of 0.1 mL containing 5TU of PPD-S in the left forearm.", "score": 0.5119, "match_basis": "verbatim_token+domain_route:SR"}, {"md_atom_id": "md_dmSR_ex_a068", "md_file": "knowledge_base/domains/SR/examples.md", "md_atom_type": "SENTENCE", "md_parent_section": "§SR.3 [Example 3]", "md_verbatim": "**Row 3:** Shows the interpretation of the tuberculin PPD skin test. SRGRPID is used to tie together the results to the interpretation.", "score": 0.4828, "match_basis": "verbatim_token+domain_route:SR"}, {"md_atom_id": "md_dmSR_ex_a005", "md_file": "knowledge_base/domains/SR/examples.md", "md_atom_type": "SENTENCE", "md_parent_section": "§SR.1 [Example 1]", "md_verbatim": "**Rows 5-8:** Show responses associated with the administration of Johnson grass IgE. These records describe the dose response to different concentrations of Johnson grass IgE antigen, as reflected in SROBJ.", "score": 0.4801, "match_basis": "verbatim_token+domain_route:SR"}], "candidate_count": 5, "zero_candidate": false}
{"pdf_atom_id": "ig34_p0380_a024", "pdf_atom_type": "LIST_ITEM", "pdf_source": "SDTMIG_v3.4", "pdf_page": 380, "pdf_parent_section": "SR – Examples", "pdf_verbatim": "Row 1: Shows the longest diameter in millimeters of the induration after receiving an intradermal injection of 0.1 mL containing 5TU of PPD-S in the left forearm.", "figure_ref": null, "candidates": [{"md_atom_id": "md_dmSR_ex_a066", "md_file": "knowledge_base/domains/SR/examples.md", "md_atom_type": "SENTENCE", "md_parent_section": "§SR.3 [Example 3]", "md_verbatim": "**Row 1:** Shows the longest diameter in millimeters of the induration after receiving an intradermal injection of 0.1 mL containing 5TU of PPD-S in the left forearm.", "score": 0.91, "match_basis": "verbatim_token+domain_route:SR"}, {"md_atom_id": "md_dmSR_assn_a003", "md_file": "knowledge_base/domains/SR/assumptions.md", "md_atom_type": "LIST_ITEM", "md_parent_section": "§SR [SR — Assumptions]", "md_verbatim": "2. This domain is intended specifically for tests of the immune response to substances that are intended to provoke such a response (e.g., allergens used in allergy testing). SR is not intended for other injection-site reactions, including reactogenicity events that may follow a vaccine administration.", "score": 0.4632, "match_basis": "verbatim_token+domain_route:SR"}, {"md_atom_id": "md_dmSR_assn_a004", "md_file": "knowledge_base/domains/SR/assumptions.md", "md_atom_type": "LIST_ITEM", "md_parent_section": "§SR [SR — Assumptions]", "md_verbatim": "3. Because a subject is typically exposed to many test materials at the same time, SROBJ is needed to represent the test material for each response record. The method of assessment could be a skin-prick test, a skin-scratch test, or other method of introducing the challenge substance into the skin.", "score": 0.4542, "match_basis": "verbatim_token+domain_route:SR"}, {"md_atom_id": "md_dmSR_assn_a002", "md_file": "knowledge_base/domains/SR/assumptions.md", "md_atom_type": "LIST_ITEM", "md_parent_section": "§SR [SR — Assumptions]", "md_verbatim": "1. The Skin Response (SR) domain is used to represent findings about an intervention, but it has its own domain code, SR, rather than the domain code FA.", "score": 0.4491, "match_basis": "verbatim_token+domain_route:SR"}, {"md_atom_id": "md_dmSR_assn_a005", "md_file": "knowledge_base/domains/SR/assumptions.md", "md_atom_type": "LIST_ITEM", "md_parent_section": "§SR [SR — Assumptions]", "md_verbatim": "4. Any Identifier variables, Timing variables, or Findings general observation class qualifiers may be added to the SR domain, but the following qualifiers would not generally be used: --POS, --BODSYS, --ORNRLO, --ORNRHI, --STNRLO, --STNRHI, --STNRC, --NRIND, --RESCAT, --XFN, --LOINC, --SPCCND, --FAST, --TOX, --TOXGR, --SEV.", "score": 0.4289, "match_basis": "verbatim_token+domain_route:SR"}], "candidate_count": 5, "zero_candidate": false}
{"pdf_atom_id": "ig34_p0380_a025", "pdf_atom_type": "LIST_ITEM", "pdf_source": "SDTMIG_v3.4", "pdf_page": 380, "pdf_parent_section": "SR – Examples", "pdf_verbatim": "Row 2: Shows the presence of blistering at the tuberculin PPD skin test site.", "figure_ref": null, "candidates": [{"md_atom_id": "md_dmSR_ex_a067", "md_file": "knowledge_base/domains/SR/examples.md", "md_atom_type": "SENTENCE", "md_parent_section": "§SR.3 [Example 3]", "md_verbatim": "**Row 2:** Shows the presence of blistering at the tuberculin PPD skin test site.", "score": 0.91, "match_basis": "verbatim_token+domain_route:SR"}, {"md_atom_id": "md_dmSR_ex_a074", "md_file": "knowledge_base/domains/SR/examples.md", "md_atom_type": "SENTENCE", "md_parent_section": "§SR.3 [Example 3]", "md_verbatim": "The tuberculin PPD skin test administration was represented in the AG domain.", "score": 0.5173, "match_basis": "verbatim_token+domain_route:SR"}, {"md_atom_id": "md_dmSR_ex_a068", "md_file": "knowledge_base/domains/SR/examples.md", "md_atom_type": "SENTENCE", "md_parent_section": "§SR.3 [Example 3]", "md_verbatim": "**Row 3:** Shows the interpretation of the tuberculin PPD skin test. SRGRPID is used to tie together the results to the interpretation.", "score": 0.5166, "match_basis": "verbatim_token+domain_route:SR"}, {"md_atom_id": "md_dmSR_assn_a002", "md_file": "knowledge_base/domains/SR/assumptions.md", "md_atom_type": "LIST_ITEM", "md_parent_section": "§SR [SR — Assumptions]", "md_verbatim": "1. The Skin Response (SR) domain is used to represent findings about an intervention, but it has its own domain code, SR, rather than the domain code FA.", "score": 0.472, "match_basis": "verbatim_token+domain_route:SR"}, {"md_atom_id": "md_dmSR_assn_a004", "md_file": "knowledge_base/domains/SR/assumptions.md", "md_atom_type": "LIST_ITEM", "md_parent_section": "§SR [SR — Assumptions]", "md_verbatim": "3. Because a subject is typically exposed to many test materials at the same time, SROBJ is needed to represent the test material for each response record. The method of assessment could be a skin-prick test, a skin-scratch test, or other method of introducing the challenge substance into the skin.", "score": 0.4586, "match_basis": "verbatim_token+domain_route:SR"}], "candidate_count": 5, "zero_candidate": false}
{"pdf_atom_id": "ig34_p0380_a026", "pdf_atom_type": "LIST_ITEM", "pdf_source": "SDTMIG_v3.4", "pdf_page": 380, "pdf_parent_section": "SR – Examples", "pdf_verbatim": "Row 3: Shows the interpretation of the tuberculin PPD skin test. SRGRPID is used to tie together the results to the interpretation.", "figure_ref": null, "candidates": [{"md_atom_id": "md_dmSR_ex_a068", "md_file": "knowledge_base/domains/SR/examples.md", "md_atom_type": "SENTENCE", "md_parent_section": "§SR.3 [Example 3]", "md_verbatim": "**Row 3:** Shows the interpretation of the tuberculin PPD skin test. SRGRPID is used to tie together the results to the interpretation.", "score": 0.91, "match_basis": "verbatim_token+domain_route:SR"}, {"md_atom_id": "md_dmSR_ex_a067", "md_file": "knowledge_base/domains/SR/examples.md", "md_atom_type": "SENTENCE", "md_parent_section": "§SR.3 [Example 3]", "md_verbatim": "**Row 2:** Shows the presence of blistering at the tuberculin PPD skin test site.", "score": 0.5166, "match_basis": "verbatim_token+domain_route:SR"}, {"md_atom_id": "md_dmSR_assn_a002", "md_file": "knowledge_base/domains/SR/assumptions.md", "md_atom_type": "LIST_ITEM", "md_parent_section": "§SR [SR — Assumptions]", "md_verbatim": "1. The Skin Response (SR) domain is used to represent findings about an intervention, but it has its own domain code, SR, rather than the domain code FA.", "score": 0.4918, "match_basis": "verbatim_token+domain_route:SR"}, {"md_atom_id": "md_dmSR_ex_a074", "md_file": "knowledge_base/domains/SR/examples.md", "md_atom_type": "SENTENCE", "md_parent_section": "§SR.3 [Example 3]", "md_verbatim": "The tuberculin PPD skin test administration was represented in the AG domain.", "score": 0.4865, "match_basis": "verbatim_token+domain_route:SR"}, {"md_atom_id": "md_dmSR_assn_a003", "md_file": "knowledge_base/domains/SR/assumptions.md", "md_atom_type": "LIST_ITEM", "md_parent_section": "§SR [SR — Assumptions]", "md_verbatim": "2. This domain is intended specifically for tests of the immune response to substances that are intended to provoke such a response (e.g., allergens used in allergy testing). SR is not intended for other injection-site reactions, including reactogenicity events that may follow a vaccine administration.", "score": 0.4545, "match_basis": "verbatim_token+domain_route:SR"}], "candidate_count": 5, "zero_candidate": false}
{"pdf_atom_id": "ig34_p0380_a027", "pdf_atom_type": "CODE_LITERAL", "pdf_source": "SDTMIG_v3.4", "pdf_page": 380, "pdf_parent_section": "SR – Examples", "pdf_verbatim": "sr.xpt", "figure_ref": null, "candidates": [{"md_atom_id": "md_dmSR_ex_a007", "md_file": "knowledge_base/domains/SR/examples.md", "md_atom_type": "SENTENCE", "md_parent_section": "§SR.1 [Example 1]", "md_verbatim": "**sr.xpt**", "score": 0.79, "match_basis": "verbatim_token+domain_route:SR"}, {"md_atom_id": "md_dmSR_ex_a021", "md_file": "knowledge_base/domains/SR/examples.md", "md_atom_type": "SENTENCE", "md_parent_section": "§SR.2 [Example 2]", "md_verbatim": "**sr.xpt**", "score": 0.79, "match_basis": "verbatim_token+domain_route:SR"}, {"md_atom_id": "md_dmSR_ex_a035", "md_file": "knowledge_base/domains/SR/examples.md", "md_atom_type": "SENTENCE", "md_parent_section": "§SR.2 [Example 2]", "md_verbatim": "**ex.xpt**", "score": 0.79, "match_basis": "verbatim_token+domain_route:SR"}, {"md_atom_id": "md_dmSR_ex_a069", "md_file": "knowledge_base/domains/SR/examples.md", "md_atom_type": "SENTENCE", "md_parent_section": "§SR.3 [Example 3]", "md_verbatim": "**sr.xpt**", "score": 0.79, "match_basis": "verbatim_token+domain_route:SR"}, {"md_atom_id": "md_dmSR_ex_a075", "md_file": "knowledge_base/domains/SR/examples.md", "md_atom_type": "SENTENCE", "md_parent_section": "§SR.3 [Example 3]", "md_verbatim": "**ag.xpt**", "score": 0.79, "match_basis": "verbatim_token+domain_route:SR"}, {"md_atom_id": "md_dmSR_ex_a044", "md_file": "knowledge_base/domains/SR/examples.md", "md_atom_type": "SENTENCE", "md_parent_section": "§SR.2 [Example 2]", "md_verbatim": "**relrec.xpt**", "score": 0.31, "match_basis": "verbatim_token+domain_route:SR"}, {"md_atom_id": "md_dmSR_ex_a079", "md_file": "knowledge_base/domains/SR/examples.md", "md_atom_type": "SENTENCE", "md_parent_section": "§SR.3 [Example 3]", "md_verbatim": "**relrec.xpt**", "score": 0.31, "match_basis": "verbatim_token+domain_route:SR"}, {"md_atom_id": "md_dmSR_assn_a001", "md_file": "knowledge_base/domains/SR/assumptions.md", "md_atom_type": "HEADING", "md_parent_section": "§SR [SR — Assumptions]", "md_verbatim": "# SR — Assumptions", "score": 0.19, "match_basis": "verbatim_token+domain_route:SR"}, {"md_atom_id": "md_dmSR_assn_a002", "md_file": "knowledge_base/domains/SR/assumptions.md", "md_atom_type": "LIST_ITEM", "md_parent_section": "§SR [SR — Assumptions]", "md_verbatim": "1. The Skin Response (SR) domain is used to represent findings about an intervention, but it has its own domain code, SR, rather than the domain code FA.", "score": 0.19, "match_basis": "verbatim_token+domain_route:SR"}, {"md_atom_id": "md_dmSR_assn_a003", "md_file": "knowledge_base/domains/SR/assumptions.md", "md_atom_type": "LIST_ITEM", "md_parent_section": "§SR [SR — Assumptions]", "md_verbatim": "2. This domain is intended specifically for tests of the immune response to substances that are intended to provoke such a response (e.g., allergens used in allergy testing). SR is not intended for other injection-site reactions, including reactogenicity events that may follow a vaccine administration.", "score": 0.19, "match_basis": "verbatim_token+domain_route:SR"}], "candidate_count": 10, "zero_candidate": false}
{"pdf_atom_id": "ig34_p0380_a028", "pdf_atom_type": "TABLE_HEADER", "pdf_source": "SDTMIG_v3.4", "pdf_page": 380, "pdf_parent_section": "SR – Examples", "pdf_verbatim": "| Row | STUDYID | DOMAIN | USUBJID | SRSEQ | SRGRPID | SRTESTCD | SRTEST | SROBJ | SRORRES | SRORRESU | SRSTRESC | SRSTRESN | SRSTRESU | SRLOC | SRLAT | SRMETHOD | VISITNUM | VISIT | EPOCH | SRDTC | SRTPT | SRELTM | SRTPTREF | SRRFTDTC |", "figure_ref": null, "candidates": [{"md_atom_id": "md_dmSR_ex_a070", "md_file": "knowledge_base/domains/SR/examples.md", "md_atom_type": "TABLE_HEADER", "md_parent_section": "§SR.3 [Example 3]", "md_verbatim": "| Row | STUDYID | DOMAIN | USUBJID | SRSEQ | SRGRPID | SRTESTCD | SRTEST | SROBJ | SRORRES | SRORRESU | SRSTRESC | SRSTRESN | SRSTRESU | SRLOC | SRLAT | SRMETHOD | VISITNUM | VISIT | EPOCH | SRDTC | SRTPT | SRELTM | SRTPTREF | SRRFTDTC |", "score": 1.0, "match_basis": "verbatim_token+domain_route:SR"}, {"md_atom_id": "md_dmSR_ex_a022", "md_file": "knowledge_base/domains/SR/examples.md", "md_atom_type": "TABLE_HEADER", "md_parent_section": "§SR.2 [Example 2]", "md_verbatim": "| Row | STUDYID | DOMAIN | USUBJID | SRSEQ | SRSPID | SRTESTCD | SRTEST | SROBJ | SRORRES | SRORRESU | SRSTRESC | SRSTRESN | SRSTRESU | SRLOC | VISITNUM | VISIT |", "score": 0.7525, "match_basis": "verbatim_token+domain_route:SR"}, {"md_atom_id": "md_dmSR_ex_a008", "md_file": "knowledge_base/domains/SR/examples.md", "md_atom_type": "TABLE_HEADER", "md_parent_section": "§SR.1 [Example 1]", "md_verbatim": "| Row | STUDYID | DOMAIN | USUBJID | FOCID | SRSEQ | SRTESTCD | SRTEST | SROBJ | SRORRES | SRORRESU | SRSTRESC | SRSTRESN | SRSTRESU | SRLOC | VISITNUM | VISIT |", "score": 0.7407, "match_basis": "verbatim_token+domain_route:SR"}, {"md_atom_id": "md_dmSR_ex_a076", "md_file": "knowledge_base/domains/SR/examples.md", "md_atom_type": "TABLE_HEADER", "md_parent_section": "§SR.3 [Example 3]", "md_verbatim": "| Row | STUDYID | DOMAIN | USUBJID | AGSEQ | AGTRT | AGDOSE | AGDOSU | AGVAMT | AGVAMTU | VISITNUM | VISIT | EPOCH | AGSTDTC |", "score": 0.5705, "match_basis": "verbatim_token+domain_route:SR"}, {"md_atom_id": "md_dmSR_ex_a045", "md_file": "knowledge_base/domains/SR/examples.md", "md_atom_type": "TABLE_HEADER", "md_parent_section": "§SR.2 [Example 2]", "md_verbatim": "| Row | STUDYID | RDOMAIN | USUBJID | IDVAR | IDVARVAL | RELTYPE | RELID |", "score": 0.5133, "match_basis": "verbatim_token+domain_route:SR"}], "candidate_count": 5, "zero_candidate": false}
{"pdf_atom_id": "ig34_p0380_a029", "pdf_atom_type": "TABLE_ROW", "pdf_source": "SDTMIG_v3.4", "pdf_page": 380, "pdf_parent_section": "SR – Examples", "pdf_verbatim": "| 1 | ABC | SR | ABC-001 | 1 | 1 | IDRLIAM | Induration Longest Diameter | Tuberculin PPD-S | 16 | mm | 16 | 16 | mm | FOREARM | LEFT | RULER | 2 | VISIT 2 | OPEN LABEL TREATMENT | 2011-01-19T14:08:24 | PT48H | 48 H | MANTOUX ADMINISTRATION | 2011-01-17T08:30:00 |", "figure_ref": null, "candidates": [{"md_atom_id": "md_dmSR_ex_a071", "md_file": "knowledge_base/domains/SR/examples.md", "md_atom_type": "TABLE_ROW", "md_parent_section": "§SR.3 [Example 3]", "md_verbatim": "| 1 | ABC | SR | ABC-001 | 1 | 1 | DRLDOM | Induration Longest Diameter | Tuberculin PPD-S | 16 | mm | 16 | 16 | mm | FOREARM | LEFT | RULER | 2 | VISIT 2 | OPEN LABEL TREATMENT | 2011-01-19T14:26 | 48 H | PT48H | MANTOUX ADMINISTRATION | 2011-01-17T08:30:00 |", "score": 0.9576, "match_basis": "verbatim_token+domain_route:SR"}, {"md_atom_id": "md_dmSR_ex_a072", "md_file": "knowledge_base/domains/SR/examples.md", "md_atom_type": "TABLE_ROW", "md_parent_section": "§SR.3 [Example 3]", "md_verbatim": "| 2 | ABC | SR | ABC-001 | 2 | 1 | BLISTIND | Blistering Indicator | Tuberculin PPD-S | Y | | Y | | | FOREARM | LEFT | | 2 | VISIT 2 | OPEN LABEL TREATMENT | 2011-01-19T14:26 | 48 H | PT48H | MANTOUX ADMINISTRATION | 2011-01-17T08:30:00 |", "score": 0.7875, "match_basis": "verbatim_token+domain_route:SR"}, {"md_atom_id": "md_dmSR_ex_a073", "md_file": "knowledge_base/domains/SR/examples.md", "md_atom_type": "TABLE_ROW", "md_parent_section": "§SR.3 [Example 3]", "md_verbatim": "| 3 | ABC | SR | ABC-001 | 3 | 1 | INTP | Interpretation | Tuberculin PPD-S | POSITIVE | | POSITIVE | | | | | | 2 | VISIT 2 | OPEN LABEL TREATMENT | 2011-01-19T14:26 | 48 H | PT48H | MANTOUX ADMINISTRATION | 2011-01-17T08:30:00 |", "score": 0.7437, "match_basis": "verbatim_token+domain_route:SR"}, {"md_atom_id": "md_dmSR_ex_a077", "md_file": "knowledge_base/domains/SR/examples.md", "md_atom_type": "TABLE_ROW", "md_parent_section": "§SR.3 [Example 3]", "md_verbatim": "| 1 | ABC | AG | ABC-001 | 1 | tuberculin PPD-S | 5 | tuberculin unit | 0.1 | mL | 1 | VISIT 1 | OPEN LABEL TREATMENT | 2011-01-17T08:30:00 |", "score": 0.6214, "match_basis": "verbatim_token+domain_route:SR"}, {"md_atom_id": "md_dmSR_ex_a029", "md_file": "knowledge_base/domains/SR/examples.md", "md_atom_type": "TABLE_ROW", "md_parent_section": "§SR.2 [Example 2]", "md_verbatim": "| 7 | CC-001 | SR | CC-001-101 | 7 | 7 | FLRMDIAM | Flare Mean Diameter | Dog Epi 0 mg | 5 | mm | 5 | 5 | mm | FOREARM | 1 | WEEK 1 |", "score": 0.475, "match_basis": "verbatim_token+domain_route:SR"}], "candidate_count": 5, "zero_candidate": false}
{"pdf_atom_id": "ig34_p0380_a030", "pdf_atom_type": "TABLE_ROW", "pdf_source": "SDTMIG_v3.4", "pdf_page": 380, "pdf_parent_section": "SR – Examples", "pdf_verbatim": "| 2 | ABC | SR | ABC-001 | 2 | | BLISTIND | Blistering Indicator | Tuberculin PPD-S | Y | | | | | FOREARM | LEFT | | 2 | VISIT 2 | OPEN LABEL TREATMENT | 2011-01-19T14:08:24 | PT48H | 48 H | MANTOUX ADMINISTRATION | 2011-01-17T08:30:00 |", "figure_ref": null, "candidates": [{"md_atom_id": "md_dmSR_ex_a072", "md_file": "knowledge_base/domains/SR/examples.md", "md_atom_type": "TABLE_ROW", "md_parent_section": "§SR.3 [Example 3]", "md_verbatim": "| 2 | ABC | SR | ABC-001 | 2 | 1 | BLISTIND | Blistering Indicator | Tuberculin PPD-S | Y | | Y | | | FOREARM | LEFT | | 2 | VISIT 2 | OPEN LABEL TREATMENT | 2011-01-19T14:26 | 48 H | PT48H | MANTOUX ADMINISTRATION | 2011-01-17T08:30:00 |", "score": 1.0, "match_basis": "verbatim_token+domain_route:SR"}, {"md_atom_id": "md_dmSR_ex_a071", "md_file": "knowledge_base/domains/SR/examples.md", "md_atom_type": "TABLE_ROW", "md_parent_section": "§SR.3 [Example 3]", "md_verbatim": "| 1 | ABC | SR | ABC-001 | 1 | 1 | DRLDOM | Induration Longest Diameter | Tuberculin PPD-S | 16 | mm | 16 | 16 | mm | FOREARM | LEFT | RULER | 2 | VISIT 2 | OPEN LABEL TREATMENT | 2011-01-19T14:26 | 48 H | PT48H | MANTOUX ADMINISTRATION | 2011-01-17T08:30:00 |", "score": 0.7875, "match_basis": "verbatim_token+domain_route:SR"}, {"md_atom_id": "md_dmSR_ex_a073", "md_file": "knowledge_base/domains/SR/examples.md", "md_atom_type": "TABLE_ROW", "md_parent_section": "§SR.3 [Example 3]", "md_verbatim": "| 3 | ABC | SR | ABC-001 | 3 | 1 | INTP | Interpretation | Tuberculin PPD-S | POSITIVE | | POSITIVE | | | | | | 2 | VISIT 2 | OPEN LABEL TREATMENT | 2011-01-19T14:26 | 48 H | PT48H | MANTOUX ADMINISTRATION | 2011-01-17T08:30:00 |", "score": 0.7667, "match_basis": "verbatim_token+domain_route:SR"}, {"md_atom_id": "md_dmSR_ex_a077", "md_file": "knowledge_base/domains/SR/examples.md", "md_atom_type": "TABLE_ROW", "md_parent_section": "§SR.3 [Example 3]", "md_verbatim": "| 1 | ABC | AG | ABC-001 | 1 | tuberculin PPD-S | 5 | tuberculin unit | 0.1 | mL | 1 | VISIT 1 | OPEN LABEL TREATMENT | 2011-01-17T08:30:00 |", "score": 0.6385, "match_basis": "verbatim_token+domain_route:SR"}, {"md_atom_id": "md_dmSR_ex_a028", "md_file": "knowledge_base/domains/SR/examples.md", "md_atom_type": "TABLE_ROW", "md_parent_section": "§SR.2 [Example 2]", "md_verbatim": "| 6 | CC-001 | SR | CC-001-101 | 6 | 6 | REACTGR | Reaction Grade | Dog Epi 2 mg | ERYTHEMA, INFILTRATION, PAPULES, COALESCING VESICLES | | 3+ | | | FOREARM | 1 | WEEK 1 |", "score": 0.4621, "match_basis": "verbatim_token+domain_route:SR"}], "candidate_count": 5, "zero_candidate": false}
{"pdf_atom_id": "ig34_p0380_a031", "pdf_atom_type": "TABLE_ROW", "pdf_source": "SDTMIG_v3.4", "pdf_page": 380, "pdf_parent_section": "SR – Examples", "pdf_verbatim": "| 3 | ABC | SR | ABC-001 | 3 | 1 | INTP | Interpretation | Tuberculin PPD-S | POSITIVE | | POSITIVE | | | | | | 2 | VISIT 2 | OPEN LABEL TREATMENT | 2011-01-19T14:08:24 | PT48H | 48 H | MANTOUX ADMINISTRATION | 2011-01-17T08:30:00 |", "figure_ref": null, "candidates": [{"md_atom_id": "md_dmSR_ex_a073", "md_file": "knowledge_base/domains/SR/examples.md", "md_atom_type": "TABLE_ROW", "md_parent_section": "§SR.3 [Example 3]", "md_verbatim": "| 3 | ABC | SR | ABC-001 | 3 | 1 | INTP | Interpretation | Tuberculin PPD-S | POSITIVE | | POSITIVE | | | | | | 2 | VISIT 2 | OPEN LABEL TREATMENT | 2011-01-19T14:26 | 48 H | PT48H | MANTOUX ADMINISTRATION | 2011-01-17T08:30:00 |", "score": 1.0, "match_basis": "verbatim_token+domain_route:SR"}, {"md_atom_id": "md_dmSR_ex_a072", "md_file": "knowledge_base/domains/SR/examples.md", "md_atom_type": "TABLE_ROW", "md_parent_section": "§SR.3 [Example 3]", "md_verbatim": "| 2 | ABC | SR | ABC-001 | 2 | 1 | BLISTIND | Blistering Indicator | Tuberculin PPD-S | Y | | Y | | | FOREARM | LEFT | | 2 | VISIT 2 | OPEN LABEL TREATMENT | 2011-01-19T14:26 | 48 H | PT48H | MANTOUX ADMINISTRATION | 2011-01-17T08:30:00 |", "score": 0.7667, "match_basis": "verbatim_token+domain_route:SR"}, {"md_atom_id": "md_dmSR_ex_a071", "md_file": "knowledge_base/domains/SR/examples.md", "md_atom_type": "TABLE_ROW", "md_parent_section": "§SR.3 [Example 3]", "md_verbatim": "| 1 | ABC | SR | ABC-001 | 1 | 1 | DRLDOM | Induration Longest Diameter | Tuberculin PPD-S | 16 | mm | 16 | 16 | mm | FOREARM | LEFT | RULER | 2 | VISIT 2 | OPEN LABEL TREATMENT | 2011-01-19T14:26 | 48 H | PT48H | MANTOUX ADMINISTRATION | 2011-01-17T08:30:00 |", "score": 0.7437, "match_basis": "verbatim_token+domain_route:SR"}, {"md_atom_id": "md_dmSR_ex_a077", "md_file": "knowledge_base/domains/SR/examples.md", "md_atom_type": "TABLE_ROW", "md_parent_section": "§SR.3 [Example 3]", "md_verbatim": "| 1 | ABC | AG | ABC-001 | 1 | tuberculin PPD-S | 5 | tuberculin unit | 0.1 | mL | 1 | VISIT 1 | OPEN LABEL TREATMENT | 2011-01-17T08:30:00 |", "score": 0.662, "match_basis": "verbatim_token+domain_route:SR"}, {"md_atom_id": "md_dmSR_ex_a025", "md_file": "knowledge_base/domains/SR/examples.md", "md_atom_type": "TABLE_ROW", "md_parent_section": "§SR.2 [Example 2]", "md_verbatim": "| 3 | CC-001 | SR | CC-001-101 | 3 | 3 | REACTGR | Reaction Grade | Dog Epi 0.5 mg | ERYTHEMA, INFILTRATION, POSSIBLY DISCRETE PAPULES | | 1+ | | | FOREARM | 1 | WEEK 1 |", "score": 0.4482, "match_basis": "verbatim_token+domain_route:SR"}], "candidate_count": 5, "zero_candidate": false}
{"pdf_atom_id": "ig34_p0380_a032", "pdf_atom_type": "SENTENCE", "pdf_source": "SDTMIG_v3.4", "pdf_page": 380, "pdf_parent_section": "SR – Examples", "pdf_verbatim": "The tuberculin PPD skin test administration was represented in the AG domain.", "figure_ref": null, "candidates": [{"md_atom_id": "md_dmSR_ex_a074", "md_file": "knowledge_base/domains/SR/examples.md", "md_atom_type": "SENTENCE", "md_parent_section": "§SR.3 [Example 3]", "md_verbatim": "The tuberculin PPD skin test administration was represented in the AG domain.", "score": 1.0, "match_basis": "verbatim_token+domain_route:SR"}, {"md_atom_id": "md_dmSR_ex_a067", "md_file": "knowledge_base/domains/SR/examples.md", "md_atom_type": "SENTENCE", "md_parent_section": "§SR.3 [Example 3]", "md_verbatim": "**Row 2:** Shows the presence of blistering at the tuberculin PPD skin test site.", "score": 0.6073, "match_basis": "verbatim_token+domain_route:SR"}, {"md_atom_id": "md_dmSR_ex_a068", "md_file": "knowledge_base/domains/SR/examples.md", "md_atom_type": "SENTENCE", "md_parent_section": "§SR.3 [Example 3]", "md_verbatim": "**Row 3:** Shows the interpretation of the tuberculin PPD skin test. SRGRPID is used to tie together the results to the interpretation.", "score": 0.5765, "match_basis": "verbatim_token+domain_route:SR"}, {"md_atom_id": "md_dmSR_ex_a004", "md_file": "knowledge_base/domains/SR/examples.md", "md_atom_type": "SENTENCE", "md_parent_section": "§SR.1 [Example 1]", "md_verbatim": "**Rows 1-4:** Show responses associated with the administration of a histamine control.", "score": 0.5304, "match_basis": "verbatim_token+domain_route:SR"}, {"md_atom_id": "md_dmSR_ex_a006", "md_file": "knowledge_base/domains/SR/examples.md", "md_atom_type": "SENTENCE", "md_parent_section": "§SR.1 [Example 1]", "md_verbatim": "All rows show a specific location on the back (e.g., SITE1), represented in FOCID.", "score": 0.5258, "match_basis": "verbatim_token+domain_route:SR"}], "candidate_count": 5, "zero_candidate": false}
{"pdf_atom_id": "ig34_p0380_a033", "pdf_atom_type": "CODE_LITERAL", "pdf_source": "SDTMIG_v3.4", "pdf_page": 380, "pdf_parent_section": "SR – Examples", "pdf_verbatim": "ag.xpt", "figure_ref": null, "candidates": [{"md_atom_id": "md_dmSR_ex_a007", "md_file": "knowledge_base/domains/SR/examples.md", "md_atom_type": "SENTENCE", "md_parent_section": "§SR.1 [Example 1]", "md_verbatim": "**sr.xpt**", "score": 0.79, "match_basis": "verbatim_token+domain_route:SR"}, {"md_atom_id": "md_dmSR_ex_a021", "md_file": "knowledge_base/domains/SR/examples.md", "md_atom_type": "SENTENCE", "md_parent_section": "§SR.2 [Example 2]", "md_verbatim": "**sr.xpt**", "score": 0.79, "match_basis": "verbatim_token+domain_route:SR"}, {"md_atom_id": "md_dmSR_ex_a035", "md_file": "knowledge_base/domains/SR/examples.md", "md_atom_type": "SENTENCE", "md_parent_section": "§SR.2 [Example 2]", "md_verbatim": "**ex.xpt**", "score": 0.79, "match_basis": "verbatim_token+domain_route:SR"}, {"md_atom_id": "md_dmSR_ex_a069", "md_file": "knowledge_base/domains/SR/examples.md", "md_atom_type": "SENTENCE", "md_parent_section": "§SR.3 [Example 3]", "md_verbatim": "**sr.xpt**", "score": 0.79, "match_basis": "verbatim_token+domain_route:SR"}, {"md_atom_id": "md_dmSR_ex_a075", "md_file": "knowledge_base/domains/SR/examples.md", "md_atom_type": "SENTENCE", "md_parent_section": "§SR.3 [Example 3]", "md_verbatim": "**ag.xpt**", "score": 0.79, "match_basis": "verbatim_token+domain_route:SR"}, {"md_atom_id": "md_dmSR_ex_a044", "md_file": "knowledge_base/domains/SR/examples.md", "md_atom_type": "SENTENCE", "md_parent_section": "§SR.2 [Example 2]", "md_verbatim": "**relrec.xpt**", "score": 0.31, "match_basis": "verbatim_token+domain_route:SR"}, {"md_atom_id": "md_dmSR_ex_a079", "md_file": "knowledge_base/domains/SR/examples.md", "md_atom_type": "SENTENCE", "md_parent_section": "§SR.3 [Example 3]", "md_verbatim": "**relrec.xpt**", "score": 0.31, "match_basis": "verbatim_token+domain_route:SR"}, {"md_atom_id": "md_dmSR_assn_a001", "md_file": "knowledge_base/domains/SR/assumptions.md", "md_atom_type": "HEADING", "md_parent_section": "§SR [SR — Assumptions]", "md_verbatim": "# SR — Assumptions", "score": 0.19, "match_basis": "verbatim_token+domain_route:SR"}, {"md_atom_id": "md_dmSR_assn_a002", "md_file": "knowledge_base/domains/SR/assumptions.md", "md_atom_type": "LIST_ITEM", "md_parent_section": "§SR [SR — Assumptions]", "md_verbatim": "1. The Skin Response (SR) domain is used to represent findings about an intervention, but it has its own domain code, SR, rather than the domain code FA.", "score": 0.19, "match_basis": "verbatim_token+domain_route:SR"}, {"md_atom_id": "md_dmSR_assn_a003", "md_file": "knowledge_base/domains/SR/assumptions.md", "md_atom_type": "LIST_ITEM", "md_parent_section": "§SR [SR — Assumptions]", "md_verbatim": "2. This domain is intended specifically for tests of the immune response to substances that are intended to provoke such a response (e.g., allergens used in allergy testing). SR is not intended for other injection-site reactions, including reactogenicity events that may follow a vaccine administration.", "score": 0.19, "match_basis": "verbatim_token+domain_route:SR"}], "candidate_count": 10, "zero_candidate": false}
{"pdf_atom_id": "ig34_p0380_a034", "pdf_atom_type": "TABLE_HEADER", "pdf_source": "SDTMIG_v3.4", "pdf_page": 380, "pdf_parent_section": "SR – Examples", "pdf_verbatim": "| Row | STUDYID | DOMAIN | USUBJID | AGSEQ | AGTRT | AGDOSE | AGDOSU | AGVAMT | AGVAMTU | VISITNUM | VISIT | EPOCH | AGSTDTC |", "figure_ref": null, "candidates": [{"md_atom_id": "md_dmSR_ex_a076", "md_file": "knowledge_base/domains/SR/examples.md", "md_atom_type": "TABLE_HEADER", "md_parent_section": "§SR.3 [Example 3]", "md_verbatim": "| Row | STUDYID | DOMAIN | USUBJID | AGSEQ | AGTRT | AGDOSE | AGDOSU | AGVAMT | AGVAMTU | VISITNUM | VISIT | EPOCH | AGSTDTC |", "score": 1.0, "match_basis": "verbatim_token+domain_route:SR"}, {"md_atom_id": "md_dmSR_ex_a008", "md_file": "knowledge_base/domains/SR/examples.md", "md_atom_type": "TABLE_HEADER", "md_parent_section": "§SR.1 [Example 1]", "md_verbatim": "| Row | STUDYID | DOMAIN | USUBJID | FOCID | SRSEQ | SRTESTCD | SRTEST | SROBJ | SRORRES | SRORRESU | SRSTRESC | SRSTRESN | SRSTRESU | SRLOC | VISITNUM | VISIT |", "score": 0.5859, "match_basis": "verbatim_token+domain_route:SR"}, {"md_atom_id": "md_dmSR_ex_a022", "md_file": "knowledge_base/domains/SR/examples.md", "md_atom_type": "TABLE_HEADER", "md_parent_section": "§SR.2 [Example 2]", "md_verbatim": "| Row | STUDYID | DOMAIN | USUBJID | SRSEQ | SRSPID | SRTESTCD | SRTEST | SROBJ | SRORRES | SRORRESU | SRSTRESC | SRSTRESN | SRSTRESU | SRLOC | VISITNUM | VISIT |", "score": 0.5859, "match_basis": "verbatim_token+domain_route:SR"}, {"md_atom_id": "md_dmSR_ex_a036", "md_file": "knowledge_base/domains/SR/examples.md", "md_atom_type": "TABLE_HEADER", "md_parent_section": "§SR.2 [Example 2]", "md_verbatim": "| Row | STUDYID | DOMAIN | USUBJID | EXSPID | EXTRT | EXDOSE | EXDOSEU | EXROUTE | EXLOC |", "score": 0.577, "match_basis": "verbatim_token+domain_route:SR"}, {"md_atom_id": "md_dmSR_ex_a070", "md_file": "knowledge_base/domains/SR/examples.md", "md_atom_type": "TABLE_HEADER", "md_parent_section": "§SR.3 [Example 3]", "md_verbatim": "| Row | STUDYID | DOMAIN | USUBJID | SRSEQ | SRGRPID | SRTESTCD | SRTEST | SROBJ | SRORRES | SRORRESU | SRSTRESC | SRSTRESN | SRSTRESU | SRLOC | SRLAT | SRMETHOD | VISITNUM | VISIT | EPOCH | SRDTC | SRTPT | SRELTM | SRTPTREF | SRRFTDTC |", "score": 0.5705, "match_basis": "verbatim_token+domain_route:SR"}], "candidate_count": 5, "zero_candidate": false}
{"pdf_atom_id": "ig34_p0380_a035", "pdf_atom_type": "TABLE_ROW", "pdf_source": "SDTMIG_v3.4", "pdf_page": 380, "pdf_parent_section": "SR – Examples", "pdf_verbatim": "| 1 | ABC | AG | ABC-001 | 1 | Tuberculin PPD-S | 5 | tuberculin unit | 0.1 | mL | 1 | VISIT 1 | OPEN LABEL TREATMENT | 2011-01-17T08:30:00 |", "figure_ref": null, "candidates": [{"md_atom_id": "md_dmSR_ex_a077", "md_file": "knowledge_base/domains/SR/examples.md", "md_atom_type": "TABLE_ROW", "md_parent_section": "§SR.3 [Example 3]", "md_verbatim": "| 1 | ABC | AG | ABC-001 | 1 | tuberculin PPD-S | 5 | tuberculin unit | 0.1 | mL | 1 | VISIT 1 | OPEN LABEL TREATMENT | 2011-01-17T08:30:00 |", "score": 1.0, "match_basis": "verbatim_token+domain_route:SR"}, {"md_atom_id": "md_dmSR_ex_a073", "md_file": "knowledge_base/domains/SR/examples.md", "md_atom_type": "TABLE_ROW", "md_parent_section": "§SR.3 [Example 3]", "md_verbatim": "| 3 | ABC | SR | ABC-001 | 3 | 1 | INTP | Interpretation | Tuberculin PPD-S | POSITIVE | | POSITIVE | | | | | | 2 | VISIT 2 | OPEN LABEL TREATMENT | 2011-01-19T14:26 | 48 H | PT48H | MANTOUX ADMINISTRATION | 2011-01-17T08:30:00 |", "score": 0.662, "match_basis": "verbatim_token+domain_route:SR"}, {"md_atom_id": "md_dmSR_ex_a072", "md_file": "knowledge_base/domains/SR/examples.md", "md_atom_type": "TABLE_ROW", "md_parent_section": "§SR.3 [Example 3]", "md_verbatim": "| 2 | ABC | SR | ABC-001 | 2 | 1 | BLISTIND | Blistering Indicator | Tuberculin PPD-S | Y | | Y | | | FOREARM | LEFT | | 2 | VISIT 2 | OPEN LABEL TREATMENT | 2011-01-19T14:26 | 48 H | PT48H | MANTOUX ADMINISTRATION | 2011-01-17T08:30:00 |", "score": 0.6385, "match_basis": "verbatim_token+domain_route:SR"}, {"md_atom_id": "md_dmSR_ex_a071", "md_file": "knowledge_base/domains/SR/examples.md", "md_atom_type": "TABLE_ROW", "md_parent_section": "§SR.3 [Example 3]", "md_verbatim": "| 1 | ABC | SR | ABC-001 | 1 | 1 | DRLDOM | Induration Longest Diameter | Tuberculin PPD-S | 16 | mm | 16 | 16 | mm | FOREARM | LEFT | RULER | 2 | VISIT 2 | OPEN LABEL TREATMENT | 2011-01-19T14:26 | 48 H | PT48H | MANTOUX ADMINISTRATION | 2011-01-17T08:30:00 |", "score": 0.6214, "match_basis": "verbatim_token+domain_route:SR"}, {"md_atom_id": "md_dmSR_ex_a013", "md_file": "knowledge_base/domains/SR/examples.md", "md_atom_type": "TABLE_ROW", "md_parent_section": "§SR.1 [Example 1]", "md_verbatim": "| 5 | SPI-001 | SR | SPI-001-11035 | SITE5 | 5 | FLRMDIAM | Flare Mean Diameter | Johnson Grass 0.05 BAU/mL | 10 | mm | 10 | 10 | mm | BACK | 1 | VISIT 1 |", "score": 0.4369, "match_basis": "verbatim_token+domain_route:SR"}], "candidate_count": 5, "zero_candidate": false}
{"pdf_atom_id": "ig34_p0381_a001", "pdf_atom_type": "SENTENCE", "pdf_source": "SDTMIG_v3.4", "pdf_page": 381, "pdf_parent_section": "§6.4.5 SR – Examples", "pdf_verbatim": "Relationships between SR and AG records were shown in RELREC.", "figure_ref": null, "candidates": [{"md_atom_id": "md_dmSR_ex_a078", "md_file": "knowledge_base/domains/SR/examples.md", "md_atom_type": "SENTENCE", "md_parent_section": "§SR.3 [Example 3]", "md_verbatim": "Relationships between SR and AG records were shown in RELREC.", "score": 1.0, "match_basis": "verbatim_token+domain_route:SR"}, {"md_atom_id": "md_dmSR_ex_a043", "md_file": "knowledge_base/domains/SR/examples.md", "md_atom_type": "SENTENCE", "md_parent_section": "§SR.2 [Example 2]", "md_verbatim": "The relationships between SR and EX records are represented at the record level in RELREC.", "score": 0.7349, "match_basis": "verbatim_token+domain_route:SR"}, {"md_atom_id": "md_dmSR_ex_a044", "md_file": "knowledge_base/domains/SR/examples.md", "md_atom_type": "SENTENCE", "md_parent_section": "§SR.2 [Example 2]", "md_verbatim": "**relrec.xpt**", "score": 0.48, "match_basis": "verbatim_token+domain_route:SR"}, {"md_atom_id": "md_dmSR_ex_a079", "md_file": "knowledge_base/domains/SR/examples.md", "md_atom_type": "SENTENCE", "md_parent_section": "§SR.3 [Example 3]", "md_verbatim": "**relrec.xpt**", "score": 0.48, "match_basis": "verbatim_token+domain_route:SR"}, {"md_atom_id": "md_dmSR_ex_a005", "md_file": "knowledge_base/domains/SR/examples.md", "md_atom_type": "SENTENCE", "md_parent_section": "§SR.1 [Example 1]", "md_verbatim": "**Rows 5-8:** Show responses associated with the administration of Johnson grass IgE. These records describe the dose response to different concentrations of Johnson grass IgE antigen, as reflected in SROBJ.", "score": 0.4727, "match_basis": "verbatim_token+domain_route:SR"}], "candidate_count": 5, "zero_candidate": false}
{"pdf_atom_id": "ig34_p0381_a002", "pdf_atom_type": "CODE_LITERAL", "pdf_source": "SDTMIG_v3.4", "pdf_page": 381, "pdf_parent_section": "§6.4.5 SR – Examples", "pdf_verbatim": "relrec.xpt", "figure_ref": null, "candidates": [{"md_atom_id": "md_dmSR_ex_a044", "md_file": "knowledge_base/domains/SR/examples.md", "md_atom_type": "SENTENCE", "md_parent_section": "§SR.2 [Example 2]", "md_verbatim": "**relrec.xpt**", "score": 0.79, "match_basis": "verbatim_token+domain_route:SR"}, {"md_atom_id": "md_dmSR_ex_a079", "md_file": "knowledge_base/domains/SR/examples.md", "md_atom_type": "SENTENCE", "md_parent_section": "§SR.3 [Example 3]", "md_verbatim": "**relrec.xpt**", "score": 0.79, "match_basis": "verbatim_token+domain_route:SR"}, {"md_atom_id": "md_dmSR_ex_a007", "md_file": "knowledge_base/domains/SR/examples.md", "md_atom_type": "SENTENCE", "md_parent_section": "§SR.1 [Example 1]", "md_verbatim": "**sr.xpt**", "score": 0.31, "match_basis": "verbatim_token+domain_route:SR"}, {"md_atom_id": "md_dmSR_ex_a021", "md_file": "knowledge_base/domains/SR/examples.md", "md_atom_type": "SENTENCE", "md_parent_section": "§SR.2 [Example 2]", "md_verbatim": "**sr.xpt**", "score": 0.31, "match_basis": "verbatim_token+domain_route:SR"}, {"md_atom_id": "md_dmSR_ex_a035", "md_file": "knowledge_base/domains/SR/examples.md", "md_atom_type": "SENTENCE", "md_parent_section": "§SR.2 [Example 2]", "md_verbatim": "**ex.xpt**", "score": 0.31, "match_basis": "verbatim_token+domain_route:SR"}, {"md_atom_id": "md_dmSR_ex_a069", "md_file": "knowledge_base/domains/SR/examples.md", "md_atom_type": "SENTENCE", "md_parent_section": "§SR.3 [Example 3]", "md_verbatim": "**sr.xpt**", "score": 0.31, "match_basis": "verbatim_token+domain_route:SR"}, {"md_atom_id": "md_dmSR_ex_a075", "md_file": "knowledge_base/domains/SR/examples.md", "md_atom_type": "SENTENCE", "md_parent_section": "§SR.3 [Example 3]", "md_verbatim": "**ag.xpt**", "score": 0.31, "match_basis": "verbatim_token+domain_route:SR"}, {"md_atom_id": "md_dmSR_ex_a078", "md_file": "knowledge_base/domains/SR/examples.md", "md_atom_type": "SENTENCE", "md_parent_section": "§SR.3 [Example 3]", "md_verbatim": "Relationships between SR and AG records were shown in RELREC.", "score": 0.27, "match_basis": "verbatim_token+domain_route:SR"}, {"md_atom_id": "md_dmSR_ex_a043", "md_file": "knowledge_base/domains/SR/examples.md", "md_atom_type": "SENTENCE", "md_parent_section": "§SR.2 [Example 2]", "md_verbatim": "The relationships between SR and EX records are represented at the record level in RELREC.", "score": 0.2515, "match_basis": "verbatim_token+domain_route:SR"}, {"md_atom_id": "md_dmSR_ex_a045", "md_file": "knowledge_base/domains/SR/examples.md", "md_atom_type": "TABLE_HEADER", "md_parent_section": "§SR.2 [Example 2]", "md_verbatim": "| Row | STUDYID | RDOMAIN | USUBJID | IDVAR | IDVARVAL | RELTYPE | RELID |", "score": 0.2082, "match_basis": "verbatim_token+domain_route:SR"}], "candidate_count": 10, "zero_candidate": false}
{"pdf_atom_id": "ig34_p0381_a003", "pdf_atom_type": "TABLE_HEADER", "pdf_source": "SDTMIG_v3.4", "pdf_page": 381, "pdf_parent_section": "§6.4.5 SR – Examples", "pdf_verbatim": "| Row | STUDYID | RDOMAIN | USUBJID | IDVAR | IDVARVAL | RELTYPE | RELID |", "figure_ref": null, "candidates": [{"md_atom_id": "md_dmSR_ex_a045", "md_file": "knowledge_base/domains/SR/examples.md", "md_atom_type": "TABLE_HEADER", "md_parent_section": "§SR.2 [Example 2]", "md_verbatim": "| Row | STUDYID | RDOMAIN | USUBJID | IDVAR | IDVARVAL | RELTYPE | RELID |", "score": 1.0, "match_basis": "verbatim_token+domain_route:SR"}, {"md_atom_id": "md_dmSR_ex_a080", "md_file": "knowledge_base/domains/SR/examples.md", "md_atom_type": "TABLE_HEADER", "md_parent_section": "§SR.3 [Example 3]", "md_verbatim": "| Row | STUDYID | RDOMAIN | USUBJID | IDVAR | IDVARVAL | RELTYPE | RELID |", "score": 1.0, "match_basis": "verbatim_token+domain_route:SR"}, {"md_atom_id": "md_dmSR_ex_a036", "md_file": "knowledge_base/domains/SR/examples.md", "md_atom_type": "TABLE_HEADER", "md_parent_section": "§SR.2 [Example 2]", "md_verbatim": "| Row | STUDYID | DOMAIN | USUBJID | EXSPID | EXTRT | EXDOSE | EXDOSEU | EXROUTE | EXLOC |", "score": 0.5837, "match_basis": "verbatim_token+domain_route:SR"}, {"md_atom_id": "md_dmSR_ex_a076", "md_file": "knowledge_base/domains/SR/examples.md", "md_atom_type": "TABLE_HEADER", "md_parent_section": "§SR.3 [Example 3]", "md_verbatim": "| Row | STUDYID | DOMAIN | USUBJID | AGSEQ | AGTRT | AGDOSE | AGDOSU | AGVAMT | AGVAMTU | VISITNUM | VISIT | EPOCH | AGSTDTC |", "score": 0.5552, "match_basis": "verbatim_token+domain_route:SR"}, {"md_atom_id": "md_dmSR_ex_a008", "md_file": "knowledge_base/domains/SR/examples.md", "md_atom_type": "TABLE_HEADER", "md_parent_section": "§SR.1 [Example 1]", "md_verbatim": "| Row | STUDYID | DOMAIN | USUBJID | FOCID | SRSEQ | SRTESTCD | SRTEST | SROBJ | SRORRES | SRORRESU | SRSTRESC | SRSTRESN | SRSTRESU | SRLOC | VISITNUM | VISIT |", "score": 0.5429, "match_basis": "verbatim_token+domain_route:SR"}], "candidate_count": 5, "zero_candidate": false}
{"pdf_atom_id": "ig34_p0381_a004", "pdf_atom_type": "TABLE_ROW", "pdf_source": "SDTMIG_v3.4", "pdf_page": 381, "pdf_parent_section": "§6.4.5 SR – Examples", "pdf_verbatim": "| 1 | ABC | SR | ABC-001 | SRGRPID | 1 | | R1 |", "figure_ref": null, "candidates": [{"md_atom_id": "md_dmSR_ex_a081", "md_file": "knowledge_base/domains/SR/examples.md", "md_atom_type": "TABLE_ROW", "md_parent_section": "§SR.3 [Example 3]", "md_verbatim": "| 1 | ABC | SR | ABC-001 | SRGRPID | 1 | | R1 |", "score": 1.0, "match_basis": "verbatim_token+domain_route:SR"}, {"md_atom_id": "md_dmSR_ex_a082", "md_file": "knowledge_base/domains/SR/examples.md", "md_atom_type": "TABLE_ROW", "md_parent_section": "§SR.3 [Example 3]", "md_verbatim": "| 2 | ABC | AG | ABC-001 | AGSEQ | 1 | | R1 |", "score": 0.52, "match_basis": "verbatim_token+domain_route:SR"}, {"md_atom_id": "md_dmSR_ex_a046", "md_file": "knowledge_base/domains/SR/examples.md", "md_atom_type": "TABLE_ROW", "md_parent_section": "§SR.2 [Example 2]", "md_verbatim": "| 1 | CC-001 | SR | CC-001-101 | SRSPID | 1 | | R1 |", "score": 0.5091, "match_basis": "verbatim_token+domain_route:SR"}, {"md_atom_id": "md_dmSR_ex_a047", "md_file": "knowledge_base/domains/SR/examples.md", "md_atom_type": "TABLE_ROW", "md_parent_section": "§SR.2 [Example 2]", "md_verbatim": "| 2 | CC-001 | EX | CC-001-101 | EXSPID | 1 | | R1 |", "score": 0.5091, "match_basis": "verbatim_token+domain_route:SR"}, {"md_atom_id": "md_dmSR_ex_a048", "md_file": "knowledge_base/domains/SR/examples.md", "md_atom_type": "TABLE_ROW", "md_parent_section": "§SR.2 [Example 2]", "md_verbatim": "| 3 | CC-001 | SR | CC-001-101 | SRSPID | 7 | | R1 |", "score": 0.5091, "match_basis": "verbatim_token+domain_route:SR"}], "candidate_count": 5, "zero_candidate": false}
{"pdf_atom_id": "ig34_p0381_a005", "pdf_atom_type": "TABLE_ROW", "pdf_source": "SDTMIG_v3.4", "pdf_page": 381, "pdf_parent_section": "§6.4.5 SR – Examples", "pdf_verbatim": "| 2 | ABC | AG | ABC-001 | AGSEQ | 1 | | R1 |", "figure_ref": null, "candidates": [{"md_atom_id": "md_dmSR_ex_a082", "md_file": "knowledge_base/domains/SR/examples.md", "md_atom_type": "TABLE_ROW", "md_parent_section": "§SR.3 [Example 3]", "md_verbatim": "| 2 | ABC | AG | ABC-001 | AGSEQ | 1 | | R1 |", "score": 1.0, "match_basis": "verbatim_token+domain_route:SR"}, {"md_atom_id": "md_dmSR_ex_a081", "md_file": "knowledge_base/domains/SR/examples.md", "md_atom_type": "TABLE_ROW", "md_parent_section": "§SR.3 [Example 3]", "md_verbatim": "| 1 | ABC | SR | ABC-001 | SRGRPID | 1 | | R1 |", "score": 0.52, "match_basis": "verbatim_token+domain_route:SR"}, {"md_atom_id": "md_dmSR_ex_a046", "md_file": "knowledge_base/domains/SR/examples.md", "md_atom_type": "TABLE_ROW", "md_parent_section": "§SR.2 [Example 2]", "md_verbatim": "| 1 | CC-001 | SR | CC-001-101 | SRSPID | 1 | | R1 |", "score": 0.46, "match_basis": "verbatim_token+domain_route:SR"}, {"md_atom_id": "md_dmSR_ex_a047", "md_file": "knowledge_base/domains/SR/examples.md", "md_atom_type": "TABLE_ROW", "md_parent_section": "§SR.2 [Example 2]", "md_verbatim": "| 2 | CC-001 | EX | CC-001-101 | EXSPID | 1 | | R1 |", "score": 0.46, "match_basis": "verbatim_token+domain_route:SR"}, {"md_atom_id": "md_dmSR_ex_a048", "md_file": "knowledge_base/domains/SR/examples.md", "md_atom_type": "TABLE_ROW", "md_parent_section": "§SR.2 [Example 2]", "md_verbatim": "| 3 | CC-001 | SR | CC-001-101 | SRSPID | 7 | | R1 |", "score": 0.46, "match_basis": "verbatim_token+domain_route:SR"}, {"md_atom_id": "md_dmSR_ex_a049", "md_file": "knowledge_base/domains/SR/examples.md", "md_atom_type": "TABLE_ROW", "md_parent_section": "§SR.2 [Example 2]", "md_verbatim": "| 4 | CC-001 | SR | CC-001-101 | SRSPID | 2 | | R2 |", "score": 0.46, "match_basis": "verbatim_token+domain_route:SR"}, {"md_atom_id": "md_dmSR_ex_a050", "md_file": "knowledge_base/domains/SR/examples.md", "md_atom_type": "TABLE_ROW", "md_parent_section": "§SR.2 [Example 2]", "md_verbatim": "| 5 | CC-001 | EX | CC-001-101 | EXSPID | 2 | | R2 |", "score": 0.46, "match_basis": "verbatim_token+domain_route:SR"}, {"md_atom_id": "md_dmSR_ex_a051", "md_file": "knowledge_base/domains/SR/examples.md", "md_atom_type": "TABLE_ROW", "md_parent_section": "§SR.2 [Example 2]", "md_verbatim": "| 6 | CC-001 | SR | CC-001-101 | SRSPID | 8 | | R2 |", "score": 0.46, "match_basis": "verbatim_token+domain_route:SR"}, {"md_atom_id": "md_dmSR_ex_a052", "md_file": "knowledge_base/domains/SR/examples.md", "md_atom_type": "TABLE_ROW", "md_parent_section": "§SR.2 [Example 2]", "md_verbatim": "| 7 | CC-001 | SR | CC-001-101 | SRSPID | 3 | | R3 |", "score": 0.46, "match_basis": "verbatim_token+domain_route:SR"}, {"md_atom_id": "md_dmSR_ex_a053", "md_file": "knowledge_base/domains/SR/examples.md", "md_atom_type": "TABLE_ROW", "md_parent_section": "§SR.2 [Example 2]", "md_verbatim": "| 8 | CC-001 | EX | CC-001-101 | EXSPID | 3 | | R3 |", "score": 0.46, "match_basis": "verbatim_token+domain_route:SR"}], "candidate_count": 10, "zero_candidate": false}
{"pdf_atom_id": "ig34_p0382_a001", "pdf_atom_type": "HEADING", "pdf_source": "SDTMIG_v3.4", "pdf_page": 382, "pdf_parent_section": "(SDTMIG v3.4)", "pdf_verbatim": "7  Trial Design Model Datasets", "figure_ref": null, "candidates": [{"md_atom_id": "md_model05_a005", "md_file": "knowledge_base/model/05_study_level_data.md", "md_atom_type": "HEADING", "md_parent_section": "§ 5.1 Trial Design Model", "md_verbatim": "## 5.1 Trial Design Model", "score": 0.675, "match_basis": "verbatim_token+global_search"}, {"md_atom_id": "md_varindex_a1501", "md_file": "knowledge_base/VARIABLE_INDEX.md", "md_atom_type": "HEADING", "md_parent_section": "§ 二、领域专属变量（仅 1 个域，共 1499 个），按域分组", "md_verbatim": "### TA — Trial Arms (Trial Design)", "score": 0.5333, "match_basis": "verbatim_token+global_search"}, {"md_atom_id": "md_varindex_a1589", "md_file": "knowledge_base/VARIABLE_INDEX.md", "md_atom_type": "HEADING", "md_parent_section": "§ 二、领域专属变量（仅 1 个域，共 1499 个），按域分组", "md_verbatim": "### TV — Trial Visits (Trial Design)", "score": 0.51, "match_basis": "verbatim_token+global_search"}, {"md_atom_id": "md_index_a087", "md_file": "knowledge_base/INDEX.md", "md_atom_type": "HEADING", "md_parent_section": "§ Domains (63 domains)", "md_verbatim": "### Trial Design Domains", "score": 0.5, "match_basis": "verbatim_token+global_search"}, {"md_atom_id": "md_varindex_a1553", "md_file": "knowledge_base/VARIABLE_INDEX.md", "md_atom_type": "HEADING", "md_parent_section": "§ 二、领域专属变量（仅 1 个域，共 1499 个），按域分组", "md_verbatim": "### TS — Trial Summary (Trial Design)", "score": 0.5, "match_basis": "verbatim_token+global_search"}], "candidate_count": 5, "zero_candidate": false}
{"pdf_atom_id": "ig34_p0382_a002", "pdf_atom_type": "HEADING", "pdf_source": "SDTMIG_v3.4", "pdf_page": 382, "pdf_parent_section": "§7 [TRIAL DESIGN MODEL DATASETS]", "pdf_verbatim": "7.1 Introduction to Trial Design Model Datasets", "figure_ref": null, "candidates": [{"md_atom_id": "md_model05_a005", "md_file": "knowledge_base/model/05_study_level_data.md", "md_atom_type": "HEADING", "md_parent_section": "§ 5.1 Trial Design Model", "md_verbatim": "## 5.1 Trial Design Model", "score": 0.5308, "match_basis": "verbatim_token+global_search"}, {"md_atom_id": "md_ch01_a001", "md_file": "knowledge_base/chapters/ch01_introduction.md", "md_atom_type": "HEADING", "md_parent_section": "§1 [Introduction]", "md_verbatim": "# SDTMIG v3.4 — Chapter 1: Introduction", "score": 0.4714, "match_basis": "verbatim_token+global_search"}, {"md_atom_id": "md_varindex_a1501", "md_file": "knowledge_base/VARIABLE_INDEX.md", "md_atom_type": "HEADING", "md_parent_section": "§ 二、领域专属变量（仅 1 个域，共 1499 个），按域分组", "md_verbatim": "### TA — Trial Arms (Trial Design)", "score": 0.45, "match_basis": "verbatim_token+global_search"}, {"md_atom_id": "md_model05_a068", "md_file": "knowledge_base/model/05_study_level_data.md", "md_atom_type": "HEADING", "md_parent_section": "§ Trial Reproductive Paths (TP)", "md_verbatim": "### Trial Reproductive Paths (TP)", "score": 0.4412, "match_basis": "verbatim_token+global_search"}, {"md_atom_id": "md_varindex_a1589", "md_file": "knowledge_base/VARIABLE_INDEX.md", "md_atom_type": "HEADING", "md_parent_section": "§ 二、领域专属变量（仅 1 个域，共 1499 个），按域分组", "md_verbatim": "### TV — Trial Visits (Trial Design)", "score": 0.44, "match_basis": "verbatim_token+global_search"}], "candidate_count": 5, "zero_candidate": false}
