{"pdf_atom_id": "ig34_p0327_a009", "pdf_atom_type": "LIST_ITEM", "pdf_source": "SDTMIG_v3.4", "pdf_page": 327, "pdf_parent_section": "§6.3.9.2 Questionnaires (QS) — QS-Assumptions — QRS Shared Assumptions", "pdf_verbatim": "5. The variable --REPNUM variable is populated when there are multiple repeats of the same question. When records are related to the first trial of the question, the variable --REPNUM should be set to \"1\". When records are related to the second trial of the same question, --REPNUM should be set to \"2\", and so forth.", "figure_ref": null, "candidates": [{"md_atom_id": "md_dmQS_assn_a009", "md_file": "knowledge_base/domains/QS/assumptions.md", "md_atom_type": "LIST_ITEM", "md_parent_section": "§QS [QS — Assumptions]", "md_verbatim": "5. The variable --REPNUM variable is populated when there are multiple repeats of the same question. When records are related to the first trial of the question, the variable --REPNUM should be set to \"1\". When records are related to the second trial of the same question, --REPNUM should be set to \"2\", and so forth.", "score": 1.0, "match_basis": "verbatim_token+domain_route:QS"}, {"md_atom_id": "md_dmQS_assn_a006", "md_file": "knowledge_base/domains/QS/assumptions.md", "md_atom_type": "LIST_ITEM", "md_parent_section": "§QS [QS — Assumptions]", "md_verbatim": "2. Names of subcategories for groups of items/questions are described under the --SCAT variable.\n   a. --SCAT values are not included in the CDISC Controlled Terminology system but rather controlled as described in the QRS supplements in which they are used.", "score": 0.4822, "match_basis": "verbatim_token+domain_route:QS"}, {"md_atom_id": "md_dmQS_assn_a005", "md_file": "knowledge_base/domains/QS/assumptions.md", "md_atom_type": "LIST_ITEM", "md_parent_section": "§QS [QS — Assumptions]", "md_verbatim": "1. The name of a QRS instrument is described under the variable --CAT in the relevant QRS domain (i.e., FT, QS, RS), and may be either abbreviations or longer names. For example, \"ADAS-COG\", \"BPI SHORT FORM\", and \"APACHE II\" are all --CATs which are shortened names for the instruments they represent, whereas \"4 STAIR ASCEND\" is the FTCAT for the instrument of the same name. Sponsors should always reference CDISC Controlled Terminology.\n   a. The QRS Naming Rules for --CAT, --TEST, and --TESTCD and the list of QRS instruments that have published CDISC Controlled Terminology with NCI/EVS are available at: https://www.cdisc.org/standards/terminology/controlled-terminology.\n   b. Refer to the following CDISC Controlled Terminology codelists for QRS instrument --CAT terminology:\n      i. Category of Clinical Classification\n      ii. Category of Functional Test\n      iii. Category of Questionnaire\n   c. QRS --TESTCD/--TEST terminology codelists are listed separately by instrument name.", "score": 0.4758, "match_basis": "verbatim_token+domain_route:QS"}, {"md_atom_id": "md_dmQS_assn_a008", "md_file": "knowledge_base/domains/QS/assumptions.md", "md_atom_type": "LIST_ITEM", "md_parent_section": "§QS [QS — Assumptions]", "md_verbatim": "4. Sponsors should always consult published QRS supplements for guidance on submitting derived information in a SDTMIG QRS domain. Derived variable results in QRS are usually considered captured data. If sponsors operationally derive variable results, then the derived records that are submitted in a QRS domain should be flagged by --DRVFL.\n   a. The following rules apply for \"total\"-type scores in QRS datasets.\n      i. QRS subtotal, total, etc. scores listed on the CRF are considered captured data and are included in the instrument's controlled terminology.\n      ii. QRS subtotal, total, etc. scores not listed on the CRF but documented in an associated instrument manual or reference paper are considered captured data and are included in the instrument's controlled terminology.\n      iii. QRS subtotal, total, etc. scores not listed on the CRF, but known to be included in eData by sponsors are considered as captured data, are included in the instrument's controlled terminology. The QRS instrument's CT is considered extensible for this case and the subtotal or total score should be requested to be added.\n         1. Any imputations/calculations done to numeric \"standardized responses\" to produce the total score via transforming numeric \"standardized responses\" in any way would be done as ADaM derivations.\n   b. The QRS instrument subtotal or total score, which is the sum of the numeric responses for an instrument, is populated in --ORRES, --STRESC, and --STRESN. It is considered a captured subtotal or total score without any knowledge of the sponsor-data management processes related to the score.\n      i. If operationally derived by the sponsor, it is the sponsor's responsibility to set the --DRVFL flag based on their eCRF process to derive subtotal and total scores. An investigator-derived score written on a CRF will be considered a captured score and not flagged. When subtotal and total scores are derived by the sponsor, the derived flag (--DRVFL) is set to \"Y\". However, when the subtotal and total scores are received from a central provider or vendor, the value would go into --ORRES and --DRVFL would be null (see Section 4.1.8.1, Origin Metadata for Variables).", "score": 0.4675, "match_basis": "verbatim_token+domain_route:QS"}, {"md_atom_id": "md_dmQS_assn_a010", "md_file": "knowledge_base/domains/QS/assumptions.md", "md_atom_type": "LIST_ITEM", "md_parent_section": "§QS [QS — Assumptions]", "md_verbatim": "6. The actual version number of an instrument is represented in the --CAT value as designated by the QRS Terminology Team. If it is determined that this is not the case for an instrument:\n   a. Notify the QRS Terminology Team that the instrument has a specific or multiple version numbers. This team will assist in providing a resolution on how the situation will be handled.\n   b. Consider the use of the --GRPID variable to indicate the instrument's version number prior to a decision by the QRS Terminology Team.\n   c. The sponsor is expected to provide information about the version used for each QRS instrument in the metadata (using the Comments column in the Define-XML document). This could be provided as value-level metadata for --CAT.\n   d. The sponsor is expected to provide information about the scoring rules in the metadata.", "score": 0.4649, "match_basis": "verbatim_token+domain_route:QS"}], "candidate_count": 5, "zero_candidate": false}
{"pdf_atom_id": "ig34_p0327_a010", "pdf_atom_type": "LIST_ITEM", "pdf_source": "SDTMIG_v3.4", "pdf_page": 327, "pdf_parent_section": "§6.3.9.2 Questionnaires (QS) — QS-Assumptions — QRS Shared Assumptions", "pdf_verbatim": "6. The actual version number of an instrument is represented in the --CAT value as designated by the QRS Terminology Team. If it is determined that this is not the case for an instrument:", "figure_ref": null, "candidates": [{"md_atom_id": "md_dmQS_assn_a010", "md_file": "knowledge_base/domains/QS/assumptions.md", "md_atom_type": "LIST_ITEM", "md_parent_section": "§QS [QS — Assumptions]", "md_verbatim": "6. The actual version number of an instrument is represented in the --CAT value as designated by the QRS Terminology Team. If it is determined that this is not the case for an instrument:\n   a. Notify the QRS Terminology Team that the instrument has a specific or multiple version numbers. This team will assist in providing a resolution on how the situation will be handled.\n   b. Consider the use of the --GRPID variable to indicate the instrument's version number prior to a decision by the QRS Terminology Team.\n   c. The sponsor is expected to provide information about the version used for each QRS instrument in the metadata (using the Comments column in the Define-XML document). This could be provided as value-level metadata for --CAT.\n   d. The sponsor is expected to provide information about the scoring rules in the metadata.", "score": 0.6042, "match_basis": "verbatim_token+domain_route:QS"}, {"md_atom_id": "md_dmQS_assn_a007", "md_file": "knowledge_base/domains/QS/assumptions.md", "md_atom_type": "LIST_ITEM", "md_parent_section": "§QS [QS — Assumptions]", "md_verbatim": "3. There are cases where QRS CRFs do not include numeric \"standardized responses\" assigned to text responses (e.g., mild, moderate, severe being 1, 2, 3). It is clearly in everyone's best interest to include the numeric \"standardized responses\" in the SDTMIG QRS dataset. This is only done when the numeric \"standardized responses\" are documented in the QRS CRF instructions, a user manual, a website specific to the QRS instrument, or another reference document that provides a clear explanation and rationale for providing them in the SDTMIG QRS dataset.", "score": 0.5043, "match_basis": "verbatim_token+domain_route:QS"}, {"md_atom_id": "md_dmQS_assn_a006", "md_file": "knowledge_base/domains/QS/assumptions.md", "md_atom_type": "LIST_ITEM", "md_parent_section": "§QS [QS — Assumptions]", "md_verbatim": "2. Names of subcategories for groups of items/questions are described under the --SCAT variable.\n   a. --SCAT values are not included in the CDISC Controlled Terminology system but rather controlled as described in the QRS supplements in which they are used.", "score": 0.4917, "match_basis": "verbatim_token+domain_route:QS"}, {"md_atom_id": "md_dmQS_assn_a011", "md_file": "knowledge_base/domains/QS/assumptions.md", "md_atom_type": "LIST_ITEM", "md_parent_section": "§QS [QS — Assumptions]", "md_verbatim": "7. If the variable --TEST is represented with verbatim text >40 characters, represent the abbreviated meaningful text in --TEST within 40 characters and describe the full text of the item in the study metadata. If the verbatim item response (e.g., --QSORRES) is >200 characters, represent the abbreviated meaningful text in QSORRES within the 200 characters and describe the full text in the study metadata; see Section 4 of the QRS supplement. See Section 4.5.3, Text Strings that Exceed the Maximum Length for General Observation-class Domain Variables, for further information.\n   a. The instrument's annotated CRF can also be used as a reference for the full text in both of these situations.", "score": 0.489, "match_basis": "verbatim_token+domain_route:QS"}, {"md_atom_id": "md_dmQS_assn_a012", "md_file": "knowledge_base/domains/QS/assumptions.md", "md_atom_type": "LIST_ITEM", "md_parent_section": "§QS [QS — Assumptions]", "md_verbatim": "8. --EVAL and --EVALID must not be used to model QRS data in SDTM. These variables have had various interpretations on QRS CRFs and were used to represent a multitude of evaluator information about QRS instruments. This has made it more difficult for users of SDTM QRS data to interpret this data and more difficult to pool data for analyses. If needed, supplemental qualifiers may be used to represent this data. Updated information on a proposed solution to this issue will be posted on the CDISC QRS webpage (https://www.cdisc.org/standards/foundational/qrs).", "score": 0.4845, "match_basis": "verbatim_token+domain_route:QS"}], "candidate_count": 5, "zero_candidate": false}
{"pdf_atom_id": "ig34_p0327_a011", "pdf_atom_type": "LIST_ITEM", "pdf_source": "SDTMIG_v3.4", "pdf_page": 327, "pdf_parent_section": "§6.3.9.2 Questionnaires (QS) — QS-Assumptions — QRS Shared Assumptions", "pdf_verbatim": "a. Notify the QRS Terminology Team that the instrument has a specific or multiple version numbers. This team will assist in providing an resolution on how the situation will be handled.", "figure_ref": null, "candidates": [{"md_atom_id": "md_dmQS_assn_a010", "md_file": "knowledge_base/domains/QS/assumptions.md", "md_atom_type": "LIST_ITEM", "md_parent_section": "§QS [QS — Assumptions]", "md_verbatim": "6. The actual version number of an instrument is represented in the --CAT value as designated by the QRS Terminology Team. If it is determined that this is not the case for an instrument:\n   a. Notify the QRS Terminology Team that the instrument has a specific or multiple version numbers. This team will assist in providing a resolution on how the situation will be handled.\n   b. Consider the use of the --GRPID variable to indicate the instrument's version number prior to a decision by the QRS Terminology Team.\n   c. The sponsor is expected to provide information about the version used for each QRS instrument in the metadata (using the Comments column in the Define-XML document). This could be provided as value-level metadata for --CAT.\n   d. The sponsor is expected to provide information about the scoring rules in the metadata.", "score": 0.6576, "match_basis": "verbatim_token+domain_route:QS"}, {"md_atom_id": "md_dmQS_assn_a007", "md_file": "knowledge_base/domains/QS/assumptions.md", "md_atom_type": "LIST_ITEM", "md_parent_section": "§QS [QS — Assumptions]", "md_verbatim": "3. There are cases where QRS CRFs do not include numeric \"standardized responses\" assigned to text responses (e.g., mild, moderate, severe being 1, 2, 3). It is clearly in everyone's best interest to include the numeric \"standardized responses\" in the SDTMIG QRS dataset. This is only done when the numeric \"standardized responses\" are documented in the QRS CRF instructions, a user manual, a website specific to the QRS instrument, or another reference document that provides a clear explanation and rationale for providing them in the SDTMIG QRS dataset.", "score": 0.5206, "match_basis": "verbatim_token+domain_route:QS"}, {"md_atom_id": "md_dmQS_assn_a012", "md_file": "knowledge_base/domains/QS/assumptions.md", "md_atom_type": "LIST_ITEM", "md_parent_section": "§QS [QS — Assumptions]", "md_verbatim": "8. --EVAL and --EVALID must not be used to model QRS data in SDTM. These variables have had various interpretations on QRS CRFs and were used to represent a multitude of evaluator information about QRS instruments. This has made it more difficult for users of SDTM QRS data to interpret this data and more difficult to pool data for analyses. If needed, supplemental qualifiers may be used to represent this data. Updated information on a proposed solution to this issue will be posted on the CDISC QRS webpage (https://www.cdisc.org/standards/foundational/qrs).", "score": 0.5, "match_basis": "verbatim_token+domain_route:QS"}, {"md_atom_id": "md_dmQS_assn_a013", "md_file": "knowledge_base/domains/QS/assumptions.md", "md_atom_type": "LIST_ITEM", "md_parent_section": "§QS [QS — Assumptions]", "md_verbatim": "9. All standard QRS supplement development is coordinated with the CDISC SDS QRS Subteam as the governing body. The process involves drafting the controlled terminology and defining instrument-specific standardized values for qualifier, timing, and result variables to populate the SDTMIG FT, QS, and RS domains. These supplements are developed based on user demand and therapeutic area standards development needs. Sponsors should always consult the CDISC website to review the terminology and supplements prior to modeling any QRS instrument.\n   a. Sponsors may participate and/or request the development of additional QRS supplements and terminology through the CDISC SDS QRS subteam and the Controlled Terminology QRS subteam.\n      i. Once generated, the QRS supplement is posted on the CDISC website (https://www.cdisc.org/standards/foundational/qrs).\n      ii. Sponsors should always consult the published QRS supplements for guidance on submitting derived information in SDTMIG-based domains.", "score": 0.4783, "match_basis": "verbatim_token+domain_route:QS"}, {"md_atom_id": "md_dmQS_assn_a011", "md_file": "knowledge_base/domains/QS/assumptions.md", "md_atom_type": "LIST_ITEM", "md_parent_section": "§QS [QS — Assumptions]", "md_verbatim": "7. If the variable --TEST is represented with verbatim text >40 characters, represent the abbreviated meaningful text in --TEST within 40 characters and describe the full text of the item in the study metadata. If the verbatim item response (e.g., --QSORRES) is >200 characters, represent the abbreviated meaningful text in QSORRES within the 200 characters and describe the full text in the study metadata; see Section 4 of the QRS supplement. See Section 4.5.3, Text Strings that Exceed the Maximum Length for General Observation-class Domain Variables, for further information.\n   a. The instrument's annotated CRF can also be used as a reference for the full text in both of these situations.", "score": 0.4763, "match_basis": "verbatim_token+domain_route:QS"}], "candidate_count": 5, "zero_candidate": false}
{"pdf_atom_id": "ig34_p0327_a012", "pdf_atom_type": "LIST_ITEM", "pdf_source": "SDTMIG_v3.4", "pdf_page": 327, "pdf_parent_section": "§6.3.9.2 Questionnaires (QS) — QS-Assumptions — QRS Shared Assumptions", "pdf_verbatim": "b. Consider the use of the --GRPID variable to indicate the instrument's version number prior to a decision by the QRS Terminology Team.", "figure_ref": null, "candidates": [{"md_atom_id": "md_dmQS_assn_a010", "md_file": "knowledge_base/domains/QS/assumptions.md", "md_atom_type": "LIST_ITEM", "md_parent_section": "§QS [QS — Assumptions]", "md_verbatim": "6. The actual version number of an instrument is represented in the --CAT value as designated by the QRS Terminology Team. If it is determined that this is not the case for an instrument:\n   a. Notify the QRS Terminology Team that the instrument has a specific or multiple version numbers. This team will assist in providing a resolution on how the situation will be handled.\n   b. Consider the use of the --GRPID variable to indicate the instrument's version number prior to a decision by the QRS Terminology Team.\n   c. The sponsor is expected to provide information about the version used for each QRS instrument in the metadata (using the Comments column in the Define-XML document). This could be provided as value-level metadata for --CAT.\n   d. The sponsor is expected to provide information about the scoring rules in the metadata.", "score": 0.5853, "match_basis": "verbatim_token+domain_route:QS"}, {"md_atom_id": "md_dmQS_assn_a006", "md_file": "knowledge_base/domains/QS/assumptions.md", "md_atom_type": "LIST_ITEM", "md_parent_section": "§QS [QS — Assumptions]", "md_verbatim": "2. Names of subcategories for groups of items/questions are described under the --SCAT variable.\n   a. --SCAT values are not included in the CDISC Controlled Terminology system but rather controlled as described in the QRS supplements in which they are used.", "score": 0.5164, "match_basis": "verbatim_token+domain_route:QS"}, {"md_atom_id": "md_dmQS_assn_a013", "md_file": "knowledge_base/domains/QS/assumptions.md", "md_atom_type": "LIST_ITEM", "md_parent_section": "§QS [QS — Assumptions]", "md_verbatim": "9. All standard QRS supplement development is coordinated with the CDISC SDS QRS Subteam as the governing body. The process involves drafting the controlled terminology and defining instrument-specific standardized values for qualifier, timing, and result variables to populate the SDTMIG FT, QS, and RS domains. These supplements are developed based on user demand and therapeutic area standards development needs. Sponsors should always consult the CDISC website to review the terminology and supplements prior to modeling any QRS instrument.\n   a. Sponsors may participate and/or request the development of additional QRS supplements and terminology through the CDISC SDS QRS subteam and the Controlled Terminology QRS subteam.\n      i. Once generated, the QRS supplement is posted on the CDISC website (https://www.cdisc.org/standards/foundational/qrs).\n      ii. Sponsors should always consult the published QRS supplements for guidance on submitting derived information in SDTMIG-based domains.", "score": 0.4776, "match_basis": "verbatim_token+domain_route:QS"}, {"md_atom_id": "md_dmQS_assn_a005", "md_file": "knowledge_base/domains/QS/assumptions.md", "md_atom_type": "LIST_ITEM", "md_parent_section": "§QS [QS — Assumptions]", "md_verbatim": "1. The name of a QRS instrument is described under the variable --CAT in the relevant QRS domain (i.e., FT, QS, RS), and may be either abbreviations or longer names. For example, \"ADAS-COG\", \"BPI SHORT FORM\", and \"APACHE II\" are all --CATs which are shortened names for the instruments they represent, whereas \"4 STAIR ASCEND\" is the FTCAT for the instrument of the same name. Sponsors should always reference CDISC Controlled Terminology.\n   a. The QRS Naming Rules for --CAT, --TEST, and --TESTCD and the list of QRS instruments that have published CDISC Controlled Terminology with NCI/EVS are available at: https://www.cdisc.org/standards/terminology/controlled-terminology.\n   b. Refer to the following CDISC Controlled Terminology codelists for QRS instrument --CAT terminology:\n      i. Category of Clinical Classification\n      ii. Category of Functional Test\n      iii. Category of Questionnaire\n   c. QRS --TESTCD/--TEST terminology codelists are listed separately by instrument name.", "score": 0.4725, "match_basis": "verbatim_token+domain_route:QS"}, {"md_atom_id": "md_dmQS_assn_a012", "md_file": "knowledge_base/domains/QS/assumptions.md", "md_atom_type": "LIST_ITEM", "md_parent_section": "§QS [QS — Assumptions]", "md_verbatim": "8. --EVAL and --EVALID must not be used to model QRS data in SDTM. These variables have had various interpretations on QRS CRFs and were used to represent a multitude of evaluator information about QRS instruments. This has made it more difficult for users of SDTM QRS data to interpret this data and more difficult to pool data for analyses. If needed, supplemental qualifiers may be used to represent this data. Updated information on a proposed solution to this issue will be posted on the CDISC QRS webpage (https://www.cdisc.org/standards/foundational/qrs).", "score": 0.467, "match_basis": "verbatim_token+domain_route:QS"}], "candidate_count": 5, "zero_candidate": false}
{"pdf_atom_id": "ig34_p0327_a013", "pdf_atom_type": "LIST_ITEM", "pdf_source": "SDTMIG_v3.4", "pdf_page": 327, "pdf_parent_section": "§6.3.9.2 Questionnaires (QS) — QS-Assumptions — QRS Shared Assumptions", "pdf_verbatim": "c. The sponsor is expected to provide information about the version used for each QRS instrument in the metadata (using the Comments column in the Define-XML document). This could be provided as value-level metadata for --CAT.", "figure_ref": null, "candidates": [{"md_atom_id": "md_dmQS_assn_a010", "md_file": "knowledge_base/domains/QS/assumptions.md", "md_atom_type": "LIST_ITEM", "md_parent_section": "§QS [QS — Assumptions]", "md_verbatim": "6. The actual version number of an instrument is represented in the --CAT value as designated by the QRS Terminology Team. If it is determined that this is not the case for an instrument:\n   a. Notify the QRS Terminology Team that the instrument has a specific or multiple version numbers. This team will assist in providing a resolution on how the situation will be handled.\n   b. Consider the use of the --GRPID variable to indicate the instrument's version number prior to a decision by the QRS Terminology Team.\n   c. The sponsor is expected to provide information about the version used for each QRS instrument in the metadata (using the Comments column in the Define-XML document). This could be provided as value-level metadata for --CAT.\n   d. The sponsor is expected to provide information about the scoring rules in the metadata.", "score": 0.6639, "match_basis": "verbatim_token+domain_route:QS"}, {"md_atom_id": "md_dmQS_assn_a007", "md_file": "knowledge_base/domains/QS/assumptions.md", "md_atom_type": "LIST_ITEM", "md_parent_section": "§QS [QS — Assumptions]", "md_verbatim": "3. There are cases where QRS CRFs do not include numeric \"standardized responses\" assigned to text responses (e.g., mild, moderate, severe being 1, 2, 3). It is clearly in everyone's best interest to include the numeric \"standardized responses\" in the SDTMIG QRS dataset. This is only done when the numeric \"standardized responses\" are documented in the QRS CRF instructions, a user manual, a website specific to the QRS instrument, or another reference document that provides a clear explanation and rationale for providing them in the SDTMIG QRS dataset.", "score": 0.5085, "match_basis": "verbatim_token+domain_route:QS"}, {"md_atom_id": "md_dmQS_assn_a012", "md_file": "knowledge_base/domains/QS/assumptions.md", "md_atom_type": "LIST_ITEM", "md_parent_section": "§QS [QS — Assumptions]", "md_verbatim": "8. --EVAL and --EVALID must not be used to model QRS data in SDTM. These variables have had various interpretations on QRS CRFs and were used to represent a multitude of evaluator information about QRS instruments. This has made it more difficult for users of SDTM QRS data to interpret this data and more difficult to pool data for analyses. If needed, supplemental qualifiers may be used to represent this data. Updated information on a proposed solution to this issue will be posted on the CDISC QRS webpage (https://www.cdisc.org/standards/foundational/qrs).", "score": 0.5056, "match_basis": "verbatim_token+domain_route:QS"}, {"md_atom_id": "md_dmQS_assn_a011", "md_file": "knowledge_base/domains/QS/assumptions.md", "md_atom_type": "LIST_ITEM", "md_parent_section": "§QS [QS — Assumptions]", "md_verbatim": "7. If the variable --TEST is represented with verbatim text >40 characters, represent the abbreviated meaningful text in --TEST within 40 characters and describe the full text of the item in the study metadata. If the verbatim item response (e.g., --QSORRES) is >200 characters, represent the abbreviated meaningful text in QSORRES within the 200 characters and describe the full text in the study metadata; see Section 4 of the QRS supplement. See Section 4.5.3, Text Strings that Exceed the Maximum Length for General Observation-class Domain Variables, for further information.\n   a. The instrument's annotated CRF can also be used as a reference for the full text in both of these situations.", "score": 0.5032, "match_basis": "verbatim_token+domain_route:QS"}, {"md_atom_id": "md_dmQS_assn_a008", "md_file": "knowledge_base/domains/QS/assumptions.md", "md_atom_type": "LIST_ITEM", "md_parent_section": "§QS [QS — Assumptions]", "md_verbatim": "4. Sponsors should always consult published QRS supplements for guidance on submitting derived information in a SDTMIG QRS domain. Derived variable results in QRS are usually considered captured data. If sponsors operationally derive variable results, then the derived records that are submitted in a QRS domain should be flagged by --DRVFL.\n   a. The following rules apply for \"total\"-type scores in QRS datasets.\n      i. QRS subtotal, total, etc. scores listed on the CRF are considered captured data and are included in the instrument's controlled terminology.\n      ii. QRS subtotal, total, etc. scores not listed on the CRF but documented in an associated instrument manual or reference paper are considered captured data and are included in the instrument's controlled terminology.\n      iii. QRS subtotal, total, etc. scores not listed on the CRF, but known to be included in eData by sponsors are considered as captured data, are included in the instrument's controlled terminology. The QRS instrument's CT is considered extensible for this case and the subtotal or total score should be requested to be added.\n         1. Any imputations/calculations done to numeric \"standardized responses\" to produce the total score via transforming numeric \"standardized responses\" in any way would be done as ADaM derivations.\n   b. The QRS instrument subtotal or total score, which is the sum of the numeric responses for an instrument, is populated in --ORRES, --STRESC, and --STRESN. It is considered a captured subtotal or total score without any knowledge of the sponsor-data management processes related to the score.\n      i. If operationally derived by the sponsor, it is the sponsor's responsibility to set the --DRVFL flag based on their eCRF process to derive subtotal and total scores. An investigator-derived score written on a CRF will be considered a captured score and not flagged. When subtotal and total scores are derived by the sponsor, the derived flag (--DRVFL) is set to \"Y\". However, when the subtotal and total scores are received from a central provider or vendor, the value would go into --ORRES and --DRVFL would be null (see Section 4.1.8.1, Origin Metadata for Variables).", "score": 0.4831, "match_basis": "verbatim_token+domain_route:QS"}], "candidate_count": 5, "zero_candidate": false}
{"pdf_atom_id": "ig34_p0327_a014", "pdf_atom_type": "LIST_ITEM", "pdf_source": "SDTMIG_v3.4", "pdf_page": 327, "pdf_parent_section": "§6.3.9.2 Questionnaires (QS) — QS-Assumptions — QRS Shared Assumptions", "pdf_verbatim": "d. The sponsor is expected to provide information about the scoring rules in the metadata.", "figure_ref": null, "candidates": [{"md_atom_id": "md_dmQS_assn_a010", "md_file": "knowledge_base/domains/QS/assumptions.md", "md_atom_type": "LIST_ITEM", "md_parent_section": "§QS [QS — Assumptions]", "md_verbatim": "6. The actual version number of an instrument is represented in the --CAT value as designated by the QRS Terminology Team. If it is determined that this is not the case for an instrument:\n   a. Notify the QRS Terminology Team that the instrument has a specific or multiple version numbers. This team will assist in providing a resolution on how the situation will be handled.\n   b. Consider the use of the --GRPID variable to indicate the instrument's version number prior to a decision by the QRS Terminology Team.\n   c. The sponsor is expected to provide information about the version used for each QRS instrument in the metadata (using the Comments column in the Define-XML document). This could be provided as value-level metadata for --CAT.\n   d. The sponsor is expected to provide information about the scoring rules in the metadata.", "score": 0.5351, "match_basis": "verbatim_token+domain_route:QS"}, {"md_atom_id": "md_dmQS_assn_a011", "md_file": "knowledge_base/domains/QS/assumptions.md", "md_atom_type": "LIST_ITEM", "md_parent_section": "§QS [QS — Assumptions]", "md_verbatim": "7. If the variable --TEST is represented with verbatim text >40 characters, represent the abbreviated meaningful text in --TEST within 40 characters and describe the full text of the item in the study metadata. If the verbatim item response (e.g., --QSORRES) is >200 characters, represent the abbreviated meaningful text in QSORRES within the 200 characters and describe the full text in the study metadata; see Section 4 of the QRS supplement. See Section 4.5.3, Text Strings that Exceed the Maximum Length for General Observation-class Domain Variables, for further information.\n   a. The instrument's annotated CRF can also be used as a reference for the full text in both of these situations.", "score": 0.4812, "match_basis": "verbatim_token+domain_route:QS"}, {"md_atom_id": "md_dmQS_assn_a007", "md_file": "knowledge_base/domains/QS/assumptions.md", "md_atom_type": "LIST_ITEM", "md_parent_section": "§QS [QS — Assumptions]", "md_verbatim": "3. There are cases where QRS CRFs do not include numeric \"standardized responses\" assigned to text responses (e.g., mild, moderate, severe being 1, 2, 3). It is clearly in everyone's best interest to include the numeric \"standardized responses\" in the SDTMIG QRS dataset. This is only done when the numeric \"standardized responses\" are documented in the QRS CRF instructions, a user manual, a website specific to the QRS instrument, or another reference document that provides a clear explanation and rationale for providing them in the SDTMIG QRS dataset.", "score": 0.4651, "match_basis": "verbatim_token+domain_route:QS"}, {"md_atom_id": "md_dmQS_assn_a012", "md_file": "knowledge_base/domains/QS/assumptions.md", "md_atom_type": "LIST_ITEM", "md_parent_section": "§QS [QS — Assumptions]", "md_verbatim": "8. --EVAL and --EVALID must not be used to model QRS data in SDTM. These variables have had various interpretations on QRS CRFs and were used to represent a multitude of evaluator information about QRS instruments. This has made it more difficult for users of SDTM QRS data to interpret this data and more difficult to pool data for analyses. If needed, supplemental qualifiers may be used to represent this data. Updated information on a proposed solution to this issue will be posted on the CDISC QRS webpage (https://www.cdisc.org/standards/foundational/qrs).", "score": 0.4622, "match_basis": "verbatim_token+domain_route:QS"}, {"md_atom_id": "md_dmQS_assn_a008", "md_file": "knowledge_base/domains/QS/assumptions.md", "md_atom_type": "LIST_ITEM", "md_parent_section": "§QS [QS — Assumptions]", "md_verbatim": "4. Sponsors should always consult published QRS supplements for guidance on submitting derived information in a SDTMIG QRS domain. Derived variable results in QRS are usually considered captured data. If sponsors operationally derive variable results, then the derived records that are submitted in a QRS domain should be flagged by --DRVFL.\n   a. The following rules apply for \"total\"-type scores in QRS datasets.\n      i. QRS subtotal, total, etc. scores listed on the CRF are considered captured data and are included in the instrument's controlled terminology.\n      ii. QRS subtotal, total, etc. scores not listed on the CRF but documented in an associated instrument manual or reference paper are considered captured data and are included in the instrument's controlled terminology.\n      iii. QRS subtotal, total, etc. scores not listed on the CRF, but known to be included in eData by sponsors are considered as captured data, are included in the instrument's controlled terminology. The QRS instrument's CT is considered extensible for this case and the subtotal or total score should be requested to be added.\n         1. Any imputations/calculations done to numeric \"standardized responses\" to produce the total score via transforming numeric \"standardized responses\" in any way would be done as ADaM derivations.\n   b. The QRS instrument subtotal or total score, which is the sum of the numeric responses for an instrument, is populated in --ORRES, --STRESC, and --STRESN. It is considered a captured subtotal or total score without any knowledge of the sponsor-data management processes related to the score.\n      i. If operationally derived by the sponsor, it is the sponsor's responsibility to set the --DRVFL flag based on their eCRF process to derive subtotal and total scores. An investigator-derived score written on a CRF will be considered a captured score and not flagged. When subtotal and total scores are derived by the sponsor, the derived flag (--DRVFL) is set to \"Y\". However, when the subtotal and total scores are received from a central provider or vendor, the value would go into --ORRES and --DRVFL would be null (see Section 4.1.8.1, Origin Metadata for Variables).", "score": 0.4589, "match_basis": "verbatim_token+domain_route:QS"}], "candidate_count": 5, "zero_candidate": false}
{"pdf_atom_id": "ig34_p0327_a015", "pdf_atom_type": "LIST_ITEM", "pdf_source": "SDTMIG_v3.4", "pdf_page": 327, "pdf_parent_section": "§6.3.9.2 Questionnaires (QS) — QS-Assumptions — QRS Shared Assumptions", "pdf_verbatim": "7. If the variable --TEST is represented with verbatim text >40 characters, represent the abbreviated meaningful text in --TEST within 40 characters and describe the full text of the item in the study metadata. If the verbatim item response (e.g., --QSORRES) is >200 characters, represent the abbreviated meaningful text in QSORRES within the 200 characters and describe the full text in the study metadata. See Section 4.5.3, Text Strings that Exceed the Maximum Length for General Observation-class Domain Variables, for further information.", "figure_ref": null, "candidates": [{"md_atom_id": "md_dmQS_assn_a011", "md_file": "knowledge_base/domains/QS/assumptions.md", "md_atom_type": "LIST_ITEM", "md_parent_section": "§QS [QS — Assumptions]", "md_verbatim": "7. If the variable --TEST is represented with verbatim text >40 characters, represent the abbreviated meaningful text in --TEST within 40 characters and describe the full text of the item in the study metadata. If the verbatim item response (e.g., --QSORRES) is >200 characters, represent the abbreviated meaningful text in QSORRES within the 200 characters and describe the full text in the study metadata; see Section 4 of the QRS supplement. See Section 4.5.3, Text Strings that Exceed the Maximum Length for General Observation-class Domain Variables, for further information.\n   a. The instrument's annotated CRF can also be used as a reference for the full text in both of these situations.", "score": 0.8697, "match_basis": "verbatim_token+domain_route:QS"}, {"md_atom_id": "md_dmQS_assn_a005", "md_file": "knowledge_base/domains/QS/assumptions.md", "md_atom_type": "LIST_ITEM", "md_parent_section": "§QS [QS — Assumptions]", "md_verbatim": "1. The name of a QRS instrument is described under the variable --CAT in the relevant QRS domain (i.e., FT, QS, RS), and may be either abbreviations or longer names. For example, \"ADAS-COG\", \"BPI SHORT FORM\", and \"APACHE II\" are all --CATs which are shortened names for the instruments they represent, whereas \"4 STAIR ASCEND\" is the FTCAT for the instrument of the same name. Sponsors should always reference CDISC Controlled Terminology.\n   a. The QRS Naming Rules for --CAT, --TEST, and --TESTCD and the list of QRS instruments that have published CDISC Controlled Terminology with NCI/EVS are available at: https://www.cdisc.org/standards/terminology/controlled-terminology.\n   b. Refer to the following CDISC Controlled Terminology codelists for QRS instrument --CAT terminology:\n      i. Category of Clinical Classification\n      ii. Category of Functional Test\n      iii. Category of Questionnaire\n   c. QRS --TESTCD/--TEST terminology codelists are listed separately by instrument name.", "score": 0.5166, "match_basis": "verbatim_token+domain_route:QS"}, {"md_atom_id": "md_dmQS_assn_a010", "md_file": "knowledge_base/domains/QS/assumptions.md", "md_atom_type": "LIST_ITEM", "md_parent_section": "§QS [QS — Assumptions]", "md_verbatim": "6. The actual version number of an instrument is represented in the --CAT value as designated by the QRS Terminology Team. If it is determined that this is not the case for an instrument:\n   a. Notify the QRS Terminology Team that the instrument has a specific or multiple version numbers. This team will assist in providing a resolution on how the situation will be handled.\n   b. Consider the use of the --GRPID variable to indicate the instrument's version number prior to a decision by the QRS Terminology Team.\n   c. The sponsor is expected to provide information about the version used for each QRS instrument in the metadata (using the Comments column in the Define-XML document). This could be provided as value-level metadata for --CAT.\n   d. The sponsor is expected to provide information about the scoring rules in the metadata.", "score": 0.513, "match_basis": "verbatim_token+domain_route:QS"}, {"md_atom_id": "md_dmQS_assn_a014", "md_file": "knowledge_base/domains/QS/assumptions.md", "md_atom_type": "LIST_ITEM", "md_parent_section": "§QS [QS — Assumptions]", "md_verbatim": "10. Any identifiers, timing variables, or findings general observation class qualifiers may be added to a QRS domain, but the following qualifiers would generally not be used: --POS, --BODSYS, --ORNRLO, --ORNRHI, --STNRLO, --STNRHI, --STNRC, --NRIND, --XFN, --LOINC, --SPEC, --SPCCND, --LOC, --FAST, --TOX, --TOXGR, --SEV.", "score": 0.5014, "match_basis": "verbatim_token+domain_route:QS"}, {"md_atom_id": "md_dmQS_assn_a008", "md_file": "knowledge_base/domains/QS/assumptions.md", "md_atom_type": "LIST_ITEM", "md_parent_section": "§QS [QS — Assumptions]", "md_verbatim": "4. Sponsors should always consult published QRS supplements for guidance on submitting derived information in a SDTMIG QRS domain. Derived variable results in QRS are usually considered captured data. If sponsors operationally derive variable results, then the derived records that are submitted in a QRS domain should be flagged by --DRVFL.\n   a. The following rules apply for \"total\"-type scores in QRS datasets.\n      i. QRS subtotal, total, etc. scores listed on the CRF are considered captured data and are included in the instrument's controlled terminology.\n      ii. QRS subtotal, total, etc. scores not listed on the CRF but documented in an associated instrument manual or reference paper are considered captured data and are included in the instrument's controlled terminology.\n      iii. QRS subtotal, total, etc. scores not listed on the CRF, but known to be included in eData by sponsors are considered as captured data, are included in the instrument's controlled terminology. The QRS instrument's CT is considered extensible for this case and the subtotal or total score should be requested to be added.\n         1. Any imputations/calculations done to numeric \"standardized responses\" to produce the total score via transforming numeric \"standardized responses\" in any way would be done as ADaM derivations.\n   b. The QRS instrument subtotal or total score, which is the sum of the numeric responses for an instrument, is populated in --ORRES, --STRESC, and --STRESN. It is considered a captured subtotal or total score without any knowledge of the sponsor-data management processes related to the score.\n      i. If operationally derived by the sponsor, it is the sponsor's responsibility to set the --DRVFL flag based on their eCRF process to derive subtotal and total scores. An investigator-derived score written on a CRF will be considered a captured score and not flagged. When subtotal and total scores are derived by the sponsor, the derived flag (--DRVFL) is set to \"Y\". However, when the subtotal and total scores are received from a central provider or vendor, the value would go into --ORRES and --DRVFL would be null (see Section 4.1.8.1, Origin Metadata for Variables).", "score": 0.4887, "match_basis": "verbatim_token+domain_route:QS"}], "candidate_count": 5, "zero_candidate": false}
{"pdf_atom_id": "ig34_p0328_a001", "pdf_atom_type": "LIST_ITEM", "pdf_source": "SDTMIG_v3.4", "pdf_page": 328, "pdf_parent_section": "§6.3.9.2 Questionnaires (QS) — QS-Assumptions — QRS Shared Assumptions", "pdf_verbatim": "a. The instrument's annotated CRF can also be used as a reference for the full text in both of these situations.", "figure_ref": null, "candidates": [{"md_atom_id": "md_dmQS_assn_a011", "md_file": "knowledge_base/domains/QS/assumptions.md", "md_atom_type": "LIST_ITEM", "md_parent_section": "§QS [QS — Assumptions]", "md_verbatim": "7. If the variable --TEST is represented with verbatim text >40 characters, represent the abbreviated meaningful text in --TEST within 40 characters and describe the full text of the item in the study metadata. If the verbatim item response (e.g., --QSORRES) is >200 characters, represent the abbreviated meaningful text in QSORRES within the 200 characters and describe the full text in the study metadata; see Section 4 of the QRS supplement. See Section 4.5.3, Text Strings that Exceed the Maximum Length for General Observation-class Domain Variables, for further information.\n   a. The instrument's annotated CRF can also be used as a reference for the full text in both of these situations.", "score": 0.5577, "match_basis": "verbatim_token+domain_route:QS"}, {"md_atom_id": "md_dmQS_assn_a007", "md_file": "knowledge_base/domains/QS/assumptions.md", "md_atom_type": "LIST_ITEM", "md_parent_section": "§QS [QS — Assumptions]", "md_verbatim": "3. There are cases where QRS CRFs do not include numeric \"standardized responses\" assigned to text responses (e.g., mild, moderate, severe being 1, 2, 3). It is clearly in everyone's best interest to include the numeric \"standardized responses\" in the SDTMIG QRS dataset. This is only done when the numeric \"standardized responses\" are documented in the QRS CRF instructions, a user manual, a website specific to the QRS instrument, or another reference document that provides a clear explanation and rationale for providing them in the SDTMIG QRS dataset.", "score": 0.5078, "match_basis": "verbatim_token+domain_route:QS"}, {"md_atom_id": "md_dmQS_assn_a012", "md_file": "knowledge_base/domains/QS/assumptions.md", "md_atom_type": "LIST_ITEM", "md_parent_section": "§QS [QS — Assumptions]", "md_verbatim": "8. --EVAL and --EVALID must not be used to model QRS data in SDTM. These variables have had various interpretations on QRS CRFs and were used to represent a multitude of evaluator information about QRS instruments. This has made it more difficult for users of SDTM QRS data to interpret this data and more difficult to pool data for analyses. If needed, supplemental qualifiers may be used to represent this data. Updated information on a proposed solution to this issue will be posted on the CDISC QRS webpage (https://www.cdisc.org/standards/foundational/qrs).", "score": 0.4821, "match_basis": "verbatim_token+domain_route:QS"}, {"md_atom_id": "md_dmQS_assn_a010", "md_file": "knowledge_base/domains/QS/assumptions.md", "md_atom_type": "LIST_ITEM", "md_parent_section": "§QS [QS — Assumptions]", "md_verbatim": "6. The actual version number of an instrument is represented in the --CAT value as designated by the QRS Terminology Team. If it is determined that this is not the case for an instrument:\n   a. Notify the QRS Terminology Team that the instrument has a specific or multiple version numbers. This team will assist in providing a resolution on how the situation will be handled.\n   b. Consider the use of the --GRPID variable to indicate the instrument's version number prior to a decision by the QRS Terminology Team.\n   c. The sponsor is expected to provide information about the version used for each QRS instrument in the metadata (using the Comments column in the Define-XML document). This could be provided as value-level metadata for --CAT.\n   d. The sponsor is expected to provide information about the scoring rules in the metadata.", "score": 0.4676, "match_basis": "verbatim_token+domain_route:QS"}, {"md_atom_id": "md_dmQS_assn_a005", "md_file": "knowledge_base/domains/QS/assumptions.md", "md_atom_type": "LIST_ITEM", "md_parent_section": "§QS [QS — Assumptions]", "md_verbatim": "1. The name of a QRS instrument is described under the variable --CAT in the relevant QRS domain (i.e., FT, QS, RS), and may be either abbreviations or longer names. For example, \"ADAS-COG\", \"BPI SHORT FORM\", and \"APACHE II\" are all --CATs which are shortened names for the instruments they represent, whereas \"4 STAIR ASCEND\" is the FTCAT for the instrument of the same name. Sponsors should always reference CDISC Controlled Terminology.\n   a. The QRS Naming Rules for --CAT, --TEST, and --TESTCD and the list of QRS instruments that have published CDISC Controlled Terminology with NCI/EVS are available at: https://www.cdisc.org/standards/terminology/controlled-terminology.\n   b. Refer to the following CDISC Controlled Terminology codelists for QRS instrument --CAT terminology:\n      i. Category of Clinical Classification\n      ii. Category of Functional Test\n      iii. Category of Questionnaire\n   c. QRS --TESTCD/--TEST terminology codelists are listed separately by instrument name.", "score": 0.4554, "match_basis": "verbatim_token+domain_route:QS"}], "candidate_count": 5, "zero_candidate": false}
{"pdf_atom_id": "ig34_p0328_a002", "pdf_atom_type": "LIST_ITEM", "pdf_source": "SDTMIG_v3.4", "pdf_page": 328, "pdf_parent_section": "§6.3.9.2 Questionnaires (QS) — QS-Assumptions — QRS Shared Assumptions", "pdf_verbatim": "8. --EVAL and --EVALID must not be used to model QRS data in SDTM. These variables have had various interpretations on QRS CRFs and were used to represent a multitude of evaluator information about QRS instruments. This has made it more difficult for users of SDTM QRS data to interpret this data and more difficult to pool data for analyses. If needed, supplemental qualifiers may be used to represent this data. Updated information on a proposed solution to this issue will be posted on the CDISC QRS webpage (https://www.cdisc.org/standards/foundational/qrs).", "figure_ref": null, "candidates": [{"md_atom_id": "md_dmQS_assn_a012", "md_file": "knowledge_base/domains/QS/assumptions.md", "md_atom_type": "LIST_ITEM", "md_parent_section": "§QS [QS — Assumptions]", "md_verbatim": "8. --EVAL and --EVALID must not be used to model QRS data in SDTM. These variables have had various interpretations on QRS CRFs and were used to represent a multitude of evaluator information about QRS instruments. This has made it more difficult for users of SDTM QRS data to interpret this data and more difficult to pool data for analyses. If needed, supplemental qualifiers may be used to represent this data. Updated information on a proposed solution to this issue will be posted on the CDISC QRS webpage (https://www.cdisc.org/standards/foundational/qrs).", "score": 1.0, "match_basis": "verbatim_token+domain_route:QS"}, {"md_atom_id": "md_dmQS_assn_a013", "md_file": "knowledge_base/domains/QS/assumptions.md", "md_atom_type": "LIST_ITEM", "md_parent_section": "§QS [QS — Assumptions]", "md_verbatim": "9. All standard QRS supplement development is coordinated with the CDISC SDS QRS Subteam as the governing body. The process involves drafting the controlled terminology and defining instrument-specific standardized values for qualifier, timing, and result variables to populate the SDTMIG FT, QS, and RS domains. These supplements are developed based on user demand and therapeutic area standards development needs. Sponsors should always consult the CDISC website to review the terminology and supplements prior to modeling any QRS instrument.\n   a. Sponsors may participate and/or request the development of additional QRS supplements and terminology through the CDISC SDS QRS subteam and the Controlled Terminology QRS subteam.\n      i. Once generated, the QRS supplement is posted on the CDISC website (https://www.cdisc.org/standards/foundational/qrs).\n      ii. Sponsors should always consult the published QRS supplements for guidance on submitting derived information in SDTMIG-based domains.", "score": 0.553, "match_basis": "verbatim_token+domain_route:QS"}, {"md_atom_id": "md_dmQS_assn_a010", "md_file": "knowledge_base/domains/QS/assumptions.md", "md_atom_type": "LIST_ITEM", "md_parent_section": "§QS [QS — Assumptions]", "md_verbatim": "6. The actual version number of an instrument is represented in the --CAT value as designated by the QRS Terminology Team. If it is determined that this is not the case for an instrument:\n   a. Notify the QRS Terminology Team that the instrument has a specific or multiple version numbers. This team will assist in providing a resolution on how the situation will be handled.\n   b. Consider the use of the --GRPID variable to indicate the instrument's version number prior to a decision by the QRS Terminology Team.\n   c. The sponsor is expected to provide information about the version used for each QRS instrument in the metadata (using the Comments column in the Define-XML document). This could be provided as value-level metadata for --CAT.\n   d. The sponsor is expected to provide information about the scoring rules in the metadata.", "score": 0.5495, "match_basis": "verbatim_token+domain_route:QS"}, {"md_atom_id": "md_dmQS_assn_a011", "md_file": "knowledge_base/domains/QS/assumptions.md", "md_atom_type": "LIST_ITEM", "md_parent_section": "§QS [QS — Assumptions]", "md_verbatim": "7. If the variable --TEST is represented with verbatim text >40 characters, represent the abbreviated meaningful text in --TEST within 40 characters and describe the full text of the item in the study metadata. If the verbatim item response (e.g., --QSORRES) is >200 characters, represent the abbreviated meaningful text in QSORRES within the 200 characters and describe the full text in the study metadata; see Section 4 of the QRS supplement. See Section 4.5.3, Text Strings that Exceed the Maximum Length for General Observation-class Domain Variables, for further information.\n   a. The instrument's annotated CRF can also be used as a reference for the full text in both of these situations.", "score": 0.5289, "match_basis": "verbatim_token+domain_route:QS"}, {"md_atom_id": "md_dmQS_assn_a007", "md_file": "knowledge_base/domains/QS/assumptions.md", "md_atom_type": "LIST_ITEM", "md_parent_section": "§QS [QS — Assumptions]", "md_verbatim": "3. There are cases where QRS CRFs do not include numeric \"standardized responses\" assigned to text responses (e.g., mild, moderate, severe being 1, 2, 3). It is clearly in everyone's best interest to include the numeric \"standardized responses\" in the SDTMIG QRS dataset. This is only done when the numeric \"standardized responses\" are documented in the QRS CRF instructions, a user manual, a website specific to the QRS instrument, or another reference document that provides a clear explanation and rationale for providing them in the SDTMIG QRS dataset.", "score": 0.5133, "match_basis": "verbatim_token+domain_route:QS"}], "candidate_count": 5, "zero_candidate": false}
{"pdf_atom_id": "ig34_p0328_a003", "pdf_atom_type": "LIST_ITEM", "pdf_source": "SDTMIG_v3.4", "pdf_page": 328, "pdf_parent_section": "§6.3.9.2 Questionnaires (QS) — QS-Assumptions — QRS Shared Assumptions", "pdf_verbatim": "9. All standard QRS supplement development is coordinated with the CDISC SDS QRS Subteam as the governing body. The process involves drafting the controlled terminology and defining instrument-specific standardized values for qualifier, timing, and result variables to populate the SDTMIG FT, QS, and RS domains. These supplements are developed based on user demand and therapeutic area standards development needs. Sponsors should always consult the CDISC website to review the terminology and supplements prior to modeling any QRS instrument.", "figure_ref": null, "candidates": [{"md_atom_id": "md_dmQS_assn_a013", "md_file": "knowledge_base/domains/QS/assumptions.md", "md_atom_type": "LIST_ITEM", "md_parent_section": "§QS [QS — Assumptions]", "md_verbatim": "9. All standard QRS supplement development is coordinated with the CDISC SDS QRS Subteam as the governing body. The process involves drafting the controlled terminology and defining instrument-specific standardized values for qualifier, timing, and result variables to populate the SDTMIG FT, QS, and RS domains. These supplements are developed based on user demand and therapeutic area standards development needs. Sponsors should always consult the CDISC website to review the terminology and supplements prior to modeling any QRS instrument.\n   a. Sponsors may participate and/or request the development of additional QRS supplements and terminology through the CDISC SDS QRS subteam and the Controlled Terminology QRS subteam.\n      i. Once generated, the QRS supplement is posted on the CDISC website (https://www.cdisc.org/standards/foundational/qrs).\n      ii. Sponsors should always consult the published QRS supplements for guidance on submitting derived information in SDTMIG-based domains.", "score": 0.844, "match_basis": "verbatim_token+domain_route:QS"}, {"md_atom_id": "md_dmQS_assn_a008", "md_file": "knowledge_base/domains/QS/assumptions.md", "md_atom_type": "LIST_ITEM", "md_parent_section": "§QS [QS — Assumptions]", "md_verbatim": "4. Sponsors should always consult published QRS supplements for guidance on submitting derived information in a SDTMIG QRS domain. Derived variable results in QRS are usually considered captured data. If sponsors operationally derive variable results, then the derived records that are submitted in a QRS domain should be flagged by --DRVFL.\n   a. The following rules apply for \"total\"-type scores in QRS datasets.\n      i. QRS subtotal, total, etc. scores listed on the CRF are considered captured data and are included in the instrument's controlled terminology.\n      ii. QRS subtotal, total, etc. scores not listed on the CRF but documented in an associated instrument manual or reference paper are considered captured data and are included in the instrument's controlled terminology.\n      iii. QRS subtotal, total, etc. scores not listed on the CRF, but known to be included in eData by sponsors are considered as captured data, are included in the instrument's controlled terminology. The QRS instrument's CT is considered extensible for this case and the subtotal or total score should be requested to be added.\n         1. Any imputations/calculations done to numeric \"standardized responses\" to produce the total score via transforming numeric \"standardized responses\" in any way would be done as ADaM derivations.\n   b. The QRS instrument subtotal or total score, which is the sum of the numeric responses for an instrument, is populated in --ORRES, --STRESC, and --STRESN. It is considered a captured subtotal or total score without any knowledge of the sponsor-data management processes related to the score.\n      i. If operationally derived by the sponsor, it is the sponsor's responsibility to set the --DRVFL flag based on their eCRF process to derive subtotal and total scores. An investigator-derived score written on a CRF will be considered a captured score and not flagged. When subtotal and total scores are derived by the sponsor, the derived flag (--DRVFL) is set to \"Y\". However, when the subtotal and total scores are received from a central provider or vendor, the value would go into --ORRES and --DRVFL would be null (see Section 4.1.8.1, Origin Metadata for Variables).", "score": 0.5595, "match_basis": "verbatim_token+domain_route:QS"}, {"md_atom_id": "md_dmQS_assn_a005", "md_file": "knowledge_base/domains/QS/assumptions.md", "md_atom_type": "LIST_ITEM", "md_parent_section": "§QS [QS — Assumptions]", "md_verbatim": "1. The name of a QRS instrument is described under the variable --CAT in the relevant QRS domain (i.e., FT, QS, RS), and may be either abbreviations or longer names. For example, \"ADAS-COG\", \"BPI SHORT FORM\", and \"APACHE II\" are all --CATs which are shortened names for the instruments they represent, whereas \"4 STAIR ASCEND\" is the FTCAT for the instrument of the same name. Sponsors should always reference CDISC Controlled Terminology.\n   a. The QRS Naming Rules for --CAT, --TEST, and --TESTCD and the list of QRS instruments that have published CDISC Controlled Terminology with NCI/EVS are available at: https://www.cdisc.org/standards/terminology/controlled-terminology.\n   b. Refer to the following CDISC Controlled Terminology codelists for QRS instrument --CAT terminology:\n      i. Category of Clinical Classification\n      ii. Category of Functional Test\n      iii. Category of Questionnaire\n   c. QRS --TESTCD/--TEST terminology codelists are listed separately by instrument name.", "score": 0.5458, "match_basis": "verbatim_token+domain_route:QS"}, {"md_atom_id": "md_dmQS_assn_a010", "md_file": "knowledge_base/domains/QS/assumptions.md", "md_atom_type": "LIST_ITEM", "md_parent_section": "§QS [QS — Assumptions]", "md_verbatim": "6. The actual version number of an instrument is represented in the --CAT value as designated by the QRS Terminology Team. If it is determined that this is not the case for an instrument:\n   a. Notify the QRS Terminology Team that the instrument has a specific or multiple version numbers. This team will assist in providing a resolution on how the situation will be handled.\n   b. Consider the use of the --GRPID variable to indicate the instrument's version number prior to a decision by the QRS Terminology Team.\n   c. The sponsor is expected to provide information about the version used for each QRS instrument in the metadata (using the Comments column in the Define-XML document). This could be provided as value-level metadata for --CAT.\n   d. The sponsor is expected to provide information about the scoring rules in the metadata.", "score": 0.5392, "match_basis": "verbatim_token+domain_route:QS"}, {"md_atom_id": "md_dmQS_assn_a012", "md_file": "knowledge_base/domains/QS/assumptions.md", "md_atom_type": "LIST_ITEM", "md_parent_section": "§QS [QS — Assumptions]", "md_verbatim": "8. --EVAL and --EVALID must not be used to model QRS data in SDTM. These variables have had various interpretations on QRS CRFs and were used to represent a multitude of evaluator information about QRS instruments. This has made it more difficult for users of SDTM QRS data to interpret this data and more difficult to pool data for analyses. If needed, supplemental qualifiers may be used to represent this data. Updated information on a proposed solution to this issue will be posted on the CDISC QRS webpage (https://www.cdisc.org/standards/foundational/qrs).", "score": 0.5318, "match_basis": "verbatim_token+domain_route:QS"}], "candidate_count": 5, "zero_candidate": false}
{"pdf_atom_id": "ig34_p0328_a004", "pdf_atom_type": "LIST_ITEM", "pdf_source": "SDTMIG_v3.4", "pdf_page": 328, "pdf_parent_section": "§6.3.9.2 Questionnaires (QS) — QS-Assumptions — QRS Shared Assumptions", "pdf_verbatim": "a. Sponsors may participate and/or request the development of additional QRS supplements and terminology through the CDISC SDS QRS subteam and the Controlled Terminology QRS subteam.", "figure_ref": null, "candidates": [{"md_atom_id": "md_dmQS_assn_a013", "md_file": "knowledge_base/domains/QS/assumptions.md", "md_atom_type": "LIST_ITEM", "md_parent_section": "§QS [QS — Assumptions]", "md_verbatim": "9. All standard QRS supplement development is coordinated with the CDISC SDS QRS Subteam as the governing body. The process involves drafting the controlled terminology and defining instrument-specific standardized values for qualifier, timing, and result variables to populate the SDTMIG FT, QS, and RS domains. These supplements are developed based on user demand and therapeutic area standards development needs. Sponsors should always consult the CDISC website to review the terminology and supplements prior to modeling any QRS instrument.\n   a. Sponsors may participate and/or request the development of additional QRS supplements and terminology through the CDISC SDS QRS subteam and the Controlled Terminology QRS subteam.\n      i. Once generated, the QRS supplement is posted on the CDISC website (https://www.cdisc.org/standards/foundational/qrs).\n      ii. Sponsors should always consult the published QRS supplements for guidance on submitting derived information in SDTMIG-based domains.", "score": 0.5736, "match_basis": "verbatim_token+domain_route:QS"}, {"md_atom_id": "md_dmQS_assn_a006", "md_file": "knowledge_base/domains/QS/assumptions.md", "md_atom_type": "LIST_ITEM", "md_parent_section": "§QS [QS — Assumptions]", "md_verbatim": "2. Names of subcategories for groups of items/questions are described under the --SCAT variable.\n   a. --SCAT values are not included in the CDISC Controlled Terminology system but rather controlled as described in the QRS supplements in which they are used.", "score": 0.5714, "match_basis": "verbatim_token+domain_route:QS"}, {"md_atom_id": "md_dmQS_assn_a005", "md_file": "knowledge_base/domains/QS/assumptions.md", "md_atom_type": "LIST_ITEM", "md_parent_section": "§QS [QS — Assumptions]", "md_verbatim": "1. The name of a QRS instrument is described under the variable --CAT in the relevant QRS domain (i.e., FT, QS, RS), and may be either abbreviations or longer names. For example, \"ADAS-COG\", \"BPI SHORT FORM\", and \"APACHE II\" are all --CATs which are shortened names for the instruments they represent, whereas \"4 STAIR ASCEND\" is the FTCAT for the instrument of the same name. Sponsors should always reference CDISC Controlled Terminology.\n   a. The QRS Naming Rules for --CAT, --TEST, and --TESTCD and the list of QRS instruments that have published CDISC Controlled Terminology with NCI/EVS are available at: https://www.cdisc.org/standards/terminology/controlled-terminology.\n   b. Refer to the following CDISC Controlled Terminology codelists for QRS instrument --CAT terminology:\n      i. Category of Clinical Classification\n      ii. Category of Functional Test\n      iii. Category of Questionnaire\n   c. QRS --TESTCD/--TEST terminology codelists are listed separately by instrument name.", "score": 0.4942, "match_basis": "verbatim_token+domain_route:QS"}, {"md_atom_id": "md_dmQS_assn_a008", "md_file": "knowledge_base/domains/QS/assumptions.md", "md_atom_type": "LIST_ITEM", "md_parent_section": "§QS [QS — Assumptions]", "md_verbatim": "4. Sponsors should always consult published QRS supplements for guidance on submitting derived information in a SDTMIG QRS domain. Derived variable results in QRS are usually considered captured data. If sponsors operationally derive variable results, then the derived records that are submitted in a QRS domain should be flagged by --DRVFL.\n   a. The following rules apply for \"total\"-type scores in QRS datasets.\n      i. QRS subtotal, total, etc. scores listed on the CRF are considered captured data and are included in the instrument's controlled terminology.\n      ii. QRS subtotal, total, etc. scores not listed on the CRF but documented in an associated instrument manual or reference paper are considered captured data and are included in the instrument's controlled terminology.\n      iii. QRS subtotal, total, etc. scores not listed on the CRF, but known to be included in eData by sponsors are considered as captured data, are included in the instrument's controlled terminology. The QRS instrument's CT is considered extensible for this case and the subtotal or total score should be requested to be added.\n         1. Any imputations/calculations done to numeric \"standardized responses\" to produce the total score via transforming numeric \"standardized responses\" in any way would be done as ADaM derivations.\n   b. The QRS instrument subtotal or total score, which is the sum of the numeric responses for an instrument, is populated in --ORRES, --STRESC, and --STRESN. It is considered a captured subtotal or total score without any knowledge of the sponsor-data management processes related to the score.\n      i. If operationally derived by the sponsor, it is the sponsor's responsibility to set the --DRVFL flag based on their eCRF process to derive subtotal and total scores. An investigator-derived score written on a CRF will be considered a captured score and not flagged. When subtotal and total scores are derived by the sponsor, the derived flag (--DRVFL) is set to \"Y\". However, when the subtotal and total scores are received from a central provider or vendor, the value would go into --ORRES and --DRVFL would be null (see Section 4.1.8.1, Origin Metadata for Variables).", "score": 0.4754, "match_basis": "verbatim_token+domain_route:QS"}, {"md_atom_id": "md_dmQS_assn_a010", "md_file": "knowledge_base/domains/QS/assumptions.md", "md_atom_type": "LIST_ITEM", "md_parent_section": "§QS [QS — Assumptions]", "md_verbatim": "6. The actual version number of an instrument is represented in the --CAT value as designated by the QRS Terminology Team. If it is determined that this is not the case for an instrument:\n   a. Notify the QRS Terminology Team that the instrument has a specific or multiple version numbers. This team will assist in providing a resolution on how the situation will be handled.\n   b. Consider the use of the --GRPID variable to indicate the instrument's version number prior to a decision by the QRS Terminology Team.\n   c. The sponsor is expected to provide information about the version used for each QRS instrument in the metadata (using the Comments column in the Define-XML document). This could be provided as value-level metadata for --CAT.\n   d. The sponsor is expected to provide information about the scoring rules in the metadata.", "score": 0.475, "match_basis": "verbatim_token+domain_route:QS"}], "candidate_count": 5, "zero_candidate": false}
{"pdf_atom_id": "ig34_p0328_a005", "pdf_atom_type": "LIST_ITEM", "pdf_source": "SDTMIG_v3.4", "pdf_page": 328, "pdf_parent_section": "§6.3.9.2 Questionnaires (QS) — QS-Assumptions — QRS Shared Assumptions", "pdf_verbatim": "i. Once generated, the QRS supplement is posted on the CDISC website (https://www.cdisc.org/standards/foundational/qrs).", "figure_ref": null, "candidates": [{"md_atom_id": "md_dmQS_assn_a012", "md_file": "knowledge_base/domains/QS/assumptions.md", "md_atom_type": "LIST_ITEM", "md_parent_section": "§QS [QS — Assumptions]", "md_verbatim": "8. --EVAL and --EVALID must not be used to model QRS data in SDTM. These variables have had various interpretations on QRS CRFs and were used to represent a multitude of evaluator information about QRS instruments. This has made it more difficult for users of SDTM QRS data to interpret this data and more difficult to pool data for analyses. If needed, supplemental qualifiers may be used to represent this data. Updated information on a proposed solution to this issue will be posted on the CDISC QRS webpage (https://www.cdisc.org/standards/foundational/qrs).", "score": 0.5326, "match_basis": "verbatim_token+domain_route:QS"}, {"md_atom_id": "md_dmQS_ex_a002", "md_file": "knowledge_base/domains/QS/examples.md", "md_atom_type": "SENTENCE", "md_parent_section": "§QS [QS — Examples]", "md_verbatim": "CDISC publishes supplements for individual questionnaires (at https://www.cdisc.org/standards/foundational/qrs). Additional QS examples can be found in supplements on that webpage.", "score": 0.527, "match_basis": "verbatim_token+domain_route:QS"}, {"md_atom_id": "md_dmQS_assn_a013", "md_file": "knowledge_base/domains/QS/assumptions.md", "md_atom_type": "LIST_ITEM", "md_parent_section": "§QS [QS — Assumptions]", "md_verbatim": "9. All standard QRS supplement development is coordinated with the CDISC SDS QRS Subteam as the governing body. The process involves drafting the controlled terminology and defining instrument-specific standardized values for qualifier, timing, and result variables to populate the SDTMIG FT, QS, and RS domains. These supplements are developed based on user demand and therapeutic area standards development needs. Sponsors should always consult the CDISC website to review the terminology and supplements prior to modeling any QRS instrument.\n   a. Sponsors may participate and/or request the development of additional QRS supplements and terminology through the CDISC SDS QRS subteam and the Controlled Terminology QRS subteam.\n      i. Once generated, the QRS supplement is posted on the CDISC website (https://www.cdisc.org/standards/foundational/qrs).\n      ii. Sponsors should always consult the published QRS supplements for guidance on submitting derived information in SDTMIG-based domains.", "score": 0.5121, "match_basis": "verbatim_token+domain_route:QS"}, {"md_atom_id": "md_dmQS_assn_a006", "md_file": "knowledge_base/domains/QS/assumptions.md", "md_atom_type": "LIST_ITEM", "md_parent_section": "§QS [QS — Assumptions]", "md_verbatim": "2. Names of subcategories for groups of items/questions are described under the --SCAT variable.\n   a. --SCAT values are not included in the CDISC Controlled Terminology system but rather controlled as described in the QRS supplements in which they are used.", "score": 0.4909, "match_basis": "verbatim_token+domain_route:QS"}, {"md_atom_id": "md_dmQS_assn_a007", "md_file": "knowledge_base/domains/QS/assumptions.md", "md_atom_type": "LIST_ITEM", "md_parent_section": "§QS [QS — Assumptions]", "md_verbatim": "3. There are cases where QRS CRFs do not include numeric \"standardized responses\" assigned to text responses (e.g., mild, moderate, severe being 1, 2, 3). It is clearly in everyone's best interest to include the numeric \"standardized responses\" in the SDTMIG QRS dataset. This is only done when the numeric \"standardized responses\" are documented in the QRS CRF instructions, a user manual, a website specific to the QRS instrument, or another reference document that provides a clear explanation and rationale for providing them in the SDTMIG QRS dataset.", "score": 0.4886, "match_basis": "verbatim_token+domain_route:QS"}], "candidate_count": 5, "zero_candidate": false}
{"pdf_atom_id": "ig34_p0328_a006", "pdf_atom_type": "LIST_ITEM", "pdf_source": "SDTMIG_v3.4", "pdf_page": 328, "pdf_parent_section": "§6.3.9.2 Questionnaires (QS) — QS-Assumptions — QRS Shared Assumptions", "pdf_verbatim": "ii. Sponsors should always consult the published QRS supplements for guidance on submitting derived information in SDTMIG-based domains.", "figure_ref": null, "candidates": [{"md_atom_id": "md_dmQS_assn_a013", "md_file": "knowledge_base/domains/QS/assumptions.md", "md_atom_type": "LIST_ITEM", "md_parent_section": "§QS [QS — Assumptions]", "md_verbatim": "9. All standard QRS supplement development is coordinated with the CDISC SDS QRS Subteam as the governing body. The process involves drafting the controlled terminology and defining instrument-specific standardized values for qualifier, timing, and result variables to populate the SDTMIG FT, QS, and RS domains. These supplements are developed based on user demand and therapeutic area standards development needs. Sponsors should always consult the CDISC website to review the terminology and supplements prior to modeling any QRS instrument.\n   a. Sponsors may participate and/or request the development of additional QRS supplements and terminology through the CDISC SDS QRS subteam and the Controlled Terminology QRS subteam.\n      i. Once generated, the QRS supplement is posted on the CDISC website (https://www.cdisc.org/standards/foundational/qrs).\n      ii. Sponsors should always consult the published QRS supplements for guidance on submitting derived information in SDTMIG-based domains.", "score": 0.567, "match_basis": "verbatim_token+domain_route:QS"}, {"md_atom_id": "md_dmQS_assn_a008", "md_file": "knowledge_base/domains/QS/assumptions.md", "md_atom_type": "LIST_ITEM", "md_parent_section": "§QS [QS — Assumptions]", "md_verbatim": "4. Sponsors should always consult published QRS supplements for guidance on submitting derived information in a SDTMIG QRS domain. Derived variable results in QRS are usually considered captured data. If sponsors operationally derive variable results, then the derived records that are submitted in a QRS domain should be flagged by --DRVFL.\n   a. The following rules apply for \"total\"-type scores in QRS datasets.\n      i. QRS subtotal, total, etc. scores listed on the CRF are considered captured data and are included in the instrument's controlled terminology.\n      ii. QRS subtotal, total, etc. scores not listed on the CRF but documented in an associated instrument manual or reference paper are considered captured data and are included in the instrument's controlled terminology.\n      iii. QRS subtotal, total, etc. scores not listed on the CRF, but known to be included in eData by sponsors are considered as captured data, are included in the instrument's controlled terminology. The QRS instrument's CT is considered extensible for this case and the subtotal or total score should be requested to be added.\n         1. Any imputations/calculations done to numeric \"standardized responses\" to produce the total score via transforming numeric \"standardized responses\" in any way would be done as ADaM derivations.\n   b. The QRS instrument subtotal or total score, which is the sum of the numeric responses for an instrument, is populated in --ORRES, --STRESC, and --STRESN. It is considered a captured subtotal or total score without any knowledge of the sponsor-data management processes related to the score.\n      i. If operationally derived by the sponsor, it is the sponsor's responsibility to set the --DRVFL flag based on their eCRF process to derive subtotal and total scores. An investigator-derived score written on a CRF will be considered a captured score and not flagged. When subtotal and total scores are derived by the sponsor, the derived flag (--DRVFL) is set to \"Y\". However, when the subtotal and total scores are received from a central provider or vendor, the value would go into --ORRES and --DRVFL would be null (see Section 4.1.8.1, Origin Metadata for Variables).", "score": 0.5267, "match_basis": "verbatim_token+domain_route:QS"}, {"md_atom_id": "md_dmQS_assn_a005", "md_file": "knowledge_base/domains/QS/assumptions.md", "md_atom_type": "LIST_ITEM", "md_parent_section": "§QS [QS — Assumptions]", "md_verbatim": "1. The name of a QRS instrument is described under the variable --CAT in the relevant QRS domain (i.e., FT, QS, RS), and may be either abbreviations or longer names. For example, \"ADAS-COG\", \"BPI SHORT FORM\", and \"APACHE II\" are all --CATs which are shortened names for the instruments they represent, whereas \"4 STAIR ASCEND\" is the FTCAT for the instrument of the same name. Sponsors should always reference CDISC Controlled Terminology.\n   a. The QRS Naming Rules for --CAT, --TEST, and --TESTCD and the list of QRS instruments that have published CDISC Controlled Terminology with NCI/EVS are available at: https://www.cdisc.org/standards/terminology/controlled-terminology.\n   b. Refer to the following CDISC Controlled Terminology codelists for QRS instrument --CAT terminology:\n      i. Category of Clinical Classification\n      ii. Category of Functional Test\n      iii. Category of Questionnaire\n   c. QRS --TESTCD/--TEST terminology codelists are listed separately by instrument name.", "score": 0.4901, "match_basis": "verbatim_token+domain_route:QS"}, {"md_atom_id": "md_dmQS_assn_a011", "md_file": "knowledge_base/domains/QS/assumptions.md", "md_atom_type": "LIST_ITEM", "md_parent_section": "§QS [QS — Assumptions]", "md_verbatim": "7. If the variable --TEST is represented with verbatim text >40 characters, represent the abbreviated meaningful text in --TEST within 40 characters and describe the full text of the item in the study metadata. If the verbatim item response (e.g., --QSORRES) is >200 characters, represent the abbreviated meaningful text in QSORRES within the 200 characters and describe the full text in the study metadata; see Section 4 of the QRS supplement. See Section 4.5.3, Text Strings that Exceed the Maximum Length for General Observation-class Domain Variables, for further information.\n   a. The instrument's annotated CRF can also be used as a reference for the full text in both of these situations.", "score": 0.4845, "match_basis": "verbatim_token+domain_route:QS"}, {"md_atom_id": "md_dmQS_assn_a010", "md_file": "knowledge_base/domains/QS/assumptions.md", "md_atom_type": "LIST_ITEM", "md_parent_section": "§QS [QS — Assumptions]", "md_verbatim": "6. The actual version number of an instrument is represented in the --CAT value as designated by the QRS Terminology Team. If it is determined that this is not the case for an instrument:\n   a. Notify the QRS Terminology Team that the instrument has a specific or multiple version numbers. This team will assist in providing a resolution on how the situation will be handled.\n   b. Consider the use of the --GRPID variable to indicate the instrument's version number prior to a decision by the QRS Terminology Team.\n   c. The sponsor is expected to provide information about the version used for each QRS instrument in the metadata (using the Comments column in the Define-XML document). This could be provided as value-level metadata for --CAT.\n   d. The sponsor is expected to provide information about the scoring rules in the metadata.", "score": 0.4731, "match_basis": "verbatim_token+domain_route:QS"}], "candidate_count": 5, "zero_candidate": false}
{"pdf_atom_id": "ig34_p0328_a007", "pdf_atom_type": "LIST_ITEM", "pdf_source": "SDTMIG_v3.4", "pdf_page": 328, "pdf_parent_section": "§6.3.9.2 Questionnaires (QS) — QS-Assumptions — QRS Shared Assumptions", "pdf_verbatim": "10. Any identifiers, timing variables, or findings general observation class qualifiers may be added to a QRS domain, but the following qualifiers would generally not be used: --POS, --BODSYS, --ORNRLO, --ORNRHI, --STNRLO, --STNRHI, --STRNC, --NRIND, --XFN, --LOINC, --SPEC, --SPCCND, --LOC, --FAST, --TOX, --TOXGR, --SEV.", "figure_ref": null, "candidates": [{"md_atom_id": "md_dmQS_assn_a014", "md_file": "knowledge_base/domains/QS/assumptions.md", "md_atom_type": "LIST_ITEM", "md_parent_section": "§QS [QS — Assumptions]", "md_verbatim": "10. Any identifiers, timing variables, or findings general observation class qualifiers may be added to a QRS domain, but the following qualifiers would generally not be used: --POS, --BODSYS, --ORNRLO, --ORNRHI, --STNRLO, --STNRHI, --STNRC, --NRIND, --XFN, --LOINC, --SPEC, --SPCCND, --LOC, --FAST, --TOX, --TOXGR, --SEV.", "score": 0.9778, "match_basis": "verbatim_token+domain_route:QS"}, {"md_atom_id": "md_dmQS_assn_a011", "md_file": "knowledge_base/domains/QS/assumptions.md", "md_atom_type": "LIST_ITEM", "md_parent_section": "§QS [QS — Assumptions]", "md_verbatim": "7. If the variable --TEST is represented with verbatim text >40 characters, represent the abbreviated meaningful text in --TEST within 40 characters and describe the full text of the item in the study metadata. If the verbatim item response (e.g., --QSORRES) is >200 characters, represent the abbreviated meaningful text in QSORRES within the 200 characters and describe the full text in the study metadata; see Section 4 of the QRS supplement. See Section 4.5.3, Text Strings that Exceed the Maximum Length for General Observation-class Domain Variables, for further information.\n   a. The instrument's annotated CRF can also be used as a reference for the full text in both of these situations.", "score": 0.4992, "match_basis": "verbatim_token+domain_route:QS"}, {"md_atom_id": "md_dmQS_assn_a013", "md_file": "knowledge_base/domains/QS/assumptions.md", "md_atom_type": "LIST_ITEM", "md_parent_section": "§QS [QS — Assumptions]", "md_verbatim": "9. All standard QRS supplement development is coordinated with the CDISC SDS QRS Subteam as the governing body. The process involves drafting the controlled terminology and defining instrument-specific standardized values for qualifier, timing, and result variables to populate the SDTMIG FT, QS, and RS domains. These supplements are developed based on user demand and therapeutic area standards development needs. Sponsors should always consult the CDISC website to review the terminology and supplements prior to modeling any QRS instrument.\n   a. Sponsors may participate and/or request the development of additional QRS supplements and terminology through the CDISC SDS QRS subteam and the Controlled Terminology QRS subteam.\n      i. Once generated, the QRS supplement is posted on the CDISC website (https://www.cdisc.org/standards/foundational/qrs).\n      ii. Sponsors should always consult the published QRS supplements for guidance on submitting derived information in SDTMIG-based domains.", "score": 0.4888, "match_basis": "verbatim_token+domain_route:QS"}, {"md_atom_id": "md_dmQS_assn_a010", "md_file": "knowledge_base/domains/QS/assumptions.md", "md_atom_type": "LIST_ITEM", "md_parent_section": "§QS [QS — Assumptions]", "md_verbatim": "6. The actual version number of an instrument is represented in the --CAT value as designated by the QRS Terminology Team. If it is determined that this is not the case for an instrument:\n   a. Notify the QRS Terminology Team that the instrument has a specific or multiple version numbers. This team will assist in providing a resolution on how the situation will be handled.\n   b. Consider the use of the --GRPID variable to indicate the instrument's version number prior to a decision by the QRS Terminology Team.\n   c. The sponsor is expected to provide information about the version used for each QRS instrument in the metadata (using the Comments column in the Define-XML document). This could be provided as value-level metadata for --CAT.\n   d. The sponsor is expected to provide information about the scoring rules in the metadata.", "score": 0.4798, "match_basis": "verbatim_token+domain_route:QS"}, {"md_atom_id": "md_dmQS_assn_a012", "md_file": "knowledge_base/domains/QS/assumptions.md", "md_atom_type": "LIST_ITEM", "md_parent_section": "§QS [QS — Assumptions]", "md_verbatim": "8. --EVAL and --EVALID must not be used to model QRS data in SDTM. These variables have had various interpretations on QRS CRFs and were used to represent a multitude of evaluator information about QRS instruments. This has made it more difficult for users of SDTM QRS data to interpret this data and more difficult to pool data for analyses. If needed, supplemental qualifiers may be used to represent this data. Updated information on a proposed solution to this issue will be posted on the CDISC QRS webpage (https://www.cdisc.org/standards/foundational/qrs).", "score": 0.4702, "match_basis": "verbatim_token+domain_route:QS"}], "candidate_count": 5, "zero_candidate": false}
{"pdf_atom_id": "ig34_p0328_a008", "pdf_atom_type": "HEADING", "pdf_source": "SDTMIG_v3.4", "pdf_page": 328, "pdf_parent_section": "§6.3.9.2 Questionnaires (QS)", "pdf_verbatim": "QS – Examples", "figure_ref": null, "candidates": [{"md_atom_id": "md_dmQS_ex_a001", "md_file": "knowledge_base/domains/QS/examples.md", "md_atom_type": "HEADING", "md_parent_section": "§QS [QS — Examples]", "md_verbatim": "# QS — Examples", "score": 1.0, "match_basis": "verbatim_token+domain_route:QS"}, {"md_atom_id": "md_dmQS_ex_a003", "md_file": "knowledge_base/domains/QS/examples.md", "md_atom_type": "HEADING", "md_parent_section": "§QS [QS — Examples]", "md_verbatim": "## Example 1", "score": 0.9, "match_basis": "verbatim_token+domain_route:QS"}, {"md_atom_id": "md_dmQS_assn_a001", "md_file": "knowledge_base/domains/QS/assumptions.md", "md_atom_type": "HEADING", "md_parent_section": "§QS [QS — Assumptions]", "md_verbatim": "# QS — Assumptions", "score": 0.4, "match_basis": "verbatim_token+domain_route:QS"}, {"md_atom_id": "md_dmQS_assn_a003", "md_file": "knowledge_base/domains/QS/assumptions.md", "md_atom_type": "HEADING", "md_parent_section": "§QS [QS — Assumptions]", "md_verbatim": "## QRS Shared Assumptions", "score": 0.4, "match_basis": "verbatim_token+domain_route:QS"}], "candidate_count": 4, "zero_candidate": false}
{"pdf_atom_id": "ig34_p0328_a009", "pdf_atom_type": "SENTENCE", "pdf_source": "SDTMIG_v3.4", "pdf_page": 328, "pdf_parent_section": "§6.3.9.2 Questionnaires (QS) — QS-Examples", "pdf_verbatim": "CDISC publishes supplements for individual questionnaires (at https://www.cdisc.org/standards/foundational/qrs). Additional QS examples can be found in supplements on that webpage.", "figure_ref": null, "candidates": [{"md_atom_id": "md_dmQS_ex_a002", "md_file": "knowledge_base/domains/QS/examples.md", "md_atom_type": "SENTENCE", "md_parent_section": "§QS [QS — Examples]", "md_verbatim": "CDISC publishes supplements for individual questionnaires (at https://www.cdisc.org/standards/foundational/qrs). Additional QS examples can be found in supplements on that webpage.", "score": 1.0, "match_basis": "verbatim_token+domain_route:QS"}, {"md_atom_id": "md_dmQS_ex_a005", "md_file": "knowledge_base/domains/QS/examples.md", "md_atom_type": "SENTENCE", "md_parent_section": "§QS.1 [Example 1]", "md_verbatim": "The example represents the items from the SWLS instrument.", "score": 0.4562, "match_basis": "verbatim_token+domain_route:QS"}, {"md_atom_id": "md_dmQS_assn_a002", "md_file": "knowledge_base/domains/QS/assumptions.md", "md_atom_type": "SENTENCE", "md_parent_section": "§QS [QS — Assumptions]", "md_verbatim": "There are no additional QS-specific assumptions; all are included in the QRS Shared Assumptions.", "score": 0.4519, "match_basis": "verbatim_token+domain_route:QS"}, {"md_atom_id": "md_dmQS_assn_a012", "md_file": "knowledge_base/domains/QS/assumptions.md", "md_atom_type": "LIST_ITEM", "md_parent_section": "§QS [QS — Assumptions]", "md_verbatim": "8. --EVAL and --EVALID must not be used to model QRS data in SDTM. These variables have had various interpretations on QRS CRFs and were used to represent a multitude of evaluator information about QRS instruments. This has made it more difficult for users of SDTM QRS data to interpret this data and more difficult to pool data for analyses. If needed, supplemental qualifiers may be used to represent this data. Updated information on a proposed solution to this issue will be posted on the CDISC QRS webpage (https://www.cdisc.org/standards/foundational/qrs).", "score": 0.44, "match_basis": "verbatim_token+domain_route:QS"}, {"md_atom_id": "md_dmQS_assn_a004", "md_file": "knowledge_base/domains/QS/assumptions.md", "md_atom_type": "SENTENCE", "md_parent_section": "§QS [QS — Assumptions]", "md_verbatim": "The following assumptions are common to the FT and QS domains as well as the Clinical Classifications use case of the RS domain (not the Disease Response use case of RS):", "score": 0.4281, "match_basis": "verbatim_token+domain_route:QS"}], "candidate_count": 5, "zero_candidate": false}
{"pdf_atom_id": "ig34_p0328_a010", "pdf_atom_type": "HEADING", "pdf_source": "SDTMIG_v3.4", "pdf_page": 328, "pdf_parent_section": "§6.3.9.2 Questionnaires (QS) — QS-Examples", "pdf_verbatim": "Example 1", "figure_ref": null, "candidates": [{"md_atom_id": "md_dmQS_ex_a003", "md_file": "knowledge_base/domains/QS/examples.md", "md_atom_type": "HEADING", "md_parent_section": "§QS [QS — Examples]", "md_verbatim": "## Example 1", "score": 1.0, "match_basis": "verbatim_token+domain_route:QS"}, {"md_atom_id": "md_dmQS_ex_a001", "md_file": "knowledge_base/domains/QS/examples.md", "md_atom_type": "HEADING", "md_parent_section": "§QS [QS — Examples]", "md_verbatim": "# QS — Examples", "score": 0.9, "match_basis": "verbatim_token+domain_route:QS"}, {"md_atom_id": "md_dmQS_assn_a001", "md_file": "knowledge_base/domains/QS/assumptions.md", "md_atom_type": "HEADING", "md_parent_section": "§QS [QS — Assumptions]", "md_verbatim": "# QS — Assumptions", "score": 0.4, "match_basis": "verbatim_token+domain_route:QS"}, {"md_atom_id": "md_dmQS_assn_a003", "md_file": "knowledge_base/domains/QS/assumptions.md", "md_atom_type": "HEADING", "md_parent_section": "§QS [QS — Assumptions]", "md_verbatim": "## QRS Shared Assumptions", "score": 0.4, "match_basis": "verbatim_token+domain_route:QS"}], "candidate_count": 4, "zero_candidate": false}
{"pdf_atom_id": "ig34_p0328_a011", "pdf_atom_type": "HEADING", "pdf_source": "SDTMIG_v3.4", "pdf_page": 328, "pdf_parent_section": "§6.3.9.2 Questionnaires (QS) — QS-Examples — Example 1", "pdf_verbatim": "Satisfaction With Life Scale (SWLS)", "figure_ref": null, "candidates": [{"md_atom_id": "md_dmQS_assn_a001", "md_file": "knowledge_base/domains/QS/assumptions.md", "md_atom_type": "HEADING", "md_parent_section": "§QS [QS — Assumptions]", "md_verbatim": "# QS — Assumptions", "score": 0.4462, "match_basis": "verbatim_token+domain_route:QS"}, {"md_atom_id": "md_dmQS_assn_a003", "md_file": "knowledge_base/domains/QS/assumptions.md", "md_atom_type": "HEADING", "md_parent_section": "§QS [QS — Assumptions]", "md_verbatim": "## QRS Shared Assumptions", "score": 0.4387, "match_basis": "verbatim_token+domain_route:QS"}, {"md_atom_id": "md_dmQS_ex_a001", "md_file": "knowledge_base/domains/QS/examples.md", "md_atom_type": "HEADING", "md_parent_section": "§QS [QS — Examples]", "md_verbatim": "# QS — Examples", "score": 0.4, "match_basis": "verbatim_token+domain_route:QS"}, {"md_atom_id": "md_dmQS_ex_a003", "md_file": "knowledge_base/domains/QS/examples.md", "md_atom_type": "HEADING", "md_parent_section": "§QS [QS — Examples]", "md_verbatim": "## Example 1", "score": 0.4, "match_basis": "verbatim_token+domain_route:QS"}], "candidate_count": 4, "zero_candidate": false}
{"pdf_atom_id": "ig34_p0328_a012", "pdf_atom_type": "SENTENCE", "pdf_source": "SDTMIG_v3.4", "pdf_page": 328, "pdf_parent_section": "§6.3.9.2 Questionnaires (QS) — QS-Examples — Example 1 — Satisfaction With Life Scale (SWLS)", "pdf_verbatim": "The example represents the items from the SWLS instrument.", "figure_ref": null, "candidates": [{"md_atom_id": "md_dmQS_ex_a005", "md_file": "knowledge_base/domains/QS/examples.md", "md_atom_type": "SENTENCE", "md_parent_section": "§QS.1 [Example 1]", "md_verbatim": "The example represents the items from the SWLS instrument.", "score": 1.0, "match_basis": "verbatim_token+domain_route:QS"}, {"md_atom_id": "md_dmQS_ex_a002", "md_file": "knowledge_base/domains/QS/examples.md", "md_atom_type": "SENTENCE", "md_parent_section": "§QS [QS — Examples]", "md_verbatim": "CDISC publishes supplements for individual questionnaires (at https://www.cdisc.org/standards/foundational/qrs). Additional QS examples can be found in supplements on that webpage.", "score": 0.4562, "match_basis": "verbatim_token+domain_route:QS"}, {"md_atom_id": "md_dmQS_ex_a004", "md_file": "knowledge_base/domains/QS/examples.md", "md_atom_type": "SENTENCE", "md_parent_section": "§QS.1 [Example 1]", "md_verbatim": "**Satisfaction With Life Scale (SWLS)**", "score": 0.4267, "match_basis": "verbatim_token+domain_route:QS"}, {"md_atom_id": "md_dmQS_assn_a004", "md_file": "knowledge_base/domains/QS/assumptions.md", "md_atom_type": "SENTENCE", "md_parent_section": "§QS [QS — Assumptions]", "md_verbatim": "The following assumptions are common to the FT and QS domains as well as the Clinical Classifications use case of the RS domain (not the Disease Response use case of RS):", "score": 0.422, "match_basis": "verbatim_token+domain_route:QS"}, {"md_atom_id": "md_dmQS_assn_a002", "md_file": "knowledge_base/domains/QS/assumptions.md", "md_atom_type": "SENTENCE", "md_parent_section": "§QS [QS — Assumptions]", "md_verbatim": "There are no additional QS-specific assumptions; all are included in the QRS Shared Assumptions.", "score": 0.4095, "match_basis": "verbatim_token+domain_route:QS"}], "candidate_count": 5, "zero_candidate": false}
{"pdf_atom_id": "ig34_p0328_a013", "pdf_atom_type": "CODE_LITERAL", "pdf_source": "SDTMIG_v3.4", "pdf_page": 328, "pdf_parent_section": "§6.3.9.2 Questionnaires (QS) — QS-Examples — Example 1 — Satisfaction With Life Scale (SWLS)", "pdf_verbatim": "qs.xpt", "figure_ref": null, "candidates": [{"md_atom_id": "md_dmQS_ex_a006", "md_file": "knowledge_base/domains/QS/examples.md", "md_atom_type": "SENTENCE", "md_parent_section": "§QS.1 [Example 1]", "md_verbatim": "**qs.xpt**", "score": 0.79, "match_basis": "verbatim_token+domain_route:QS"}, {"md_atom_id": "md_dmQS_assn_a001", "md_file": "knowledge_base/domains/QS/assumptions.md", "md_atom_type": "HEADING", "md_parent_section": "§QS [QS — Assumptions]", "md_verbatim": "# QS — Assumptions", "score": 0.19, "match_basis": "verbatim_token+domain_route:QS"}, {"md_atom_id": "md_dmQS_assn_a002", "md_file": "knowledge_base/domains/QS/assumptions.md", "md_atom_type": "SENTENCE", "md_parent_section": "§QS [QS — Assumptions]", "md_verbatim": "There are no additional QS-specific assumptions; all are included in the QRS Shared Assumptions.", "score": 0.19, "match_basis": "verbatim_token+domain_route:QS"}, {"md_atom_id": "md_dmQS_assn_a003", "md_file": "knowledge_base/domains/QS/assumptions.md", "md_atom_type": "HEADING", "md_parent_section": "§QS [QS — Assumptions]", "md_verbatim": "## QRS Shared Assumptions", "score": 0.19, "match_basis": "verbatim_token+domain_route:QS"}, {"md_atom_id": "md_dmQS_assn_a004", "md_file": "knowledge_base/domains/QS/assumptions.md", "md_atom_type": "SENTENCE", "md_parent_section": "§QS [QS — Assumptions]", "md_verbatim": "The following assumptions are common to the FT and QS domains as well as the Clinical Classifications use case of the RS domain (not the Disease Response use case of RS):", "score": 0.19, "match_basis": "verbatim_token+domain_route:QS"}, {"md_atom_id": "md_dmQS_assn_a005", "md_file": "knowledge_base/domains/QS/assumptions.md", "md_atom_type": "LIST_ITEM", "md_parent_section": "§QS [QS — Assumptions]", "md_verbatim": "1. The name of a QRS instrument is described under the variable --CAT in the relevant QRS domain (i.e., FT, QS, RS), and may be either abbreviations or longer names. For example, \"ADAS-COG\", \"BPI SHORT FORM\", and \"APACHE II\" are all --CATs which are shortened names for the instruments they represent, whereas \"4 STAIR ASCEND\" is the FTCAT for the instrument of the same name. Sponsors should always reference CDISC Controlled Terminology.\n   a. The QRS Naming Rules for --CAT, --TEST, and --TESTCD and the list of QRS instruments that have published CDISC Controlled Terminology with NCI/EVS are available at: https://www.cdisc.org/standards/terminology/controlled-terminology.\n   b. Refer to the following CDISC Controlled Terminology codelists for QRS instrument --CAT terminology:\n      i. Category of Clinical Classification\n      ii. Category of Functional Test\n      iii. Category of Questionnaire\n   c. QRS --TESTCD/--TEST terminology codelists are listed separately by instrument name.", "score": 0.19, "match_basis": "verbatim_token+domain_route:QS"}, {"md_atom_id": "md_dmQS_assn_a006", "md_file": "knowledge_base/domains/QS/assumptions.md", "md_atom_type": "LIST_ITEM", "md_parent_section": "§QS [QS — Assumptions]", "md_verbatim": "2. Names of subcategories for groups of items/questions are described under the --SCAT variable.\n   a. --SCAT values are not included in the CDISC Controlled Terminology system but rather controlled as described in the QRS supplements in which they are used.", "score": 0.19, "match_basis": "verbatim_token+domain_route:QS"}, {"md_atom_id": "md_dmQS_assn_a007", "md_file": "knowledge_base/domains/QS/assumptions.md", "md_atom_type": "LIST_ITEM", "md_parent_section": "§QS [QS — Assumptions]", "md_verbatim": "3. There are cases where QRS CRFs do not include numeric \"standardized responses\" assigned to text responses (e.g., mild, moderate, severe being 1, 2, 3). It is clearly in everyone's best interest to include the numeric \"standardized responses\" in the SDTMIG QRS dataset. This is only done when the numeric \"standardized responses\" are documented in the QRS CRF instructions, a user manual, a website specific to the QRS instrument, or another reference document that provides a clear explanation and rationale for providing them in the SDTMIG QRS dataset.", "score": 0.19, "match_basis": "verbatim_token+domain_route:QS"}, {"md_atom_id": "md_dmQS_assn_a008", "md_file": "knowledge_base/domains/QS/assumptions.md", "md_atom_type": "LIST_ITEM", "md_parent_section": "§QS [QS — Assumptions]", "md_verbatim": "4. Sponsors should always consult published QRS supplements for guidance on submitting derived information in a SDTMIG QRS domain. Derived variable results in QRS are usually considered captured data. If sponsors operationally derive variable results, then the derived records that are submitted in a QRS domain should be flagged by --DRVFL.\n   a. The following rules apply for \"total\"-type scores in QRS datasets.\n      i. QRS subtotal, total, etc. scores listed on the CRF are considered captured data and are included in the instrument's controlled terminology.\n      ii. QRS subtotal, total, etc. scores not listed on the CRF but documented in an associated instrument manual or reference paper are considered captured data and are included in the instrument's controlled terminology.\n      iii. QRS subtotal, total, etc. scores not listed on the CRF, but known to be included in eData by sponsors are considered as captured data, are included in the instrument's controlled terminology. The QRS instrument's CT is considered extensible for this case and the subtotal or total score should be requested to be added.\n         1. Any imputations/calculations done to numeric \"standardized responses\" to produce the total score via transforming numeric \"standardized responses\" in any way would be done as ADaM derivations.\n   b. The QRS instrument subtotal or total score, which is the sum of the numeric responses for an instrument, is populated in --ORRES, --STRESC, and --STRESN. It is considered a captured subtotal or total score without any knowledge of the sponsor-data management processes related to the score.\n      i. If operationally derived by the sponsor, it is the sponsor's responsibility to set the --DRVFL flag based on their eCRF process to derive subtotal and total scores. An investigator-derived score written on a CRF will be considered a captured score and not flagged. When subtotal and total scores are derived by the sponsor, the derived flag (--DRVFL) is set to \"Y\". However, when the subtotal and total scores are received from a central provider or vendor, the value would go into --ORRES and --DRVFL would be null (see Section 4.1.8.1, Origin Metadata for Variables).", "score": 0.19, "match_basis": "verbatim_token+domain_route:QS"}, {"md_atom_id": "md_dmQS_assn_a009", "md_file": "knowledge_base/domains/QS/assumptions.md", "md_atom_type": "LIST_ITEM", "md_parent_section": "§QS [QS — Assumptions]", "md_verbatim": "5. The variable --REPNUM variable is populated when there are multiple repeats of the same question. When records are related to the first trial of the question, the variable --REPNUM should be set to \"1\". When records are related to the second trial of the same question, --REPNUM should be set to \"2\", and so forth.", "score": 0.19, "match_basis": "verbatim_token+domain_route:QS"}], "candidate_count": 10, "zero_candidate": false}
{"pdf_atom_id": "ig34_p0328_a014", "pdf_atom_type": "TABLE_HEADER", "pdf_source": "SDTMIG_v3.4", "pdf_page": 328, "pdf_parent_section": "§6.3.9.2 Questionnaires (QS) — QS-Examples — Example 1 — Satisfaction With Life Scale (SWLS)", "pdf_verbatim": "| Row | STUDYID | DOMAIN | USUBJID | QSSEQ | QSTESTCD | QSTEST | QSCAT | QSORRES | QSSTRESC | QSSTRESN | QSLOBXFL | VISITNUM | QSDTC | QSDY |", "figure_ref": null, "candidates": [{"md_atom_id": "md_dmQS_ex_a007", "md_file": "knowledge_base/domains/QS/examples.md", "md_atom_type": "TABLE_HEADER", "md_parent_section": "§QS.1 [Example 1]", "md_verbatim": "| Row | STUDYID | DOMAIN | USUBJID | QSSEQ | QSTESTCD | QSTEST | QSCAT | QSORRES | QSSTRESC | QSSTRESN | QSLOBXFL | VISITNUM | QSDTC | QSDY |\n|-----|---------|--------|---------|-------|----------|--------|-------|---------|----------|----------|----------|----------|-------|------|", "score": 1.0, "match_basis": "verbatim_token+domain_route:QS"}, {"md_atom_id": "md_dmQS_ex_a012", "md_file": "knowledge_base/domains/QS/examples.md", "md_atom_type": "TABLE_ROW", "md_parent_section": "§QS.1 [Example 1]", "md_verbatim": "| 5 | CDISC01 | QS | CDISC01.100008 | 5 | SWLS0105 | SWLS01-Live Life Over Change | SWLS | Strongly disagree | 1 | 1 | Y | 1 | 2003-04-15 | 1 |", "score": 0.3467, "match_basis": "verbatim_token+domain_route:QS"}, {"md_atom_id": "md_dmQS_ex_a017", "md_file": "knowledge_base/domains/QS/examples.md", "md_atom_type": "TABLE_ROW", "md_parent_section": "§QS.1 [Example 1]", "md_verbatim": "| 10 | CDISC01 | QS | CDISC01.100014 | 10 | SWLS0105 | SWLS01-Live Life Over Change | SWLS | Strongly disagree | 1 | 1 | Y | 1 | 2003-04-15 | 1 |", "score": 0.3467, "match_basis": "verbatim_token+domain_route:QS"}, {"md_atom_id": "md_dmQS_ex_a008", "md_file": "knowledge_base/domains/QS/examples.md", "md_atom_type": "TABLE_ROW", "md_parent_section": "§QS.1 [Example 1]", "md_verbatim": "| 1 | CDISC01 | QS | CDISC01.100008 | 1 | SWLS0101 | SWLS01-My Life is Close to Ideal | SWLS | Slightly agree | 5 | 5 | Y | 1 | 2003-04-15 | 1 |", "score": 0.34, "match_basis": "verbatim_token+domain_route:QS"}, {"md_atom_id": "md_dmQS_ex_a009", "md_file": "knowledge_base/domains/QS/examples.md", "md_atom_type": "TABLE_ROW", "md_parent_section": "§QS.1 [Example 1]", "md_verbatim": "| 2 | CDISC01 | QS | CDISC01.100008 | 2 | SWLS0102 | SWLS01-My Life Conditions are Excellent | SWLS | Neither agree nor disagree | 4 | 4 | Y | 1 | 2003-04-15 | 1 |", "score": 0.34, "match_basis": "verbatim_token+domain_route:QS"}], "candidate_count": 5, "zero_candidate": false}
{"pdf_atom_id": "ig34_p0328_a015", "pdf_atom_type": "TABLE_ROW", "pdf_source": "SDTMIG_v3.4", "pdf_page": 328, "pdf_parent_section": "§6.3.9.2 Questionnaires (QS) — QS-Examples — Example 1 — Satisfaction With Life Scale (SWLS)", "pdf_verbatim": "| 1 | CDISC01 | QS | CDISC01.100008 | 1 | SWLS01 | SWLS01-My Life is Close to Ideal | SWLS | Slightly agree | 5 | 5 | | 1 | 2003-04-15 | 1 |", "figure_ref": null, "candidates": [{"md_atom_id": "md_dmQS_ex_a008", "md_file": "knowledge_base/domains/QS/examples.md", "md_atom_type": "TABLE_ROW", "md_parent_section": "§QS.1 [Example 1]", "md_verbatim": "| 1 | CDISC01 | QS | CDISC01.100008 | 1 | SWLS0101 | SWLS01-My Life is Close to Ideal | SWLS | Slightly agree | 5 | 5 | Y | 1 | 2003-04-15 | 1 |", "score": 0.9636, "match_basis": "verbatim_token+domain_route:QS"}, {"md_atom_id": "md_dmQS_ex_a013", "md_file": "knowledge_base/domains/QS/examples.md", "md_atom_type": "TABLE_ROW", "md_parent_section": "§QS.1 [Example 1]", "md_verbatim": "| 6 | CDISC01 | QS | CDISC01.100014 | 6 | SWLS0101 | SWLS01-My Life is Close to Ideal | SWLS | Slightly agree | 5 | 5 | Y | 1 | 2003-04-15 | 1 |", "score": 0.9143, "match_basis": "verbatim_token+domain_route:QS"}, {"md_atom_id": "md_dmQS_ex_a010", "md_file": "knowledge_base/domains/QS/examples.md", "md_atom_type": "TABLE_ROW", "md_parent_section": "§QS.1 [Example 1]", "md_verbatim": "| 3 | CDISC01 | QS | CDISC01.100008 | 3 | SWLS0103 | SWLS01-I Am Satisfied with My Life | SWLS | Agree | 6 | 6 | Y | 1 | 2003-04-15 | 1 |", "score": 0.6714, "match_basis": "verbatim_token+domain_route:QS"}, {"md_atom_id": "md_dmQS_ex_a015", "md_file": "knowledge_base/domains/QS/examples.md", "md_atom_type": "TABLE_ROW", "md_parent_section": "§QS.1 [Example 1]", "md_verbatim": "| 8 | CDISC01 | QS | CDISC01.100014 | 8 | SWLS0103 | SWLS01-I Am Satisfied with My Life | SWLS | Agree | 6 | 6 | Y | 1 | 2003-04-15 | 1 |", "score": 0.6455, "match_basis": "verbatim_token+domain_route:QS"}, {"md_atom_id": "md_dmQS_ex_a012", "md_file": "knowledge_base/domains/QS/examples.md", "md_atom_type": "TABLE_ROW", "md_parent_section": "§QS.1 [Example 1]", "md_verbatim": "| 5 | CDISC01 | QS | CDISC01.100008 | 5 | SWLS0105 | SWLS01-Live Life Over Change | SWLS | Strongly disagree | 1 | 1 | Y | 1 | 2003-04-15 | 1 |", "score": 0.6327, "match_basis": "verbatim_token+domain_route:QS"}], "candidate_count": 5, "zero_candidate": false}
{"pdf_atom_id": "ig34_p0328_a016", "pdf_atom_type": "TABLE_ROW", "pdf_source": "SDTMIG_v3.4", "pdf_page": 328, "pdf_parent_section": "§6.3.9.2 Questionnaires (QS) — QS-Examples — Example 1 — Satisfaction With Life Scale (SWLS)", "pdf_verbatim": "| 2 | CDISC01 | QS | CDISC01.100008 | 2 | SWLS02 | SWLS01-My Life Conditions are Excellent | SWLS | Neither agree nor disagree | 4 | 4 | Y | 1 | 2003-04-15 | 1 |", "figure_ref": null, "candidates": [{"md_atom_id": "md_dmQS_ex_a009", "md_file": "knowledge_base/domains/QS/examples.md", "md_atom_type": "TABLE_ROW", "md_parent_section": "§QS.1 [Example 1]", "md_verbatim": "| 2 | CDISC01 | QS | CDISC01.100008 | 2 | SWLS0102 | SWLS01-My Life Conditions are Excellent | SWLS | Neither agree nor disagree | 4 | 4 | Y | 1 | 2003-04-15 | 1 |", "score": 0.9609, "match_basis": "verbatim_token+domain_route:QS"}, {"md_atom_id": "md_dmQS_ex_a014", "md_file": "knowledge_base/domains/QS/examples.md", "md_atom_type": "TABLE_ROW", "md_parent_section": "§QS.1 [Example 1]", "md_verbatim": "| 7 | CDISC01 | QS | CDISC01.100014 | 7 | SWLS0102 | SWLS01-My Life Conditions are Excellent | SWLS | Neither agree nor disagree | 4 | 4 | Y | 1 | 2003-04-15 | 1 |", "score": 0.925, "match_basis": "verbatim_token+domain_route:QS"}, {"md_atom_id": "md_dmQS_ex_a010", "md_file": "knowledge_base/domains/QS/examples.md", "md_atom_type": "TABLE_ROW", "md_parent_section": "§QS.1 [Example 1]", "md_verbatim": "| 3 | CDISC01 | QS | CDISC01.100008 | 3 | SWLS0103 | SWLS01-I Am Satisfied with My Life | SWLS | Agree | 6 | 6 | Y | 1 | 2003-04-15 | 1 |", "score": 0.6222, "match_basis": "verbatim_token+domain_route:QS"}, {"md_atom_id": "md_dmQS_ex_a012", "md_file": "knowledge_base/domains/QS/examples.md", "md_atom_type": "TABLE_ROW", "md_parent_section": "§QS.1 [Example 1]", "md_verbatim": "| 5 | CDISC01 | QS | CDISC01.100008 | 5 | SWLS0105 | SWLS01-Live Life Over Change | SWLS | Strongly disagree | 1 | 1 | Y | 1 | 2003-04-15 | 1 |", "score": 0.61, "match_basis": "verbatim_token+domain_route:QS"}, {"md_atom_id": "md_dmQS_ex_a015", "md_file": "knowledge_base/domains/QS/examples.md", "md_atom_type": "TABLE_ROW", "md_parent_section": "§QS.1 [Example 1]", "md_verbatim": "| 8 | CDISC01 | QS | CDISC01.100014 | 8 | SWLS0103 | SWLS01-I Am Satisfied with My Life | SWLS | Agree | 6 | 6 | Y | 1 | 2003-04-15 | 1 |", "score": 0.6036, "match_basis": "verbatim_token+domain_route:QS"}], "candidate_count": 5, "zero_candidate": false}
{"pdf_atom_id": "ig34_p0328_a017", "pdf_atom_type": "TABLE_ROW", "pdf_source": "SDTMIG_v3.4", "pdf_page": 328, "pdf_parent_section": "§6.3.9.2 Questionnaires (QS) — QS-Examples — Example 1 — Satisfaction With Life Scale (SWLS)", "pdf_verbatim": "| 3 | CDISC01 | QS | CDISC01.100008 | 3 | SWLS03 | SWLS01-I Am Satisfied with My Life | SWLS | Agree | 6 | 6 | Y | 1 | 2003-04-15 | 1 |", "figure_ref": null, "candidates": [{"md_atom_id": "md_dmQS_ex_a010", "md_file": "knowledge_base/domains/QS/examples.md", "md_atom_type": "TABLE_ROW", "md_parent_section": "§QS.1 [Example 1]", "md_verbatim": "| 3 | CDISC01 | QS | CDISC01.100008 | 3 | SWLS0103 | SWLS01-I Am Satisfied with My Life | SWLS | Agree | 6 | 6 | Y | 1 | 2003-04-15 | 1 |", "score": 0.9419, "match_basis": "verbatim_token+domain_route:QS"}, {"md_atom_id": "md_dmQS_ex_a015", "md_file": "knowledge_base/domains/QS/examples.md", "md_atom_type": "TABLE_ROW", "md_parent_section": "§QS.1 [Example 1]", "md_verbatim": "| 8 | CDISC01 | QS | CDISC01.100014 | 8 | SWLS0103 | SWLS01-I Am Satisfied with My Life | SWLS | Agree | 6 | 6 | Y | 1 | 2003-04-15 | 1 |", "score": 0.8909, "match_basis": "verbatim_token+domain_route:QS"}, {"md_atom_id": "md_dmQS_ex_a008", "md_file": "knowledge_base/domains/QS/examples.md", "md_atom_type": "TABLE_ROW", "md_parent_section": "§QS.1 [Example 1]", "md_verbatim": "| 1 | CDISC01 | QS | CDISC01.100008 | 1 | SWLS0101 | SWLS01-My Life is Close to Ideal | SWLS | Slightly agree | 5 | 5 | Y | 1 | 2003-04-15 | 1 |", "score": 0.6651, "match_basis": "verbatim_token+domain_route:QS"}, {"md_atom_id": "md_dmQS_ex_a012", "md_file": "knowledge_base/domains/QS/examples.md", "md_atom_type": "TABLE_ROW", "md_parent_section": "§QS.1 [Example 1]", "md_verbatim": "| 5 | CDISC01 | QS | CDISC01.100008 | 5 | SWLS0105 | SWLS01-Live Life Over Change | SWLS | Strongly disagree | 1 | 1 | Y | 1 | 2003-04-15 | 1 |", "score": 0.6426, "match_basis": "verbatim_token+domain_route:QS"}, {"md_atom_id": "md_dmQS_ex_a013", "md_file": "knowledge_base/domains/QS/examples.md", "md_atom_type": "TABLE_ROW", "md_parent_section": "§QS.1 [Example 1]", "md_verbatim": "| 6 | CDISC01 | QS | CDISC01.100014 | 6 | SWLS0101 | SWLS01-My Life is Close to Ideal | SWLS | Slightly agree | 5 | 5 | Y | 1 | 2003-04-15 | 1 |", "score": 0.64, "match_basis": "verbatim_token+domain_route:QS"}], "candidate_count": 5, "zero_candidate": false}
{"pdf_atom_id": "ig34_p0328_a018", "pdf_atom_type": "TABLE_ROW", "pdf_source": "SDTMIG_v3.4", "pdf_page": 328, "pdf_parent_section": "§6.3.9.2 Questionnaires (QS) — QS-Examples — Example 1 — Satisfaction With Life Scale (SWLS)", "pdf_verbatim": "| 4 | CDISC01 | QS | CDISC01.100008 | 4 | SWLS04 | SWLS01-Have Gotten Important Things | SWLS | Disagree | 2 | 2 | Y | 1 | 2003-04-15 | 1 |", "figure_ref": null, "candidates": [{"md_atom_id": "md_dmQS_ex_a011", "md_file": "knowledge_base/domains/QS/examples.md", "md_atom_type": "TABLE_ROW", "md_parent_section": "§QS.1 [Example 1]", "md_verbatim": "| 4 | CDISC01 | QS | CDISC01.100008 | 4 | SWLS0104 | SWLS01-Have Gotten Important Things | SWLS | Disagree | 2 | 2 | Y | 1 | 2003-04-15 | 1 |", "score": 0.9538, "match_basis": "verbatim_token+domain_route:QS"}, {"md_atom_id": "md_dmQS_ex_a016", "md_file": "knowledge_base/domains/QS/examples.md", "md_atom_type": "TABLE_ROW", "md_parent_section": "§QS.1 [Example 1]", "md_verbatim": "| 9 | CDISC01 | QS | CDISC01.100014 | 9 | SWLS0104 | SWLS01-Have Gotten Important Things | SWLS | Disagree | 2 | 2 | Y | 1 | 2003-04-15 | 1 |", "score": 0.9122, "match_basis": "verbatim_token+domain_route:QS"}, {"md_atom_id": "md_dmQS_ex_a012", "md_file": "knowledge_base/domains/QS/examples.md", "md_atom_type": "TABLE_ROW", "md_parent_section": "§QS.1 [Example 1]", "md_verbatim": "| 5 | CDISC01 | QS | CDISC01.100008 | 5 | SWLS0105 | SWLS01-Live Life Over Change | SWLS | Strongly disagree | 1 | 1 | Y | 1 | 2003-04-15 | 1 |", "score": 0.6073, "match_basis": "verbatim_token+domain_route:QS"}, {"md_atom_id": "md_dmQS_ex_a010", "md_file": "knowledge_base/domains/QS/examples.md", "md_atom_type": "TABLE_ROW", "md_parent_section": "§QS.1 [Example 1]", "md_verbatim": "| 3 | CDISC01 | QS | CDISC01.100008 | 3 | SWLS0103 | SWLS01-I Am Satisfied with My Life | SWLS | Agree | 6 | 6 | Y | 1 | 2003-04-15 | 1 |", "score": 0.604, "match_basis": "verbatim_token+domain_route:QS"}, {"md_atom_id": "md_dmQS_ex_a008", "md_file": "knowledge_base/domains/QS/examples.md", "md_atom_type": "TABLE_ROW", "md_parent_section": "§QS.1 [Example 1]", "md_verbatim": "| 1 | CDISC01 | QS | CDISC01.100008 | 1 | SWLS0101 | SWLS01-My Life is Close to Ideal | SWLS | Slightly agree | 5 | 5 | Y | 1 | 2003-04-15 | 1 |", "score": 0.5925, "match_basis": "verbatim_token+domain_route:QS"}], "candidate_count": 5, "zero_candidate": false}
{"pdf_atom_id": "ig34_p0328_a019", "pdf_atom_type": "TABLE_ROW", "pdf_source": "SDTMIG_v3.4", "pdf_page": 328, "pdf_parent_section": "§6.3.9.2 Questionnaires (QS) — QS-Examples — Example 1 — Satisfaction With Life Scale (SWLS)", "pdf_verbatim": "| 5 | CDISC01 | QS | CDISC01.100008 | 5 | SWLS05 | SWLS01-Live Life Over Change Nothing | SWLS | Strongly disagree | 1 | 1 | Y | 1 | 2003-04-15 | 1 |", "figure_ref": null, "candidates": [{"md_atom_id": "md_dmQS_ex_a012", "md_file": "knowledge_base/domains/QS/examples.md", "md_atom_type": "TABLE_ROW", "md_parent_section": "§QS.1 [Example 1]", "md_verbatim": "| 5 | CDISC01 | QS | CDISC01.100008 | 5 | SWLS0105 | SWLS01-Live Life Over Change | SWLS | Strongly disagree | 1 | 1 | Y | 1 | 2003-04-15 | 1 |", "score": 0.8884, "match_basis": "verbatim_token+domain_route:QS"}, {"md_atom_id": "md_dmQS_ex_a017", "md_file": "knowledge_base/domains/QS/examples.md", "md_atom_type": "TABLE_ROW", "md_parent_section": "§QS.1 [Example 1]", "md_verbatim": "| 10 | CDISC01 | QS | CDISC01.100014 | 10 | SWLS0105 | SWLS01-Live Life Over Change | SWLS | Strongly disagree | 1 | 1 | Y | 1 | 2003-04-15 | 1 |", "score": 0.8533, "match_basis": "verbatim_token+domain_route:QS"}, {"md_atom_id": "md_dmQS_ex_a011", "md_file": "knowledge_base/domains/QS/examples.md", "md_atom_type": "TABLE_ROW", "md_parent_section": "§QS.1 [Example 1]", "md_verbatim": "| 4 | CDISC01 | QS | CDISC01.100008 | 4 | SWLS0104 | SWLS01-Have Gotten Important Things | SWLS | Disagree | 2 | 2 | Y | 1 | 2003-04-15 | 1 |", "score": 0.6316, "match_basis": "verbatim_token+domain_route:QS"}, {"md_atom_id": "md_dmQS_ex_a010", "md_file": "knowledge_base/domains/QS/examples.md", "md_atom_type": "TABLE_ROW", "md_parent_section": "§QS.1 [Example 1]", "md_verbatim": "| 3 | CDISC01 | QS | CDISC01.100008 | 3 | SWLS0103 | SWLS01-I Am Satisfied with My Life | SWLS | Agree | 6 | 6 | Y | 1 | 2003-04-15 | 1 |", "score": 0.6192, "match_basis": "verbatim_token+domain_route:QS"}, {"md_atom_id": "md_dmQS_ex_a016", "md_file": "knowledge_base/domains/QS/examples.md", "md_atom_type": "TABLE_ROW", "md_parent_section": "§QS.1 [Example 1]", "md_verbatim": "| 9 | CDISC01 | QS | CDISC01.100014 | 9 | SWLS0104 | SWLS01-Have Gotten Important Things | SWLS | Disagree | 2 | 2 | Y | 1 | 2003-04-15 | 1 |", "score": 0.6136, "match_basis": "verbatim_token+domain_route:QS"}], "candidate_count": 5, "zero_candidate": false}
{"pdf_atom_id": "ig34_p0328_a020", "pdf_atom_type": "TABLE_ROW", "pdf_source": "SDTMIG_v3.4", "pdf_page": 328, "pdf_parent_section": "§6.3.9.2 Questionnaires (QS) — QS-Examples — Example 1 — Satisfaction With Life Scale (SWLS)", "pdf_verbatim": "| 6 | CDISC01 | QS | CDISC01.100014 | 6 | SWLS01 | SWLS01-My Life is Close to Ideal | SWLS | Slightly agree | 5 | 5 | Y | 1 | 2003-04-15 | 1 |", "figure_ref": null, "candidates": [{"md_atom_id": "md_dmQS_ex_a013", "md_file": "knowledge_base/domains/QS/examples.md", "md_atom_type": "TABLE_ROW", "md_parent_section": "§QS.1 [Example 1]", "md_verbatim": "| 6 | CDISC01 | QS | CDISC01.100014 | 6 | SWLS0101 | SWLS01-My Life is Close to Ideal | SWLS | Slightly agree | 5 | 5 | Y | 1 | 2003-04-15 | 1 |", "score": 0.9647, "match_basis": "verbatim_token+domain_route:QS"}, {"md_atom_id": "md_dmQS_ex_a008", "md_file": "knowledge_base/domains/QS/examples.md", "md_atom_type": "TABLE_ROW", "md_parent_section": "§QS.1 [Example 1]", "md_verbatim": "| 1 | CDISC01 | QS | CDISC01.100008 | 1 | SWLS0101 | SWLS01-My Life is Close to Ideal | SWLS | Slightly agree | 5 | 5 | Y | 1 | 2003-04-15 | 1 |", "score": 0.9143, "match_basis": "verbatim_token+domain_route:QS"}, {"md_atom_id": "md_dmQS_ex_a015", "md_file": "knowledge_base/domains/QS/examples.md", "md_atom_type": "TABLE_ROW", "md_parent_section": "§QS.1 [Example 1]", "md_verbatim": "| 8 | CDISC01 | QS | CDISC01.100014 | 8 | SWLS0103 | SWLS01-I Am Satisfied with My Life | SWLS | Agree | 6 | 6 | Y | 1 | 2003-04-15 | 1 |", "score": 0.6791, "match_basis": "verbatim_token+domain_route:QS"}, {"md_atom_id": "md_dmQS_ex_a010", "md_file": "knowledge_base/domains/QS/examples.md", "md_atom_type": "TABLE_ROW", "md_parent_section": "§QS.1 [Example 1]", "md_verbatim": "| 3 | CDISC01 | QS | CDISC01.100008 | 3 | SWLS0103 | SWLS01-I Am Satisfied with My Life | SWLS | Agree | 6 | 6 | Y | 1 | 2003-04-15 | 1 |", "score": 0.6455, "match_basis": "verbatim_token+domain_route:QS"}, {"md_atom_id": "md_dmQS_ex_a017", "md_file": "knowledge_base/domains/QS/examples.md", "md_atom_type": "TABLE_ROW", "md_parent_section": "§QS.1 [Example 1]", "md_verbatim": "| 10 | CDISC01 | QS | CDISC01.100014 | 10 | SWLS0105 | SWLS01-Live Life Over Change | SWLS | Strongly disagree | 1 | 1 | Y | 1 | 2003-04-15 | 1 |", "score": 0.64, "match_basis": "verbatim_token+domain_route:QS"}], "candidate_count": 5, "zero_candidate": false}
{"pdf_atom_id": "ig34_p0328_a021", "pdf_atom_type": "TABLE_ROW", "pdf_source": "SDTMIG_v3.4", "pdf_page": 328, "pdf_parent_section": "§6.3.9.2 Questionnaires (QS) — QS-Examples — Example 1 — Satisfaction With Life Scale (SWLS)", "pdf_verbatim": "| 7 | CDISC01 | QS | CDISC01.100014 | 7 | SWLS02 | SWLS01-My Life Conditions are Excellent | SWLS | Neither agree nor disagree | 4 | 4 | Y | 1 | 2003-04-15 | 1 |", "figure_ref": null, "candidates": [{"md_atom_id": "md_dmQS_ex_a014", "md_file": "knowledge_base/domains/QS/examples.md", "md_atom_type": "TABLE_ROW", "md_parent_section": "§QS.1 [Example 1]", "md_verbatim": "| 7 | CDISC01 | QS | CDISC01.100014 | 7 | SWLS0102 | SWLS01-My Life Conditions are Excellent | SWLS | Neither agree nor disagree | 4 | 4 | Y | 1 | 2003-04-15 | 1 |", "score": 0.9617, "match_basis": "verbatim_token+domain_route:QS"}, {"md_atom_id": "md_dmQS_ex_a009", "md_file": "knowledge_base/domains/QS/examples.md", "md_atom_type": "TABLE_ROW", "md_parent_section": "§QS.1 [Example 1]", "md_verbatim": "| 2 | CDISC01 | QS | CDISC01.100008 | 2 | SWLS0102 | SWLS01-My Life Conditions are Excellent | SWLS | Neither agree nor disagree | 4 | 4 | Y | 1 | 2003-04-15 | 1 |", "score": 0.925, "match_basis": "verbatim_token+domain_route:QS"}, {"md_atom_id": "md_dmQS_ex_a015", "md_file": "knowledge_base/domains/QS/examples.md", "md_atom_type": "TABLE_ROW", "md_parent_section": "§QS.1 [Example 1]", "md_verbatim": "| 8 | CDISC01 | QS | CDISC01.100014 | 8 | SWLS0103 | SWLS01-I Am Satisfied with My Life | SWLS | Agree | 6 | 6 | Y | 1 | 2003-04-15 | 1 |", "score": 0.6291, "match_basis": "verbatim_token+domain_route:QS"}, {"md_atom_id": "md_dmQS_ex_a017", "md_file": "knowledge_base/domains/QS/examples.md", "md_atom_type": "TABLE_ROW", "md_parent_section": "§QS.1 [Example 1]", "md_verbatim": "| 10 | CDISC01 | QS | CDISC01.100014 | 10 | SWLS0105 | SWLS01-Live Life Over Change | SWLS | Strongly disagree | 1 | 1 | Y | 1 | 2003-04-15 | 1 |", "score": 0.6164, "match_basis": "verbatim_token+domain_route:QS"}, {"md_atom_id": "md_dmQS_ex_a010", "md_file": "knowledge_base/domains/QS/examples.md", "md_atom_type": "TABLE_ROW", "md_parent_section": "§QS.1 [Example 1]", "md_verbatim": "| 3 | CDISC01 | QS | CDISC01.100008 | 3 | SWLS0103 | SWLS01-I Am Satisfied with My Life | SWLS | Agree | 6 | 6 | Y | 1 | 2003-04-15 | 1 |", "score": 0.6036, "match_basis": "verbatim_token+domain_route:QS"}], "candidate_count": 5, "zero_candidate": false}
{"pdf_atom_id": "ig34_p0328_a022", "pdf_atom_type": "TABLE_ROW", "pdf_source": "SDTMIG_v3.4", "pdf_page": 328, "pdf_parent_section": "§6.3.9.2 Questionnaires (QS) — QS-Examples — Example 1 — Satisfaction With Life Scale (SWLS)", "pdf_verbatim": "| 8 | CDISC01 | QS | CDISC01.100014 | 8 | SWLS03 | SWLS01-I Am Satisfied with My Life | SWLS | Agree | 6 | 6 | Y | 1 | 2003-04-15 | 1 |", "figure_ref": null, "candidates": [{"md_atom_id": "md_dmQS_ex_a015", "md_file": "knowledge_base/domains/QS/examples.md", "md_atom_type": "TABLE_ROW", "md_parent_section": "§QS.1 [Example 1]", "md_verbatim": "| 8 | CDISC01 | QS | CDISC01.100014 | 8 | SWLS0103 | SWLS01-I Am Satisfied with My Life | SWLS | Agree | 6 | 6 | Y | 1 | 2003-04-15 | 1 |", "score": 0.9437, "match_basis": "verbatim_token+domain_route:QS"}, {"md_atom_id": "md_dmQS_ex_a010", "md_file": "knowledge_base/domains/QS/examples.md", "md_atom_type": "TABLE_ROW", "md_parent_section": "§QS.1 [Example 1]", "md_verbatim": "| 3 | CDISC01 | QS | CDISC01.100008 | 3 | SWLS0103 | SWLS01-I Am Satisfied with My Life | SWLS | Agree | 6 | 6 | Y | 1 | 2003-04-15 | 1 |", "score": 0.8909, "match_basis": "verbatim_token+domain_route:QS"}, {"md_atom_id": "md_dmQS_ex_a013", "md_file": "knowledge_base/domains/QS/examples.md", "md_atom_type": "TABLE_ROW", "md_parent_section": "§QS.1 [Example 1]", "md_verbatim": "| 6 | CDISC01 | QS | CDISC01.100014 | 6 | SWLS0101 | SWLS01-My Life is Close to Ideal | SWLS | Slightly agree | 5 | 5 | Y | 1 | 2003-04-15 | 1 |", "score": 0.6727, "match_basis": "verbatim_token+domain_route:QS"}, {"md_atom_id": "md_dmQS_ex_a017", "md_file": "knowledge_base/domains/QS/examples.md", "md_atom_type": "TABLE_ROW", "md_parent_section": "§QS.1 [Example 1]", "md_verbatim": "| 10 | CDISC01 | QS | CDISC01.100014 | 10 | SWLS0105 | SWLS01-Live Life Over Change | SWLS | Strongly disagree | 1 | 1 | Y | 1 | 2003-04-15 | 1 |", "score": 0.65, "match_basis": "verbatim_token+domain_route:QS"}, {"md_atom_id": "md_dmQS_ex_a008", "md_file": "knowledge_base/domains/QS/examples.md", "md_atom_type": "TABLE_ROW", "md_parent_section": "§QS.1 [Example 1]", "md_verbatim": "| 1 | CDISC01 | QS | CDISC01.100008 | 1 | SWLS0101 | SWLS01-My Life is Close to Ideal | SWLS | Slightly agree | 5 | 5 | Y | 1 | 2003-04-15 | 1 |", "score": 0.64, "match_basis": "verbatim_token+domain_route:QS"}], "candidate_count": 5, "zero_candidate": false}
{"pdf_atom_id": "ig34_p0329_a001", "pdf_atom_type": "TABLE_HEADER", "pdf_source": "SDTMIG_v3.4", "pdf_page": 329, "pdf_parent_section": "§6.3.9.2 Questionnaires (QS) — QS-Examples — Example 1 — Satisfaction With Life Scale (SWLS)", "pdf_verbatim": "| Row | STUDYID | DOMAIN | USUBJID | QSSEQ | QSTESTCD | QSTEST | QSCAT | QSORRES | QSSTRESC | QSSTRESN | QSLOBXFL | VISITNUM | QSDTC | QSDY |", "figure_ref": null, "candidates": [{"md_atom_id": "md_dmQS_ex_a007", "md_file": "knowledge_base/domains/QS/examples.md", "md_atom_type": "TABLE_HEADER", "md_parent_section": "§QS.1 [Example 1]", "md_verbatim": "| Row | STUDYID | DOMAIN | USUBJID | QSSEQ | QSTESTCD | QSTEST | QSCAT | QSORRES | QSSTRESC | QSSTRESN | QSLOBXFL | VISITNUM | QSDTC | QSDY |\n|-----|---------|--------|---------|-------|----------|--------|-------|---------|----------|----------|----------|----------|-------|------|", "score": 1.0, "match_basis": "verbatim_token+domain_route:QS"}, {"md_atom_id": "md_dmQS_ex_a012", "md_file": "knowledge_base/domains/QS/examples.md", "md_atom_type": "TABLE_ROW", "md_parent_section": "§QS.1 [Example 1]", "md_verbatim": "| 5 | CDISC01 | QS | CDISC01.100008 | 5 | SWLS0105 | SWLS01-Live Life Over Change | SWLS | Strongly disagree | 1 | 1 | Y | 1 | 2003-04-15 | 1 |", "score": 0.3467, "match_basis": "verbatim_token+domain_route:QS"}, {"md_atom_id": "md_dmQS_ex_a017", "md_file": "knowledge_base/domains/QS/examples.md", "md_atom_type": "TABLE_ROW", "md_parent_section": "§QS.1 [Example 1]", "md_verbatim": "| 10 | CDISC01 | QS | CDISC01.100014 | 10 | SWLS0105 | SWLS01-Live Life Over Change | SWLS | Strongly disagree | 1 | 1 | Y | 1 | 2003-04-15 | 1 |", "score": 0.3467, "match_basis": "verbatim_token+domain_route:QS"}, {"md_atom_id": "md_dmQS_ex_a008", "md_file": "knowledge_base/domains/QS/examples.md", "md_atom_type": "TABLE_ROW", "md_parent_section": "§QS.1 [Example 1]", "md_verbatim": "| 1 | CDISC01 | QS | CDISC01.100008 | 1 | SWLS0101 | SWLS01-My Life is Close to Ideal | SWLS | Slightly agree | 5 | 5 | Y | 1 | 2003-04-15 | 1 |", "score": 0.34, "match_basis": "verbatim_token+domain_route:QS"}, {"md_atom_id": "md_dmQS_ex_a009", "md_file": "knowledge_base/domains/QS/examples.md", "md_atom_type": "TABLE_ROW", "md_parent_section": "§QS.1 [Example 1]", "md_verbatim": "| 2 | CDISC01 | QS | CDISC01.100008 | 2 | SWLS0102 | SWLS01-My Life Conditions are Excellent | SWLS | Neither agree nor disagree | 4 | 4 | Y | 1 | 2003-04-15 | 1 |", "score": 0.34, "match_basis": "verbatim_token+domain_route:QS"}], "candidate_count": 5, "zero_candidate": false}
{"pdf_atom_id": "ig34_p0329_a002", "pdf_atom_type": "TABLE_ROW", "pdf_source": "SDTMIG_v3.4", "pdf_page": 329, "pdf_parent_section": "§6.3.9.2 Questionnaires (QS) — QS-Examples — Example 1 — Satisfaction With Life Scale (SWLS)", "pdf_verbatim": "| 9 | CDISC01 | QS | CDISC01.100014 | 9 | SWLS04 | SWLS01-Have Gotten Important Things | SWLS | Disagree | 2 | 2 | Y | 1 | 2003-04-15 | 1 |", "figure_ref": null, "candidates": [{"md_atom_id": "md_dmQS_ex_a016", "md_file": "knowledge_base/domains/QS/examples.md", "md_atom_type": "TABLE_ROW", "md_parent_section": "§QS.1 [Example 1]", "md_verbatim": "| 9 | CDISC01 | QS | CDISC01.100014 | 9 | SWLS0104 | SWLS01-Have Gotten Important Things | SWLS | Disagree | 2 | 2 | Y | 1 | 2003-04-15 | 1 |", "score": 0.955, "match_basis": "verbatim_token+domain_route:QS"}, {"md_atom_id": "md_dmQS_ex_a011", "md_file": "knowledge_base/domains/QS/examples.md", "md_atom_type": "TABLE_ROW", "md_parent_section": "§QS.1 [Example 1]", "md_verbatim": "| 4 | CDISC01 | QS | CDISC01.100008 | 4 | SWLS0104 | SWLS01-Have Gotten Important Things | SWLS | Disagree | 2 | 2 | Y | 1 | 2003-04-15 | 1 |", "score": 0.9122, "match_basis": "verbatim_token+domain_route:QS"}, {"md_atom_id": "md_dmQS_ex_a017", "md_file": "knowledge_base/domains/QS/examples.md", "md_atom_type": "TABLE_ROW", "md_parent_section": "§QS.1 [Example 1]", "md_verbatim": "| 10 | CDISC01 | QS | CDISC01.100014 | 10 | SWLS0105 | SWLS01-Live Life Over Change | SWLS | Strongly disagree | 1 | 1 | Y | 1 | 2003-04-15 | 1 |", "score": 0.6143, "match_basis": "verbatim_token+domain_route:QS"}, {"md_atom_id": "md_dmQS_ex_a015", "md_file": "knowledge_base/domains/QS/examples.md", "md_atom_type": "TABLE_ROW", "md_parent_section": "§QS.1 [Example 1]", "md_verbatim": "| 8 | CDISC01 | QS | CDISC01.100014 | 8 | SWLS0103 | SWLS01-I Am Satisfied with My Life | SWLS | Agree | 6 | 6 | Y | 1 | 2003-04-15 | 1 |", "score": 0.6118, "match_basis": "verbatim_token+domain_route:QS"}, {"md_atom_id": "md_dmQS_ex_a013", "md_file": "knowledge_base/domains/QS/examples.md", "md_atom_type": "TABLE_ROW", "md_parent_section": "§QS.1 [Example 1]", "md_verbatim": "| 6 | CDISC01 | QS | CDISC01.100014 | 6 | SWLS0101 | SWLS01-My Life is Close to Ideal | SWLS | Slightly agree | 5 | 5 | Y | 1 | 2003-04-15 | 1 |", "score": 0.6, "match_basis": "verbatim_token+domain_route:QS"}], "candidate_count": 5, "zero_candidate": false}
{"pdf_atom_id": "ig34_p0329_a003", "pdf_atom_type": "TABLE_ROW", "pdf_source": "SDTMIG_v3.4", "pdf_page": 329, "pdf_parent_section": "§6.3.9.2 Questionnaires (QS) — QS-Examples — Example 1 — Satisfaction With Life Scale (SWLS)", "pdf_verbatim": "| 10 | CDISC01 | QS | CDISC01.100014 | 10 | SWLS05 | SWLS01-Live Life Over Change Nothing | SWLS | Strongly disagree | 1 | 1 | Y | 1 | 2003-04-15 | 1 |", "figure_ref": null, "candidates": [{"md_atom_id": "md_dmQS_ex_a017", "md_file": "knowledge_base/domains/QS/examples.md", "md_atom_type": "TABLE_ROW", "md_parent_section": "§QS.1 [Example 1]", "md_verbatim": "| 10 | CDISC01 | QS | CDISC01.100014 | 10 | SWLS0105 | SWLS01-Live Life Over Change | SWLS | Strongly disagree | 1 | 1 | Y | 1 | 2003-04-15 | 1 |", "score": 0.8909, "match_basis": "verbatim_token+domain_route:QS"}, {"md_atom_id": "md_dmQS_ex_a012", "md_file": "knowledge_base/domains/QS/examples.md", "md_atom_type": "TABLE_ROW", "md_parent_section": "§QS.1 [Example 1]", "md_verbatim": "| 5 | CDISC01 | QS | CDISC01.100008 | 5 | SWLS0105 | SWLS01-Live Life Over Change | SWLS | Strongly disagree | 1 | 1 | Y | 1 | 2003-04-15 | 1 |", "score": 0.8533, "match_basis": "verbatim_token+domain_route:QS"}, {"md_atom_id": "md_dmQS_ex_a016", "md_file": "knowledge_base/domains/QS/examples.md", "md_atom_type": "TABLE_ROW", "md_parent_section": "§QS.1 [Example 1]", "md_verbatim": "| 9 | CDISC01 | QS | CDISC01.100014 | 9 | SWLS0104 | SWLS01-Have Gotten Important Things | SWLS | Disagree | 2 | 2 | Y | 1 | 2003-04-15 | 1 |", "score": 0.6379, "match_basis": "verbatim_token+domain_route:QS"}, {"md_atom_id": "md_dmQS_ex_a015", "md_file": "knowledge_base/domains/QS/examples.md", "md_atom_type": "TABLE_ROW", "md_parent_section": "§QS.1 [Example 1]", "md_verbatim": "| 8 | CDISC01 | QS | CDISC01.100014 | 8 | SWLS0103 | SWLS01-I Am Satisfied with My Life | SWLS | Agree | 6 | 6 | Y | 1 | 2003-04-15 | 1 |", "score": 0.6264, "match_basis": "verbatim_token+domain_route:QS"}, {"md_atom_id": "md_dmQS_ex_a013", "md_file": "knowledge_base/domains/QS/examples.md", "md_atom_type": "TABLE_ROW", "md_parent_section": "§QS.1 [Example 1]", "md_verbatim": "| 6 | CDISC01 | QS | CDISC01.100014 | 6 | SWLS0101 | SWLS01-My Life is Close to Ideal | SWLS | Slightly agree | 5 | 5 | Y | 1 | 2003-04-15 | 1 |", "score": 0.6143, "match_basis": "verbatim_token+domain_route:QS"}], "candidate_count": 5, "zero_candidate": false}
{"pdf_atom_id": "ig34_p0329_a004", "pdf_atom_type": "HEADING", "pdf_source": "SDTMIG_v3.4", "pdf_page": 329, "pdf_parent_section": "§6.3.9 Questionnaires, Ratings, and Scales (QRS) Domains (FT, QS, RS)", "pdf_verbatim": "6.3.9.3  Disease Response and Clin Classification (RS)", "figure_ref": null, "candidates": [{"md_atom_id": "md_dmFT_assn_a001", "md_file": "knowledge_base/domains/FT/assumptions.md", "md_atom_type": "HEADING", "md_parent_section": "§FT [FT — Assumptions]", "md_verbatim": "# FT — Assumptions", "score": 0.4774, "match_basis": "verbatim_token+domain_route:FT"}, {"md_atom_id": "md_dmFT_assn_a005", "md_file": "knowledge_base/domains/FT/assumptions.md", "md_atom_type": "HEADING", "md_parent_section": "§FT [FT — Assumptions]", "md_verbatim": "## QRS Shared Assumptions", "score": 0.4667, "match_basis": "verbatim_token+domain_route:FT"}, {"md_atom_id": "md_dmFT_ex_a001", "md_file": "knowledge_base/domains/FT/examples.md", "md_atom_type": "HEADING", "md_parent_section": "§FT [FT — Examples]", "md_verbatim": "# FT — Examples", "score": 0.4, "match_basis": "verbatim_token+domain_route:FT"}, {"md_atom_id": "md_dmFT_ex_a003", "md_file": "knowledge_base/domains/FT/examples.md", "md_atom_type": "HEADING", "md_parent_section": "§FT [FT — Examples]", "md_verbatim": "## Example 1", "score": 0.4, "match_basis": "verbatim_token+domain_route:FT"}], "candidate_count": 4, "zero_candidate": false}
{"pdf_atom_id": "ig34_p0329_a005", "pdf_atom_type": "HEADING", "pdf_source": "SDTMIG_v3.4", "pdf_page": 329, "pdf_parent_section": "§6.3.9.3 Disease Response and Clin Classification (RS)", "pdf_verbatim": "RS – Description/Overview", "figure_ref": null, "candidates": [{"md_atom_id": "md_dmRS_assn_a001", "md_file": "knowledge_base/domains/RS/assumptions.md", "md_atom_type": "HEADING", "md_parent_section": "§RS [RS — Assumptions]", "md_verbatim": "# RS — Assumptions", "score": 0.4857, "match_basis": "verbatim_token+domain_route:RS"}, {"md_atom_id": "md_dmRS_assn_a037", "md_file": "knowledge_base/domains/RS/assumptions.md", "md_atom_type": "HEADING", "md_parent_section": "§RS [RS — Assumptions]", "md_verbatim": "## QRS Shared Assumptions", "score": 0.4692, "match_basis": "verbatim_token+domain_route:RS"}, {"md_atom_id": "md_dmRS_assn_a002", "md_file": "knowledge_base/domains/RS/assumptions.md", "md_atom_type": "HEADING", "md_parent_section": "§RS [RS — Assumptions]", "md_verbatim": "## RS — Disease Response Use Case Assumptions", "score": 0.4545, "match_basis": "verbatim_token+domain_route:RS"}, {"md_atom_id": "md_dmRS_assn_a027", "md_file": "knowledge_base/domains/RS/assumptions.md", "md_atom_type": "HEADING", "md_parent_section": "§RS [RS — Assumptions]", "md_verbatim": "## RS — Clinical Classifications Use Case Assumptions", "score": 0.4474, "match_basis": "verbatim_token+domain_route:RS"}, {"md_atom_id": "md_dmRS_ex_a044", "md_file": "knowledge_base/domains/RS/examples.md", "md_atom_type": "HEADING", "md_parent_section": "§RS [RS — Examples]", "md_verbatim": "## RS — Examples - Clinical Classifications", "score": 0.4324, "match_basis": "verbatim_token+domain_route:RS"}], "candidate_count": 5, "zero_candidate": false}
{"pdf_atom_id": "ig34_p0329_a006", "pdf_atom_type": "SENTENCE", "pdf_source": "SDTMIG_v3.4", "pdf_page": 329, "pdf_parent_section": "§6.3.9.3 Disease Response and Clin Classification (RS) — RS-Description/Overview", "pdf_verbatim": "A findings domain for the assessment of disease response to therapy, or clinical classification based on published criteria.", "figure_ref": null, "candidates": [{"md_atom_id": "md_dmRS_assn_a038", "md_file": "knowledge_base/domains/RS/assumptions.md", "md_atom_type": "SENTENCE", "md_parent_section": "§RS [RS — Assumptions]", "md_verbatim": "The QRS Shared Assumptions (see FT assumptions) also apply to the Clinical Classifications use case of the RS domain, but not the Disease Response use case.", "score": 0.6302, "match_basis": "verbatim_token+domain_route:RS"}, {"md_atom_id": "md_dmRS_ex_a005", "md_file": "knowledge_base/domains/RS/examples.md", "md_atom_type": "SENTENCE", "md_parent_section": "§RS.1.1 [Example 1]", "md_verbatim": "This example shows response assessments determined from the TR domain based on RECIST 1.1 criteria and also shows a case where progressive disease due to symptomatic deterioration was determined based on a clinical assessment by the investigator.", "score": 0.6064, "match_basis": "verbatim_token+domain_route:RS"}, {"md_atom_id": "md_dmRS_assn_a028", "md_file": "knowledge_base/domains/RS/assumptions.md", "md_atom_type": "SENTENCE", "md_parent_section": "§RS [RS — Assumptions]", "md_verbatim": "The following assumptions are unique to the RS domain clinical classifications use case:", "score": 0.5786, "match_basis": "verbatim_token+domain_route:RS"}, {"md_atom_id": "md_dmRS_ex_a018", "md_file": "knowledge_base/domains/RS/examples.md", "md_atom_type": "SENTENCE", "md_parent_section": "§RS.1.2 [Example 2]", "md_verbatim": "This example shows response assessments determined from the TR domain based on RECIST 1.1 criteria and also shows a confirmation of an equivocal new lesion progression.", "score": 0.5737, "match_basis": "verbatim_token+domain_route:RS"}, {"md_atom_id": "md_dmRS_ex_a045", "md_file": "knowledge_base/domains/RS/examples.md", "md_atom_type": "SENTENCE", "md_parent_section": "§RS.2 [RS — Examples - Clinical Classifications]", "md_verbatim": "The following example is for a clinical classification. For additional RS examples, see the CDISC-published supplements for individual clinical classifications, at https://www.cdisc.org/standards/foundational/qrs.", "score": 0.5707, "match_basis": "verbatim_token+domain_route:RS"}], "candidate_count": 5, "zero_candidate": false}
{"pdf_atom_id": "ig34_p0329_a007", "pdf_atom_type": "SENTENCE", "pdf_source": "SDTMIG_v3.4", "pdf_page": 329, "pdf_parent_section": "§6.3.9.3 Disease Response and Clin Classification (RS) — RS-Description/Overview", "pdf_verbatim": "Data in this domain may or may not be collected by means of a standard CRF.", "figure_ref": null, "candidates": [{"md_atom_id": "md_dmRS_ex_a035", "md_file": "knowledge_base/domains/RS/examples.md", "md_atom_type": "SENTENCE", "md_parent_section": "§RS.1.3 [Example 3]", "md_verbatim": "**Row 3:** Shows best response to prior radiotherapy. The date of best response is represented in RSDTC. RSENTPT and RSENRTPT represent that the best response was prior to screening. RSCAT = \"UNSPECIFIED\" indicates that the criteria used to determine the best response was unknown or not collected. RSPLNKGRP = \"PR2\" is used to link this record in RS to the prior radiotherapy in PR where the PRLNKGRP = \"PR2\".", "score": 0.4541, "match_basis": "verbatim_token+domain_route:RS"}, {"md_atom_id": "md_dmRS_ex_a034", "md_file": "knowledge_base/domains/RS/examples.md", "md_atom_type": "SENTENCE", "md_parent_section": "§RS.1.3 [Example 3]", "md_verbatim": "**Row 2:** Shows best response to prior chemotherapy regimen. The date of best response is represented in RSDTC. RSENTPT and RSENRTPT represent that the best response was prior to screening. RSCAT = \"UNSPECIFIED\" indicates that the criteria used to determine the best response was unknown or not collected. RSPLNKGRP = \"CM2\" is used to link this record in RS to the prior chemotherapy in CM where the CMLNKGRP = \"CM2\".", "score": 0.4522, "match_basis": "verbatim_token+domain_route:RS"}, {"md_atom_id": "md_dmRS_assn_a003", "md_file": "knowledge_base/domains/RS/assumptions.md", "md_atom_type": "SENTENCE", "md_parent_section": "§RS [RS — Assumptions]", "md_verbatim": "The following assumptions are unique to the RS domain disease response use case:", "score": 0.45, "match_basis": "verbatim_token+domain_route:RS"}, {"md_atom_id": "md_dmRS_ex_a033", "md_file": "knowledge_base/domains/RS/examples.md", "md_atom_type": "SENTENCE", "md_parent_section": "§RS.1.3 [Example 3]", "md_verbatim": "**Row 1:** Shows disease progression on or after a prior chemotherapy regimen. The date of progression is represented in RSDTC. RSENTPT and RSENRTPT represent that the disease progression was prior to screening. RSCAT = \"UNSPECIFIED\" indicates that the criteria used to determine the disease progression was unknown or not collected. RSPLNKGRP = \"CM1\" is used to link this record in RS to the prior chemotherapy in CM where the CMLNKGRP = \"CM1\".", "score": 0.4493, "match_basis": "verbatim_token+domain_route:RS"}, {"md_atom_id": "md_dmRS_ex_a045", "md_file": "knowledge_base/domains/RS/examples.md", "md_atom_type": "SENTENCE", "md_parent_section": "§RS.2 [RS — Examples - Clinical Classifications]", "md_verbatim": "The following example is for a clinical classification. For additional RS examples, see the CDISC-published supplements for individual clinical classifications, at https://www.cdisc.org/standards/foundational/qrs.", "score": 0.4471, "match_basis": "verbatim_token+domain_route:RS"}], "candidate_count": 5, "zero_candidate": false}
{"pdf_atom_id": "ig34_p0329_a008", "pdf_atom_type": "LIST_ITEM", "pdf_source": "SDTMIG_v3.4", "pdf_page": 329, "pdf_parent_section": "§6.3.9.3 Disease Response and Clin Classification (RS) — RS-Description/Overview", "pdf_verbatim": "Clinical classification instruments usually have a standard CRF for data capture, but also may instead be based on an evaluator providing response evaluations based on published criteria.", "figure_ref": null, "candidates": [{"md_atom_id": "md_dmRS_assn_a013", "md_file": "knowledge_base/domains/RS/assumptions.md", "md_atom_type": "LIST_ITEM", "md_parent_section": "§RS [RS — Assumptions]", "md_verbatim": "5. When using the RS domain to represent response evaluation or clinical classification instruments that incorporate data from other domains:", "score": 0.6, "match_basis": "verbatim_token+domain_route:RS"}, {"md_atom_id": "md_dmRS_assn_a034", "md_file": "knowledge_base/domains/RS/assumptions.md", "md_atom_type": "LIST_ITEM", "md_parent_section": "§RS [RS — Assumptions]", "md_verbatim": "   b. If the source value is directly collected on the clinical classification instrument, then the values from the source record may be transcribed to the corresponding RS record, with RSORRES and RSORRESU populated to agree with the units shown on the clinical classification instrument, which may be different from the sponsor's usual practice for original and standard units.", "score": 0.5624, "match_basis": "verbatim_token+domain_route:RS"}, {"md_atom_id": "md_dmRS_assn_a033", "md_file": "knowledge_base/domains/RS/assumptions.md", "md_atom_type": "LIST_ITEM", "md_parent_section": "§RS [RS — Assumptions]", "md_verbatim": "   a. Whenever possible, all source data must be represented in the topic-based domain(s) to which they pertain. For example, if a lab test value is collected and then scored for a response evaluation or clinical classification instrument, the lab test value must be recorded in the LB domain using the rules that apply to that domain and the tests being represented.", "score": 0.5607, "match_basis": "verbatim_token+domain_route:RS"}, {"md_atom_id": "md_dmRS_assn_a031", "md_file": "knowledge_base/domains/RS/assumptions.md", "md_atom_type": "LIST_ITEM", "md_parent_section": "§RS [RS — Assumptions]", "md_verbatim": "2. RSCAT is used to group a set of assessments based on a clinical classification. One of the codelists for RSCAT is CCCAT. The CCCAT codelist contains CDISC Controlled Terminology for clinical classifications instruments.", "score": 0.5467, "match_basis": "verbatim_token+domain_route:RS"}, {"md_atom_id": "md_dmRS_assn_a032", "md_file": "knowledge_base/domains/RS/assumptions.md", "md_atom_type": "LIST_ITEM", "md_parent_section": "§RS [RS — Assumptions]", "md_verbatim": "3. When using the RS domain to represent a clinical classification instrument that incorporates data from other domains:", "score": 0.5438, "match_basis": "verbatim_token+domain_route:RS"}], "candidate_count": 5, "zero_candidate": false}
{"pdf_atom_id": "ig34_p0329_a009", "pdf_atom_type": "LIST_ITEM", "pdf_source": "SDTMIG_v3.4", "pdf_page": 329, "pdf_parent_section": "§6.3.9.3 Disease Response and Clin Classification (RS) — RS-Description/Overview", "pdf_verbatim": "Oncology response criteria are evaluated based on published criteria.", "figure_ref": null, "candidates": [{"md_atom_id": "md_dmRS_assn_a004", "md_file": "knowledge_base/domains/RS/assumptions.md", "md_atom_type": "LIST_ITEM", "md_parent_section": "§RS [RS — Assumptions]", "md_verbatim": "1. RSCAT is used to group a set of assessments based on a disease response criterion (published or protocol-defined). One of the codelists for RSCAT is ONCRSCAT. The ONCRSCAT codelist contains controlled terminology for oncology disease response assessments.", "score": 0.567, "match_basis": "verbatim_token+domain_route:RS"}, {"md_atom_id": "md_dmRS_ex_a003", "md_file": "knowledge_base/domains/RS/examples.md", "md_atom_type": "SENTENCE", "md_parent_section": "§RS.1 [RS — Examples - Disease Response]", "md_verbatim": "The following are examples for oncology response criteria.", "score": 0.5335, "match_basis": "verbatim_token+domain_route:RS"}, {"md_atom_id": "md_dmRS_assn_a024", "md_file": "knowledge_base/domains/RS/assumptions.md", "md_atom_type": "LIST_ITEM", "md_parent_section": "§RS [RS — Assumptions]", "md_verbatim": "9. Disease recurrence can be represented in the RS domain using RSTEST = \"Disease Recurrence Indicator\" to indicate that there was an assessment of whether there was disease recurrence. The RSCAT = \"PROTOCOL DEFINED RESPONSE CRITERIA\" can be used to indicate that the response assessment of disease recurrence was based on protocol-specified criteria rather than published response criteria.", "score": 0.5327, "match_basis": "verbatim_token+domain_route:RS"}, {"md_atom_id": "md_dmRS_assn_a020", "md_file": "knowledge_base/domains/RS/assumptions.md", "md_atom_type": "LIST_ITEM", "md_parent_section": "§RS [RS — Assumptions]", "md_verbatim": "   b. If the criteria used to determine the response is unknown or not collected, this is represented as RSCAT = \"UNSPECIFIED\".", "score": 0.5184, "match_basis": "verbatim_token+domain_route:RS"}, {"md_atom_id": "md_dmRS_ex_a064", "md_file": "knowledge_base/domains/RS/examples.md", "md_atom_type": "LIST_ITEM", "md_parent_section": "§RS.2.2 [References]", "md_verbatim": "1. Eisenhauer EA, Therasse P, Bogaerts J, et al. New response evaluation criteria in solid tumours: revised RECIST guideline (version 1.1). Eur J Cancer. 2009;45(2):228-247. doi:10.1016/j.ejca.2008.10.026", "score": 0.5059, "match_basis": "verbatim_token+domain_route:RS"}], "candidate_count": 5, "zero_candidate": false}
{"pdf_atom_id": "ig34_p0329_a010", "pdf_atom_type": "LIST_ITEM", "pdf_source": "SDTMIG_v3.4", "pdf_page": 329, "pdf_parent_section": "§6.3.9.3 Disease Response and Clin Classification (RS) — RS-Description/Overview", "pdf_verbatim": "Additional disease classifications or scoring systems (e.g., staging criteria) are based on published criteria.", "figure_ref": null, "candidates": [{"md_atom_id": "md_dmRS_assn_a024", "md_file": "knowledge_base/domains/RS/assumptions.md", "md_atom_type": "LIST_ITEM", "md_parent_section": "§RS [RS — Assumptions]", "md_verbatim": "9. Disease recurrence can be represented in the RS domain using RSTEST = \"Disease Recurrence Indicator\" to indicate that there was an assessment of whether there was disease recurrence. The RSCAT = \"PROTOCOL DEFINED RESPONSE CRITERIA\" can be used to indicate that the response assessment of disease recurrence was based on protocol-specified criteria rather than published response criteria.", "score": 0.5256, "match_basis": "verbatim_token+domain_route:RS"}, {"md_atom_id": "md_dmRS_assn_a029", "md_file": "knowledge_base/domains/RS/assumptions.md", "md_atom_type": "LIST_ITEM", "md_parent_section": "§RS [RS — Assumptions]", "md_verbatim": "1. Clinical classifications are named instruments whose output is an ordinal or categorical score that serves as a surrogate for or ranking of disease status or other physiological or biological status.", "score": 0.524, "match_basis": "verbatim_token+domain_route:RS"}, {"md_atom_id": "md_dmRS_assn_a004", "md_file": "knowledge_base/domains/RS/assumptions.md", "md_atom_type": "LIST_ITEM", "md_parent_section": "§RS [RS — Assumptions]", "md_verbatim": "1. RSCAT is used to group a set of assessments based on a disease response criterion (published or protocol-defined). One of the codelists for RSCAT is ONCRSCAT. The ONCRSCAT codelist contains controlled terminology for oncology disease response assessments.", "score": 0.516, "match_basis": "verbatim_token+domain_route:RS"}, {"md_atom_id": "md_dmRS_assn_a031", "md_file": "knowledge_base/domains/RS/assumptions.md", "md_atom_type": "LIST_ITEM", "md_parent_section": "§RS [RS — Assumptions]", "md_verbatim": "2. RSCAT is used to group a set of assessments based on a clinical classification. One of the codelists for RSCAT is CCCAT. The CCCAT codelist contains CDISC Controlled Terminology for clinical classifications instruments.", "score": 0.5018, "match_basis": "verbatim_token+domain_route:RS"}, {"md_atom_id": "md_dmRS_ex_a065", "md_file": "knowledge_base/domains/RS/examples.md", "md_atom_type": "LIST_ITEM", "md_parent_section": "§RS.2.2 [References]", "md_verbatim": "2. Cheson BD, Fisher RI, Barrington SF, et al. Recommendations for initial evaluation, staging, and response assessment of Hodgkin and non-Hodgkin lymphoma: the Lugano classification. J Clin Oncol. 2014;32(27):3059-3068. doi:10.1200/JCO.2013.54.8800", "score": 0.5, "match_basis": "verbatim_token+domain_route:RS"}], "candidate_count": 5, "zero_candidate": false}
{"pdf_atom_id": "ig34_p0329_a011", "pdf_atom_type": "LIST_ITEM", "pdf_source": "SDTMIG_v3.4", "pdf_page": 329, "pdf_parent_section": "§6.3.9.3 Disease Response and Clin Classification (RS) — RS-Description/Overview", "pdf_verbatim": "There are separate supplements prepared for clinical classification instruments and therapeutic-area disease response criteria use cases.", "figure_ref": null, "candidates": [{"md_atom_id": "md_dmRS_assn_a013", "md_file": "knowledge_base/domains/RS/assumptions.md", "md_atom_type": "LIST_ITEM", "md_parent_section": "§RS [RS — Assumptions]", "md_verbatim": "5. When using the RS domain to represent response evaluation or clinical classification instruments that incorporate data from other domains:", "score": 0.6151, "match_basis": "verbatim_token+domain_route:RS"}, {"md_atom_id": "md_dmRS_assn_a032", "md_file": "knowledge_base/domains/RS/assumptions.md", "md_atom_type": "LIST_ITEM", "md_parent_section": "§RS [RS — Assumptions]", "md_verbatim": "3. When using the RS domain to represent a clinical classification instrument that incorporates data from other domains:", "score": 0.5882, "match_basis": "verbatim_token+domain_route:RS"}, {"md_atom_id": "md_dmRS_assn_a031", "md_file": "knowledge_base/domains/RS/assumptions.md", "md_atom_type": "LIST_ITEM", "md_parent_section": "§RS [RS — Assumptions]", "md_verbatim": "2. RSCAT is used to group a set of assessments based on a clinical classification. One of the codelists for RSCAT is CCCAT. The CCCAT codelist contains CDISC Controlled Terminology for clinical classifications instruments.", "score": 0.5729, "match_basis": "verbatim_token+domain_route:RS"}, {"md_atom_id": "md_dmRS_assn_a029", "md_file": "knowledge_base/domains/RS/assumptions.md", "md_atom_type": "LIST_ITEM", "md_parent_section": "§RS [RS — Assumptions]", "md_verbatim": "1. Clinical classifications are named instruments whose output is an ordinal or categorical score that serves as a surrogate for or ranking of disease status or other physiological or biological status.", "score": 0.5708, "match_basis": "verbatim_token+domain_route:RS"}, {"md_atom_id": "md_dmRS_assn_a005", "md_file": "knowledge_base/domains/RS/assumptions.md", "md_atom_type": "LIST_ITEM", "md_parent_section": "§RS [RS — Assumptions]", "md_verbatim": "2. Oncology response criteria assess the change in tumor burden, an important feature of the clinical evaluation of cancer therapeutics: Both tumor shrinkage (objective response) and disease progression are useful endpoints in cancer clinical trials. The RS domain is applicable for representing responses to assessment criteria such as RECIST[1] or Lugano classification.[2] The SDTM domain examples provided reference RECIST. Disease Response supplements will be developed as 1 supplement per response criterion and will contain criterion-specific guidance and examples.", "score": 0.5667, "match_basis": "verbatim_token+domain_route:RS"}], "candidate_count": 5, "zero_candidate": false}
{"pdf_atom_id": "ig34_p0329_a012", "pdf_atom_type": "HEADING", "pdf_source": "SDTMIG_v3.4", "pdf_page": 329, "pdf_parent_section": "§6.3.9.3 Disease Response and Clin Classification (RS)", "pdf_verbatim": "RS – Specification", "figure_ref": null, "candidates": [{"md_atom_id": "md_dmRS_ex_a044", "md_file": "knowledge_base/domains/RS/examples.md", "md_atom_type": "HEADING", "md_parent_section": "§RS [RS — Examples]", "md_verbatim": "## RS — Examples - Clinical Classifications", "score": 0.55, "match_basis": "verbatim_token+domain_route:RS"}, {"md_atom_id": "md_dmRS_assn_a027", "md_file": "knowledge_base/domains/RS/assumptions.md", "md_atom_type": "HEADING", "md_parent_section": "§RS [RS — Assumptions]", "md_verbatim": "## RS — Clinical Classifications Use Case Assumptions", "score": 0.54, "match_basis": "verbatim_token+domain_route:RS"}, {"md_atom_id": "md_dmRS_assn_a001", "md_file": "knowledge_base/domains/RS/assumptions.md", "md_atom_type": "HEADING", "md_parent_section": "§RS [RS — Assumptions]", "md_verbatim": "# RS — Assumptions", "score": 0.4667, "match_basis": "verbatim_token+domain_route:RS"}, {"md_atom_id": "md_dmRS_assn_a037", "md_file": "knowledge_base/domains/RS/assumptions.md", "md_atom_type": "HEADING", "md_parent_section": "§RS [RS — Assumptions]", "md_verbatim": "## QRS Shared Assumptions", "score": 0.4522, "match_basis": "verbatim_token+domain_route:RS"}, {"md_atom_id": "md_dmRS_assn_a002", "md_file": "knowledge_base/domains/RS/assumptions.md", "md_atom_type": "HEADING", "md_parent_section": "§RS [RS — Assumptions]", "md_verbatim": "## RS — Disease Response Use Case Assumptions", "score": 0.44, "match_basis": "verbatim_token+domain_route:RS"}], "candidate_count": 5, "zero_candidate": false}
{"pdf_atom_id": "ig34_p0329_a013", "pdf_atom_type": "CODE_LITERAL", "pdf_source": "SDTMIG_v3.4", "pdf_page": 329, "pdf_parent_section": "§6.3.9.3 Disease Response and Clin Classification (RS) — RS-Specification", "pdf_verbatim": "rs.xpt, Disease Response and Clin Classification — Findings. One record per response assessment or clinical classification assessment per time point per visit per subject per assessor per medical evaluator, Tabulation.", "figure_ref": null, "candidates": [{"md_atom_id": "md_dmRS_assn_a035", "md_file": "knowledge_base/domains/RS/assumptions.md", "md_atom_type": "LIST_ITEM", "md_parent_section": "§RS [RS — Assumptions]", "md_verbatim": "   c. If a clinical classification uses a source value by comparing it to a range (e.g., \"2-5\", \">3\"), then the source value will exist only in the source domain; the range is represented in the corresponding RS record in RSORRES and RSORRESU.", "score": 0.3614, "match_basis": "verbatim_token+domain_route:RS"}, {"md_atom_id": "md_dmRS_assn_a013", "md_file": "knowledge_base/domains/RS/assumptions.md", "md_atom_type": "LIST_ITEM", "md_parent_section": "§RS [RS — Assumptions]", "md_verbatim": "5. When using the RS domain to represent response evaluation or clinical classification instruments that incorporate data from other domains:", "score": 0.3555, "match_basis": "verbatim_token+domain_route:RS"}, {"md_atom_id": "md_dmRS_assn_a038", "md_file": "knowledge_base/domains/RS/assumptions.md", "md_atom_type": "SENTENCE", "md_parent_section": "§RS [RS — Assumptions]", "md_verbatim": "The QRS Shared Assumptions (see FT assumptions) also apply to the Clinical Classifications use case of the RS domain, but not the Disease Response use case.", "score": 0.3515, "match_basis": "verbatim_token+domain_route:RS"}, {"md_atom_id": "md_dmRS_ex_a065", "md_file": "knowledge_base/domains/RS/examples.md", "md_atom_type": "LIST_ITEM", "md_parent_section": "§RS.2.2 [References]", "md_verbatim": "2. Cheson BD, Fisher RI, Barrington SF, et al. Recommendations for initial evaluation, staging, and response assessment of Hodgkin and non-Hodgkin lymphoma: the Lugano classification. J Clin Oncol. 2014;32(27):3059-3068. doi:10.1200/JCO.2013.54.8800", "score": 0.3463, "match_basis": "verbatim_token+domain_route:RS"}, {"md_atom_id": "md_dmRS_assn_a033", "md_file": "knowledge_base/domains/RS/assumptions.md", "md_atom_type": "LIST_ITEM", "md_parent_section": "§RS [RS — Assumptions]", "md_verbatim": "   a. Whenever possible, all source data must be represented in the topic-based domain(s) to which they pertain. For example, if a lab test value is collected and then scored for a response evaluation or clinical classification instrument, the lab test value must be recorded in the LB domain using the rules that apply to that domain and the tests being represented.", "score": 0.3344, "match_basis": "verbatim_token+domain_route:RS"}], "candidate_count": 5, "zero_candidate": false}
{"pdf_atom_id": "ig34_p0329_a014", "pdf_atom_type": "TABLE_HEADER", "pdf_source": "SDTMIG_v3.4", "pdf_page": 329, "pdf_parent_section": "§6.3.9.3 Disease Response and Clin Classification (RS) — RS-Specification", "pdf_verbatim": "| Variable Name | Variable Label | Type | Controlled Terms, Codelist or Format1 | Role | CDISC Notes | Core |", "figure_ref": null, "candidates": [{"md_atom_id": "md_dmRS_ex_a022", "md_file": "knowledge_base/domains/RS/examples.md", "md_atom_type": "TABLE_HEADER", "md_parent_section": "§RS.1.2 [Example 2]", "md_verbatim": "| Row | STUDYID | DOMAIN | USUBJID | RSSEQ | RSLNKGRP | RSTESTCD | RSTEST | RSCAT | RSORRES | RSSTRESC | RSNAM | RSEVAL | RSEVALID | RSACPTFL | VISITNUM | VISIT | RSDTC | RSDY |\n|-----|---------|--------|---------|-------|----------|----------|--------|-------|---------|----------|-------|--------|----------|----------|----------|-------|-------|------|", "score": 0.411, "match_basis": "verbatim_token+domain_route:RS"}, {"md_atom_id": "md_dmRS_ex_a050", "md_file": "knowledge_base/domains/RS/examples.md", "md_atom_type": "TABLE_HEADER", "md_parent_section": "§RS.2.1 [Example 1]", "md_verbatim": "| Row | STUDYID | DOMAIN | USUBJID | RSSEQ | RSTESTCD | RSTEST | RSCAT | RSORRES | RSSTRESC | RSSTRESN | RSLOBXFL | VISITNUM | RSDTC |\n|-----|---------|--------|---------|-------|----------|--------|-------|---------|----------|----------|----------|----------|-------|", "score": 0.4063, "match_basis": "verbatim_token+domain_route:RS"}, {"md_atom_id": "md_dmRS_ex_a009", "md_file": "knowledge_base/domains/RS/examples.md", "md_atom_type": "TABLE_HEADER", "md_parent_section": "§RS.1.1 [Example 1]", "md_verbatim": "| Row | STUDYID | DOMAIN | USUBJID | RSSEQ | RSLNKGRP | RSTESTCD | RSTEST | RSCAT | RSORRES | RSSTRESC | RSEVAL | VISITNUM | VISIT | RSDTC | RSDY |\n|-----|---------|--------|---------|-------|----------|----------|--------|-------|---------|----------|--------|----------|-------|-------|------|", "score": 0.4061, "match_basis": "verbatim_token+domain_route:RS"}, {"md_atom_id": "md_dmRS_ex_a038", "md_file": "knowledge_base/domains/RS/examples.md", "md_atom_type": "TABLE_HEADER", "md_parent_section": "§RS.1.3 [Example 3]", "md_verbatim": "| Row | STUDYID | DOMAIN | USUBJID | RSSEQ | RSLNKGRP | RSTESTCD | RSTEST | RSCAT | RSORRES | RSORRESU | RSSTRESC | RSSTRESN | RSSTRESU | RSEVAL | VISITNUM | VISIT | RSDTC | RSDY | RSSTRTPT | RSSTTPT | RSENRTPT | RSENTPT |\n|-----|---------|--------|---------|-------|----------|----------|--------|-------|---------|----------|----------|----------|----------|--------|----------|-------|-------|------|----------|---------|----------|---------|", "score": 0.4054, "match_basis": "verbatim_token+domain_route:RS"}, {"md_atom_id": "md_dmRS_ex_a042", "md_file": "knowledge_base/domains/RS/examples.md", "md_atom_type": "TABLE_ROW", "md_parent_section": "§RS.1.3 [Example 3]", "md_verbatim": "| 4 | ABC | RS | 77777 | 4 | CM3 | BESTRESP | Best Response | UNSPECIFIED | SD | | SD | | | INVESTIGATOR | 240 | FOLLOW-UP MONTH 6 | 2015-04-02 | 520 | AFTER | STUDY TREATMENT DISCONTINUATION | | |", "score": 0.3746, "match_basis": "verbatim_token+domain_route:RS"}], "candidate_count": 5, "zero_candidate": false}
{"pdf_atom_id": "ig34_p0329_a015", "pdf_atom_type": "TABLE_ROW", "pdf_source": "SDTMIG_v3.4", "pdf_page": 329, "pdf_parent_section": "§6.3.9.3 Disease Response and Clin Classification (RS) — RS-Specification", "pdf_verbatim": "| STUDYID | Study Identifier | Char | | Identifier | Unique identifier for a study. | Req |", "figure_ref": null, "candidates": [{"md_atom_id": "md_dmRS_ex_a042", "md_file": "knowledge_base/domains/RS/examples.md", "md_atom_type": "TABLE_ROW", "md_parent_section": "§RS.1.3 [Example 3]", "md_verbatim": "| 4 | ABC | RS | 77777 | 4 | CM3 | BESTRESP | Best Response | UNSPECIFIED | SD | | SD | | | INVESTIGATOR | 240 | FOLLOW-UP MONTH 6 | 2015-04-02 | 520 | AFTER | STUDY TREATMENT DISCONTINUATION | | |", "score": 0.4525, "match_basis": "verbatim_token+domain_route:RS"}, {"md_atom_id": "md_dmRS_ex_a043", "md_file": "knowledge_base/domains/RS/examples.md", "md_atom_type": "TABLE_ROW", "md_parent_section": "§RS.1.3 [Example 3]", "md_verbatim": "| 5 | ABC | RS | 77777 | 5 | CM3 | OVRLRESP | Overall Response | UNSPECIFIED | PD | | PD | | | INVESTIGATOR | 260 | FOLLOW-UP MONTH 8 | 2015-06-01 | 581 | AFTER | STUDY TREATMENT DISCONTINUATION | | |", "score": 0.4483, "match_basis": "verbatim_token+domain_route:RS"}, {"md_atom_id": "md_dmRS_ex_a054", "md_file": "knowledge_base/domains/RS/examples.md", "md_atom_type": "TABLE_ROW", "md_parent_section": "§RS.2.1 [Example 1]", "md_verbatim": "| 4 | STUDYX | RS | P0001 | 4 | GCS0104 | GCS01-Total Score | GCS NINDS VERSION | 5 | 5 | 5 | Y | 1 | 2012-11-16 |", "score": 0.4391, "match_basis": "verbatim_token+domain_route:RS"}, {"md_atom_id": "md_dmRS_ex_a051", "md_file": "knowledge_base/domains/RS/examples.md", "md_atom_type": "TABLE_ROW", "md_parent_section": "§RS.2.1 [Example 1]", "md_verbatim": "| 1 | STUDYX | RS | P0001 | 1 | GCS0101 | GCS01-Best Eye Response | GCS NINDS VERSION | No eye opening | 1 | 1 | Y | 1 | 2012-11-16 |", "score": 0.434, "match_basis": "verbatim_token+domain_route:RS"}, {"md_atom_id": "md_dmRS_ex_a040", "md_file": "knowledge_base/domains/RS/examples.md", "md_atom_type": "TABLE_ROW", "md_parent_section": "§RS.1.3 [Example 3]", "md_verbatim": "| 2 | ABC | RS | 66666 | 2 | CM2 | BESTRESP | Best Response | UNSPECIFIED | SD | | SD | | | INVESTIGATOR | 10 | SCREEN | | | | | BEFORE | SCREEN |", "score": 0.4316, "match_basis": "verbatim_token+domain_route:RS"}], "candidate_count": 5, "zero_candidate": false}
{"pdf_atom_id": "ig34_p0329_a016", "pdf_atom_type": "TABLE_ROW", "pdf_source": "SDTMIG_v3.4", "pdf_page": 329, "pdf_parent_section": "§6.3.9.3 Disease Response and Clin Classification (RS) — RS-Specification", "pdf_verbatim": "| DOMAIN | Domain Abbreviation | Char | RS | Identifier | Two-character abbreviation for the domain. | Req |", "figure_ref": null, "candidates": [{"md_atom_id": "md_dmRS_ex_a042", "md_file": "knowledge_base/domains/RS/examples.md", "md_atom_type": "TABLE_ROW", "md_parent_section": "§RS.1.3 [Example 3]", "md_verbatim": "| 4 | ABC | RS | 77777 | 4 | CM3 | BESTRESP | Best Response | UNSPECIFIED | SD | | SD | | | INVESTIGATOR | 240 | FOLLOW-UP MONTH 6 | 2015-04-02 | 520 | AFTER | STUDY TREATMENT DISCONTINUATION | | |", "score": 0.4527, "match_basis": "verbatim_token+domain_route:RS"}, {"md_atom_id": "md_dmRS_ex_a043", "md_file": "knowledge_base/domains/RS/examples.md", "md_atom_type": "TABLE_ROW", "md_parent_section": "§RS.1.3 [Example 3]", "md_verbatim": "| 5 | ABC | RS | 77777 | 5 | CM3 | OVRLRESP | Overall Response | UNSPECIFIED | PD | | PD | | | INVESTIGATOR | 260 | FOLLOW-UP MONTH 8 | 2015-06-01 | 581 | AFTER | STUDY TREATMENT DISCONTINUATION | | |", "score": 0.449, "match_basis": "verbatim_token+domain_route:RS"}, {"md_atom_id": "md_dmRS_ex_a015", "md_file": "knowledge_base/domains/RS/examples.md", "md_atom_type": "TABLE_ROW", "md_parent_section": "§RS.1.1 [Example 1]", "md_verbatim": "| 6 | ABC | RS | 44444 | 6 | | SYMPTDTR | Symptomatic Deterioration | PROTOCOL DEFINED RESPONSE CRITERIA | Pleural Effusion | PD | INVESTIGATOR | 60 | WEEK 12 | 2010-04-02 | 88 |", "score": 0.4309, "match_basis": "verbatim_token+domain_route:RS"}, {"md_atom_id": "md_dmRS_ex_a040", "md_file": "knowledge_base/domains/RS/examples.md", "md_atom_type": "TABLE_ROW", "md_parent_section": "§RS.1.3 [Example 3]", "md_verbatim": "| 2 | ABC | RS | 66666 | 2 | CM2 | BESTRESP | Best Response | UNSPECIFIED | SD | | SD | | | INVESTIGATOR | 10 | SCREEN | | | | | BEFORE | SCREEN |", "score": 0.4261, "match_basis": "verbatim_token+domain_route:RS"}, {"md_atom_id": "md_dmRS_ex_a061", "md_file": "knowledge_base/domains/RS/examples.md", "md_atom_type": "TABLE_ROW", "md_parent_section": "§RS.2.1 [Example 1]", "md_verbatim": "| 11 | STUDYX | RS | P0001 | 11 | GCS0105G | GCS01-Confounder: Sedation | GCS NINDS VERSION | NOT CHECKED | NOT CHECKED | | Y | 1 | 2012-11-16 |", "score": 0.425, "match_basis": "verbatim_token+domain_route:RS"}], "candidate_count": 5, "zero_candidate": false}
{"pdf_atom_id": "ig34_p0329_a017", "pdf_atom_type": "TABLE_ROW", "pdf_source": "SDTMIG_v3.4", "pdf_page": 329, "pdf_parent_section": "§6.3.9.3 Disease Response and Clin Classification (RS) — RS-Specification", "pdf_verbatim": "| USUBJID | Unique Subject Identifier | Char | | Identifier | Identifier used to uniquely identify a subject across all studies for all applications or submissions involving the product. | Req |", "figure_ref": null, "candidates": [{"md_atom_id": "md_dmRS_ex_a043", "md_file": "knowledge_base/domains/RS/examples.md", "md_atom_type": "TABLE_ROW", "md_parent_section": "§RS.1.3 [Example 3]", "md_verbatim": "| 5 | ABC | RS | 77777 | 5 | CM3 | OVRLRESP | Overall Response | UNSPECIFIED | PD | | PD | | | INVESTIGATOR | 260 | FOLLOW-UP MONTH 8 | 2015-06-01 | 581 | AFTER | STUDY TREATMENT DISCONTINUATION | | |", "score": 0.4558, "match_basis": "verbatim_token+domain_route:RS"}, {"md_atom_id": "md_dmRS_ex_a042", "md_file": "knowledge_base/domains/RS/examples.md", "md_atom_type": "TABLE_ROW", "md_parent_section": "§RS.1.3 [Example 3]", "md_verbatim": "| 4 | ABC | RS | 77777 | 4 | CM3 | BESTRESP | Best Response | UNSPECIFIED | SD | | SD | | | INVESTIGATOR | 240 | FOLLOW-UP MONTH 6 | 2015-04-02 | 520 | AFTER | STUDY TREATMENT DISCONTINUATION | | |", "score": 0.4537, "match_basis": "verbatim_token+domain_route:RS"}, {"md_atom_id": "md_dmRS_ex_a061", "md_file": "knowledge_base/domains/RS/examples.md", "md_atom_type": "TABLE_ROW", "md_parent_section": "§RS.2.1 [Example 1]", "md_verbatim": "| 11 | STUDYX | RS | P0001 | 11 | GCS0105G | GCS01-Confounder: Sedation | GCS NINDS VERSION | NOT CHECKED | NOT CHECKED | | Y | 1 | 2012-11-16 |", "score": 0.4408, "match_basis": "verbatim_token+domain_route:RS"}, {"md_atom_id": "md_dmRS_ex_a051", "md_file": "knowledge_base/domains/RS/examples.md", "md_atom_type": "TABLE_ROW", "md_parent_section": "§RS.2.1 [Example 1]", "md_verbatim": "| 1 | STUDYX | RS | P0001 | 1 | GCS0101 | GCS01-Best Eye Response | GCS NINDS VERSION | No eye opening | 1 | 1 | Y | 1 | 2012-11-16 |", "score": 0.4371, "match_basis": "verbatim_token+domain_route:RS"}, {"md_atom_id": "md_dmRS_ex_a025", "md_file": "knowledge_base/domains/RS/examples.md", "md_atom_type": "TABLE_ROW", "md_parent_section": "§RS.1.2 [Example 2]", "md_verbatim": "| 3 | ABC | RS | 55555 | 3 | | NEWLPROG | New Lesion Progression | RECIST 1.1 | EQUIVOCAL | EQUIVOCAL | ACE IMAGING | INDEPENDENT ASSESSOR | RADIOLOGIST 1 | Y | 40 | WEEK 6 | 2010-02-18 | 46 |", "score": 0.435, "match_basis": "verbatim_token+domain_route:RS"}], "candidate_count": 5, "zero_candidate": false}
{"pdf_atom_id": "ig34_p0329_a018", "pdf_atom_type": "TABLE_ROW", "pdf_source": "SDTMIG_v3.4", "pdf_page": 329, "pdf_parent_section": "§6.3.9.3 Disease Response and Clin Classification (RS) — RS-Specification", "pdf_verbatim": "| RSSEQ | Sequence Number | Num | | Identifier | Sequence number given to ensure uniqueness within a dataset for a subject. May be any valid number. | Req |", "figure_ref": null, "candidates": [{"md_atom_id": "md_dmRS_ex_a025", "md_file": "knowledge_base/domains/RS/examples.md", "md_atom_type": "TABLE_ROW", "md_parent_section": "§RS.1.2 [Example 2]", "md_verbatim": "| 3 | ABC | RS | 55555 | 3 | | NEWLPROG | New Lesion Progression | RECIST 1.1 | EQUIVOCAL | EQUIVOCAL | ACE IMAGING | INDEPENDENT ASSESSOR | RADIOLOGIST 1 | Y | 40 | WEEK 6 | 2010-02-18 | 46 |", "score": 0.4278, "match_basis": "verbatim_token+domain_route:RS"}, {"md_atom_id": "md_dmRS_ex_a029", "md_file": "knowledge_base/domains/RS/examples.md", "md_atom_type": "TABLE_ROW", "md_parent_section": "§RS.1.2 [Example 2]", "md_verbatim": "| 7 | ABC | RS | 55555 | 7 | | NEWLPROG | New Lesion Progression | RECIST 1.1 | UNEQUIVOCAL | UNEQUIVOCAL | ACE IMAGING | INDEPENDENT ASSESSOR | RADIOLOGIST 1 | Y | 60 | WEEK 12 | 2010-04-02 | 88 |", "score": 0.4273, "match_basis": "verbatim_token+domain_route:RS"}, {"md_atom_id": "md_dmRS_ex_a023", "md_file": "knowledge_base/domains/RS/examples.md", "md_atom_type": "TABLE_ROW", "md_parent_section": "§RS.1.2 [Example 2]", "md_verbatim": "| 1 | ABC | RS | 55555 | 1 | | TRGRESP | Target Response | RECIST 1.1 | PR | PR | ACE IMAGING | INDEPENDENT ASSESSOR | RADIOLOGIST 1 | Y | 40 | WEEK 6 | 2010-02-18 | 46 |", "score": 0.4238, "match_basis": "verbatim_token+domain_route:RS"}, {"md_atom_id": "md_dmRS_ex_a027", "md_file": "knowledge_base/domains/RS/examples.md", "md_atom_type": "TABLE_ROW", "md_parent_section": "§RS.1.2 [Example 2]", "md_verbatim": "| 5 | ABC | RS | 55555 | 5 | | TRGRESP | Target Response | RECIST 1.1 | PD | PD | ACE IMAGING | INDEPENDENT ASSESSOR | RADIOLOGIST 1 | Y | 60 | WEEK 12 | 2010-04-02 | 88 |", "score": 0.4238, "match_basis": "verbatim_token+domain_route:RS"}, {"md_atom_id": "md_dmRS_ex_a024", "md_file": "knowledge_base/domains/RS/examples.md", "md_atom_type": "TABLE_ROW", "md_parent_section": "§RS.1.2 [Example 2]", "md_verbatim": "| 2 | ABC | RS | 55555 | 2 | | NTRGRESP | Non-target Response | RECIST 1.1 | CR | CR | ACE IMAGING | INDEPENDENT ASSESSOR | RADIOLOGIST 1 | Y | 40 | WEEK 6 | 2010-02-18 | 46 |", "score": 0.4233, "match_basis": "verbatim_token+domain_route:RS"}], "candidate_count": 5, "zero_candidate": false}
{"pdf_atom_id": "ig34_p0329_a019", "pdf_atom_type": "TABLE_ROW", "pdf_source": "SDTMIG_v3.4", "pdf_page": 329, "pdf_parent_section": "§6.3.9.3 Disease Response and Clin Classification (RS) — RS-Specification", "pdf_verbatim": "| RSGRPID | Group ID | Char | | Identifier | Used to link together a block of related records within a subject in a domain. | Perm |", "figure_ref": null, "candidates": [{"md_atom_id": "md_dmRS_ex_a023", "md_file": "knowledge_base/domains/RS/examples.md", "md_atom_type": "TABLE_ROW", "md_parent_section": "§RS.1.2 [Example 2]", "md_verbatim": "| 1 | ABC | RS | 55555 | 1 | | TRGRESP | Target Response | RECIST 1.1 | PR | PR | ACE IMAGING | INDEPENDENT ASSESSOR | RADIOLOGIST 1 | Y | 40 | WEEK 6 | 2010-02-18 | 46 |", "score": 0.4233, "match_basis": "verbatim_token+domain_route:RS"}, {"md_atom_id": "md_dmRS_ex_a027", "md_file": "knowledge_base/domains/RS/examples.md", "md_atom_type": "TABLE_ROW", "md_parent_section": "§RS.1.2 [Example 2]", "md_verbatim": "| 5 | ABC | RS | 55555 | 5 | | TRGRESP | Target Response | RECIST 1.1 | PD | PD | ACE IMAGING | INDEPENDENT ASSESSOR | RADIOLOGIST 1 | Y | 60 | WEEK 12 | 2010-04-02 | 88 |", "score": 0.4233, "match_basis": "verbatim_token+domain_route:RS"}, {"md_atom_id": "md_dmRS_ex_a024", "md_file": "knowledge_base/domains/RS/examples.md", "md_atom_type": "TABLE_ROW", "md_parent_section": "§RS.1.2 [Example 2]", "md_verbatim": "| 2 | ABC | RS | 55555 | 2 | | NTRGRESP | Non-target Response | RECIST 1.1 | CR | CR | ACE IMAGING | INDEPENDENT ASSESSOR | RADIOLOGIST 1 | Y | 40 | WEEK 6 | 2010-02-18 | 46 |", "score": 0.4229, "match_basis": "verbatim_token+domain_route:RS"}, {"md_atom_id": "md_dmRS_ex_a028", "md_file": "knowledge_base/domains/RS/examples.md", "md_atom_type": "TABLE_ROW", "md_parent_section": "§RS.1.2 [Example 2]", "md_verbatim": "| 6 | ABC | RS | 55555 | 6 | | NTRGRESP | Non-target Response | RECIST 1.1 | CR | CR | ACE IMAGING | INDEPENDENT ASSESSOR | RADIOLOGIST 1 | Y | 60 | WEEK 12 | 2010-04-02 | 88 |", "score": 0.4229, "match_basis": "verbatim_token+domain_route:RS"}, {"md_atom_id": "md_dmRS_ex_a042", "md_file": "knowledge_base/domains/RS/examples.md", "md_atom_type": "TABLE_ROW", "md_parent_section": "§RS.1.3 [Example 3]", "md_verbatim": "| 4 | ABC | RS | 77777 | 4 | CM3 | BESTRESP | Best Response | UNSPECIFIED | SD | | SD | | | INVESTIGATOR | 240 | FOLLOW-UP MONTH 6 | 2015-04-02 | 520 | AFTER | STUDY TREATMENT DISCONTINUATION | | |", "score": 0.4203, "match_basis": "verbatim_token+domain_route:RS"}], "candidate_count": 5, "zero_candidate": false}
{"pdf_atom_id": "ig34_p0329_a020", "pdf_atom_type": "TABLE_ROW", "pdf_source": "SDTMIG_v3.4", "pdf_page": 329, "pdf_parent_section": "§6.3.9.3 Disease Response and Clin Classification (RS) — RS-Specification", "pdf_verbatim": "| RSREFID | Reference ID | Char | | Identifier | Internal or external identifier. | Perm |", "figure_ref": null, "candidates": [{"md_atom_id": "md_dmRS_ex_a042", "md_file": "knowledge_base/domains/RS/examples.md", "md_atom_type": "TABLE_ROW", "md_parent_section": "§RS.1.3 [Example 3]", "md_verbatim": "| 4 | ABC | RS | 77777 | 4 | CM3 | BESTRESP | Best Response | UNSPECIFIED | SD | | SD | | | INVESTIGATOR | 240 | FOLLOW-UP MONTH 6 | 2015-04-02 | 520 | AFTER | STUDY TREATMENT DISCONTINUATION | | |", "score": 0.4326, "match_basis": "verbatim_token+domain_route:RS"}, {"md_atom_id": "md_dmRS_ex_a043", "md_file": "knowledge_base/domains/RS/examples.md", "md_atom_type": "TABLE_ROW", "md_parent_section": "§RS.1.3 [Example 3]", "md_verbatim": "| 5 | ABC | RS | 77777 | 5 | CM3 | OVRLRESP | Overall Response | UNSPECIFIED | PD | | PD | | | INVESTIGATOR | 260 | FOLLOW-UP MONTH 8 | 2015-06-01 | 581 | AFTER | STUDY TREATMENT DISCONTINUATION | | |", "score": 0.4303, "match_basis": "verbatim_token+domain_route:RS"}, {"md_atom_id": "md_dmRS_ex_a040", "md_file": "knowledge_base/domains/RS/examples.md", "md_atom_type": "TABLE_ROW", "md_parent_section": "§RS.1.3 [Example 3]", "md_verbatim": "| 2 | ABC | RS | 66666 | 2 | CM2 | BESTRESP | Best Response | UNSPECIFIED | SD | | SD | | | INVESTIGATOR | 10 | SCREEN | | | | | BEFORE | SCREEN |", "score": 0.4176, "match_basis": "verbatim_token+domain_route:RS"}, {"md_atom_id": "md_dmRS_ex_a052", "md_file": "knowledge_base/domains/RS/examples.md", "md_atom_type": "TABLE_ROW", "md_parent_section": "§RS.2.1 [Example 1]", "md_verbatim": "| 2 | STUDYX | RS | P0001 | 2 | GCS0102 | GCS01-Motor Response | GCS NINDS VERSION | Abnormal extension | 2 | 2 | Y | 1 | 2012-11-16 |", "score": 0.4169, "match_basis": "verbatim_token+domain_route:RS"}, {"md_atom_id": "md_dmRS_ex_a041", "md_file": "knowledge_base/domains/RS/examples.md", "md_atom_type": "TABLE_ROW", "md_parent_section": "§RS.1.3 [Example 3]", "md_verbatim": "| 3 | ABC | RS | 66666 | 3 | PR2 | BESTRESP | Best Response | UNSPECIFIED | MINIMAL RESPONSE | | MINIMAL RESPONSE | | | INVESTIGATOR | 10 | SCREEN | | | | | BEFORE | SCREEN |", "score": 0.4164, "match_basis": "verbatim_token+domain_route:RS"}], "candidate_count": 5, "zero_candidate": false}
{"pdf_atom_id": "ig34_p0329_a021", "pdf_atom_type": "TABLE_ROW", "pdf_source": "SDTMIG_v3.4", "pdf_page": 329, "pdf_parent_section": "§6.3.9.3 Disease Response and Clin Classification (RS) — RS-Specification", "pdf_verbatim": "| RSSPID | Sponsor-Defined Identifier | Char | | Identifier | Sponsor-defined identifier. | Perm |", "figure_ref": null, "candidates": [{"md_atom_id": "md_dmRS_ex_a016", "md_file": "knowledge_base/domains/RS/examples.md", "md_atom_type": "TABLE_ROW", "md_parent_section": "§RS.1.1 [Example 1]", "md_verbatim": "| 7 | ABC | RS | 44444 | 7 | A3 | OVRLRESP | Overall Response | PROTOCOL DEFINED RESPONSE CRITERIA | PD | PD | INVESTIGATOR | 60 | WEEK 12 | 2010-04-02 | 88 |", "score": 0.4727, "match_basis": "verbatim_token+domain_route:RS"}, {"md_atom_id": "md_dmRS_ex_a015", "md_file": "knowledge_base/domains/RS/examples.md", "md_atom_type": "TABLE_ROW", "md_parent_section": "§RS.1.1 [Example 1]", "md_verbatim": "| 6 | ABC | RS | 44444 | 6 | | SYMPTDTR | Symptomatic Deterioration | PROTOCOL DEFINED RESPONSE CRITERIA | Pleural Effusion | PD | INVESTIGATOR | 60 | WEEK 12 | 2010-04-02 | 88 |", "score": 0.4552, "match_basis": "verbatim_token+domain_route:RS"}, {"md_atom_id": "md_dmRS_ex_a023", "md_file": "knowledge_base/domains/RS/examples.md", "md_atom_type": "TABLE_ROW", "md_parent_section": "§RS.1.2 [Example 2]", "md_verbatim": "| 1 | ABC | RS | 55555 | 1 | | TRGRESP | Target Response | RECIST 1.1 | PR | PR | ACE IMAGING | INDEPENDENT ASSESSOR | RADIOLOGIST 1 | Y | 40 | WEEK 6 | 2010-02-18 | 46 |", "score": 0.4507, "match_basis": "verbatim_token+domain_route:RS"}, {"md_atom_id": "md_dmRS_ex_a027", "md_file": "knowledge_base/domains/RS/examples.md", "md_atom_type": "TABLE_ROW", "md_parent_section": "§RS.1.2 [Example 2]", "md_verbatim": "| 5 | ABC | RS | 55555 | 5 | | TRGRESP | Target Response | RECIST 1.1 | PD | PD | ACE IMAGING | INDEPENDENT ASSESSOR | RADIOLOGIST 1 | Y | 60 | WEEK 12 | 2010-04-02 | 88 |", "score": 0.4507, "match_basis": "verbatim_token+domain_route:RS"}, {"md_atom_id": "md_dmRS_ex_a040", "md_file": "knowledge_base/domains/RS/examples.md", "md_atom_type": "TABLE_ROW", "md_parent_section": "§RS.1.3 [Example 3]", "md_verbatim": "| 2 | ABC | RS | 66666 | 2 | CM2 | BESTRESP | Best Response | UNSPECIFIED | SD | | SD | | | INVESTIGATOR | 10 | SCREEN | | | | | BEFORE | SCREEN |", "score": 0.45, "match_basis": "verbatim_token+domain_route:RS"}], "candidate_count": 5, "zero_candidate": false}
{"pdf_atom_id": "ig34_p0329_a022", "pdf_atom_type": "TABLE_ROW", "pdf_source": "SDTMIG_v3.4", "pdf_page": 329, "pdf_parent_section": "§6.3.9.3 Disease Response and Clin Classification (RS) — RS-Specification", "pdf_verbatim": "| RSLNKID | Link ID | Char | | Identifier | An identifier used to link the response assessment to the related measurement record in another domain which was used to determine the response result. LNKID values group records within USUBJID. | Perm |", "figure_ref": null, "candidates": [{"md_atom_id": "md_dmRS_ex_a023", "md_file": "knowledge_base/domains/RS/examples.md", "md_atom_type": "TABLE_ROW", "md_parent_section": "§RS.1.2 [Example 2]", "md_verbatim": "| 1 | ABC | RS | 55555 | 1 | | TRGRESP | Target Response | RECIST 1.1 | PR | PR | ACE IMAGING | INDEPENDENT ASSESSOR | RADIOLOGIST 1 | Y | 40 | WEEK 6 | 2010-02-18 | 46 |", "score": 0.4614, "match_basis": "verbatim_token+domain_route:RS"}, {"md_atom_id": "md_dmRS_ex_a027", "md_file": "knowledge_base/domains/RS/examples.md", "md_atom_type": "TABLE_ROW", "md_parent_section": "§RS.1.2 [Example 2]", "md_verbatim": "| 5 | ABC | RS | 55555 | 5 | | TRGRESP | Target Response | RECIST 1.1 | PD | PD | ACE IMAGING | INDEPENDENT ASSESSOR | RADIOLOGIST 1 | Y | 60 | WEEK 12 | 2010-04-02 | 88 |", "score": 0.4614, "match_basis": "verbatim_token+domain_route:RS"}, {"md_atom_id": "md_dmRS_ex_a024", "md_file": "knowledge_base/domains/RS/examples.md", "md_atom_type": "TABLE_ROW", "md_parent_section": "§RS.1.2 [Example 2]", "md_verbatim": "| 2 | ABC | RS | 55555 | 2 | | NTRGRESP | Non-target Response | RECIST 1.1 | CR | CR | ACE IMAGING | INDEPENDENT ASSESSOR | RADIOLOGIST 1 | Y | 40 | WEEK 6 | 2010-02-18 | 46 |", "score": 0.4605, "match_basis": "verbatim_token+domain_route:RS"}, {"md_atom_id": "md_dmRS_ex_a026", "md_file": "knowledge_base/domains/RS/examples.md", "md_atom_type": "TABLE_ROW", "md_parent_section": "§RS.1.2 [Example 2]", "md_verbatim": "| 4 | ABC | RS | 55555 | 4 | A2 | OVRLRESP | Overall Response | RECIST 1.1 | PR | PR | ACE IMAGING | INDEPENDENT ASSESSOR | RADIOLOGIST 1 | Y | 40 | WEEK 6 | 2010-02-18 | 46 |", "score": 0.4605, "match_basis": "verbatim_token+domain_route:RS"}, {"md_atom_id": "md_dmRS_ex_a028", "md_file": "knowledge_base/domains/RS/examples.md", "md_atom_type": "TABLE_ROW", "md_parent_section": "§RS.1.2 [Example 2]", "md_verbatim": "| 6 | ABC | RS | 55555 | 6 | | NTRGRESP | Non-target Response | RECIST 1.1 | CR | CR | ACE IMAGING | INDEPENDENT ASSESSOR | RADIOLOGIST 1 | Y | 60 | WEEK 12 | 2010-04-02 | 88 |", "score": 0.4605, "match_basis": "verbatim_token+domain_route:RS"}], "candidate_count": 5, "zero_candidate": false}
{"pdf_atom_id": "ig34_p0329_a023", "pdf_atom_type": "TABLE_ROW", "pdf_source": "SDTMIG_v3.4", "pdf_page": 329, "pdf_parent_section": "§6.3.9.3 Disease Response and Clin Classification (RS) — RS-Specification", "pdf_verbatim": "| RSLNKGRP | Link Group ID | Char | | Identifier | A grouping identifier used to link the response assessment to a group of measurement/assessment records which were used in the assessment of the response. LNKGRP values group records within USUBJID. | Perm |", "figure_ref": null, "candidates": [{"md_atom_id": "md_dmRS_ex_a023", "md_file": "knowledge_base/domains/RS/examples.md", "md_atom_type": "TABLE_ROW", "md_parent_section": "§RS.1.2 [Example 2]", "md_verbatim": "| 1 | ABC | RS | 55555 | 1 | | TRGRESP | Target Response | RECIST 1.1 | PR | PR | ACE IMAGING | INDEPENDENT ASSESSOR | RADIOLOGIST 1 | Y | 40 | WEEK 6 | 2010-02-18 | 46 |", "score": 0.4771, "match_basis": "verbatim_token+domain_route:RS"}, {"md_atom_id": "md_dmRS_ex_a027", "md_file": "knowledge_base/domains/RS/examples.md", "md_atom_type": "TABLE_ROW", "md_parent_section": "§RS.1.2 [Example 2]", "md_verbatim": "| 5 | ABC | RS | 55555 | 5 | | TRGRESP | Target Response | RECIST 1.1 | PD | PD | ACE IMAGING | INDEPENDENT ASSESSOR | RADIOLOGIST 1 | Y | 60 | WEEK 12 | 2010-04-02 | 88 |", "score": 0.4771, "match_basis": "verbatim_token+domain_route:RS"}, {"md_atom_id": "md_dmRS_ex_a024", "md_file": "knowledge_base/domains/RS/examples.md", "md_atom_type": "TABLE_ROW", "md_parent_section": "§RS.1.2 [Example 2]", "md_verbatim": "| 2 | ABC | RS | 55555 | 2 | | NTRGRESP | Non-target Response | RECIST 1.1 | CR | CR | ACE IMAGING | INDEPENDENT ASSESSOR | RADIOLOGIST 1 | Y | 40 | WEEK 6 | 2010-02-18 | 46 |", "score": 0.4757, "match_basis": "verbatim_token+domain_route:RS"}, {"md_atom_id": "md_dmRS_ex_a026", "md_file": "knowledge_base/domains/RS/examples.md", "md_atom_type": "TABLE_ROW", "md_parent_section": "§RS.1.2 [Example 2]", "md_verbatim": "| 4 | ABC | RS | 55555 | 4 | A2 | OVRLRESP | Overall Response | RECIST 1.1 | PR | PR | ACE IMAGING | INDEPENDENT ASSESSOR | RADIOLOGIST 1 | Y | 40 | WEEK 6 | 2010-02-18 | 46 |", "score": 0.4757, "match_basis": "verbatim_token+domain_route:RS"}, {"md_atom_id": "md_dmRS_ex_a028", "md_file": "knowledge_base/domains/RS/examples.md", "md_atom_type": "TABLE_ROW", "md_parent_section": "§RS.1.2 [Example 2]", "md_verbatim": "| 6 | ABC | RS | 55555 | 6 | | NTRGRESP | Non-target Response | RECIST 1.1 | CR | CR | ACE IMAGING | INDEPENDENT ASSESSOR | RADIOLOGIST 1 | Y | 60 | WEEK 12 | 2010-04-02 | 88 |", "score": 0.4757, "match_basis": "verbatim_token+domain_route:RS"}], "candidate_count": 5, "zero_candidate": false}
{"pdf_atom_id": "ig34_p0329_a024", "pdf_atom_type": "TABLE_ROW", "pdf_source": "SDTMIG_v3.4", "pdf_page": 329, "pdf_parent_section": "§6.3.9.3 Disease Response and Clin Classification (RS) — RS-Specification", "pdf_verbatim": "| RSTESTCD | Assessment Short Name | Char | (ONCRTSCD) | Topic | Short name of the TEST in RSTEST. The value in RSTESTCD cannot be longer than 8 characters, nor can it start with a number (e.g., \"1TEST\" is not valid). RSTESTCD cannot contain characters other than letters, numbers, or underscores. Examples: \"TRGRESP\", \"NTRGRESP\", \"OVRLRESP\", \"SYMPDTR\", \"CPS0102\". | Req |", "figure_ref": null, "candidates": [{"md_atom_id": "md_dmRS_ex_a024", "md_file": "knowledge_base/domains/RS/examples.md", "md_atom_type": "TABLE_ROW", "md_parent_section": "§RS.1.2 [Example 2]", "md_verbatim": "| 2 | ABC | RS | 55555 | 2 | | NTRGRESP | Non-target Response | RECIST 1.1 | CR | CR | ACE IMAGING | INDEPENDENT ASSESSOR | RADIOLOGIST 1 | Y | 40 | WEEK 6 | 2010-02-18 | 46 |", "score": 0.4575, "match_basis": "verbatim_token+domain_route:RS"}, {"md_atom_id": "md_dmRS_ex_a028", "md_file": "knowledge_base/domains/RS/examples.md", "md_atom_type": "TABLE_ROW", "md_parent_section": "§RS.1.2 [Example 2]", "md_verbatim": "| 6 | ABC | RS | 55555 | 6 | | NTRGRESP | Non-target Response | RECIST 1.1 | CR | CR | ACE IMAGING | INDEPENDENT ASSESSOR | RADIOLOGIST 1 | Y | 60 | WEEK 12 | 2010-04-02 | 88 |", "score": 0.4575, "match_basis": "verbatim_token+domain_route:RS"}, {"md_atom_id": "md_dmRS_ex_a023", "md_file": "knowledge_base/domains/RS/examples.md", "md_atom_type": "TABLE_ROW", "md_parent_section": "§RS.1.2 [Example 2]", "md_verbatim": "| 1 | ABC | RS | 55555 | 1 | | TRGRESP | Target Response | RECIST 1.1 | PR | PR | ACE IMAGING | INDEPENDENT ASSESSOR | RADIOLOGIST 1 | Y | 40 | WEEK 6 | 2010-02-18 | 46 |", "score": 0.4538, "match_basis": "verbatim_token+domain_route:RS"}, {"md_atom_id": "md_dmRS_ex_a027", "md_file": "knowledge_base/domains/RS/examples.md", "md_atom_type": "TABLE_ROW", "md_parent_section": "§RS.1.2 [Example 2]", "md_verbatim": "| 5 | ABC | RS | 55555 | 5 | | TRGRESP | Target Response | RECIST 1.1 | PD | PD | ACE IMAGING | INDEPENDENT ASSESSOR | RADIOLOGIST 1 | Y | 60 | WEEK 12 | 2010-04-02 | 88 |", "score": 0.4538, "match_basis": "verbatim_token+domain_route:RS"}, {"md_atom_id": "md_dmRS_ex_a026", "md_file": "knowledge_base/domains/RS/examples.md", "md_atom_type": "TABLE_ROW", "md_parent_section": "§RS.1.2 [Example 2]", "md_verbatim": "| 4 | ABC | RS | 55555 | 4 | A2 | OVRLRESP | Overall Response | RECIST 1.1 | PR | PR | ACE IMAGING | INDEPENDENT ASSESSOR | RADIOLOGIST 1 | Y | 40 | WEEK 6 | 2010-02-18 | 46 |", "score": 0.4531, "match_basis": "verbatim_token+domain_route:RS"}], "candidate_count": 5, "zero_candidate": false}
{"pdf_atom_id": "ig34_p0330_a001", "pdf_atom_type": "TABLE_HEADER", "pdf_source": "SDTMIG_v3.4", "pdf_page": 330, "pdf_parent_section": "§6.3.9.3 Disease Response and Clin Classification (RS) — RS-Specification", "pdf_verbatim": "| Variable Name | Variable Label | Type | Controlled Terms, Codelist or Format1 | Role | CDISC Notes | Core |", "figure_ref": null, "candidates": [{"md_atom_id": "md_dmRS_ex_a022", "md_file": "knowledge_base/domains/RS/examples.md", "md_atom_type": "TABLE_HEADER", "md_parent_section": "§RS.1.2 [Example 2]", "md_verbatim": "| Row | STUDYID | DOMAIN | USUBJID | RSSEQ | RSLNKGRP | RSTESTCD | RSTEST | RSCAT | RSORRES | RSSTRESC | RSNAM | RSEVAL | RSEVALID | RSACPTFL | VISITNUM | VISIT | RSDTC | RSDY |\n|-----|---------|--------|---------|-------|----------|----------|--------|-------|---------|----------|-------|--------|----------|----------|----------|-------|-------|------|", "score": 0.411, "match_basis": "verbatim_token+domain_route:RS"}, {"md_atom_id": "md_dmRS_ex_a050", "md_file": "knowledge_base/domains/RS/examples.md", "md_atom_type": "TABLE_HEADER", "md_parent_section": "§RS.2.1 [Example 1]", "md_verbatim": "| Row | STUDYID | DOMAIN | USUBJID | RSSEQ | RSTESTCD | RSTEST | RSCAT | RSORRES | RSSTRESC | RSSTRESN | RSLOBXFL | VISITNUM | RSDTC |\n|-----|---------|--------|---------|-------|----------|--------|-------|---------|----------|----------|----------|----------|-------|", "score": 0.4063, "match_basis": "verbatim_token+domain_route:RS"}, {"md_atom_id": "md_dmRS_ex_a009", "md_file": "knowledge_base/domains/RS/examples.md", "md_atom_type": "TABLE_HEADER", "md_parent_section": "§RS.1.1 [Example 1]", "md_verbatim": "| Row | STUDYID | DOMAIN | USUBJID | RSSEQ | RSLNKGRP | RSTESTCD | RSTEST | RSCAT | RSORRES | RSSTRESC | RSEVAL | VISITNUM | VISIT | RSDTC | RSDY |\n|-----|---------|--------|---------|-------|----------|----------|--------|-------|---------|----------|--------|----------|-------|-------|------|", "score": 0.4061, "match_basis": "verbatim_token+domain_route:RS"}, {"md_atom_id": "md_dmRS_ex_a038", "md_file": "knowledge_base/domains/RS/examples.md", "md_atom_type": "TABLE_HEADER", "md_parent_section": "§RS.1.3 [Example 3]", "md_verbatim": "| Row | STUDYID | DOMAIN | USUBJID | RSSEQ | RSLNKGRP | RSTESTCD | RSTEST | RSCAT | RSORRES | RSORRESU | RSSTRESC | RSSTRESN | RSSTRESU | RSEVAL | VISITNUM | VISIT | RSDTC | RSDY | RSSTRTPT | RSSTTPT | RSENRTPT | RSENTPT |\n|-----|---------|--------|---------|-------|----------|----------|--------|-------|---------|----------|----------|----------|----------|--------|----------|-------|-------|------|----------|---------|----------|---------|", "score": 0.4054, "match_basis": "verbatim_token+domain_route:RS"}, {"md_atom_id": "md_dmRS_ex_a042", "md_file": "knowledge_base/domains/RS/examples.md", "md_atom_type": "TABLE_ROW", "md_parent_section": "§RS.1.3 [Example 3]", "md_verbatim": "| 4 | ABC | RS | 77777 | 4 | CM3 | BESTRESP | Best Response | UNSPECIFIED | SD | | SD | | | INVESTIGATOR | 240 | FOLLOW-UP MONTH 6 | 2015-04-02 | 520 | AFTER | STUDY TREATMENT DISCONTINUATION | | |", "score": 0.3746, "match_basis": "verbatim_token+domain_route:RS"}], "candidate_count": 5, "zero_candidate": false}
{"pdf_atom_id": "ig34_p0330_a002", "pdf_atom_type": "TABLE_ROW", "pdf_source": "SDTMIG_v3.4", "pdf_page": 330, "pdf_parent_section": "§6.3.9.3 Disease Response and Clin Classification (RS) — RS-Specification", "pdf_verbatim": "| | | | | | There are separate codelists used for RSTESTCD where the choice depends on the value of RSCAT. Codelist \"ONCRTSCD\" is used for oncology response criteria (when RSCAT is a term in codelist \"ONCRSCAT\"). Examples: TRGRESP, \"NTRGRESP, \"OVRLRESP\". For Clinical Classifications (when RSCAT is a term in codelist \"CCCAT\"), QRS Naming Rules apply. These instruments have individual dedicated terminology codelists. | |", "figure_ref": null, "candidates": [{"md_atom_id": "md_dmRS_ex_a024", "md_file": "knowledge_base/domains/RS/examples.md", "md_atom_type": "TABLE_ROW", "md_parent_section": "§RS.1.2 [Example 2]", "md_verbatim": "| 2 | ABC | RS | 55555 | 2 | | NTRGRESP | Non-target Response | RECIST 1.1 | CR | CR | ACE IMAGING | INDEPENDENT ASSESSOR | RADIOLOGIST 1 | Y | 40 | WEEK 6 | 2010-02-18 | 46 |", "score": 0.4741, "match_basis": "verbatim_token+domain_route:RS"}, {"md_atom_id": "md_dmRS_ex_a026", "md_file": "knowledge_base/domains/RS/examples.md", "md_atom_type": "TABLE_ROW", "md_parent_section": "§RS.1.2 [Example 2]", "md_verbatim": "| 4 | ABC | RS | 55555 | 4 | A2 | OVRLRESP | Overall Response | RECIST 1.1 | PR | PR | ACE IMAGING | INDEPENDENT ASSESSOR | RADIOLOGIST 1 | Y | 40 | WEEK 6 | 2010-02-18 | 46 |", "score": 0.4741, "match_basis": "verbatim_token+domain_route:RS"}, {"md_atom_id": "md_dmRS_ex_a028", "md_file": "knowledge_base/domains/RS/examples.md", "md_atom_type": "TABLE_ROW", "md_parent_section": "§RS.1.2 [Example 2]", "md_verbatim": "| 6 | ABC | RS | 55555 | 6 | | NTRGRESP | Non-target Response | RECIST 1.1 | CR | CR | ACE IMAGING | INDEPENDENT ASSESSOR | RADIOLOGIST 1 | Y | 60 | WEEK 12 | 2010-04-02 | 88 |", "score": 0.4741, "match_basis": "verbatim_token+domain_route:RS"}, {"md_atom_id": "md_dmRS_ex_a030", "md_file": "knowledge_base/domains/RS/examples.md", "md_atom_type": "TABLE_ROW", "md_parent_section": "§RS.1.2 [Example 2]", "md_verbatim": "| 8 | ABC | RS | 55555 | 8 | A3 | OVRLRESP | Overall Response | RECIST 1.1 | PD | PD | ACE IMAGING | INDEPENDENT ASSESSOR | RADIOLOGIST 1 | Y | 60 | WEEK 12 | 2010-04-02 | 88 |", "score": 0.4741, "match_basis": "verbatim_token+domain_route:RS"}, {"md_atom_id": "md_dmRS_ex_a023", "md_file": "knowledge_base/domains/RS/examples.md", "md_atom_type": "TABLE_ROW", "md_parent_section": "§RS.1.2 [Example 2]", "md_verbatim": "| 1 | ABC | RS | 55555 | 1 | | TRGRESP | Target Response | RECIST 1.1 | PR | PR | ACE IMAGING | INDEPENDENT ASSESSOR | RADIOLOGIST 1 | Y | 40 | WEEK 6 | 2010-02-18 | 46 |", "score": 0.471, "match_basis": "verbatim_token+domain_route:RS"}], "candidate_count": 5, "zero_candidate": false}
{"pdf_atom_id": "ig34_p0330_a003", "pdf_atom_type": "TABLE_ROW", "pdf_source": "SDTMIG_v3.4", "pdf_page": 330, "pdf_parent_section": "§6.3.9.3 Disease Response and Clin Classification (RS) — RS-Specification", "pdf_verbatim": "| RSTEST | Assessment Name | Char | (ONCRTS) | Synonym Qualifier | Verbatim name of the response assessment. The value in RSTEST cannot be longer than 40 characters. There are separate codelists used for RSTEST where the choice depends on the value of RSCAT. Codelist \"ONCRTS\" is used for oncology response criteria (when RSCAT is a term in codelist \"ONCRSCAT\"). Examples: \"Target Response\", \"Non-target Response\", \"Overall Response\", \"Symptomatic Deterioration\". For Clinical Classifications (when RSCAT is a term in codelist \"CCCAT\"), QRS Naming Rules apply. These instruments have individual dedicated terminology codelists. | Req |", "figure_ref": null, "candidates": [{"md_atom_id": "md_dmRS_ex_a015", "md_file": "knowledge_base/domains/RS/examples.md", "md_atom_type": "TABLE_ROW", "md_parent_section": "§RS.1.1 [Example 1]", "md_verbatim": "| 6 | ABC | RS | 44444 | 6 | | SYMPTDTR | Symptomatic Deterioration | PROTOCOL DEFINED RESPONSE CRITERIA | Pleural Effusion | PD | INVESTIGATOR | 60 | WEEK 12 | 2010-04-02 | 88 |", "score": 0.4896, "match_basis": "verbatim_token+domain_route:RS"}, {"md_atom_id": "md_dmRS_ex_a024", "md_file": "knowledge_base/domains/RS/examples.md", "md_atom_type": "TABLE_ROW", "md_parent_section": "§RS.1.2 [Example 2]", "md_verbatim": "| 2 | ABC | RS | 55555 | 2 | | NTRGRESP | Non-target Response | RECIST 1.1 | CR | CR | ACE IMAGING | INDEPENDENT ASSESSOR | RADIOLOGIST 1 | Y | 40 | WEEK 6 | 2010-02-18 | 46 |", "score": 0.4704, "match_basis": "verbatim_token+domain_route:RS"}, {"md_atom_id": "md_dmRS_ex_a026", "md_file": "knowledge_base/domains/RS/examples.md", "md_atom_type": "TABLE_ROW", "md_parent_section": "§RS.1.2 [Example 2]", "md_verbatim": "| 4 | ABC | RS | 55555 | 4 | A2 | OVRLRESP | Overall Response | RECIST 1.1 | PR | PR | ACE IMAGING | INDEPENDENT ASSESSOR | RADIOLOGIST 1 | Y | 40 | WEEK 6 | 2010-02-18 | 46 |", "score": 0.4704, "match_basis": "verbatim_token+domain_route:RS"}, {"md_atom_id": "md_dmRS_ex_a028", "md_file": "knowledge_base/domains/RS/examples.md", "md_atom_type": "TABLE_ROW", "md_parent_section": "§RS.1.2 [Example 2]", "md_verbatim": "| 6 | ABC | RS | 55555 | 6 | | NTRGRESP | Non-target Response | RECIST 1.1 | CR | CR | ACE IMAGING | INDEPENDENT ASSESSOR | RADIOLOGIST 1 | Y | 60 | WEEK 12 | 2010-04-02 | 88 |", "score": 0.4704, "match_basis": "verbatim_token+domain_route:RS"}, {"md_atom_id": "md_dmRS_ex_a030", "md_file": "knowledge_base/domains/RS/examples.md", "md_atom_type": "TABLE_ROW", "md_parent_section": "§RS.1.2 [Example 2]", "md_verbatim": "| 8 | ABC | RS | 55555 | 8 | A3 | OVRLRESP | Overall Response | RECIST 1.1 | PD | PD | ACE IMAGING | INDEPENDENT ASSESSOR | RADIOLOGIST 1 | Y | 60 | WEEK 12 | 2010-04-02 | 88 |", "score": 0.4704, "match_basis": "verbatim_token+domain_route:RS"}], "candidate_count": 5, "zero_candidate": false}
{"pdf_atom_id": "ig34_p0330_a004", "pdf_atom_type": "TABLE_ROW", "pdf_source": "SDTMIG_v3.4", "pdf_page": 330, "pdf_parent_section": "§6.3.9.3 Disease Response and Clin Classification (RS) — RS-Specification", "pdf_verbatim": "| RSCAT | Category for Assessment | Char | (ONCRSCAT)(CCCAT) | Grouping Qualifier | Used to define a category of related records across subjects. Examples: \"RECIST 1.1\", \"CHILD-PUGH CLASSIFICATION\". There are separate codelists used for RSCAT where the choice depends on whether the related records are about an oncology response criterion or another clinical classification. RSCAT is required for clinical classifications other than oncology response criteria. | Exp |", "figure_ref": null, "candidates": [{"md_atom_id": "md_dmRS_ex_a025", "md_file": "knowledge_base/domains/RS/examples.md", "md_atom_type": "TABLE_ROW", "md_parent_section": "§RS.1.2 [Example 2]", "md_verbatim": "| 3 | ABC | RS | 55555 | 3 | | NEWLPROG | New Lesion Progression | RECIST 1.1 | EQUIVOCAL | EQUIVOCAL | ACE IMAGING | INDEPENDENT ASSESSOR | RADIOLOGIST 1 | Y | 40 | WEEK 6 | 2010-02-18 | 46 |", "score": 0.4742, "match_basis": "verbatim_token+domain_route:RS"}, {"md_atom_id": "md_dmRS_ex_a023", "md_file": "knowledge_base/domains/RS/examples.md", "md_atom_type": "TABLE_ROW", "md_parent_section": "§RS.1.2 [Example 2]", "md_verbatim": "| 1 | ABC | RS | 55555 | 1 | | TRGRESP | Target Response | RECIST 1.1 | PR | PR | ACE IMAGING | INDEPENDENT ASSESSOR | RADIOLOGIST 1 | Y | 40 | WEEK 6 | 2010-02-18 | 46 |", "score": 0.4737, "match_basis": "verbatim_token+domain_route:RS"}, {"md_atom_id": "md_dmRS_ex_a027", "md_file": "knowledge_base/domains/RS/examples.md", "md_atom_type": "TABLE_ROW", "md_parent_section": "§RS.1.2 [Example 2]", "md_verbatim": "| 5 | ABC | RS | 55555 | 5 | | TRGRESP | Target Response | RECIST 1.1 | PD | PD | ACE IMAGING | INDEPENDENT ASSESSOR | RADIOLOGIST 1 | Y | 60 | WEEK 12 | 2010-04-02 | 88 |", "score": 0.4737, "match_basis": "verbatim_token+domain_route:RS"}, {"md_atom_id": "md_dmRS_ex_a029", "md_file": "knowledge_base/domains/RS/examples.md", "md_atom_type": "TABLE_ROW", "md_parent_section": "§RS.1.2 [Example 2]", "md_verbatim": "| 7 | ABC | RS | 55555 | 7 | | NEWLPROG | New Lesion Progression | RECIST 1.1 | UNEQUIVOCAL | UNEQUIVOCAL | ACE IMAGING | INDEPENDENT ASSESSOR | RADIOLOGIST 1 | Y | 60 | WEEK 12 | 2010-04-02 | 88 |", "score": 0.4734, "match_basis": "verbatim_token+domain_route:RS"}, {"md_atom_id": "md_dmRS_ex_a024", "md_file": "knowledge_base/domains/RS/examples.md", "md_atom_type": "TABLE_ROW", "md_parent_section": "§RS.1.2 [Example 2]", "md_verbatim": "| 2 | ABC | RS | 55555 | 2 | | NTRGRESP | Non-target Response | RECIST 1.1 | CR | CR | ACE IMAGING | INDEPENDENT ASSESSOR | RADIOLOGIST 1 | Y | 40 | WEEK 6 | 2010-02-18 | 46 |", "score": 0.4729, "match_basis": "verbatim_token+domain_route:RS"}], "candidate_count": 5, "zero_candidate": false}
{"pdf_atom_id": "ig34_p0330_a005", "pdf_atom_type": "TABLE_ROW", "pdf_source": "SDTMIG_v3.4", "pdf_page": 330, "pdf_parent_section": "§6.3.9.3 Disease Response and Clin Classification (RS) — RS-Specification", "pdf_verbatim": "| RSSCAT | Subcategory | Char | | Grouping Qualifier | Used to define a further categorization of RSCAT values. | Perm |", "figure_ref": null, "candidates": [{"md_atom_id": "md_dmRS_ex_a015", "md_file": "knowledge_base/domains/RS/examples.md", "md_atom_type": "TABLE_ROW", "md_parent_section": "§RS.1.1 [Example 1]", "md_verbatim": "| 6 | ABC | RS | 44444 | 6 | | SYMPTDTR | Symptomatic Deterioration | PROTOCOL DEFINED RESPONSE CRITERIA | Pleural Effusion | PD | INVESTIGATOR | 60 | WEEK 12 | 2010-04-02 | 88 |", "score": 0.4368, "match_basis": "verbatim_token+domain_route:RS"}, {"md_atom_id": "md_dmRS_ex_a061", "md_file": "knowledge_base/domains/RS/examples.md", "md_atom_type": "TABLE_ROW", "md_parent_section": "§RS.2.1 [Example 1]", "md_verbatim": "| 11 | STUDYX | RS | P0001 | 11 | GCS0105G | GCS01-Confounder: Sedation | GCS NINDS VERSION | NOT CHECKED | NOT CHECKED | | Y | 1 | 2012-11-16 |", "score": 0.4267, "match_basis": "verbatim_token+domain_route:RS"}, {"md_atom_id": "md_dmRS_ex_a042", "md_file": "knowledge_base/domains/RS/examples.md", "md_atom_type": "TABLE_ROW", "md_parent_section": "§RS.1.3 [Example 3]", "md_verbatim": "| 4 | ABC | RS | 77777 | 4 | CM3 | BESTRESP | Best Response | UNSPECIFIED | SD | | SD | | | INVESTIGATOR | 240 | FOLLOW-UP MONTH 6 | 2015-04-02 | 520 | AFTER | STUDY TREATMENT DISCONTINUATION | | |", "score": 0.4265, "match_basis": "verbatim_token+domain_route:RS"}, {"md_atom_id": "md_dmRS_ex_a060", "md_file": "knowledge_base/domains/RS/examples.md", "md_atom_type": "TABLE_ROW", "md_parent_section": "§RS.2.1 [Example 1]", "md_verbatim": "| 10 | STUDYX | RS | P0001 | 10 | GCS0105F | GCS01-Confounder: Hypothermia | GCS NINDS VERSION | NOT CHECKED | NOT CHECKED | | Y | 1 | 2012-11-16 |", "score": 0.4255, "match_basis": "verbatim_token+domain_route:RS"}, {"md_atom_id": "md_dmRS_ex_a016", "md_file": "knowledge_base/domains/RS/examples.md", "md_atom_type": "TABLE_ROW", "md_parent_section": "§RS.1.1 [Example 1]", "md_verbatim": "| 7 | ABC | RS | 44444 | 7 | A3 | OVRLRESP | Overall Response | PROTOCOL DEFINED RESPONSE CRITERIA | PD | PD | INVESTIGATOR | 60 | WEEK 12 | 2010-04-02 | 88 |", "score": 0.425, "match_basis": "verbatim_token+domain_route:RS"}], "candidate_count": 5, "zero_candidate": false}
