{"pdf_atom_id": "ig34_p0143_a024", "pdf_atom_type": "TABLE_ROW", "pdf_source": "SDTMIG_v3.4", "pdf_page": 143, "pdf_parent_section": "§6.2.2 [Biospecimen Events (BE)]", "pdf_verbatim": "| BEPRTYID | Identification of Accountable Party | Char | | Record Qualifier | Identification of the specific party accountable for the transferable object (e.g. Specimen) after the action in BETERM is taken. Used in conjunction with BEPARTY. | Perm |", "figure_ref": null, "candidates": [{"md_atom_id": "md_dmBE_ex_a082", "md_file": "knowledge_base/domains/BE/examples.md", "md_atom_type": "TABLE_ROW", "md_parent_section": "§BE.2 [Example 2]", "md_verbatim": "| 3 | 3441271 | BE | MU-298 | BEREFID | 298R1-1R0 | BESPEC | Specimen Type | RNA | Collected | |", "score": 0.4382, "match_basis": "verbatim_token+domain_route:BE"}, {"md_atom_id": "md_dmBE_ex_a083", "md_file": "knowledge_base/domains/BE/examples.md", "md_atom_type": "TABLE_ROW", "md_parent_section": "§BE.2 [Example 2]", "md_verbatim": "| 4 | 3441271 | BE | MU-298 | BEREFID | 298R1-1R1 | BESPEC | Specimen Type | RNA | Collected | |", "score": 0.4382, "match_basis": "verbatim_token+domain_route:BE"}, {"md_atom_id": "md_dmBE_ex_a084", "md_file": "knowledge_base/domains/BE/examples.md", "md_atom_type": "TABLE_ROW", "md_parent_section": "§BE.2 [Example 2]", "md_verbatim": "| 5 | 3441271 | BE | MU-298 | BEREFID | 298R1-1R2 | BESPEC | Specimen Type | RNA | Collected | |", "score": 0.4382, "match_basis": "verbatim_token+domain_route:BE"}, {"md_atom_id": "md_dmBE_ex_a085", "md_file": "knowledge_base/domains/BE/examples.md", "md_atom_type": "TABLE_ROW", "md_parent_section": "§BE.2 [Example 2]", "md_verbatim": "| 6 | 3441271 | BE | MU-298 | BEREFID | 298R1-1R3 | BESPEC | Specimen Type | RNA | Collected | |", "score": 0.4382, "match_basis": "verbatim_token+domain_route:BE"}, {"md_atom_id": "md_dmBE_ex_a034", "md_file": "knowledge_base/domains/BE/examples.md", "md_atom_type": "TABLE_ROW", "md_parent_section": "§BE.1 [Example 1]", "md_verbatim": "| 2 | ABC134 | BS | 43871 | 2 | 267FF | 1148.267 | TEMP | Temperature | SPECIMEN HANDLING | -80 | C | -80 | -80 | C | BRAIN | CEREBRAL AQUEDUCT | 1 | 2005-03-20 |", "score": 0.4381, "match_basis": "verbatim_token+domain_route:BE"}], "candidate_count": 5, "zero_candidate": false}
{"pdf_atom_id": "ig34_p0144_a001", "pdf_atom_type": "TABLE_ROW", "pdf_source": "SDTMIG_v3.4", "pdf_page": 144, "pdf_parent_section": "§6.2.2 [Biospecimen Events (BE)]", "pdf_verbatim": "| VISITNUM | Visit Number | Num | | Timing | Clinical encounter number. Numeric version of VISIT, used for sorting. | Exp |", "figure_ref": null, "candidates": [{"md_atom_id": "md_dmBE_ex_a095", "md_file": "knowledge_base/domains/BE/examples.md", "md_atom_type": "TABLE_ROW", "md_parent_section": "§BE.2 [Example 2]", "md_verbatim": "| 4 | 3441271 | BS | MU-298 | 4 | 298R1-1R0 | RIN | RNA Integrity Number | QUALITY CONTROL | 9.3 | | 9.3 | 9.3 | | RNA | 2 | 2010-04-01T11:50 |", "score": 0.4405, "match_basis": "verbatim_token+domain_route:BE"}, {"md_atom_id": "md_dmBE_ex_a016", "md_file": "knowledge_base/domains/BE/examples.md", "md_atom_type": "TABLE_ROW", "md_parent_section": "§BE.1 [Example 1]", "md_verbatim": "| 1 | ABC134 | BE | 43871 | TS409871 | 1 | 1148.267 | Collecting | COLLECTING | SITE | 01 | COLLECTION | BRAIN | 1 | BASELINE | 2005-03-20 | 2005-03-20T15:07 | |", "score": 0.438, "match_basis": "verbatim_token+domain_route:BE"}, {"md_atom_id": "md_dmBE_ex_a063", "md_file": "knowledge_base/domains/BE/examples.md", "md_atom_type": "TABLE_ROW", "md_parent_section": "§BE.2 [Example 2]", "md_verbatim": "| 1 | 3441271 | BE | MU-298 | | 1 | 298B1 | Collecting | COLLECTING | SITE | 05 | COLLECTION | 2 | 2010-04-01T11:50 | 2010-04-01T11:50 | |", "score": 0.4375, "match_basis": "verbatim_token+domain_route:BE"}, {"md_atom_id": "md_dmBE_ex_a064", "md_file": "knowledge_base/domains/BE/examples.md", "md_atom_type": "TABLE_ROW", "md_parent_section": "§BE.2 [Example 2]", "md_verbatim": "| 2 | 3441271 | BE | MU-298 | 293USHE8 | 2 | 298B1-1 | Extracting | EXTRACTING | SITE | 05 | EXTRACTION | 2 | 2010-04-01T11:50 | 2010-04-01T12:10 | |", "score": 0.4338, "match_basis": "verbatim_token+domain_route:BE"}, {"md_atom_id": "md_dmBE_ex_a019", "md_file": "knowledge_base/domains/BE/examples.md", "md_atom_type": "TABLE_ROW", "md_parent_section": "§BE.1 [Example 1]", "md_verbatim": "| 4 | ABC134 | BE | 43871 | | 4 | 1148.267 | Thawing | THAWING | SITE | 01 | PREPARATION | | 1 | BASELINE | 2005-03-20 | 2005-03-21T10:29 | 2005-03-21T10:36 |", "score": 0.4316, "match_basis": "verbatim_token+domain_route:BE"}], "candidate_count": 5, "zero_candidate": false}
{"pdf_atom_id": "ig34_p0144_a002", "pdf_atom_type": "TABLE_ROW", "pdf_source": "SDTMIG_v3.4", "pdf_page": 144, "pdf_parent_section": "§6.2.2 [Biospecimen Events (BE)]", "pdf_verbatim": "| VISIT | Visit Name | Char | | Timing | Protocol-defined description of clinical encounter. | Perm |", "figure_ref": null, "candidates": [{"md_atom_id": "md_dmBE_ex_a016", "md_file": "knowledge_base/domains/BE/examples.md", "md_atom_type": "TABLE_ROW", "md_parent_section": "§BE.1 [Example 1]", "md_verbatim": "| 1 | ABC134 | BE | 43871 | TS409871 | 1 | 1148.267 | Collecting | COLLECTING | SITE | 01 | COLLECTION | BRAIN | 1 | BASELINE | 2005-03-20 | 2005-03-20T15:07 | |", "score": 0.4525, "match_basis": "verbatim_token+domain_route:BE"}, {"md_atom_id": "md_dmBE_ex_a019", "md_file": "knowledge_base/domains/BE/examples.md", "md_atom_type": "TABLE_ROW", "md_parent_section": "§BE.1 [Example 1]", "md_verbatim": "| 4 | ABC134 | BE | 43871 | | 4 | 1148.267 | Thawing | THAWING | SITE | 01 | PREPARATION | | 1 | BASELINE | 2005-03-20 | 2005-03-21T10:29 | 2005-03-21T10:36 |", "score": 0.4468, "match_basis": "verbatim_token+domain_route:BE"}, {"md_atom_id": "md_dmBE_ex_a063", "md_file": "knowledge_base/domains/BE/examples.md", "md_atom_type": "TABLE_ROW", "md_parent_section": "§BE.2 [Example 2]", "md_verbatim": "| 1 | 3441271 | BE | MU-298 | | 1 | 298B1 | Collecting | COLLECTING | SITE | 05 | COLLECTION | 2 | 2010-04-01T11:50 | 2010-04-01T11:50 | |", "score": 0.4455, "match_basis": "verbatim_token+domain_route:BE"}, {"md_atom_id": "md_dmBE_ex_a017", "md_file": "knowledge_base/domains/BE/examples.md", "md_atom_type": "TABLE_ROW", "md_parent_section": "§BE.1 [Example 1]", "md_verbatim": "| 2 | ABC134 | BE | 43871 | | 2 | 1148.267 | Flash Freezing | FLASH FREEZING | SITE | 01 | PREPARATION | | 1 | BASELINE | 2005-03-20 | 2005-03-20T15:07 | 2005-03-20T15:09 |", "score": 0.4444, "match_basis": "verbatim_token+domain_route:BE"}, {"md_atom_id": "md_dmBE_ex_a064", "md_file": "knowledge_base/domains/BE/examples.md", "md_atom_type": "TABLE_ROW", "md_parent_section": "§BE.2 [Example 2]", "md_verbatim": "| 2 | 3441271 | BE | MU-298 | 293USHE8 | 2 | 298B1-1 | Extracting | EXTRACTING | SITE | 05 | EXTRACTION | 2 | 2010-04-01T11:50 | 2010-04-01T12:10 | |", "score": 0.4324, "match_basis": "verbatim_token+domain_route:BE"}], "candidate_count": 5, "zero_candidate": false}
{"pdf_atom_id": "ig34_p0144_a003", "pdf_atom_type": "TABLE_ROW", "pdf_source": "SDTMIG_v3.4", "pdf_page": 144, "pdf_parent_section": "§6.2.2 [Biospecimen Events (BE)]", "pdf_verbatim": "| VISITDY | Planned Study Day of Visit | Num | | Timing | Planned study day of VISIT. Should be an integer. | Perm |", "figure_ref": null, "candidates": [{"md_atom_id": "md_dmBE_ex_a095", "md_file": "knowledge_base/domains/BE/examples.md", "md_atom_type": "TABLE_ROW", "md_parent_section": "§BE.2 [Example 2]", "md_verbatim": "| 4 | 3441271 | BS | MU-298 | 4 | 298R1-1R0 | RIN | RNA Integrity Number | QUALITY CONTROL | 9.3 | | 9.3 | 9.3 | | RNA | 2 | 2010-04-01T11:50 |", "score": 0.4387, "match_basis": "verbatim_token+domain_route:BE"}, {"md_atom_id": "md_dmBE_ex_a063", "md_file": "knowledge_base/domains/BE/examples.md", "md_atom_type": "TABLE_ROW", "md_parent_section": "§BE.2 [Example 2]", "md_verbatim": "| 1 | 3441271 | BE | MU-298 | | 1 | 298B1 | Collecting | COLLECTING | SITE | 05 | COLLECTION | 2 | 2010-04-01T11:50 | 2010-04-01T11:50 | |", "score": 0.4226, "match_basis": "verbatim_token+domain_route:BE"}, {"md_atom_id": "md_dmBE_ex_a064", "md_file": "knowledge_base/domains/BE/examples.md", "md_atom_type": "TABLE_ROW", "md_parent_section": "§BE.2 [Example 2]", "md_verbatim": "| 2 | 3441271 | BE | MU-298 | 293USHE8 | 2 | 298B1-1 | Extracting | EXTRACTING | SITE | 05 | EXTRACTION | 2 | 2010-04-01T11:50 | 2010-04-01T12:10 | |", "score": 0.42, "match_basis": "verbatim_token+domain_route:BE"}, {"md_atom_id": "md_dmBE_ex_a018", "md_file": "knowledge_base/domains/BE/examples.md", "md_atom_type": "TABLE_ROW", "md_parent_section": "§BE.1 [Example 1]", "md_verbatim": "| 3 | ABC134 | BE | 43871 | 309827 | 3 | 1148.267 | Storing | STORING | SITE | 01 | STORING | | 1 | BASELINE | 2005-03-20 | 2005-03-20T15:09 | 2005-03-21T10:29 |", "score": 0.419, "match_basis": "verbatim_token+domain_route:BE"}, {"md_atom_id": "md_dmBE_ex_a019", "md_file": "knowledge_base/domains/BE/examples.md", "md_atom_type": "TABLE_ROW", "md_parent_section": "§BE.1 [Example 1]", "md_verbatim": "| 4 | ABC134 | BE | 43871 | | 4 | 1148.267 | Thawing | THAWING | SITE | 01 | PREPARATION | | 1 | BASELINE | 2005-03-20 | 2005-03-21T10:29 | 2005-03-21T10:36 |", "score": 0.4185, "match_basis": "verbatim_token+domain_route:BE"}], "candidate_count": 5, "zero_candidate": false}
{"pdf_atom_id": "ig34_p0144_a004", "pdf_atom_type": "TABLE_ROW", "pdf_source": "SDTMIG_v3.4", "pdf_page": 144, "pdf_parent_section": "§6.2.2 [Biospecimen Events (BE)]", "pdf_verbatim": "| BEDTC | Date/Time of Specimen Collection | Char | ISO 8601 datetime or interval | Timing | Date and time of specimen collection. | Exp |", "figure_ref": null, "candidates": [{"md_atom_id": "md_dmBE_ex_a082", "md_file": "knowledge_base/domains/BE/examples.md", "md_atom_type": "TABLE_ROW", "md_parent_section": "§BE.2 [Example 2]", "md_verbatim": "| 3 | 3441271 | BE | MU-298 | BEREFID | 298R1-1R0 | BESPEC | Specimen Type | RNA | Collected | |", "score": 0.5119, "match_basis": "verbatim_token+domain_route:BE"}, {"md_atom_id": "md_dmBE_ex_a083", "md_file": "knowledge_base/domains/BE/examples.md", "md_atom_type": "TABLE_ROW", "md_parent_section": "§BE.2 [Example 2]", "md_verbatim": "| 4 | 3441271 | BE | MU-298 | BEREFID | 298R1-1R1 | BESPEC | Specimen Type | RNA | Collected | |", "score": 0.5119, "match_basis": "verbatim_token+domain_route:BE"}, {"md_atom_id": "md_dmBE_ex_a084", "md_file": "knowledge_base/domains/BE/examples.md", "md_atom_type": "TABLE_ROW", "md_parent_section": "§BE.2 [Example 2]", "md_verbatim": "| 5 | 3441271 | BE | MU-298 | BEREFID | 298R1-1R2 | BESPEC | Specimen Type | RNA | Collected | |", "score": 0.5119, "match_basis": "verbatim_token+domain_route:BE"}, {"md_atom_id": "md_dmBE_ex_a085", "md_file": "knowledge_base/domains/BE/examples.md", "md_atom_type": "TABLE_ROW", "md_parent_section": "§BE.2 [Example 2]", "md_verbatim": "| 6 | 3441271 | BE | MU-298 | BEREFID | 298R1-1R3 | BESPEC | Specimen Type | RNA | Collected | |", "score": 0.5119, "match_basis": "verbatim_token+domain_route:BE"}, {"md_atom_id": "md_dmBE_ex_a063", "md_file": "knowledge_base/domains/BE/examples.md", "md_atom_type": "TABLE_ROW", "md_parent_section": "§BE.2 [Example 2]", "md_verbatim": "| 1 | 3441271 | BE | MU-298 | | 1 | 298B1 | Collecting | COLLECTING | SITE | 05 | COLLECTION | 2 | 2010-04-01T11:50 | 2010-04-01T11:50 | |", "score": 0.5, "match_basis": "verbatim_token+domain_route:BE"}], "candidate_count": 5, "zero_candidate": false}
{"pdf_atom_id": "ig34_p0144_a005", "pdf_atom_type": "TABLE_ROW", "pdf_source": "SDTMIG_v3.4", "pdf_page": 144, "pdf_parent_section": "§6.2.2 [Biospecimen Events (BE)]", "pdf_verbatim": "| BESTDTC | Start Date/Time of Biospecimen Event | Char | ISO 8601 datetime or interval | Timing | Start date/time of the event. | Exp |", "figure_ref": null, "candidates": [{"md_atom_id": "md_dmBE_ex_a080", "md_file": "knowledge_base/domains/BE/examples.md", "md_atom_type": "TABLE_ROW", "md_parent_section": "§BE.2 [Example 2]", "md_verbatim": "| 1 | 3441271 | BE | MU-298 | BEREFID | 298B1 | BESPEC | Specimen Type | BLOOD | CRF | |", "score": 0.4689, "match_basis": "verbatim_token+domain_route:BE"}, {"md_atom_id": "md_dmBE_ex_a081", "md_file": "knowledge_base/domains/BE/examples.md", "md_atom_type": "TABLE_ROW", "md_parent_section": "§BE.2 [Example 2]", "md_verbatim": "| 2 | 3441271 | BE | MU-298 | BEREFID | 298B1-1 | BESPEC | Specimen Type | PLASMA | CRF | |", "score": 0.4677, "match_basis": "verbatim_token+domain_route:BE"}, {"md_atom_id": "md_dmBE_ex_a023", "md_file": "knowledge_base/domains/BE/examples.md", "md_atom_type": "TABLE_ROW", "md_parent_section": "§BE.1 [Example 1]", "md_verbatim": "| 1 | ABC134 | BE | 43871 | BEREFID | 1148.267 | BESPEC | Specimen Type | TISSUE | CRF | |", "score": 0.4656, "match_basis": "verbatim_token+domain_route:BE"}, {"md_atom_id": "md_dmBE_ex_a082", "md_file": "knowledge_base/domains/BE/examples.md", "md_atom_type": "TABLE_ROW", "md_parent_section": "§BE.2 [Example 2]", "md_verbatim": "| 3 | 3441271 | BE | MU-298 | BEREFID | 298R1-1R0 | BESPEC | Specimen Type | RNA | Collected | |", "score": 0.4636, "match_basis": "verbatim_token+domain_route:BE"}, {"md_atom_id": "md_dmBE_ex_a083", "md_file": "knowledge_base/domains/BE/examples.md", "md_atom_type": "TABLE_ROW", "md_parent_section": "§BE.2 [Example 2]", "md_verbatim": "| 4 | 3441271 | BE | MU-298 | BEREFID | 298R1-1R1 | BESPEC | Specimen Type | RNA | Collected | |", "score": 0.4636, "match_basis": "verbatim_token+domain_route:BE"}], "candidate_count": 5, "zero_candidate": false}
{"pdf_atom_id": "ig34_p0144_a006", "pdf_atom_type": "TABLE_ROW", "pdf_source": "SDTMIG_v3.4", "pdf_page": 144, "pdf_parent_section": "§6.2.2 [Biospecimen Events (BE)]", "pdf_verbatim": "| BEENDTC | End Date/Time of Biospecimen Event | Char | ISO 8601 datetime or interval | Timing | End date/time of the event. | Exp |", "figure_ref": null, "candidates": [{"md_atom_id": "md_dmBE_ex_a094", "md_file": "knowledge_base/domains/BE/examples.md", "md_atom_type": "TABLE_ROW", "md_parent_section": "§BE.2 [Example 2]", "md_verbatim": "| 3 | 3441271 | BS | MU-298 | 3 | 298R1-1R0 | VOLUME | Volume | SPECIMEN MEASUREMENT | 6 | mL | 6 | 6 | mL | RNA | 2 | 2010-04-01T11:50 |", "score": 0.4656, "match_basis": "verbatim_token+domain_route:BE"}, {"md_atom_id": "md_dmBE_ex_a096", "md_file": "knowledge_base/domains/BE/examples.md", "md_atom_type": "TABLE_ROW", "md_parent_section": "§BE.2 [Example 2]", "md_verbatim": "| 5 | 3441271 | BS | MU-298 | 5 | 298R1-1R1 | VOLUME | Volume | SPECIMEN MEASUREMENT | 2 | mL | 2 | 2 | mL | RNA | 2 | 2010-04-01T11:50 |", "score": 0.4656, "match_basis": "verbatim_token+domain_route:BE"}, {"md_atom_id": "md_dmBE_ex_a097", "md_file": "knowledge_base/domains/BE/examples.md", "md_atom_type": "TABLE_ROW", "md_parent_section": "§BE.2 [Example 2]", "md_verbatim": "| 6 | 3441271 | BS | MU-298 | 6 | 298R1-1R2 | VOLUME | Volume | SPECIMEN MEASUREMENT | 2 | mL | 2 | 2 | mL | RNA | 2 | 2010-04-01T11:50 |", "score": 0.4656, "match_basis": "verbatim_token+domain_route:BE"}, {"md_atom_id": "md_dmBE_ex_a098", "md_file": "knowledge_base/domains/BE/examples.md", "md_atom_type": "TABLE_ROW", "md_parent_section": "§BE.2 [Example 2]", "md_verbatim": "| 7 | 3441271 | BS | MU-298 | 7 | 298R1-1R3 | VOLUME | Volume | SPECIMEN MEASUREMENT | 2 | mL | 2 | 2 | mL | RNA | 2 | 2010-04-01T11:50 |", "score": 0.4656, "match_basis": "verbatim_token+domain_route:BE"}, {"md_atom_id": "md_dmBE_ex_a092", "md_file": "knowledge_base/domains/BE/examples.md", "md_atom_type": "TABLE_ROW", "md_parent_section": "§BE.2 [Example 2]", "md_verbatim": "| 1 | 3441271 | BS | MU-298 | 1 | 298B1 | VOLUME | Volume | SPECIMEN MEASUREMENT | 12 | mL | 6 | 6 | mL | BLOOD | 2 | 2010-04-01T11:50 |", "score": 0.4646, "match_basis": "verbatim_token+domain_route:BE"}], "candidate_count": 5, "zero_candidate": false}
{"pdf_atom_id": "ig34_p0144_a007", "pdf_atom_type": "TABLE_ROW", "pdf_source": "SDTMIG_v3.4", "pdf_page": 144, "pdf_parent_section": "§6.2.2 [Biospecimen Events (BE)]", "pdf_verbatim": "| BESTDY | Study Day of Start of Biospecimen Event | Num | | Timing | Actual study day of start of observation expressed in integer days relative to the sponsor-defined RFSTDTC in Demographics. | Perm |", "figure_ref": null, "candidates": [{"md_atom_id": "md_dmBE_ex_a080", "md_file": "knowledge_base/domains/BE/examples.md", "md_atom_type": "TABLE_ROW", "md_parent_section": "§BE.2 [Example 2]", "md_verbatim": "| 1 | 3441271 | BE | MU-298 | BEREFID | 298B1 | BESPEC | Specimen Type | BLOOD | CRF | |", "score": 0.4457, "match_basis": "verbatim_token+domain_route:BE"}, {"md_atom_id": "md_dmBE_ex_a081", "md_file": "knowledge_base/domains/BE/examples.md", "md_atom_type": "TABLE_ROW", "md_parent_section": "§BE.2 [Example 2]", "md_verbatim": "| 2 | 3441271 | BE | MU-298 | BEREFID | 298B1-1 | BESPEC | Specimen Type | PLASMA | CRF | |", "score": 0.4453, "match_basis": "verbatim_token+domain_route:BE"}, {"md_atom_id": "md_dmBE_ex_a023", "md_file": "knowledge_base/domains/BE/examples.md", "md_atom_type": "TABLE_ROW", "md_parent_section": "§BE.1 [Example 1]", "md_verbatim": "| 1 | ABC134 | BE | 43871 | BEREFID | 1148.267 | BESPEC | Specimen Type | TISSUE | CRF | |", "score": 0.4444, "match_basis": "verbatim_token+domain_route:BE"}, {"md_atom_id": "md_dmBE_ex_a082", "md_file": "knowledge_base/domains/BE/examples.md", "md_atom_type": "TABLE_ROW", "md_parent_section": "§BE.2 [Example 2]", "md_verbatim": "| 3 | 3441271 | BE | MU-298 | BEREFID | 298R1-1R0 | BESPEC | Specimen Type | RNA | Collected | |", "score": 0.4436, "match_basis": "verbatim_token+domain_route:BE"}, {"md_atom_id": "md_dmBE_ex_a083", "md_file": "knowledge_base/domains/BE/examples.md", "md_atom_type": "TABLE_ROW", "md_parent_section": "§BE.2 [Example 2]", "md_verbatim": "| 4 | 3441271 | BE | MU-298 | BEREFID | 298R1-1R1 | BESPEC | Specimen Type | RNA | Collected | |", "score": 0.4436, "match_basis": "verbatim_token+domain_route:BE"}], "candidate_count": 5, "zero_candidate": false}
{"pdf_atom_id": "ig34_p0144_a008", "pdf_atom_type": "TABLE_ROW", "pdf_source": "SDTMIG_v3.4", "pdf_page": 144, "pdf_parent_section": "§6.2.2 [Biospecimen Events (BE)]", "pdf_verbatim": "| BEENDY | Study Day of End of Biospecimen Event | Num | | Timing | Actual study day of end of observation expressed in integer days relative to the sponsor-defined RFSTDTC in Demographics. | Perm |", "figure_ref": null, "candidates": [{"md_atom_id": "md_dmBE_ex_a080", "md_file": "knowledge_base/domains/BE/examples.md", "md_atom_type": "TABLE_ROW", "md_parent_section": "§BE.2 [Example 2]", "md_verbatim": "| 1 | 3441271 | BE | MU-298 | BEREFID | 298B1 | BESPEC | Specimen Type | BLOOD | CRF | |", "score": 0.4404, "match_basis": "verbatim_token+domain_route:BE"}, {"md_atom_id": "md_dmBE_ex_a081", "md_file": "knowledge_base/domains/BE/examples.md", "md_atom_type": "TABLE_ROW", "md_parent_section": "§BE.2 [Example 2]", "md_verbatim": "| 2 | 3441271 | BE | MU-298 | BEREFID | 298B1-1 | BESPEC | Specimen Type | PLASMA | CRF | |", "score": 0.44, "match_basis": "verbatim_token+domain_route:BE"}, {"md_atom_id": "md_dmBE_ex_a023", "md_file": "knowledge_base/domains/BE/examples.md", "md_atom_type": "TABLE_ROW", "md_parent_section": "§BE.1 [Example 1]", "md_verbatim": "| 1 | ABC134 | BE | 43871 | BEREFID | 1148.267 | BESPEC | Specimen Type | TISSUE | CRF | |", "score": 0.4393, "match_basis": "verbatim_token+domain_route:BE"}, {"md_atom_id": "md_dmBE_ex_a082", "md_file": "knowledge_base/domains/BE/examples.md", "md_atom_type": "TABLE_ROW", "md_parent_section": "§BE.2 [Example 2]", "md_verbatim": "| 3 | 3441271 | BE | MU-298 | BEREFID | 298R1-1R0 | BESPEC | Specimen Type | RNA | Collected | |", "score": 0.4385, "match_basis": "verbatim_token+domain_route:BE"}, {"md_atom_id": "md_dmBE_ex_a083", "md_file": "knowledge_base/domains/BE/examples.md", "md_atom_type": "TABLE_ROW", "md_parent_section": "§BE.2 [Example 2]", "md_verbatim": "| 4 | 3441271 | BE | MU-298 | BEREFID | 298R1-1R1 | BESPEC | Specimen Type | RNA | Collected | |", "score": 0.4385, "match_basis": "verbatim_token+domain_route:BE"}], "candidate_count": 5, "zero_candidate": false}
{"pdf_atom_id": "ig34_p0144_a009", "pdf_atom_type": "TABLE_ROW", "pdf_source": "SDTMIG_v3.4", "pdf_page": 144, "pdf_parent_section": "§6.2.2 [Biospecimen Events (BE)]", "pdf_verbatim": "| BEDUR | Duration of Biospecimen Event | Char | ISO 8601 duration | Timing | Collected duration and unit of a biospecimen event. Used only if collected on the CRF and not derived from start and end date/times. Example: P1DT2H (for 1 day, 2 hours). | Perm |", "figure_ref": null, "candidates": [{"md_atom_id": "md_dmBE_ex_a082", "md_file": "knowledge_base/domains/BE/examples.md", "md_atom_type": "TABLE_ROW", "md_parent_section": "§BE.2 [Example 2]", "md_verbatim": "| 3 | 3441271 | BE | MU-298 | BEREFID | 298R1-1R0 | BESPEC | Specimen Type | RNA | Collected | |", "score": 0.4821, "match_basis": "verbatim_token+domain_route:BE"}, {"md_atom_id": "md_dmBE_ex_a083", "md_file": "knowledge_base/domains/BE/examples.md", "md_atom_type": "TABLE_ROW", "md_parent_section": "§BE.2 [Example 2]", "md_verbatim": "| 4 | 3441271 | BE | MU-298 | BEREFID | 298R1-1R1 | BESPEC | Specimen Type | RNA | Collected | |", "score": 0.4821, "match_basis": "verbatim_token+domain_route:BE"}, {"md_atom_id": "md_dmBE_ex_a084", "md_file": "knowledge_base/domains/BE/examples.md", "md_atom_type": "TABLE_ROW", "md_parent_section": "§BE.2 [Example 2]", "md_verbatim": "| 5 | 3441271 | BE | MU-298 | BEREFID | 298R1-1R2 | BESPEC | Specimen Type | RNA | Collected | |", "score": 0.4821, "match_basis": "verbatim_token+domain_route:BE"}, {"md_atom_id": "md_dmBE_ex_a085", "md_file": "knowledge_base/domains/BE/examples.md", "md_atom_type": "TABLE_ROW", "md_parent_section": "§BE.2 [Example 2]", "md_verbatim": "| 6 | 3441271 | BE | MU-298 | BEREFID | 298R1-1R3 | BESPEC | Specimen Type | RNA | Collected | |", "score": 0.4821, "match_basis": "verbatim_token+domain_route:BE"}, {"md_atom_id": "md_dmBE_ex_a034", "md_file": "knowledge_base/domains/BE/examples.md", "md_atom_type": "TABLE_ROW", "md_parent_section": "§BE.1 [Example 1]", "md_verbatim": "| 2 | ABC134 | BS | 43871 | 2 | 267FF | 1148.267 | TEMP | Temperature | SPECIMEN HANDLING | -80 | C | -80 | -80 | C | BRAIN | CEREBRAL AQUEDUCT | 1 | 2005-03-20 |", "score": 0.4579, "match_basis": "verbatim_token+domain_route:BE"}], "candidate_count": 5, "zero_candidate": false}
{"pdf_atom_id": "ig34_p0144_a010", "pdf_atom_type": "HEADING", "pdf_source": "SDTMIG_v3.4", "pdf_page": 144, "pdf_parent_section": "§6.2.2 [Biospecimen Events (BE)]", "pdf_verbatim": "BE – Assumptions", "figure_ref": null, "candidates": [{"md_atom_id": "md_dmBE_assn_a001", "md_file": "knowledge_base/domains/BE/assumptions.md", "md_atom_type": "HEADING", "md_parent_section": "§BE [BE — Assumptions]", "md_verbatim": "# BE — Assumptions", "score": 1.0, "match_basis": "verbatim_token+domain_route:BE"}, {"md_atom_id": "md_dmBE_ex_a001", "md_file": "knowledge_base/domains/BE/examples.md", "md_atom_type": "HEADING", "md_parent_section": "§BE [BE — Examples]", "md_verbatim": "# BE — Examples", "score": 0.4, "match_basis": "verbatim_token+domain_route:BE"}, {"md_atom_id": "md_dmBE_ex_a002", "md_file": "knowledge_base/domains/BE/examples.md", "md_atom_type": "HEADING", "md_parent_section": "§BE.1 [Example 1]", "md_verbatim": "## Example 1", "score": 0.4, "match_basis": "verbatim_token+domain_route:BE"}, {"md_atom_id": "md_dmBE_ex_a046", "md_file": "knowledge_base/domains/BE/examples.md", "md_atom_type": "HEADING", "md_parent_section": "§BE.2 [Example 2]", "md_verbatim": "## Example 2", "score": 0.4, "match_basis": "verbatim_token+domain_route:BE"}], "candidate_count": 4, "zero_candidate": false}
{"pdf_atom_id": "ig34_p0144_a011", "pdf_atom_type": "LIST_ITEM", "pdf_source": "SDTMIG_v3.4", "pdf_page": 144, "pdf_parent_section": "§6.2.2 [Biospecimen Events (BE)]", "pdf_verbatim": "1. The BE domain contains data about actions taken that affect or may affect a specimen, such as specimen collection, freezing and thawing, aliquoting, and transportation. This domain is intended to be applicable to any specimen tracking data, regardless of the reason for specimen collection.", "figure_ref": null, "candidates": [{"md_atom_id": "md_dmBE_assn_a002", "md_file": "knowledge_base/domains/BE/assumptions.md", "md_atom_type": "LIST_ITEM", "md_parent_section": "§BE [BE — Assumptions]", "md_verbatim": "1. The BE domain contains data about actions taken that affect or may affect a specimen, such as specimen collection, freezing and thawing, aliquoting, and transportation. This domain is intended to be applicable to any specimen tracking data, regardless of the reason for specimen collection.", "score": 1.0, "match_basis": "verbatim_token+domain_route:BE"}, {"md_atom_id": "md_dmBE_assn_a003", "md_file": "knowledge_base/domains/BE/assumptions.md", "md_atom_type": "LIST_ITEM", "md_parent_section": "§BE [BE — Assumptions]", "md_verbatim": "2. The value in BEREFID identifies the specimen most affected by the event. For aliquoting, this would be the child specimen(s) created by the event, rather than the parent specimen. BEREFID should not contain any identifiers other than specimen IDs.", "score": 0.5216, "match_basis": "verbatim_token+domain_route:BE"}, {"md_atom_id": "md_dmBE_assn_a009", "md_file": "knowledge_base/domains/BE/assumptions.md", "md_atom_type": "LIST_ITEM", "md_parent_section": "§BE [BE — Assumptions]", "md_verbatim": "   b. Unlike other Events domains, BEDTC does not hold the date/time of data collection. Instead, it holds the date/time of specimen collection, in alignment with the use of --DTC for specimen-related findings. BEDTC values for extracted or otherwise derived specimens are copied from that of the parent specimen.", "score": 0.5059, "match_basis": "verbatim_token+domain_route:BE"}, {"md_atom_id": "md_dmBE_assn_a005", "md_file": "knowledge_base/domains/BE/assumptions.md", "md_atom_type": "LIST_ITEM", "md_parent_section": "§BE [BE — Assumptions]", "md_verbatim": "4. BEPARTY and BEPRTYID together identify the individual or organization that takes responsibility for the biospecimen as a result of the action in BETERM. For example, if BETERM is COLLECTED, BEPARTY would be a general term defining the type of responsible party, such as SITE, and BEPRTYID would contain the site identifier, such as 02. If BEPARTY is sufficient to uniquely identify the party (such as SPONSOR in a single-sponsor study), then BEPRTYID may be null.", "score": 0.5029, "match_basis": "verbatim_token+domain_route:BE"}, {"md_atom_id": "md_dmBE_assn_a010", "md_file": "knowledge_base/domains/BE/assumptions.md", "md_atom_type": "LIST_ITEM", "md_parent_section": "§BE [BE — Assumptions]", "md_verbatim": "   c. VISITNUM, VISIT, and VISITDY values for all records refer to the visit in which the originally collected specimen was collected.", "score": 0.4613, "match_basis": "verbatim_token+domain_route:BE"}], "candidate_count": 5, "zero_candidate": false}
{"pdf_atom_id": "ig34_p0144_a012", "pdf_atom_type": "LIST_ITEM", "pdf_source": "SDTMIG_v3.4", "pdf_page": 144, "pdf_parent_section": "§6.2.2 [Biospecimen Events (BE)]", "pdf_verbatim": "2. The value in BEREFID identifies the specimen most affected by the event. For aliquoting, this would be the child specimen(s) created by the event, rather than the parent specimen. BEREFID should not contain any identifiers other than specimen IDs.", "figure_ref": null, "candidates": [{"md_atom_id": "md_dmBE_assn_a003", "md_file": "knowledge_base/domains/BE/assumptions.md", "md_atom_type": "LIST_ITEM", "md_parent_section": "§BE [BE — Assumptions]", "md_verbatim": "2. The value in BEREFID identifies the specimen most affected by the event. For aliquoting, this would be the child specimen(s) created by the event, rather than the parent specimen. BEREFID should not contain any identifiers other than specimen IDs.", "score": 1.0, "match_basis": "verbatim_token+domain_route:BE"}, {"md_atom_id": "md_dmBE_assn_a002", "md_file": "knowledge_base/domains/BE/assumptions.md", "md_atom_type": "LIST_ITEM", "md_parent_section": "§BE [BE — Assumptions]", "md_verbatim": "1. The BE domain contains data about actions taken that affect or may affect a specimen, such as specimen collection, freezing and thawing, aliquoting, and transportation. This domain is intended to be applicable to any specimen tracking data, regardless of the reason for specimen collection.", "score": 0.5216, "match_basis": "verbatim_token+domain_route:BE"}, {"md_atom_id": "md_dmBE_assn_a009", "md_file": "knowledge_base/domains/BE/assumptions.md", "md_atom_type": "LIST_ITEM", "md_parent_section": "§BE [BE — Assumptions]", "md_verbatim": "   b. Unlike other Events domains, BEDTC does not hold the date/time of data collection. Instead, it holds the date/time of specimen collection, in alignment with the use of --DTC for specimen-related findings. BEDTC values for extracted or otherwise derived specimens are copied from that of the parent specimen.", "score": 0.5167, "match_basis": "verbatim_token+domain_route:BE"}, {"md_atom_id": "md_dmBE_assn_a005", "md_file": "knowledge_base/domains/BE/assumptions.md", "md_atom_type": "LIST_ITEM", "md_parent_section": "§BE [BE — Assumptions]", "md_verbatim": "4. BEPARTY and BEPRTYID together identify the individual or organization that takes responsibility for the biospecimen as a result of the action in BETERM. For example, if BETERM is COLLECTED, BEPARTY would be a general term defining the type of responsible party, such as SITE, and BEPRTYID would contain the site identifier, such as 02. If BEPARTY is sufficient to uniquely identify the party (such as SPONSOR in a single-sponsor study), then BEPRTYID may be null.", "score": 0.507, "match_basis": "verbatim_token+domain_route:BE"}, {"md_atom_id": "md_dmBE_assn_a010", "md_file": "knowledge_base/domains/BE/assumptions.md", "md_atom_type": "LIST_ITEM", "md_parent_section": "§BE [BE — Assumptions]", "md_verbatim": "   c. VISITNUM, VISIT, and VISITDY values for all records refer to the visit in which the originally collected specimen was collected.", "score": 0.4833, "match_basis": "verbatim_token+domain_route:BE"}], "candidate_count": 5, "zero_candidate": false}
{"pdf_atom_id": "ig34_p0144_a013", "pdf_atom_type": "LIST_ITEM", "pdf_source": "SDTMIG_v3.4", "pdf_page": 144, "pdf_parent_section": "§6.2.2 [Biospecimen Events (BE)]", "pdf_verbatim": "3. BELOC holds the relevant anatomic location of the subject, so it should only be populated when the subject participates in and is directly affected by the event given in BETERM.", "figure_ref": null, "candidates": [{"md_atom_id": "md_dmBE_assn_a004", "md_file": "knowledge_base/domains/BE/assumptions.md", "md_atom_type": "LIST_ITEM", "md_parent_section": "§BE [BE — Assumptions]", "md_verbatim": "3. BELOC holds the relevant anatomic location of the subject, so it should only be populated when the subject participates in and is directly affected by the event given in BETERM.", "score": 1.0, "match_basis": "verbatim_token+domain_route:BE"}, {"md_atom_id": "md_dmBE_assn_a008", "md_file": "knowledge_base/domains/BE/assumptions.md", "md_atom_type": "LIST_ITEM", "md_parent_section": "§BE [BE — Assumptions]", "md_verbatim": "   a. BESTDTC and BEENDTC hold the start and end date/times for the event given in BETERM. If the end date/time is the same as the start date/time for the event, then BEENDTC is null.", "score": 0.5043, "match_basis": "verbatim_token+domain_route:BE"}, {"md_atom_id": "md_dmBE_assn_a003", "md_file": "knowledge_base/domains/BE/assumptions.md", "md_atom_type": "LIST_ITEM", "md_parent_section": "§BE [BE — Assumptions]", "md_verbatim": "2. The value in BEREFID identifies the specimen most affected by the event. For aliquoting, this would be the child specimen(s) created by the event, rather than the parent specimen. BEREFID should not contain any identifiers other than specimen IDs.", "score": 0.4733, "match_basis": "verbatim_token+domain_route:BE"}, {"md_atom_id": "md_dmBE_assn_a009", "md_file": "knowledge_base/domains/BE/assumptions.md", "md_atom_type": "LIST_ITEM", "md_parent_section": "§BE [BE — Assumptions]", "md_verbatim": "   b. Unlike other Events domains, BEDTC does not hold the date/time of data collection. Instead, it holds the date/time of specimen collection, in alignment with the use of --DTC for specimen-related findings. BEDTC values for extracted or otherwise derived specimens are copied from that of the parent specimen.", "score": 0.4671, "match_basis": "verbatim_token+domain_route:BE"}, {"md_atom_id": "md_dmBE_assn_a005", "md_file": "knowledge_base/domains/BE/assumptions.md", "md_atom_type": "LIST_ITEM", "md_parent_section": "§BE [BE — Assumptions]", "md_verbatim": "4. BEPARTY and BEPRTYID together identify the individual or organization that takes responsibility for the biospecimen as a result of the action in BETERM. For example, if BETERM is COLLECTED, BEPARTY would be a general term defining the type of responsible party, such as SITE, and BEPRTYID would contain the site identifier, such as 02. If BEPARTY is sufficient to uniquely identify the party (such as SPONSOR in a single-sponsor study), then BEPRTYID may be null.", "score": 0.4582, "match_basis": "verbatim_token+domain_route:BE"}], "candidate_count": 5, "zero_candidate": false}
{"pdf_atom_id": "ig34_p0144_a014", "pdf_atom_type": "LIST_ITEM", "pdf_source": "SDTMIG_v3.4", "pdf_page": 144, "pdf_parent_section": "§6.2.2 [Biospecimen Events (BE)]", "pdf_verbatim": "4. BEPARTY and BEPRTYID together identify the individual or organization that takes responsibility for the biospecimen as a result of the action in BETERM. For example, if BETERM is COLLECTED, BEPARTY would be a general term defining the type of responsible party, such as SITE, and BEPRTYID would contain the site identifier, such as 02. If BEPARTY is sufficient to uniquely identify the party (such as SPONSOR in a single-sponsor study), then BEPRTYID may be null.", "figure_ref": null, "candidates": [{"md_atom_id": "md_dmBE_assn_a005", "md_file": "knowledge_base/domains/BE/assumptions.md", "md_atom_type": "LIST_ITEM", "md_parent_section": "§BE [BE — Assumptions]", "md_verbatim": "4. BEPARTY and BEPRTYID together identify the individual or organization that takes responsibility for the biospecimen as a result of the action in BETERM. For example, if BETERM is COLLECTED, BEPARTY would be a general term defining the type of responsible party, such as SITE, and BEPRTYID would contain the site identifier, such as 02. If BEPARTY is sufficient to uniquely identify the party (such as SPONSOR in a single-sponsor study), then BEPRTYID may be null.", "score": 1.0, "match_basis": "verbatim_token+domain_route:BE"}, {"md_atom_id": "md_dmBE_assn_a006", "md_file": "knowledge_base/domains/BE/assumptions.md", "md_atom_type": "LIST_ITEM", "md_parent_section": "§BE [BE — Assumptions]", "md_verbatim": "5. Usually BEPARTY and BEPRTYID refer to who has possession of the biospecimen after the action in BETERM. In the cases where a biospecimen is lost or destroyed for example, BEPARTY and BEPRTYID may be null.", "score": 0.5345, "match_basis": "verbatim_token+domain_route:BE"}, {"md_atom_id": "md_dmBE_assn_a003", "md_file": "knowledge_base/domains/BE/assumptions.md", "md_atom_type": "LIST_ITEM", "md_parent_section": "§BE [BE — Assumptions]", "md_verbatim": "2. The value in BEREFID identifies the specimen most affected by the event. For aliquoting, this would be the child specimen(s) created by the event, rather than the parent specimen. BEREFID should not contain any identifiers other than specimen IDs.", "score": 0.507, "match_basis": "verbatim_token+domain_route:BE"}, {"md_atom_id": "md_dmBE_assn_a002", "md_file": "knowledge_base/domains/BE/assumptions.md", "md_atom_type": "LIST_ITEM", "md_parent_section": "§BE [BE — Assumptions]", "md_verbatim": "1. The BE domain contains data about actions taken that affect or may affect a specimen, such as specimen collection, freezing and thawing, aliquoting, and transportation. This domain is intended to be applicable to any specimen tracking data, regardless of the reason for specimen collection.", "score": 0.5029, "match_basis": "verbatim_token+domain_route:BE"}, {"md_atom_id": "md_dmBE_assn_a009", "md_file": "knowledge_base/domains/BE/assumptions.md", "md_atom_type": "LIST_ITEM", "md_parent_section": "§BE [BE — Assumptions]", "md_verbatim": "   b. Unlike other Events domains, BEDTC does not hold the date/time of data collection. Instead, it holds the date/time of specimen collection, in alignment with the use of --DTC for specimen-related findings. BEDTC values for extracted or otherwise derived specimens are copied from that of the parent specimen.", "score": 0.4825, "match_basis": "verbatim_token+domain_route:BE"}], "candidate_count": 5, "zero_candidate": false}
{"pdf_atom_id": "ig34_p0144_a015", "pdf_atom_type": "LIST_ITEM", "pdf_source": "SDTMIG_v3.4", "pdf_page": 144, "pdf_parent_section": "§6.2.2 [Biospecimen Events (BE)]", "pdf_verbatim": "5. Usually BEPARTY and BEPRTYID refer to who has possession of the biospecimen after the action in BETERM. In the cases where a biospecimen is lost or destroyed for example, BEPARTY and BEPRTYID may be null.", "figure_ref": null, "candidates": [{"md_atom_id": "md_dmBE_assn_a006", "md_file": "knowledge_base/domains/BE/assumptions.md", "md_atom_type": "LIST_ITEM", "md_parent_section": "§BE [BE — Assumptions]", "md_verbatim": "5. Usually BEPARTY and BEPRTYID refer to who has possession of the biospecimen after the action in BETERM. In the cases where a biospecimen is lost or destroyed for example, BEPARTY and BEPRTYID may be null.", "score": 1.0, "match_basis": "verbatim_token+domain_route:BE"}, {"md_atom_id": "md_dmBE_assn_a005", "md_file": "knowledge_base/domains/BE/assumptions.md", "md_atom_type": "LIST_ITEM", "md_parent_section": "§BE [BE — Assumptions]", "md_verbatim": "4. BEPARTY and BEPRTYID together identify the individual or organization that takes responsibility for the biospecimen as a result of the action in BETERM. For example, if BETERM is COLLECTED, BEPARTY would be a general term defining the type of responsible party, such as SITE, and BEPRTYID would contain the site identifier, such as 02. If BEPARTY is sufficient to uniquely identify the party (such as SPONSOR in a single-sponsor study), then BEPRTYID may be null.", "score": 0.5345, "match_basis": "verbatim_token+domain_route:BE"}, {"md_atom_id": "md_dmBE_assn_a010", "md_file": "knowledge_base/domains/BE/assumptions.md", "md_atom_type": "LIST_ITEM", "md_parent_section": "§BE [BE — Assumptions]", "md_verbatim": "   c. VISITNUM, VISIT, and VISITDY values for all records refer to the visit in which the originally collected specimen was collected.", "score": 0.4808, "match_basis": "verbatim_token+domain_route:BE"}, {"md_atom_id": "md_dmBE_assn_a008", "md_file": "knowledge_base/domains/BE/assumptions.md", "md_atom_type": "LIST_ITEM", "md_parent_section": "§BE [BE — Assumptions]", "md_verbatim": "   a. BESTDTC and BEENDTC hold the start and end date/times for the event given in BETERM. If the end date/time is the same as the start date/time for the event, then BEENDTC is null.", "score": 0.4766, "match_basis": "verbatim_token+domain_route:BE"}, {"md_atom_id": "md_dmBE_assn_a003", "md_file": "knowledge_base/domains/BE/assumptions.md", "md_atom_type": "LIST_ITEM", "md_parent_section": "§BE [BE — Assumptions]", "md_verbatim": "2. The value in BEREFID identifies the specimen most affected by the event. For aliquoting, this would be the child specimen(s) created by the event, rather than the parent specimen. BEREFID should not contain any identifiers other than specimen IDs.", "score": 0.4591, "match_basis": "verbatim_token+domain_route:BE"}], "candidate_count": 5, "zero_candidate": false}
{"pdf_atom_id": "ig34_p0144_a016", "pdf_atom_type": "LIST_ITEM", "pdf_source": "SDTMIG_v3.4", "pdf_page": 144, "pdf_parent_section": "§6.2.2 [Biospecimen Events (BE)]", "pdf_verbatim": "6. Timing variables:", "figure_ref": null, "candidates": [{"md_atom_id": "md_dmBE_assn_a007", "md_file": "knowledge_base/domains/BE/assumptions.md", "md_atom_type": "LIST_ITEM", "md_parent_section": "§BE [BE — Assumptions]", "md_verbatim": "6. Timing variables:", "score": 1.0, "match_basis": "verbatim_token+domain_route:BE"}, {"md_atom_id": "md_dmBE_assn_a011", "md_file": "knowledge_base/domains/BE/assumptions.md", "md_atom_type": "LIST_ITEM", "md_parent_section": "§BE [BE — Assumptions]", "md_verbatim": "7. The following variables generally would not be used in BE: dictionary coding variables (--LLT, --LLTCD, --PTCD, --HLT, --HLTCD, --HLGT, --HLGTCD), AE-specific variables (--SEV, --SER, --ACN, --ACNOTH, --ACNDEV, --REL, --RELNST, --PATT, --OUT, --SCAN, --SCONG, --SDISAB, --SDTH, --SHOSP, --SLIFE, --SOD, --SMIE, --CONTRT), toxicity variables (--TOX, --TOXGR).", "score": 0.4471, "match_basis": "verbatim_token+domain_route:BE"}, {"md_atom_id": "md_dmBE_ex_a121", "md_file": "knowledge_base/domains/BE/examples.md", "md_atom_type": "LIST_ITEM", "md_parent_section": "§BE.2 [Example 2]", "md_verbatim": "2. Cerkovnik P, Perhavec A, Zgajnar J, Novakovic S. Optimization of an RNA isolation procedure from plasma samples. Int J Mol Med. 2007;20(3):293-300. doi:10.3892/ijmm.20.3.293", "score": 0.4234, "match_basis": "verbatim_token+domain_route:BE"}, {"md_atom_id": "md_dmBE_assn_a002", "md_file": "knowledge_base/domains/BE/assumptions.md", "md_atom_type": "LIST_ITEM", "md_parent_section": "§BE [BE — Assumptions]", "md_verbatim": "1. The BE domain contains data about actions taken that affect or may affect a specimen, such as specimen collection, freezing and thawing, aliquoting, and transportation. This domain is intended to be applicable to any specimen tracking data, regardless of the reason for specimen collection.", "score": 0.4218, "match_basis": "verbatim_token+domain_route:BE"}, {"md_atom_id": "md_dmBE_assn_a008", "md_file": "knowledge_base/domains/BE/assumptions.md", "md_atom_type": "LIST_ITEM", "md_parent_section": "§BE [BE — Assumptions]", "md_verbatim": "   a. BESTDTC and BEENDTC hold the start and end date/times for the event given in BETERM. If the end date/time is the same as the start date/time for the event, then BEENDTC is null.", "score": 0.413, "match_basis": "verbatim_token+domain_route:BE"}], "candidate_count": 5, "zero_candidate": false}
{"pdf_atom_id": "ig34_p0144_a017", "pdf_atom_type": "LIST_ITEM", "pdf_source": "SDTMIG_v3.4", "pdf_page": 144, "pdf_parent_section": "§6.2.2 [Biospecimen Events (BE)]", "pdf_verbatim": "a. BESTDTC and BEENDTC hold the start and end date/times for the event given in BETERM. If the end date/time is the same as the start date/time for the event, then BEENDTC is null.", "figure_ref": null, "candidates": [{"md_atom_id": "md_dmBE_assn_a008", "md_file": "knowledge_base/domains/BE/assumptions.md", "md_atom_type": "LIST_ITEM", "md_parent_section": "§BE [BE — Assumptions]", "md_verbatim": "   a. BESTDTC and BEENDTC hold the start and end date/times for the event given in BETERM. If the end date/time is the same as the start date/time for the event, then BEENDTC is null.", "score": 1.0, "match_basis": "verbatim_token+domain_route:BE"}, {"md_atom_id": "md_dmBE_assn_a004", "md_file": "knowledge_base/domains/BE/assumptions.md", "md_atom_type": "LIST_ITEM", "md_parent_section": "§BE [BE — Assumptions]", "md_verbatim": "3. BELOC holds the relevant anatomic location of the subject, so it should only be populated when the subject participates in and is directly affected by the event given in BETERM.", "score": 0.5043, "match_basis": "verbatim_token+domain_route:BE"}, {"md_atom_id": "md_dmBE_assn_a006", "md_file": "knowledge_base/domains/BE/assumptions.md", "md_atom_type": "LIST_ITEM", "md_parent_section": "§BE [BE — Assumptions]", "md_verbatim": "5. Usually BEPARTY and BEPRTYID refer to who has possession of the biospecimen after the action in BETERM. In the cases where a biospecimen is lost or destroyed for example, BEPARTY and BEPRTYID may be null.", "score": 0.4766, "match_basis": "verbatim_token+domain_route:BE"}, {"md_atom_id": "md_dmBE_assn_a009", "md_file": "knowledge_base/domains/BE/assumptions.md", "md_atom_type": "LIST_ITEM", "md_parent_section": "§BE [BE — Assumptions]", "md_verbatim": "   b. Unlike other Events domains, BEDTC does not hold the date/time of data collection. Instead, it holds the date/time of specimen collection, in alignment with the use of --DTC for specimen-related findings. BEDTC values for extracted or otherwise derived specimens are copied from that of the parent specimen.", "score": 0.465, "match_basis": "verbatim_token+domain_route:BE"}, {"md_atom_id": "md_dmBE_assn_a005", "md_file": "knowledge_base/domains/BE/assumptions.md", "md_atom_type": "LIST_ITEM", "md_parent_section": "§BE [BE — Assumptions]", "md_verbatim": "4. BEPARTY and BEPRTYID together identify the individual or organization that takes responsibility for the biospecimen as a result of the action in BETERM. For example, if BETERM is COLLECTED, BEPARTY would be a general term defining the type of responsible party, such as SITE, and BEPRTYID would contain the site identifier, such as 02. If BEPARTY is sufficient to uniquely identify the party (such as SPONSOR in a single-sponsor study), then BEPRTYID may be null.", "score": 0.447, "match_basis": "verbatim_token+domain_route:BE"}], "candidate_count": 5, "zero_candidate": false}
{"pdf_atom_id": "ig34_p0144_a018", "pdf_atom_type": "LIST_ITEM", "pdf_source": "SDTMIG_v3.4", "pdf_page": 144, "pdf_parent_section": "§6.2.2 [Biospecimen Events (BE)]", "pdf_verbatim": "b. Unlike other Events domains, BEDTC does not hold the date/time of data collection. Instead, it holds the date/time of specimen collection, in alignment with the use of --DTC for specimen-related findings. BEDTC values for extracted or otherwise derived specimens are copied from that of the parent specimen.", "figure_ref": null, "candidates": [{"md_atom_id": "md_dmBE_assn_a009", "md_file": "knowledge_base/domains/BE/assumptions.md", "md_atom_type": "LIST_ITEM", "md_parent_section": "§BE [BE — Assumptions]", "md_verbatim": "   b. Unlike other Events domains, BEDTC does not hold the date/time of data collection. Instead, it holds the date/time of specimen collection, in alignment with the use of --DTC for specimen-related findings. BEDTC values for extracted or otherwise derived specimens are copied from that of the parent specimen.", "score": 1.0, "match_basis": "verbatim_token+domain_route:BE"}, {"md_atom_id": "md_dmBE_assn_a003", "md_file": "knowledge_base/domains/BE/assumptions.md", "md_atom_type": "LIST_ITEM", "md_parent_section": "§BE [BE — Assumptions]", "md_verbatim": "2. The value in BEREFID identifies the specimen most affected by the event. For aliquoting, this would be the child specimen(s) created by the event, rather than the parent specimen. BEREFID should not contain any identifiers other than specimen IDs.", "score": 0.5167, "match_basis": "verbatim_token+domain_route:BE"}, {"md_atom_id": "md_dmBE_assn_a002", "md_file": "knowledge_base/domains/BE/assumptions.md", "md_atom_type": "LIST_ITEM", "md_parent_section": "§BE [BE — Assumptions]", "md_verbatim": "1. The BE domain contains data about actions taken that affect or may affect a specimen, such as specimen collection, freezing and thawing, aliquoting, and transportation. This domain is intended to be applicable to any specimen tracking data, regardless of the reason for specimen collection.", "score": 0.5059, "match_basis": "verbatim_token+domain_route:BE"}, {"md_atom_id": "md_dmBE_assn_a010", "md_file": "knowledge_base/domains/BE/assumptions.md", "md_atom_type": "LIST_ITEM", "md_parent_section": "§BE [BE — Assumptions]", "md_verbatim": "   c. VISITNUM, VISIT, and VISITDY values for all records refer to the visit in which the originally collected specimen was collected.", "score": 0.4905, "match_basis": "verbatim_token+domain_route:BE"}, {"md_atom_id": "md_dmBE_assn_a005", "md_file": "knowledge_base/domains/BE/assumptions.md", "md_atom_type": "LIST_ITEM", "md_parent_section": "§BE [BE — Assumptions]", "md_verbatim": "4. BEPARTY and BEPRTYID together identify the individual or organization that takes responsibility for the biospecimen as a result of the action in BETERM. For example, if BETERM is COLLECTED, BEPARTY would be a general term defining the type of responsible party, such as SITE, and BEPRTYID would contain the site identifier, such as 02. If BEPARTY is sufficient to uniquely identify the party (such as SPONSOR in a single-sponsor study), then BEPRTYID may be null.", "score": 0.4825, "match_basis": "verbatim_token+domain_route:BE"}], "candidate_count": 5, "zero_candidate": false}
{"pdf_atom_id": "ig34_p0145_a001", "pdf_atom_type": "LIST_ITEM", "pdf_source": "SDTMIG_v3.4", "pdf_page": 145, "pdf_parent_section": "§6.2.2 [Biospecimen Events (BE)]", "pdf_verbatim": "c. VISITNUM, VISIT, and VISITDY values for all records refer to the visit in which the originally collected specimen was collected.", "figure_ref": null, "candidates": [{"md_atom_id": "md_dmBE_assn_a010", "md_file": "knowledge_base/domains/BE/assumptions.md", "md_atom_type": "LIST_ITEM", "md_parent_section": "§BE [BE — Assumptions]", "md_verbatim": "   c. VISITNUM, VISIT, and VISITDY values for all records refer to the visit in which the originally collected specimen was collected.", "score": 1.0, "match_basis": "verbatim_token+domain_route:BE"}, {"md_atom_id": "md_dmBE_assn_a009", "md_file": "knowledge_base/domains/BE/assumptions.md", "md_atom_type": "LIST_ITEM", "md_parent_section": "§BE [BE — Assumptions]", "md_verbatim": "   b. Unlike other Events domains, BEDTC does not hold the date/time of data collection. Instead, it holds the date/time of specimen collection, in alignment with the use of --DTC for specimen-related findings. BEDTC values for extracted or otherwise derived specimens are copied from that of the parent specimen.", "score": 0.4905, "match_basis": "verbatim_token+domain_route:BE"}, {"md_atom_id": "md_dmBE_ex_a008", "md_file": "knowledge_base/domains/BE/examples.md", "md_atom_type": "SENTENCE", "md_parent_section": "§BE.1 [Example 1]", "md_verbatim": "The value in SPDEVID for this row identifies the vessel into which the specimen is collected.", "score": 0.49, "match_basis": "verbatim_token+domain_route:BE"}, {"md_atom_id": "md_dmBE_assn_a003", "md_file": "knowledge_base/domains/BE/assumptions.md", "md_atom_type": "LIST_ITEM", "md_parent_section": "§BE [BE — Assumptions]", "md_verbatim": "2. The value in BEREFID identifies the specimen most affected by the event. For aliquoting, this would be the child specimen(s) created by the event, rather than the parent specimen. BEREFID should not contain any identifiers other than specimen IDs.", "score": 0.4833, "match_basis": "verbatim_token+domain_route:BE"}, {"md_atom_id": "md_dmBE_assn_a006", "md_file": "knowledge_base/domains/BE/assumptions.md", "md_atom_type": "LIST_ITEM", "md_parent_section": "§BE [BE — Assumptions]", "md_verbatim": "5. Usually BEPARTY and BEPRTYID refer to who has possession of the biospecimen after the action in BETERM. In the cases where a biospecimen is lost or destroyed for example, BEPARTY and BEPRTYID may be null.", "score": 0.4808, "match_basis": "verbatim_token+domain_route:BE"}], "candidate_count": 5, "zero_candidate": false}
{"pdf_atom_id": "ig34_p0145_a002", "pdf_atom_type": "LIST_ITEM", "pdf_source": "SDTMIG_v3.4", "pdf_page": 145, "pdf_parent_section": "§6.2.2 [Biospecimen Events (BE)]", "pdf_verbatim": "7. The following variables generally would not be used in BE: dictionary coding variables (--LLT, --LLTCD, --PTCD, --HLT, --HLTCD, --HLGT, --HLGTCD), AE-specific variables (--SEV, --SER, --ACN, --ACNOTH, --ACNDEV, --REL, --RELNST, --PATT, --OUT, --SCAN, --SCONG, --SDISAB, --SDTH, --SHOSP, --SLIFE, --SOD, --SMIE, --CONTRT), toxicity variables (--TOX, --TOXGR).", "figure_ref": null, "candidates": [{"md_atom_id": "md_dmBE_assn_a011", "md_file": "knowledge_base/domains/BE/assumptions.md", "md_atom_type": "LIST_ITEM", "md_parent_section": "§BE [BE — Assumptions]", "md_verbatim": "7. The following variables generally would not be used in BE: dictionary coding variables (--LLT, --LLTCD, --PTCD, --HLT, --HLTCD, --HLGT, --HLGTCD), AE-specific variables (--SEV, --SER, --ACN, --ACNOTH, --ACNDEV, --REL, --RELNST, --PATT, --OUT, --SCAN, --SCONG, --SDISAB, --SDTH, --SHOSP, --SLIFE, --SOD, --SMIE, --CONTRT), toxicity variables (--TOX, --TOXGR).", "score": 1.0, "match_basis": "verbatim_token+domain_route:BE"}, {"md_atom_id": "md_dmBE_assn_a005", "md_file": "knowledge_base/domains/BE/assumptions.md", "md_atom_type": "LIST_ITEM", "md_parent_section": "§BE [BE — Assumptions]", "md_verbatim": "4. BEPARTY and BEPRTYID together identify the individual or organization that takes responsibility for the biospecimen as a result of the action in BETERM. For example, if BETERM is COLLECTED, BEPARTY would be a general term defining the type of responsible party, such as SITE, and BEPRTYID would contain the site identifier, such as 02. If BEPARTY is sufficient to uniquely identify the party (such as SPONSOR in a single-sponsor study), then BEPRTYID may be null.", "score": 0.4691, "match_basis": "verbatim_token+domain_route:BE"}, {"md_atom_id": "md_dmBE_assn_a002", "md_file": "knowledge_base/domains/BE/assumptions.md", "md_atom_type": "LIST_ITEM", "md_parent_section": "§BE [BE — Assumptions]", "md_verbatim": "1. The BE domain contains data about actions taken that affect or may affect a specimen, such as specimen collection, freezing and thawing, aliquoting, and transportation. This domain is intended to be applicable to any specimen tracking data, regardless of the reason for specimen collection.", "score": 0.4551, "match_basis": "verbatim_token+domain_route:BE"}, {"md_atom_id": "md_dmBE_assn_a003", "md_file": "knowledge_base/domains/BE/assumptions.md", "md_atom_type": "LIST_ITEM", "md_parent_section": "§BE [BE — Assumptions]", "md_verbatim": "2. The value in BEREFID identifies the specimen most affected by the event. For aliquoting, this would be the child specimen(s) created by the event, rather than the parent specimen. BEREFID should not contain any identifiers other than specimen IDs.", "score": 0.4525, "match_basis": "verbatim_token+domain_route:BE"}, {"md_atom_id": "md_dmBE_assn_a009", "md_file": "knowledge_base/domains/BE/assumptions.md", "md_atom_type": "LIST_ITEM", "md_parent_section": "§BE [BE — Assumptions]", "md_verbatim": "   b. Unlike other Events domains, BEDTC does not hold the date/time of data collection. Instead, it holds the date/time of specimen collection, in alignment with the use of --DTC for specimen-related findings. BEDTC values for extracted or otherwise derived specimens are copied from that of the parent specimen.", "score": 0.4497, "match_basis": "verbatim_token+domain_route:BE"}], "candidate_count": 5, "zero_candidate": false}
{"pdf_atom_id": "ig34_p0145_a003", "pdf_atom_type": "HEADING", "pdf_source": "SDTMIG_v3.4", "pdf_page": 145, "pdf_parent_section": "§6.2.2 [Biospecimen Events (BE)]", "pdf_verbatim": "BE – Examples", "figure_ref": null, "candidates": [{"md_atom_id": "md_dmBE_ex_a001", "md_file": "knowledge_base/domains/BE/examples.md", "md_atom_type": "HEADING", "md_parent_section": "§BE [BE — Examples]", "md_verbatim": "# BE — Examples", "score": 1.0, "match_basis": "verbatim_token+domain_route:BE"}, {"md_atom_id": "md_dmBE_ex_a002", "md_file": "knowledge_base/domains/BE/examples.md", "md_atom_type": "HEADING", "md_parent_section": "§BE.1 [Example 1]", "md_verbatim": "## Example 1", "score": 0.9, "match_basis": "verbatim_token+domain_route:BE"}, {"md_atom_id": "md_dmBE_ex_a046", "md_file": "knowledge_base/domains/BE/examples.md", "md_atom_type": "HEADING", "md_parent_section": "§BE.2 [Example 2]", "md_verbatim": "## Example 2", "score": 0.9, "match_basis": "verbatim_token+domain_route:BE"}, {"md_atom_id": "md_dmBE_assn_a001", "md_file": "knowledge_base/domains/BE/assumptions.md", "md_atom_type": "HEADING", "md_parent_section": "§BE [BE — Assumptions]", "md_verbatim": "# BE — Assumptions", "score": 0.4, "match_basis": "verbatim_token+domain_route:BE"}], "candidate_count": 4, "zero_candidate": false}
{"pdf_atom_id": "ig34_p0145_a004", "pdf_atom_type": "HEADING", "pdf_source": "SDTMIG_v3.4", "pdf_page": 145, "pdf_parent_section": "§6.2.2 [Biospecimen Events (BE)]", "pdf_verbatim": "Example 1", "figure_ref": null, "candidates": [{"md_atom_id": "md_dmBE_ex_a002", "md_file": "knowledge_base/domains/BE/examples.md", "md_atom_type": "HEADING", "md_parent_section": "§BE.1 [Example 1]", "md_verbatim": "## Example 1", "score": 1.0, "match_basis": "verbatim_token+domain_route:BE"}, {"md_atom_id": "md_dmBE_ex_a046", "md_file": "knowledge_base/domains/BE/examples.md", "md_atom_type": "HEADING", "md_parent_section": "§BE.2 [Example 2]", "md_verbatim": "## Example 2", "score": 1.0, "match_basis": "verbatim_token+domain_route:BE"}, {"md_atom_id": "md_dmBE_ex_a001", "md_file": "knowledge_base/domains/BE/examples.md", "md_atom_type": "HEADING", "md_parent_section": "§BE [BE — Examples]", "md_verbatim": "# BE — Examples", "score": 0.9, "match_basis": "verbatim_token+domain_route:BE"}, {"md_atom_id": "md_dmBE_assn_a001", "md_file": "knowledge_base/domains/BE/assumptions.md", "md_atom_type": "HEADING", "md_parent_section": "§BE [BE — Assumptions]", "md_verbatim": "# BE — Assumptions", "score": 0.4, "match_basis": "verbatim_token+domain_route:BE"}], "candidate_count": 4, "zero_candidate": false}
{"pdf_atom_id": "ig34_p0145_a005", "pdf_atom_type": "SENTENCE", "pdf_source": "SDTMIG_v3.4", "pdf_page": 145, "pdf_parent_section": "§6.2.2 [Biospecimen Events (BE)]", "pdf_verbatim": "In this example, a specimen is collected, flash frozen, thawed, and shipped to another location.", "figure_ref": null, "candidates": [{"md_atom_id": "md_dmBE_ex_a003", "md_file": "knowledge_base/domains/BE/examples.md", "md_atom_type": "SENTENCE", "md_parent_section": "§BE.1 [Example 1]", "md_verbatim": "In this example, a specimen is collected, flash frozen, thawed, and shipped to another location.", "score": 1.0, "match_basis": "verbatim_token+domain_route:BE"}, {"md_atom_id": "md_dmBE_ex_a007", "md_file": "knowledge_base/domains/BE/examples.md", "md_atom_type": "SENTENCE", "md_parent_section": "§BE.1 [Example 1]", "md_verbatim": "**Row 1:** Shows specimen collection.", "score": 0.5472, "match_basis": "verbatim_token+domain_route:BE"}, {"md_atom_id": "md_dmBE_ex_a008", "md_file": "knowledge_base/domains/BE/examples.md", "md_atom_type": "SENTENCE", "md_parent_section": "§BE.1 [Example 1]", "md_verbatim": "The value in SPDEVID for this row identifies the vessel into which the specimen is collected.", "score": 0.528, "match_basis": "verbatim_token+domain_route:BE"}, {"md_atom_id": "md_dmBE_ex_a038", "md_file": "knowledge_base/domains/BE/examples.md", "md_atom_type": "SENTENCE", "md_parent_section": "§BE.1 [Example 1]", "md_verbatim": "**Rows 1-2:** Tie the specimen's volume to its collection, when the measurement was made.", "score": 0.52, "match_basis": "verbatim_token+domain_route:BE"}, {"md_atom_id": "md_dmBE_ex_a050", "md_file": "knowledge_base/domains/BE/examples.md", "md_atom_type": "SENTENCE", "md_parent_section": "§BE.2 [Example 2]", "md_verbatim": "**Row 1:** Shows the collection of the blood sample.", "score": 0.5158, "match_basis": "verbatim_token+domain_route:BE"}], "candidate_count": 5, "zero_candidate": false}
{"pdf_atom_id": "ig34_p0145_a006", "pdf_atom_type": "SENTENCE", "pdf_source": "SDTMIG_v3.4", "pdf_page": 145, "pdf_parent_section": "§6.2.2 [Biospecimen Events (BE)]", "pdf_verbatim": "Some tests are very sensitive to specimen handling processes such as flash freezing or time spent in transit. Therefore, it is important to record when the processes were started and completed. Such information is recorded in the BE domain.", "figure_ref": null, "candidates": [{"md_atom_id": "md_dmBE_ex_a004", "md_file": "knowledge_base/domains/BE/examples.md", "md_atom_type": "SENTENCE", "md_parent_section": "§BE.1 [Example 1]", "md_verbatim": "Some tests are very sensitive to specimen handling processes such as flash freezing or time spent in transit.", "score": 0.7125, "match_basis": "verbatim_token+domain_route:BE"}, {"md_atom_id": "md_dmBE_ex_a005", "md_file": "knowledge_base/domains/BE/examples.md", "md_atom_type": "SENTENCE", "md_parent_section": "§BE.1 [Example 1]", "md_verbatim": "Therefore, it is important to record when the processes were started and completed.", "score": 0.65, "match_basis": "verbatim_token+domain_route:BE"}, {"md_atom_id": "md_dmBE_ex_a025", "md_file": "knowledge_base/domains/BE/examples.md", "md_atom_type": "SENTENCE", "md_parent_section": "§BE.1 [Example 1]", "md_verbatim": "These processes can be important to maintain the integrity of the specimens used in genetic variation and gene expression testing.", "score": 0.5465, "match_basis": "verbatim_token+domain_route:BE"}, {"md_atom_id": "md_dmBE_ex_a024", "md_file": "knowledge_base/domains/BE/examples.md", "md_atom_type": "SENTENCE", "md_parent_section": "§BE.1 [Example 1]", "md_verbatim": "Findings related to specimen handling processes are stored in the Biospecimen (BS) domain.", "score": 0.5459, "match_basis": "verbatim_token+domain_route:BE"}, {"md_atom_id": "md_dmBE_ex_a006", "md_file": "knowledge_base/domains/BE/examples.md", "md_atom_type": "SENTENCE", "md_parent_section": "§BE.1 [Example 1]", "md_verbatim": "Such information is recorded in the BE domain.", "score": 0.5375, "match_basis": "verbatim_token+domain_route:BE"}], "candidate_count": 5, "zero_candidate": false}
{"pdf_atom_id": "ig34_p0145_a007", "pdf_atom_type": "LIST_ITEM", "pdf_source": "SDTMIG_v3.4", "pdf_page": 145, "pdf_parent_section": "§6.2.2 [Biospecimen Events (BE)]", "pdf_verbatim": "Row 1: Shows specimen collection. The value in SPDEVID for this row identifies the vessel into which the specimen is collected.", "figure_ref": null, "candidates": [{"md_atom_id": "md_dmBE_ex_a008", "md_file": "knowledge_base/domains/BE/examples.md", "md_atom_type": "SENTENCE", "md_parent_section": "§BE.1 [Example 1]", "md_verbatim": "The value in SPDEVID for this row identifies the vessel into which the specimen is collected.", "score": 0.8365, "match_basis": "verbatim_token+domain_route:BE"}, {"md_atom_id": "md_dmBE_ex_a010", "md_file": "knowledge_base/domains/BE/examples.md", "md_atom_type": "SENTENCE", "md_parent_section": "§BE.1 [Example 1]", "md_verbatim": "The value in SPDEVID for row 3 identifies the freezer in which the specimen is stored.", "score": 0.5997, "match_basis": "verbatim_token+domain_route:BE"}, {"md_atom_id": "md_dmBE_assn_a010", "md_file": "knowledge_base/domains/BE/assumptions.md", "md_atom_type": "LIST_ITEM", "md_parent_section": "§BE [BE — Assumptions]", "md_verbatim": "   c. VISITNUM, VISIT, and VISITDY values for all records refer to the visit in which the originally collected specimen was collected.", "score": 0.5658, "match_basis": "verbatim_token+domain_route:BE"}, {"md_atom_id": "md_dmBE_assn_a003", "md_file": "knowledge_base/domains/BE/assumptions.md", "md_atom_type": "LIST_ITEM", "md_parent_section": "§BE [BE — Assumptions]", "md_verbatim": "2. The value in BEREFID identifies the specimen most affected by the event. For aliquoting, this would be the child specimen(s) created by the event, rather than the parent specimen. BEREFID should not contain any identifiers other than specimen IDs.", "score": 0.5515, "match_basis": "verbatim_token+domain_route:BE"}, {"md_atom_id": "md_dmBE_ex_a007", "md_file": "knowledge_base/domains/BE/examples.md", "md_atom_type": "SENTENCE", "md_parent_section": "§BE.1 [Example 1]", "md_verbatim": "**Row 1:** Shows specimen collection.", "score": 0.5304, "match_basis": "verbatim_token+domain_route:BE"}], "candidate_count": 5, "zero_candidate": false}
{"pdf_atom_id": "ig34_p0145_a008", "pdf_atom_type": "LIST_ITEM", "pdf_source": "SDTMIG_v3.4", "pdf_page": 145, "pdf_parent_section": "§6.2.2 [Biospecimen Events (BE)]", "pdf_verbatim": "Rows 2-4: Show the start and end date/times of flash freezing, storing while frozen, and thawing. The value in SPDEVID for row 3 identifies the freezer in which the specimen is stored.", "figure_ref": null, "candidates": [{"md_atom_id": "md_dmBE_ex_a009", "md_file": "knowledge_base/domains/BE/examples.md", "md_atom_type": "SENTENCE", "md_parent_section": "§BE.1 [Example 1]", "md_verbatim": "**Rows 2-4:** Show the start and end date/times of flash freezing, storing while frozen, and thawing.", "score": 0.6593, "match_basis": "verbatim_token+domain_route:BE"}, {"md_atom_id": "md_dmBE_ex_a010", "md_file": "knowledge_base/domains/BE/examples.md", "md_atom_type": "SENTENCE", "md_parent_section": "§BE.1 [Example 1]", "md_verbatim": "The value in SPDEVID for row 3 identifies the freezer in which the specimen is stored.", "score": 0.6413, "match_basis": "verbatim_token+domain_route:BE"}, {"md_atom_id": "md_dmBE_assn_a003", "md_file": "knowledge_base/domains/BE/assumptions.md", "md_atom_type": "LIST_ITEM", "md_parent_section": "§BE [BE — Assumptions]", "md_verbatim": "2. The value in BEREFID identifies the specimen most affected by the event. For aliquoting, this would be the child specimen(s) created by the event, rather than the parent specimen. BEREFID should not contain any identifiers other than specimen IDs.", "score": 0.522, "match_basis": "verbatim_token+domain_route:BE"}, {"md_atom_id": "md_dmBE_ex_a008", "md_file": "knowledge_base/domains/BE/examples.md", "md_atom_type": "SENTENCE", "md_parent_section": "§BE.1 [Example 1]", "md_verbatim": "The value in SPDEVID for this row identifies the vessel into which the specimen is collected.", "score": 0.5149, "match_basis": "verbatim_token+domain_route:BE"}, {"md_atom_id": "md_dmBE_assn_a010", "md_file": "knowledge_base/domains/BE/assumptions.md", "md_atom_type": "LIST_ITEM", "md_parent_section": "§BE [BE — Assumptions]", "md_verbatim": "   c. VISITNUM, VISIT, and VISITDY values for all records refer to the visit in which the originally collected specimen was collected.", "score": 0.497, "match_basis": "verbatim_token+domain_route:BE"}], "candidate_count": 5, "zero_candidate": false}
{"pdf_atom_id": "ig34_p0145_a009", "pdf_atom_type": "LIST_ITEM", "pdf_source": "SDTMIG_v3.4", "pdf_page": 145, "pdf_parent_section": "§6.2.2 [Biospecimen Events (BE)]", "pdf_verbatim": "Row 5: Records the transportation of a biospecimen. Because there is only one ABC Lab, BEPRTYID is null. The value in SPDEVID for this row identifies the shipping container.", "figure_ref": null, "candidates": [{"md_atom_id": "md_dmBE_ex_a013", "md_file": "knowledge_base/domains/BE/examples.md", "md_atom_type": "SENTENCE", "md_parent_section": "§BE.1 [Example 1]", "md_verbatim": "The value in SPDEVID for this row identifies the shipping container.", "score": 0.565, "match_basis": "verbatim_token+domain_route:BE"}, {"md_atom_id": "md_dmBE_assn_a003", "md_file": "knowledge_base/domains/BE/assumptions.md", "md_atom_type": "LIST_ITEM", "md_parent_section": "§BE [BE — Assumptions]", "md_verbatim": "2. The value in BEREFID identifies the specimen most affected by the event. For aliquoting, this would be the child specimen(s) created by the event, rather than the parent specimen. BEREFID should not contain any identifiers other than specimen IDs.", "score": 0.5381, "match_basis": "verbatim_token+domain_route:BE"}, {"md_atom_id": "md_dmBE_assn_a005", "md_file": "knowledge_base/domains/BE/assumptions.md", "md_atom_type": "LIST_ITEM", "md_parent_section": "§BE [BE — Assumptions]", "md_verbatim": "4. BEPARTY and BEPRTYID together identify the individual or organization that takes responsibility for the biospecimen as a result of the action in BETERM. For example, if BETERM is COLLECTED, BEPARTY would be a general term defining the type of responsible party, such as SITE, and BEPRTYID would contain the site identifier, such as 02. If BEPARTY is sufficient to uniquely identify the party (such as SPONSOR in a single-sponsor study), then BEPRTYID may be null.", "score": 0.5272, "match_basis": "verbatim_token+domain_route:BE"}, {"md_atom_id": "md_dmBE_ex_a011", "md_file": "knowledge_base/domains/BE/examples.md", "md_atom_type": "SENTENCE", "md_parent_section": "§BE.1 [Example 1]", "md_verbatim": "**Row 5:** Records the transportation of a biospecimen.", "score": 0.52, "match_basis": "verbatim_token+domain_route:BE"}, {"md_atom_id": "md_dmBE_assn_a006", "md_file": "knowledge_base/domains/BE/assumptions.md", "md_atom_type": "LIST_ITEM", "md_parent_section": "§BE [BE — Assumptions]", "md_verbatim": "5. Usually BEPARTY and BEPRTYID refer to who has possession of the biospecimen after the action in BETERM. In the cases where a biospecimen is lost or destroyed for example, BEPARTY and BEPRTYID may be null.", "score": 0.5087, "match_basis": "verbatim_token+domain_route:BE"}], "candidate_count": 5, "zero_candidate": false}
{"pdf_atom_id": "ig34_p0145_a010", "pdf_atom_type": "CODE_LITERAL", "pdf_source": "SDTMIG_v3.4", "pdf_page": 145, "pdf_parent_section": "§6.2.2 [Biospecimen Events (BE)]", "pdf_verbatim": "be.xpt", "figure_ref": null, "candidates": [{"md_atom_id": "md_dmBE_ex_a014", "md_file": "knowledge_base/domains/BE/examples.md", "md_atom_type": "SENTENCE", "md_parent_section": "§BE.1 [Example 1]", "md_verbatim": "**be.xpt**", "score": 0.79, "match_basis": "verbatim_token+domain_route:BE"}, {"md_atom_id": "md_dmBE_ex_a031", "md_file": "knowledge_base/domains/BE/examples.md", "md_atom_type": "SENTENCE", "md_parent_section": "§BE.1 [Example 1]", "md_verbatim": "**bs.xpt**", "score": 0.79, "match_basis": "verbatim_token+domain_route:BE"}, {"md_atom_id": "md_dmBE_ex_a061", "md_file": "knowledge_base/domains/BE/examples.md", "md_atom_type": "SENTENCE", "md_parent_section": "§BE.2 [Example 2]", "md_verbatim": "**be.xpt**", "score": 0.79, "match_basis": "verbatim_token+domain_route:BE"}, {"md_atom_id": "md_dmBE_ex_a090", "md_file": "knowledge_base/domains/BE/examples.md", "md_atom_type": "SENTENCE", "md_parent_section": "§BE.2 [Example 2]", "md_verbatim": "**bs.xpt**", "score": 0.79, "match_basis": "verbatim_token+domain_route:BE"}, {"md_atom_id": "md_dmBE_ex_a021", "md_file": "knowledge_base/domains/BE/examples.md", "md_atom_type": "SENTENCE", "md_parent_section": "§BE.1 [Example 1]", "md_verbatim": "**suppbe.xpt**", "score": 0.31, "match_basis": "verbatim_token+domain_route:BE"}, {"md_atom_id": "md_dmBE_ex_a040", "md_file": "knowledge_base/domains/BE/examples.md", "md_atom_type": "SENTENCE", "md_parent_section": "§BE.1 [Example 1]", "md_verbatim": "**relrec.xpt**", "score": 0.31, "match_basis": "verbatim_token+domain_route:BE"}, {"md_atom_id": "md_dmBE_ex_a078", "md_file": "knowledge_base/domains/BE/examples.md", "md_atom_type": "SENTENCE", "md_parent_section": "§BE.2 [Example 2]", "md_verbatim": "**suppbe.xpt**", "score": 0.31, "match_basis": "verbatim_token+domain_route:BE"}, {"md_atom_id": "md_dmBE_ex_a111", "md_file": "knowledge_base/domains/BE/examples.md", "md_atom_type": "SENTENCE", "md_parent_section": "§BE.2 [Example 2]", "md_verbatim": "**relrec.xpt**", "score": 0.31, "match_basis": "verbatim_token+domain_route:BE"}, {"md_atom_id": "md_dmBE_ex_a102", "md_file": "knowledge_base/domains/BE/examples.md", "md_atom_type": "SENTENCE", "md_parent_section": "§BE.2 [Example 2]", "md_verbatim": "**relspec.xpt**", "score": 0.29, "match_basis": "verbatim_token+domain_route:BE"}, {"md_atom_id": "md_dmBE_assn_a001", "md_file": "knowledge_base/domains/BE/assumptions.md", "md_atom_type": "HEADING", "md_parent_section": "§BE [BE — Assumptions]", "md_verbatim": "# BE — Assumptions", "score": 0.19, "match_basis": "verbatim_token+domain_route:BE"}], "candidate_count": 10, "zero_candidate": false}
{"pdf_atom_id": "ig34_p0145_a011", "pdf_atom_type": "TABLE_HEADER", "pdf_source": "SDTMIG_v3.4", "pdf_page": 145, "pdf_parent_section": "§6.2.2 [Biospecimen Events (BE)]", "pdf_verbatim": "| Row | STUDYID | DOMAIN | USUBJID | SPDEVID | BESEQ | BEREFID | BETERM | BEDECOD | BEPARTY | BEPRTYID | BECAT | BELOC | VISITNUM | VISIT | BEDTC | BESTDTC | BEENDTC |", "figure_ref": null, "candidates": [{"md_atom_id": "md_dmBE_ex_a015", "md_file": "knowledge_base/domains/BE/examples.md", "md_atom_type": "TABLE_HEADER", "md_parent_section": "§BE.1 [Example 1]", "md_verbatim": "| Row | STUDYID | DOMAIN | USUBJID | SPDEVID | BESEQ | BEREFID | BETERM | BEDECOD | BEPARTY | BEPRTYID | BECAT | BELOC | VISITNUM | VISIT | BEDTC | BESTDTC | BEENDTC |\n|-----|---------|--------|---------|---------|-------|---------|--------|---------|---------|----------|-------|-------|----------|-------|-------|---------|---------|", "score": 1.0, "match_basis": "verbatim_token+domain_route:BE"}, {"md_atom_id": "md_dmBE_ex_a062", "md_file": "knowledge_base/domains/BE/examples.md", "md_atom_type": "TABLE_HEADER", "md_parent_section": "§BE.2 [Example 2]", "md_verbatim": "| Row | STUDYID | DOMAIN | USUBJID | SPDEVID | BESEQ | BEREFID | BETERM | BEDECOD | BEPARTY | BEPRTYID | BECAT | VISITNUM | BEDTC | BESTDTC | BEENDTC |\n|-----|---------|--------|---------|---------|-------|---------|--------|---------|---------|----------|-------|----------|-------|---------|---------|", "score": 0.9727, "match_basis": "verbatim_token+domain_route:BE"}, {"md_atom_id": "md_dmBE_ex_a091", "md_file": "knowledge_base/domains/BE/examples.md", "md_atom_type": "TABLE_HEADER", "md_parent_section": "§BE.2 [Example 2]", "md_verbatim": "| Row | STUDYID | DOMAIN | USUBJID | BSSEQ | BSREFID | BSTESTCD | BSTEST | BSCAT | BSORRES | BSORRESU | BSSTRESC | BSSTRESN | BSSTRESU | BSSPEC | VISITNUM | BSDTC |\n|-----|---------|--------|---------|-------|---------|----------|--------|-------|---------|----------|----------|----------|----------|--------|----------|-------|", "score": 0.5806, "match_basis": "verbatim_token+domain_route:BE"}, {"md_atom_id": "md_dmBE_ex_a032", "md_file": "knowledge_base/domains/BE/examples.md", "md_atom_type": "TABLE_HEADER", "md_parent_section": "§BE.1 [Example 1]", "md_verbatim": "| Row | STUDYID | DOMAIN | USUBJID | BSSEQ | BSGRPID | BSREFID | BSTESTCD | BSTEST | BSCAT | BSORRES | BSORRESU | BSSTRESC | BSSTRESN | BSSTRESU | BSSPEC | BSANTREG | VISITNUM | BSDTC |\n|-----|---------|--------|---------|-------|---------|---------|----------|--------|-------|---------|----------|----------|----------|----------|--------|----------|----------|-------|", "score": 0.5631, "match_basis": "verbatim_token+domain_route:BE"}, {"md_atom_id": "md_dmBE_ex_a103", "md_file": "knowledge_base/domains/BE/examples.md", "md_atom_type": "TABLE_HEADER", "md_parent_section": "§BE.2 [Example 2]", "md_verbatim": "| Row | STUDYID | USUBJID | REFID | SPEC | PARENT | LEVEL |\n|-----|---------|---------|-------|------|--------|-------|", "score": 0.5216, "match_basis": "verbatim_token+domain_route:BE"}], "candidate_count": 5, "zero_candidate": false}
{"pdf_atom_id": "ig34_p0145_a012", "pdf_atom_type": "TABLE_ROW", "pdf_source": "SDTMIG_v3.4", "pdf_page": 145, "pdf_parent_section": "§6.2.2 [Biospecimen Events (BE)]", "pdf_verbatim": "| 1 | ABC134 | BE | 43871 | TS409871 | 1 | 1148.267 | Collecting | COLLECTING | SITE | 01 | COLLECTION | BRAIN | 1 | BASELINE | 2005-03-20 | 2005-03-20T15:07 | |", "figure_ref": null, "candidates": [{"md_atom_id": "md_dmBE_ex_a016", "md_file": "knowledge_base/domains/BE/examples.md", "md_atom_type": "TABLE_ROW", "md_parent_section": "§BE.1 [Example 1]", "md_verbatim": "| 1 | ABC134 | BE | 43871 | TS409871 | 1 | 1148.267 | Collecting | COLLECTING | SITE | 01 | COLLECTION | BRAIN | 1 | BASELINE | 2005-03-20 | 2005-03-20T15:07 | |", "score": 1.0, "match_basis": "verbatim_token+domain_route:BE"}, {"md_atom_id": "md_dmBE_ex_a018", "md_file": "knowledge_base/domains/BE/examples.md", "md_atom_type": "TABLE_ROW", "md_parent_section": "§BE.1 [Example 1]", "md_verbatim": "| 3 | ABC134 | BE | 43871 | 309827 | 3 | 1148.267 | Storing | STORING | SITE | 01 | STORING | | 1 | BASELINE | 2005-03-20 | 2005-03-20T15:09 | 2005-03-21T10:29 |", "score": 0.6941, "match_basis": "verbatim_token+domain_route:BE"}, {"md_atom_id": "md_dmBE_ex_a017", "md_file": "knowledge_base/domains/BE/examples.md", "md_atom_type": "TABLE_ROW", "md_parent_section": "§BE.1 [Example 1]", "md_verbatim": "| 2 | ABC134 | BE | 43871 | | 2 | 1148.267 | Flash Freezing | FLASH FREEZING | SITE | 01 | PREPARATION | | 1 | BASELINE | 2005-03-20 | 2005-03-20T15:07 | 2005-03-20T15:09 |", "score": 0.6786, "match_basis": "verbatim_token+domain_route:BE"}, {"md_atom_id": "md_dmBE_ex_a019", "md_file": "knowledge_base/domains/BE/examples.md", "md_atom_type": "TABLE_ROW", "md_parent_section": "§BE.1 [Example 1]", "md_verbatim": "| 4 | ABC134 | BE | 43871 | | 4 | 1148.267 | Thawing | THAWING | SITE | 01 | PREPARATION | | 1 | BASELINE | 2005-03-20 | 2005-03-21T10:29 | 2005-03-21T10:36 |", "score": 0.6509, "match_basis": "verbatim_token+domain_route:BE"}, {"md_atom_id": "md_dmBE_ex_a020", "md_file": "knowledge_base/domains/BE/examples.md", "md_atom_type": "TABLE_ROW", "md_parent_section": "§BE.1 [Example 1]", "md_verbatim": "| 5 | ABC134 | BE | 43871 | LN43871 | 5 | 1148.267 | Shipping | SHIPPING | ABC LAB | | TRANSPORT | | 1 | BASELINE | 2005-03-20 | 2005-03-21T11:00 | 2005-03-21T15:00 |", "score": 0.6034, "match_basis": "verbatim_token+domain_route:BE"}], "candidate_count": 5, "zero_candidate": false}
{"pdf_atom_id": "ig34_p0145_a013", "pdf_atom_type": "TABLE_ROW", "pdf_source": "SDTMIG_v3.4", "pdf_page": 145, "pdf_parent_section": "§6.2.2 [Biospecimen Events (BE)]", "pdf_verbatim": "| 2 | ABC134 | BE | 43871 | | 2 | 1148.267 | Flash Freezing | FLASH FREEZING | SITE | 01 | PREPARATION | | 1 | BASELINE | 2005-03-20 | 2005-03-20T15:07 | 2005-03-20T15:09 |", "figure_ref": null, "candidates": [{"md_atom_id": "md_dmBE_ex_a017", "md_file": "knowledge_base/domains/BE/examples.md", "md_atom_type": "TABLE_ROW", "md_parent_section": "§BE.1 [Example 1]", "md_verbatim": "| 2 | ABC134 | BE | 43871 | | 2 | 1148.267 | Flash Freezing | FLASH FREEZING | SITE | 01 | PREPARATION | | 1 | BASELINE | 2005-03-20 | 2005-03-20T15:07 | 2005-03-20T15:09 |", "score": 1.0, "match_basis": "verbatim_token+domain_route:BE"}, {"md_atom_id": "md_dmBE_ex_a019", "md_file": "knowledge_base/domains/BE/examples.md", "md_atom_type": "TABLE_ROW", "md_parent_section": "§BE.1 [Example 1]", "md_verbatim": "| 4 | ABC134 | BE | 43871 | | 4 | 1148.267 | Thawing | THAWING | SITE | 01 | PREPARATION | | 1 | BASELINE | 2005-03-20 | 2005-03-21T10:29 | 2005-03-21T10:36 |", "score": 0.775, "match_basis": "verbatim_token+domain_route:BE"}, {"md_atom_id": "md_dmBE_ex_a016", "md_file": "knowledge_base/domains/BE/examples.md", "md_atom_type": "TABLE_ROW", "md_parent_section": "§BE.1 [Example 1]", "md_verbatim": "| 1 | ABC134 | BE | 43871 | TS409871 | 1 | 1148.267 | Collecting | COLLECTING | SITE | 01 | COLLECTION | BRAIN | 1 | BASELINE | 2005-03-20 | 2005-03-20T15:07 | |", "score": 0.6786, "match_basis": "verbatim_token+domain_route:BE"}, {"md_atom_id": "md_dmBE_ex_a018", "md_file": "knowledge_base/domains/BE/examples.md", "md_atom_type": "TABLE_ROW", "md_parent_section": "§BE.1 [Example 1]", "md_verbatim": "| 3 | ABC134 | BE | 43871 | 309827 | 3 | 1148.267 | Storing | STORING | SITE | 01 | STORING | | 1 | BASELINE | 2005-03-20 | 2005-03-20T15:09 | 2005-03-21T10:29 |", "score": 0.6769, "match_basis": "verbatim_token+domain_route:BE"}, {"md_atom_id": "md_dmBE_ex_a020", "md_file": "knowledge_base/domains/BE/examples.md", "md_atom_type": "TABLE_ROW", "md_parent_section": "§BE.1 [Example 1]", "md_verbatim": "| 5 | ABC134 | BE | 43871 | LN43871 | 5 | 1148.267 | Shipping | SHIPPING | ABC LAB | | TRANSPORT | | 1 | BASELINE | 2005-03-20 | 2005-03-21T11:00 | 2005-03-21T15:00 |", "score": 0.6034, "match_basis": "verbatim_token+domain_route:BE"}], "candidate_count": 5, "zero_candidate": false}
{"pdf_atom_id": "ig34_p0145_a014", "pdf_atom_type": "TABLE_ROW", "pdf_source": "SDTMIG_v3.4", "pdf_page": 145, "pdf_parent_section": "§6.2.2 [Biospecimen Events (BE)]", "pdf_verbatim": "| 3 | ABC134 | BE | 43871 | 309827 | 3 | 1148.267 | Storing | STORING | SITE | 01 | STORING | | 1 | BASELINE | 2005-03-20 | 2005-03-20T15:09 | 2005-03-21T10:29 |", "figure_ref": null, "candidates": [{"md_atom_id": "md_dmBE_ex_a018", "md_file": "knowledge_base/domains/BE/examples.md", "md_atom_type": "TABLE_ROW", "md_parent_section": "§BE.1 [Example 1]", "md_verbatim": "| 3 | ABC134 | BE | 43871 | 309827 | 3 | 1148.267 | Storing | STORING | SITE | 01 | STORING | | 1 | BASELINE | 2005-03-20 | 2005-03-20T15:09 | 2005-03-21T10:29 |", "score": 1.0, "match_basis": "verbatim_token+domain_route:BE"}, {"md_atom_id": "md_dmBE_ex_a019", "md_file": "knowledge_base/domains/BE/examples.md", "md_atom_type": "TABLE_ROW", "md_parent_section": "§BE.1 [Example 1]", "md_verbatim": "| 4 | ABC134 | BE | 43871 | | 4 | 1148.267 | Thawing | THAWING | SITE | 01 | PREPARATION | | 1 | BASELINE | 2005-03-20 | 2005-03-21T10:29 | 2005-03-21T10:36 |", "score": 0.7, "match_basis": "verbatim_token+domain_route:BE"}, {"md_atom_id": "md_dmBE_ex_a016", "md_file": "knowledge_base/domains/BE/examples.md", "md_atom_type": "TABLE_ROW", "md_parent_section": "§BE.1 [Example 1]", "md_verbatim": "| 1 | ABC134 | BE | 43871 | TS409871 | 1 | 1148.267 | Collecting | COLLECTING | SITE | 01 | COLLECTION | BRAIN | 1 | BASELINE | 2005-03-20 | 2005-03-20T15:07 | |", "score": 0.6941, "match_basis": "verbatim_token+domain_route:BE"}, {"md_atom_id": "md_dmBE_ex_a017", "md_file": "knowledge_base/domains/BE/examples.md", "md_atom_type": "TABLE_ROW", "md_parent_section": "§BE.1 [Example 1]", "md_verbatim": "| 2 | ABC134 | BE | 43871 | | 2 | 1148.267 | Flash Freezing | FLASH FREEZING | SITE | 01 | PREPARATION | | 1 | BASELINE | 2005-03-20 | 2005-03-20T15:07 | 2005-03-20T15:09 |", "score": 0.6769, "match_basis": "verbatim_token+domain_route:BE"}, {"md_atom_id": "md_dmBE_ex_a020", "md_file": "knowledge_base/domains/BE/examples.md", "md_atom_type": "TABLE_ROW", "md_parent_section": "§BE.1 [Example 1]", "md_verbatim": "| 5 | ABC134 | BE | 43871 | LN43871 | 5 | 1148.267 | Shipping | SHIPPING | ABC LAB | | TRANSPORT | | 1 | BASELINE | 2005-03-20 | 2005-03-21T11:00 | 2005-03-21T15:00 |", "score": 0.6588, "match_basis": "verbatim_token+domain_route:BE"}], "candidate_count": 5, "zero_candidate": false}
{"pdf_atom_id": "ig34_p0145_a015", "pdf_atom_type": "TABLE_ROW", "pdf_source": "SDTMIG_v3.4", "pdf_page": 145, "pdf_parent_section": "§6.2.2 [Biospecimen Events (BE)]", "pdf_verbatim": "| 4 | ABC134 | BE | 43871 | | 4 | 1148.267 | Thawing | THAWING | SITE | 01 | PREPARATION | | 1 | BASELINE | 2005-03-20 | 2005-03-21T10:29 | 2005-03-21T10:36 |", "figure_ref": null, "candidates": [{"md_atom_id": "md_dmBE_ex_a019", "md_file": "knowledge_base/domains/BE/examples.md", "md_atom_type": "TABLE_ROW", "md_parent_section": "§BE.1 [Example 1]", "md_verbatim": "| 4 | ABC134 | BE | 43871 | | 4 | 1148.267 | Thawing | THAWING | SITE | 01 | PREPARATION | | 1 | BASELINE | 2005-03-20 | 2005-03-21T10:29 | 2005-03-21T10:36 |", "score": 1.0, "match_basis": "verbatim_token+domain_route:BE"}, {"md_atom_id": "md_dmBE_ex_a017", "md_file": "knowledge_base/domains/BE/examples.md", "md_atom_type": "TABLE_ROW", "md_parent_section": "§BE.1 [Example 1]", "md_verbatim": "| 2 | ABC134 | BE | 43871 | | 2 | 1148.267 | Flash Freezing | FLASH FREEZING | SITE | 01 | PREPARATION | | 1 | BASELINE | 2005-03-20 | 2005-03-20T15:07 | 2005-03-20T15:09 |", "score": 0.775, "match_basis": "verbatim_token+domain_route:BE"}, {"md_atom_id": "md_dmBE_ex_a018", "md_file": "knowledge_base/domains/BE/examples.md", "md_atom_type": "TABLE_ROW", "md_parent_section": "§BE.1 [Example 1]", "md_verbatim": "| 3 | ABC134 | BE | 43871 | 309827 | 3 | 1148.267 | Storing | STORING | SITE | 01 | STORING | | 1 | BASELINE | 2005-03-20 | 2005-03-20T15:09 | 2005-03-21T10:29 |", "score": 0.7, "match_basis": "verbatim_token+domain_route:BE"}, {"md_atom_id": "md_dmBE_ex_a016", "md_file": "knowledge_base/domains/BE/examples.md", "md_atom_type": "TABLE_ROW", "md_parent_section": "§BE.1 [Example 1]", "md_verbatim": "| 1 | ABC134 | BE | 43871 | TS409871 | 1 | 1148.267 | Collecting | COLLECTING | SITE | 01 | COLLECTION | BRAIN | 1 | BASELINE | 2005-03-20 | 2005-03-20T15:07 | |", "score": 0.6509, "match_basis": "verbatim_token+domain_route:BE"}, {"md_atom_id": "md_dmBE_ex_a020", "md_file": "knowledge_base/domains/BE/examples.md", "md_atom_type": "TABLE_ROW", "md_parent_section": "§BE.1 [Example 1]", "md_verbatim": "| 5 | ABC134 | BE | 43871 | LN43871 | 5 | 1148.267 | Shipping | SHIPPING | ABC LAB | | TRANSPORT | | 1 | BASELINE | 2005-03-20 | 2005-03-21T11:00 | 2005-03-21T15:00 |", "score": 0.6333, "match_basis": "verbatim_token+domain_route:BE"}], "candidate_count": 5, "zero_candidate": false}
{"pdf_atom_id": "ig34_p0145_a016", "pdf_atom_type": "TABLE_ROW", "pdf_source": "SDTMIG_v3.4", "pdf_page": 145, "pdf_parent_section": "§6.2.2 [Biospecimen Events (BE)]", "pdf_verbatim": "| 5 | ABC134 | BE | 43871 | LN43871 | 5 | 1148.267 | Shipping | SHIPPING | ABC LAB | | TRANSPORT | | 1 | BASELINE | 2005-03-20 | 2005-03-21T11:00 | 2005-03-21T15:00 |", "figure_ref": null, "candidates": [{"md_atom_id": "md_dmBE_ex_a020", "md_file": "knowledge_base/domains/BE/examples.md", "md_atom_type": "TABLE_ROW", "md_parent_section": "§BE.1 [Example 1]", "md_verbatim": "| 5 | ABC134 | BE | 43871 | LN43871 | 5 | 1148.267 | Shipping | SHIPPING | ABC LAB | | TRANSPORT | | 1 | BASELINE | 2005-03-20 | 2005-03-21T11:00 | 2005-03-21T15:00 |", "score": 1.0, "match_basis": "verbatim_token+domain_route:BE"}, {"md_atom_id": "md_dmBE_ex_a018", "md_file": "knowledge_base/domains/BE/examples.md", "md_atom_type": "TABLE_ROW", "md_parent_section": "§BE.1 [Example 1]", "md_verbatim": "| 3 | ABC134 | BE | 43871 | 309827 | 3 | 1148.267 | Storing | STORING | SITE | 01 | STORING | | 1 | BASELINE | 2005-03-20 | 2005-03-20T15:09 | 2005-03-21T10:29 |", "score": 0.6588, "match_basis": "verbatim_token+domain_route:BE"}, {"md_atom_id": "md_dmBE_ex_a019", "md_file": "knowledge_base/domains/BE/examples.md", "md_atom_type": "TABLE_ROW", "md_parent_section": "§BE.1 [Example 1]", "md_verbatim": "| 4 | ABC134 | BE | 43871 | | 4 | 1148.267 | Thawing | THAWING | SITE | 01 | PREPARATION | | 1 | BASELINE | 2005-03-20 | 2005-03-21T10:29 | 2005-03-21T10:36 |", "score": 0.6333, "match_basis": "verbatim_token+domain_route:BE"}, {"md_atom_id": "md_dmBE_ex_a065", "md_file": "knowledge_base/domains/BE/examples.md", "md_atom_type": "TABLE_ROW", "md_parent_section": "§BE.2 [Example 2]", "md_verbatim": "| 3 | 3441271 | BE | MU-298 | | 3 | 298B1-1 | Shipping | SHIPPING | ABC LAB | | TRANSPORT | 2 | 2010-04-01T11:50 | 2010-04-01T15:00 | 2010-04-02T8:00 |", "score": 0.6118, "match_basis": "verbatim_token+domain_route:BE"}, {"md_atom_id": "md_dmBE_ex_a016", "md_file": "knowledge_base/domains/BE/examples.md", "md_atom_type": "TABLE_ROW", "md_parent_section": "§BE.1 [Example 1]", "md_verbatim": "| 1 | ABC134 | BE | 43871 | TS409871 | 1 | 1148.267 | Collecting | COLLECTING | SITE | 01 | COLLECTION | BRAIN | 1 | BASELINE | 2005-03-20 | 2005-03-20T15:07 | |", "score": 0.6034, "match_basis": "verbatim_token+domain_route:BE"}], "candidate_count": 5, "zero_candidate": false}
{"pdf_atom_id": "ig34_p0145_a017", "pdf_atom_type": "CODE_LITERAL", "pdf_source": "SDTMIG_v3.4", "pdf_page": 145, "pdf_parent_section": "§6.2.2 [Biospecimen Events (BE)]", "pdf_verbatim": "suppbe.xpt", "figure_ref": null, "candidates": [{"md_atom_id": "md_dmBE_ex_a021", "md_file": "knowledge_base/domains/BE/examples.md", "md_atom_type": "SENTENCE", "md_parent_section": "§BE.1 [Example 1]", "md_verbatim": "**suppbe.xpt**", "score": 0.79, "match_basis": "verbatim_token+domain_route:BE"}, {"md_atom_id": "md_dmBE_ex_a078", "md_file": "knowledge_base/domains/BE/examples.md", "md_atom_type": "SENTENCE", "md_parent_section": "§BE.2 [Example 2]", "md_verbatim": "**suppbe.xpt**", "score": 0.79, "match_basis": "verbatim_token+domain_route:BE"}, {"md_atom_id": "md_dmBE_ex_a014", "md_file": "knowledge_base/domains/BE/examples.md", "md_atom_type": "SENTENCE", "md_parent_section": "§BE.1 [Example 1]", "md_verbatim": "**be.xpt**", "score": 0.31, "match_basis": "verbatim_token+domain_route:BE"}, {"md_atom_id": "md_dmBE_ex_a031", "md_file": "knowledge_base/domains/BE/examples.md", "md_atom_type": "SENTENCE", "md_parent_section": "§BE.1 [Example 1]", "md_verbatim": "**bs.xpt**", "score": 0.31, "match_basis": "verbatim_token+domain_route:BE"}, {"md_atom_id": "md_dmBE_ex_a061", "md_file": "knowledge_base/domains/BE/examples.md", "md_atom_type": "SENTENCE", "md_parent_section": "§BE.2 [Example 2]", "md_verbatim": "**be.xpt**", "score": 0.31, "match_basis": "verbatim_token+domain_route:BE"}, {"md_atom_id": "md_dmBE_ex_a090", "md_file": "knowledge_base/domains/BE/examples.md", "md_atom_type": "SENTENCE", "md_parent_section": "§BE.2 [Example 2]", "md_verbatim": "**bs.xpt**", "score": 0.31, "match_basis": "verbatim_token+domain_route:BE"}, {"md_atom_id": "md_dmBE_ex_a040", "md_file": "knowledge_base/domains/BE/examples.md", "md_atom_type": "SENTENCE", "md_parent_section": "§BE.1 [Example 1]", "md_verbatim": "**relrec.xpt**", "score": 0.2567, "match_basis": "verbatim_token+domain_route:BE"}, {"md_atom_id": "md_dmBE_ex_a111", "md_file": "knowledge_base/domains/BE/examples.md", "md_atom_type": "SENTENCE", "md_parent_section": "§BE.2 [Example 2]", "md_verbatim": "**relrec.xpt**", "score": 0.2567, "match_basis": "verbatim_token+domain_route:BE"}, {"md_atom_id": "md_dmBE_ex_a102", "md_file": "knowledge_base/domains/BE/examples.md", "md_atom_type": "SENTENCE", "md_parent_section": "§BE.2 [Example 2]", "md_verbatim": "**relspec.xpt**", "score": 0.25, "match_basis": "verbatim_token+domain_route:BE"}, {"md_atom_id": "md_dmBE_ex_a073", "md_file": "knowledge_base/domains/BE/examples.md", "md_atom_type": "SENTENCE", "md_parent_section": "§BE.2 [Example 2]", "md_verbatim": "The specimen type is given in a supplemental qualifier that mimics the standard findings variable --SPEC, and draws from the 2 codelists (GENSMP and SPECTYPE) for its values, depending on whether or not the biospecimen is a sample of the subject's genetic material.", "score": 0.2012, "match_basis": "verbatim_token+domain_route:BE"}], "candidate_count": 10, "zero_candidate": false}
{"pdf_atom_id": "ig34_p0145_a018", "pdf_atom_type": "TABLE_HEADER", "pdf_source": "SDTMIG_v3.4", "pdf_page": 145, "pdf_parent_section": "§6.2.2 [Biospecimen Events (BE)]", "pdf_verbatim": "| Row | STUDYID | RDOMAIN | USUBJID | IDVAR | IDVARVAL | QNAM | QLABEL | QVAL | QORIG | QEVAL |", "figure_ref": null, "candidates": [{"md_atom_id": "md_dmBE_ex_a022", "md_file": "knowledge_base/domains/BE/examples.md", "md_atom_type": "TABLE_HEADER", "md_parent_section": "§BE.1 [Example 1]", "md_verbatim": "| Row | STUDYID | RDOMAIN | USUBJID | IDVAR | IDVARVAL | QNAM | QLABEL | QVAL | QORIG | QEVAL |\n|-----|---------|---------|---------|-------|----------|------|--------|------|-------|-------|", "score": 1.0, "match_basis": "verbatim_token+domain_route:BE"}, {"md_atom_id": "md_dmBE_ex_a079", "md_file": "knowledge_base/domains/BE/examples.md", "md_atom_type": "TABLE_HEADER", "md_parent_section": "§BE.2 [Example 2]", "md_verbatim": "| Row | STUDYID | RDOMAIN | USUBJID | IDVAR | IDVARVAL | QNAM | QLABEL | QVAL | QORIG | QEVAL |\n|-----|---------|---------|---------|-------|----------|------|--------|------|-------|-------|", "score": 1.0, "match_basis": "verbatim_token+domain_route:BE"}, {"md_atom_id": "md_dmBE_ex_a041", "md_file": "knowledge_base/domains/BE/examples.md", "md_atom_type": "TABLE_HEADER", "md_parent_section": "§BE.1 [Example 1]", "md_verbatim": "| Row | STUDYID | RDOMAIN | USUBJID | IDVAR | IDVARVAL | RELTYPE | RELID |\n|-----|---------|---------|---------|-------|----------|---------|-------|", "score": 0.722, "match_basis": "verbatim_token+domain_route:BE"}, {"md_atom_id": "md_dmBE_ex_a112", "md_file": "knowledge_base/domains/BE/examples.md", "md_atom_type": "TABLE_HEADER", "md_parent_section": "§BE.2 [Example 2]", "md_verbatim": "| Row | STUDYID | RDOMAIN | USUBJID | IDVAR | IDVARVAL | RELTYPE | RELID |\n|-----|---------|---------|---------|-------|----------|---------|-------|", "score": 0.722, "match_basis": "verbatim_token+domain_route:BE"}, {"md_atom_id": "md_dmBE_ex_a103", "md_file": "knowledge_base/domains/BE/examples.md", "md_atom_type": "TABLE_HEADER", "md_parent_section": "§BE.2 [Example 2]", "md_verbatim": "| Row | STUDYID | USUBJID | REFID | SPEC | PARENT | LEVEL |\n|-----|---------|---------|-------|------|--------|-------|", "score": 0.5435, "match_basis": "verbatim_token+domain_route:BE"}], "candidate_count": 5, "zero_candidate": false}
{"pdf_atom_id": "ig34_p0145_a019", "pdf_atom_type": "TABLE_ROW", "pdf_source": "SDTMIG_v3.4", "pdf_page": 145, "pdf_parent_section": "§6.2.2 [Biospecimen Events (BE)]", "pdf_verbatim": "| 1 | ABC134 | BE | 43871 | BEREFID | 1148.267 | BESPEC | SPECIMEN TYPE | TISSUE | CRF | |", "figure_ref": null, "candidates": [{"md_atom_id": "md_dmBE_ex_a023", "md_file": "knowledge_base/domains/BE/examples.md", "md_atom_type": "TABLE_ROW", "md_parent_section": "§BE.1 [Example 1]", "md_verbatim": "| 1 | ABC134 | BE | 43871 | BEREFID | 1148.267 | BESPEC | Specimen Type | TISSUE | CRF | |", "score": 1.0, "match_basis": "verbatim_token+domain_route:BE"}, {"md_atom_id": "md_dmBE_ex_a080", "md_file": "knowledge_base/domains/BE/examples.md", "md_atom_type": "TABLE_ROW", "md_parent_section": "§BE.2 [Example 2]", "md_verbatim": "| 1 | 3441271 | BE | MU-298 | BEREFID | 298B1 | BESPEC | Specimen Type | BLOOD | CRF | |", "score": 0.6341, "match_basis": "verbatim_token+domain_route:BE"}, {"md_atom_id": "md_dmBE_ex_a081", "md_file": "knowledge_base/domains/BE/examples.md", "md_atom_type": "TABLE_ROW", "md_parent_section": "§BE.2 [Example 2]", "md_verbatim": "| 2 | 3441271 | BE | MU-298 | BEREFID | 298B1-1 | BESPEC | Specimen Type | PLASMA | CRF | |", "score": 0.6286, "match_basis": "verbatim_token+domain_route:BE"}, {"md_atom_id": "md_dmBE_ex_a082", "md_file": "knowledge_base/domains/BE/examples.md", "md_atom_type": "TABLE_ROW", "md_parent_section": "§BE.2 [Example 2]", "md_verbatim": "| 3 | 3441271 | BE | MU-298 | BEREFID | 298R1-1R0 | BESPEC | Specimen Type | RNA | Collected | |", "score": 0.5915, "match_basis": "verbatim_token+domain_route:BE"}, {"md_atom_id": "md_dmBE_ex_a083", "md_file": "knowledge_base/domains/BE/examples.md", "md_atom_type": "TABLE_ROW", "md_parent_section": "§BE.2 [Example 2]", "md_verbatim": "| 4 | 3441271 | BE | MU-298 | BEREFID | 298R1-1R1 | BESPEC | Specimen Type | RNA | Collected | |", "score": 0.5915, "match_basis": "verbatim_token+domain_route:BE"}], "candidate_count": 5, "zero_candidate": false}
{"pdf_atom_id": "ig34_p0145_a020", "pdf_atom_type": "SENTENCE", "pdf_source": "SDTMIG_v3.4", "pdf_page": 145, "pdf_parent_section": "§6.2.2 [Biospecimen Events (BE)]", "pdf_verbatim": "Findings related to specimen handling processes are stored in the Biospecimen (BS) domain. These processes can be important to maintain the integrity of the specimens used in genetic variation and gene expression testing. Depending on how a study is designed, there might be very specific specimen handling specifications contained in the protocol for all labs to follow. Other protocols may let the labs determine the processes to follow. This example illustrates the latter approach.", "figure_ref": null, "candidates": [{"md_atom_id": "md_dmBE_ex_a026", "md_file": "knowledge_base/domains/BE/examples.md", "md_atom_type": "SENTENCE", "md_parent_section": "§BE.1 [Example 1]", "md_verbatim": "Depending on how a study is designed, there might be very specific specimen handling specifications contained in the protocol for all labs to follow.", "score": 0.6437, "match_basis": "verbatim_token+domain_route:BE"}, {"md_atom_id": "md_dmBE_ex_a025", "md_file": "knowledge_base/domains/BE/examples.md", "md_atom_type": "SENTENCE", "md_parent_section": "§BE.1 [Example 1]", "md_verbatim": "These processes can be important to maintain the integrity of the specimens used in genetic variation and gene expression testing.", "score": 0.6325, "match_basis": "verbatim_token+domain_route:BE"}, {"md_atom_id": "md_dmBE_ex_a024", "md_file": "knowledge_base/domains/BE/examples.md", "md_atom_type": "SENTENCE", "md_parent_section": "§BE.1 [Example 1]", "md_verbatim": "Findings related to specimen handling processes are stored in the Biospecimen (BS) domain.", "score": 0.5575, "match_basis": "verbatim_token+domain_route:BE"}, {"md_atom_id": "md_dmBE_ex_a027", "md_file": "knowledge_base/domains/BE/examples.md", "md_atom_type": "SENTENCE", "md_parent_section": "§BE.1 [Example 1]", "md_verbatim": "Other protocols may let the labs determine the processes to follow.", "score": 0.5162, "match_basis": "verbatim_token+domain_route:BE"}, {"md_atom_id": "md_dmBE_ex_a073", "md_file": "knowledge_base/domains/BE/examples.md", "md_atom_type": "SENTENCE", "md_parent_section": "§BE.2 [Example 2]", "md_verbatim": "The specimen type is given in a supplemental qualifier that mimics the standard findings variable --SPEC, and draws from the 2 codelists (GENSMP and SPECTYPE) for its values, depending on whether or not the biospecimen is a sample of the subject's genetic material.", "score": 0.5071, "match_basis": "verbatim_token+domain_route:BE"}], "candidate_count": 5, "zero_candidate": false}
{"pdf_atom_id": "ig34_p0145_a021", "pdf_atom_type": "LIST_ITEM", "pdf_source": "SDTMIG_v3.4", "pdf_page": 145, "pdf_parent_section": "§6.2.2 [Biospecimen Events (BE)]", "pdf_verbatim": "Row 1: Shows the volume of the biospecimen.", "figure_ref": null, "candidates": [{"md_atom_id": "md_dmBE_ex_a029", "md_file": "knowledge_base/domains/BE/examples.md", "md_atom_type": "SENTENCE", "md_parent_section": "§BE.1 [Example 1]", "md_verbatim": "**Row 1:** Shows the volume of the biospecimen.", "score": 0.91, "match_basis": "verbatim_token+domain_route:BE"}, {"md_atom_id": "md_dmBE_ex_a007", "md_file": "knowledge_base/domains/BE/examples.md", "md_atom_type": "SENTENCE", "md_parent_section": "§BE.1 [Example 1]", "md_verbatim": "**Row 1:** Shows specimen collection.", "score": 0.5408, "match_basis": "verbatim_token+domain_route:BE"}, {"md_atom_id": "md_dmBE_ex_a086", "md_file": "knowledge_base/domains/BE/examples.md", "md_atom_type": "SENTENCE", "md_parent_section": "§BE.2 [Example 2]", "md_verbatim": "**Row 1:** Shows the volume of the blood sample.", "score": 0.526, "match_basis": "verbatim_token+domain_route:BE"}, {"md_atom_id": "md_dmBE_ex_a087", "md_file": "knowledge_base/domains/BE/examples.md", "md_atom_type": "SENTENCE", "md_parent_section": "§BE.2 [Example 2]", "md_verbatim": "**Row 2:** Shows the volume of the plasma sample.", "score": 0.5177, "match_basis": "verbatim_token+domain_route:BE"}, {"md_atom_id": "md_dmBE_ex_a089", "md_file": "knowledge_base/domains/BE/examples.md", "md_atom_type": "SENTENCE", "md_parent_section": "§BE.2 [Example 2]", "md_verbatim": "**Rows 5-7:** Show the volumes of the RNA aliquots.", "score": 0.5177, "match_basis": "verbatim_token+domain_route:BE"}], "candidate_count": 5, "zero_candidate": false}
{"pdf_atom_id": "ig34_p0145_a022", "pdf_atom_type": "LIST_ITEM", "pdf_source": "SDTMIG_v3.4", "pdf_page": 145, "pdf_parent_section": "§6.2.2 [Biospecimen Events (BE)]", "pdf_verbatim": "Rows 2-3: Show the flash freeze temperature and material, associated via RELREC with BE row 2.", "figure_ref": null, "candidates": [{"md_atom_id": "md_dmBE_ex_a030", "md_file": "knowledge_base/domains/BE/examples.md", "md_atom_type": "SENTENCE", "md_parent_section": "§BE.1 [Example 1]", "md_verbatim": "**Rows 2-3:** Show the flash freeze temperature and material, associated via RELREC with BE row 2.", "score": 0.91, "match_basis": "verbatim_token+domain_route:BE"}, {"md_atom_id": "md_dmBE_assn_a004", "md_file": "knowledge_base/domains/BE/assumptions.md", "md_atom_type": "LIST_ITEM", "md_parent_section": "§BE [BE — Assumptions]", "md_verbatim": "3. BELOC holds the relevant anatomic location of the subject, so it should only be populated when the subject participates in and is directly affected by the event given in BETERM.", "score": 0.4453, "match_basis": "verbatim_token+domain_route:BE"}, {"md_atom_id": "md_dmBE_ex_a039", "md_file": "knowledge_base/domains/BE/examples.md", "md_atom_type": "SENTENCE", "md_parent_section": "§BE.1 [Example 1]", "md_verbatim": "**Rows 3-4:** Tie the temperature to which the specimen was flash frozen to the event of its occurrence.", "score": 0.4404, "match_basis": "verbatim_token+domain_route:BE"}, {"md_atom_id": "md_dmBE_assn_a008", "md_file": "knowledge_base/domains/BE/assumptions.md", "md_atom_type": "LIST_ITEM", "md_parent_section": "§BE [BE — Assumptions]", "md_verbatim": "   a. BESTDTC and BEENDTC hold the start and end date/times for the event given in BETERM. If the end date/time is the same as the start date/time for the event, then BEENDTC is null.", "score": 0.4324, "match_basis": "verbatim_token+domain_route:BE"}, {"md_atom_id": "md_dmBE_assn_a009", "md_file": "knowledge_base/domains/BE/assumptions.md", "md_atom_type": "LIST_ITEM", "md_parent_section": "§BE [BE — Assumptions]", "md_verbatim": "   b. Unlike other Events domains, BEDTC does not hold the date/time of data collection. Instead, it holds the date/time of specimen collection, in alignment with the use of --DTC for specimen-related findings. BEDTC values for extracted or otherwise derived specimens are copied from that of the parent specimen.", "score": 0.4318, "match_basis": "verbatim_token+domain_route:BE"}], "candidate_count": 5, "zero_candidate": false}
{"pdf_atom_id": "ig34_p0146_a001", "pdf_atom_type": "CODE_LITERAL", "pdf_source": "SDTMIG_v3.4", "pdf_page": 146, "pdf_parent_section": "§6.2.2 [Biospecimen Events (BE)]", "pdf_verbatim": "bs.xpt", "figure_ref": null, "candidates": [{"md_atom_id": "md_dmBE_ex_a014", "md_file": "knowledge_base/domains/BE/examples.md", "md_atom_type": "SENTENCE", "md_parent_section": "§BE.1 [Example 1]", "md_verbatim": "**be.xpt**", "score": 0.79, "match_basis": "verbatim_token+domain_route:BE"}, {"md_atom_id": "md_dmBE_ex_a031", "md_file": "knowledge_base/domains/BE/examples.md", "md_atom_type": "SENTENCE", "md_parent_section": "§BE.1 [Example 1]", "md_verbatim": "**bs.xpt**", "score": 0.79, "match_basis": "verbatim_token+domain_route:BE"}, {"md_atom_id": "md_dmBE_ex_a061", "md_file": "knowledge_base/domains/BE/examples.md", "md_atom_type": "SENTENCE", "md_parent_section": "§BE.2 [Example 2]", "md_verbatim": "**be.xpt**", "score": 0.79, "match_basis": "verbatim_token+domain_route:BE"}, {"md_atom_id": "md_dmBE_ex_a090", "md_file": "knowledge_base/domains/BE/examples.md", "md_atom_type": "SENTENCE", "md_parent_section": "§BE.2 [Example 2]", "md_verbatim": "**bs.xpt**", "score": 0.79, "match_basis": "verbatim_token+domain_route:BE"}, {"md_atom_id": "md_dmBE_ex_a021", "md_file": "knowledge_base/domains/BE/examples.md", "md_atom_type": "SENTENCE", "md_parent_section": "§BE.1 [Example 1]", "md_verbatim": "**suppbe.xpt**", "score": 0.31, "match_basis": "verbatim_token+domain_route:BE"}, {"md_atom_id": "md_dmBE_ex_a040", "md_file": "knowledge_base/domains/BE/examples.md", "md_atom_type": "SENTENCE", "md_parent_section": "§BE.1 [Example 1]", "md_verbatim": "**relrec.xpt**", "score": 0.31, "match_basis": "verbatim_token+domain_route:BE"}, {"md_atom_id": "md_dmBE_ex_a078", "md_file": "knowledge_base/domains/BE/examples.md", "md_atom_type": "SENTENCE", "md_parent_section": "§BE.2 [Example 2]", "md_verbatim": "**suppbe.xpt**", "score": 0.31, "match_basis": "verbatim_token+domain_route:BE"}, {"md_atom_id": "md_dmBE_ex_a111", "md_file": "knowledge_base/domains/BE/examples.md", "md_atom_type": "SENTENCE", "md_parent_section": "§BE.2 [Example 2]", "md_verbatim": "**relrec.xpt**", "score": 0.31, "match_basis": "verbatim_token+domain_route:BE"}, {"md_atom_id": "md_dmBE_ex_a102", "md_file": "knowledge_base/domains/BE/examples.md", "md_atom_type": "SENTENCE", "md_parent_section": "§BE.2 [Example 2]", "md_verbatim": "**relspec.xpt**", "score": 0.29, "match_basis": "verbatim_token+domain_route:BE"}, {"md_atom_id": "md_dmBE_assn_a001", "md_file": "knowledge_base/domains/BE/assumptions.md", "md_atom_type": "HEADING", "md_parent_section": "§BE [BE — Assumptions]", "md_verbatim": "# BE — Assumptions", "score": 0.19, "match_basis": "verbatim_token+domain_route:BE"}], "candidate_count": 10, "zero_candidate": false}
{"pdf_atom_id": "ig34_p0146_a002", "pdf_atom_type": "TABLE_HEADER", "pdf_source": "SDTMIG_v3.4", "pdf_page": 146, "pdf_parent_section": "§6.2.2 [Biospecimen Events (BE)]", "pdf_verbatim": "| Row | STUDYID | DOMAIN | USUBJID | BSSEQ | BSGRPID | BSREFID | BSTESTCD | BSTEST | BSCAT | BSORRES | BSORRESU | BSSTRESC | BSSTRESN | BSSTRESU | BSSPEC | BSANTREG | VISITNUM | BSDTC |", "figure_ref": null, "candidates": [{"md_atom_id": "md_dmBE_ex_a032", "md_file": "knowledge_base/domains/BE/examples.md", "md_atom_type": "TABLE_HEADER", "md_parent_section": "§BE.1 [Example 1]", "md_verbatim": "| Row | STUDYID | DOMAIN | USUBJID | BSSEQ | BSGRPID | BSREFID | BSTESTCD | BSTEST | BSCAT | BSORRES | BSORRESU | BSSTRESC | BSSTRESN | BSSTRESU | BSSPEC | BSANTREG | VISITNUM | BSDTC |\n|-----|---------|--------|---------|-------|---------|---------|----------|--------|-------|---------|----------|----------|----------|----------|--------|----------|----------|-------|", "score": 1.0, "match_basis": "verbatim_token+domain_route:BE"}, {"md_atom_id": "md_dmBE_ex_a091", "md_file": "knowledge_base/domains/BE/examples.md", "md_atom_type": "TABLE_HEADER", "md_parent_section": "§BE.2 [Example 2]", "md_verbatim": "| Row | STUDYID | DOMAIN | USUBJID | BSSEQ | BSREFID | BSTESTCD | BSTEST | BSCAT | BSORRES | BSORRESU | BSSTRESC | BSSTRESN | BSSTRESU | BSSPEC | VISITNUM | BSDTC |\n|-----|---------|--------|---------|-------|---------|----------|--------|-------|---------|----------|----------|----------|----------|--------|----------|-------|", "score": 0.9077, "match_basis": "verbatim_token+domain_route:BE"}, {"md_atom_id": "md_dmBE_ex_a062", "md_file": "knowledge_base/domains/BE/examples.md", "md_atom_type": "TABLE_HEADER", "md_parent_section": "§BE.2 [Example 2]", "md_verbatim": "| Row | STUDYID | DOMAIN | USUBJID | SPDEVID | BESEQ | BEREFID | BETERM | BEDECOD | BEPARTY | BEPRTYID | BECAT | VISITNUM | BEDTC | BESTDTC | BEENDTC |\n|-----|---------|--------|---------|---------|-------|---------|--------|---------|---------|----------|-------|----------|-------|---------|---------|", "score": 0.568, "match_basis": "verbatim_token+domain_route:BE"}, {"md_atom_id": "md_dmBE_ex_a015", "md_file": "knowledge_base/domains/BE/examples.md", "md_atom_type": "TABLE_HEADER", "md_parent_section": "§BE.1 [Example 1]", "md_verbatim": "| Row | STUDYID | DOMAIN | USUBJID | SPDEVID | BESEQ | BEREFID | BETERM | BEDECOD | BEPARTY | BEPRTYID | BECAT | BELOC | VISITNUM | VISIT | BEDTC | BESTDTC | BEENDTC |\n|-----|---------|--------|---------|---------|-------|---------|--------|---------|---------|----------|-------|-------|----------|-------|-------|---------|---------|", "score": 0.5631, "match_basis": "verbatim_token+domain_route:BE"}, {"md_atom_id": "md_dmBE_ex_a103", "md_file": "knowledge_base/domains/BE/examples.md", "md_atom_type": "TABLE_HEADER", "md_parent_section": "§BE.2 [Example 2]", "md_verbatim": "| Row | STUDYID | USUBJID | REFID | SPEC | PARENT | LEVEL |\n|-----|---------|---------|-------|------|--------|-------|", "score": 0.5333, "match_basis": "verbatim_token+domain_route:BE"}], "candidate_count": 5, "zero_candidate": false}
{"pdf_atom_id": "ig34_p0146_a003", "pdf_atom_type": "TABLE_ROW", "pdf_source": "SDTMIG_v3.4", "pdf_page": 146, "pdf_parent_section": "§6.2.2 [Biospecimen Events (BE)]", "pdf_verbatim": "| 1 | ABC134 | BS | 43871 | 1 | | 1148.267 | VOLUME | Volume | SPECIMEN MEASUREMENT | | | cm3 | | cm3 | BRAIN | CEREBRAL AQUEDUCT | 1 | 2005-03-20 |", "figure_ref": null, "candidates": [{"md_atom_id": "md_dmBE_ex_a033", "md_file": "knowledge_base/domains/BE/examples.md", "md_atom_type": "TABLE_ROW", "md_parent_section": "§BE.1 [Example 1]", "md_verbatim": "| 1 | ABC134 | BS | 43871 | 1 | | 1148.267 | VOLUME | Volume | SPECIMEN MEASUREMENT | 2 | cm3 | 2 | | cm3 | BRAIN | CEREBRAL AQUEDUCT | 1 | 2005-03-20 |", "score": 1.0, "match_basis": "verbatim_token+domain_route:BE"}, {"md_atom_id": "md_dmBE_ex_a034", "md_file": "knowledge_base/domains/BE/examples.md", "md_atom_type": "TABLE_ROW", "md_parent_section": "§BE.1 [Example 1]", "md_verbatim": "| 2 | ABC134 | BS | 43871 | 2 | 267FF | 1148.267 | TEMP | Temperature | SPECIMEN HANDLING | -80 | C | -80 | -80 | C | BRAIN | CEREBRAL AQUEDUCT | 1 | 2005-03-20 |", "score": 0.7246, "match_basis": "verbatim_token+domain_route:BE"}, {"md_atom_id": "md_dmBE_ex_a035", "md_file": "knowledge_base/domains/BE/examples.md", "md_atom_type": "TABLE_ROW", "md_parent_section": "§BE.1 [Example 1]", "md_verbatim": "| 3 | ABC134 | BS | 43871 | 3 | 267FF | 1148.267 | FFRZMAT | Flash Freeze Material | SPECIMEN HANDLING | DRY ICE/ISOPROPANOL | | DRY ICE/ISOPROPANOL | | | BRAIN | CEREBRAL AQUEDUCT | 1 | 2005-03-20 |", "score": 0.637, "match_basis": "verbatim_token+domain_route:BE"}, {"md_atom_id": "md_dmBE_ex_a094", "md_file": "knowledge_base/domains/BE/examples.md", "md_atom_type": "TABLE_ROW", "md_parent_section": "§BE.2 [Example 2]", "md_verbatim": "| 3 | 3441271 | BS | MU-298 | 3 | 298R1-1R0 | VOLUME | Volume | SPECIMEN MEASUREMENT | 6 | mL | 6 | 6 | mL | RNA | 2 | 2010-04-01T11:50 |", "score": 0.58, "match_basis": "verbatim_token+domain_route:BE"}, {"md_atom_id": "md_dmBE_ex_a096", "md_file": "knowledge_base/domains/BE/examples.md", "md_atom_type": "TABLE_ROW", "md_parent_section": "§BE.2 [Example 2]", "md_verbatim": "| 5 | 3441271 | BS | MU-298 | 5 | 298R1-1R1 | VOLUME | Volume | SPECIMEN MEASUREMENT | 2 | mL | 2 | 2 | mL | RNA | 2 | 2010-04-01T11:50 |", "score": 0.58, "match_basis": "verbatim_token+domain_route:BE"}], "candidate_count": 5, "zero_candidate": false}
{"pdf_atom_id": "ig34_p0146_a004", "pdf_atom_type": "TABLE_ROW", "pdf_source": "SDTMIG_v3.4", "pdf_page": 146, "pdf_parent_section": "§6.2.2 [Biospecimen Events (BE)]", "pdf_verbatim": "| 2 | ABC134 | BS | 43871 | 2 | 267FF | 1148.267 | TEMP | Temperature | SPECIMEN HANDLING | -80 | C | -80 | | C | BRAIN | CEREBRAL AQUEDUCT | 1 | 2005-03-20 |", "figure_ref": null, "candidates": [{"md_atom_id": "md_dmBE_ex_a034", "md_file": "knowledge_base/domains/BE/examples.md", "md_atom_type": "TABLE_ROW", "md_parent_section": "§BE.1 [Example 1]", "md_verbatim": "| 2 | ABC134 | BS | 43871 | 2 | 267FF | 1148.267 | TEMP | Temperature | SPECIMEN HANDLING | -80 | C | -80 | -80 | C | BRAIN | CEREBRAL AQUEDUCT | 1 | 2005-03-20 |", "score": 1.0, "match_basis": "verbatim_token+domain_route:BE"}, {"md_atom_id": "md_dmBE_ex_a033", "md_file": "knowledge_base/domains/BE/examples.md", "md_atom_type": "TABLE_ROW", "md_parent_section": "§BE.1 [Example 1]", "md_verbatim": "| 1 | ABC134 | BS | 43871 | 1 | | 1148.267 | VOLUME | Volume | SPECIMEN MEASUREMENT | 2 | cm3 | 2 | | cm3 | BRAIN | CEREBRAL AQUEDUCT | 1 | 2005-03-20 |", "score": 0.7246, "match_basis": "verbatim_token+domain_route:BE"}, {"md_atom_id": "md_dmBE_ex_a035", "md_file": "knowledge_base/domains/BE/examples.md", "md_atom_type": "TABLE_ROW", "md_parent_section": "§BE.1 [Example 1]", "md_verbatim": "| 3 | ABC134 | BS | 43871 | 3 | 267FF | 1148.267 | FFRZMAT | Flash Freeze Material | SPECIMEN HANDLING | DRY ICE/ISOPROPANOL | | DRY ICE/ISOPROPANOL | | | BRAIN | CEREBRAL AQUEDUCT | 1 | 2005-03-20 |", "score": 0.7117, "match_basis": "verbatim_token+domain_route:BE"}, {"md_atom_id": "md_dmBE_ex_a023", "md_file": "knowledge_base/domains/BE/examples.md", "md_atom_type": "TABLE_ROW", "md_parent_section": "§BE.1 [Example 1]", "md_verbatim": "| 1 | ABC134 | BE | 43871 | BEREFID | 1148.267 | BESPEC | Specimen Type | TISSUE | CRF | |", "score": 0.5645, "match_basis": "verbatim_token+domain_route:BE"}, {"md_atom_id": "md_dmBE_ex_a016", "md_file": "knowledge_base/domains/BE/examples.md", "md_atom_type": "TABLE_ROW", "md_parent_section": "§BE.1 [Example 1]", "md_verbatim": "| 1 | ABC134 | BE | 43871 | TS409871 | 1 | 1148.267 | Collecting | COLLECTING | SITE | 01 | COLLECTION | BRAIN | 1 | BASELINE | 2005-03-20 | 2005-03-20T15:07 | |", "score": 0.5397, "match_basis": "verbatim_token+domain_route:BE"}], "candidate_count": 5, "zero_candidate": false}
{"pdf_atom_id": "ig34_p0146_a005", "pdf_atom_type": "TABLE_ROW", "pdf_source": "SDTMIG_v3.4", "pdf_page": 146, "pdf_parent_section": "§6.2.2 [Biospecimen Events (BE)]", "pdf_verbatim": "| 3 | ABC134 | BS | 43871 | 3 | 267FF | 1148.267 | FFRZMAT | Flash Freeze Material | SPECIMEN HANDLING | DRY ICE/ISOPOPANOL | | DRY ICE/ISOPOPANOL | | | BRAIN | CEREBRAL AQUEDUCT | 1 | 5-0 |", "figure_ref": null, "candidates": [{"md_atom_id": "md_dmBE_ex_a035", "md_file": "knowledge_base/domains/BE/examples.md", "md_atom_type": "TABLE_ROW", "md_parent_section": "§BE.1 [Example 1]", "md_verbatim": "| 3 | ABC134 | BS | 43871 | 3 | 267FF | 1148.267 | FFRZMAT | Flash Freeze Material | SPECIMEN HANDLING | DRY ICE/ISOPROPANOL | | DRY ICE/ISOPROPANOL | | | BRAIN | CEREBRAL AQUEDUCT | 1 | 2005-03-20 |", "score": 0.94, "match_basis": "verbatim_token+domain_route:BE"}, {"md_atom_id": "md_dmBE_ex_a034", "md_file": "knowledge_base/domains/BE/examples.md", "md_atom_type": "TABLE_ROW", "md_parent_section": "§BE.1 [Example 1]", "md_verbatim": "| 2 | ABC134 | BS | 43871 | 2 | 267FF | 1148.267 | TEMP | Temperature | SPECIMEN HANDLING | -80 | C | -80 | -80 | C | BRAIN | CEREBRAL AQUEDUCT | 1 | 2005-03-20 |", "score": 0.7, "match_basis": "verbatim_token+domain_route:BE"}, {"md_atom_id": "md_dmBE_ex_a033", "md_file": "knowledge_base/domains/BE/examples.md", "md_atom_type": "TABLE_ROW", "md_parent_section": "§BE.1 [Example 1]", "md_verbatim": "| 1 | ABC134 | BS | 43871 | 1 | | 1148.267 | VOLUME | Volume | SPECIMEN MEASUREMENT | 2 | cm3 | 2 | | cm3 | BRAIN | CEREBRAL AQUEDUCT | 1 | 2005-03-20 |", "score": 0.625, "match_basis": "verbatim_token+domain_route:BE"}, {"md_atom_id": "md_dmBE_ex_a023", "md_file": "knowledge_base/domains/BE/examples.md", "md_atom_type": "TABLE_ROW", "md_parent_section": "§BE.1 [Example 1]", "md_verbatim": "| 1 | ABC134 | BE | 43871 | BEREFID | 1148.267 | BESPEC | Specimen Type | TISSUE | CRF | |", "score": 0.5308, "match_basis": "verbatim_token+domain_route:BE"}, {"md_atom_id": "md_dmBE_ex_a017", "md_file": "knowledge_base/domains/BE/examples.md", "md_atom_type": "TABLE_ROW", "md_parent_section": "§BE.1 [Example 1]", "md_verbatim": "| 2 | ABC134 | BE | 43871 | | 2 | 1148.267 | Flash Freezing | FLASH FREEZING | SITE | 01 | PREPARATION | | 1 | BASELINE | 2005-03-20 | 2005-03-20T15:07 | 2005-03-20T15:09 |", "score": 0.5227, "match_basis": "verbatim_token+domain_route:BE"}], "candidate_count": 5, "zero_candidate": false}
{"pdf_atom_id": "ig34_p0146_a006", "pdf_atom_type": "SENTENCE", "pdf_source": "SDTMIG_v3.4", "pdf_page": 146, "pdf_parent_section": "§6.2.2 [Biospecimen Events (BE)]", "pdf_verbatim": "The Device Identifiers (DI) dataset (required with the use of SPDEVID) is not shown in this example.", "figure_ref": null, "candidates": [{"md_atom_id": "md_dmBE_ex_a036", "md_file": "knowledge_base/domains/BE/examples.md", "md_atom_type": "SENTENCE", "md_parent_section": "§BE.1 [Example 1]", "md_verbatim": "The Device Identifiers (DI) dataset (required with the use of SPDEVID) is not shown in this example.", "score": 1.0, "match_basis": "verbatim_token+domain_route:BE"}, {"md_atom_id": "md_dmBE_ex_a013", "md_file": "knowledge_base/domains/BE/examples.md", "md_atom_type": "SENTENCE", "md_parent_section": "§BE.1 [Example 1]", "md_verbatim": "The value in SPDEVID for this row identifies the shipping container.", "score": 0.5475, "match_basis": "verbatim_token+domain_route:BE"}, {"md_atom_id": "md_dmBE_ex_a056", "md_file": "knowledge_base/domains/BE/examples.md", "md_atom_type": "SENTENCE", "md_parent_section": "§BE.2 [Example 2]", "md_verbatim": "BESPDEVID holds the identifier for the purification kit.", "score": 0.5448, "match_basis": "verbatim_token+domain_route:BE"}, {"md_atom_id": "md_dmBE_ex_a100", "md_file": "knowledge_base/domains/BE/examples.md", "md_atom_type": "SENTENCE", "md_parent_section": "§BE.2 [Example 2]", "md_verbatim": "See GF datasets for examples of GF datasets.", "score": 0.5304, "match_basis": "verbatim_token+domain_route:BE"}, {"md_atom_id": "md_dmBE_ex_a010", "md_file": "knowledge_base/domains/BE/examples.md", "md_atom_type": "SENTENCE", "md_parent_section": "§BE.1 [Example 1]", "md_verbatim": "The value in SPDEVID for row 3 identifies the freezer in which the specimen is stored.", "score": 0.5292, "match_basis": "verbatim_token+domain_route:BE"}], "candidate_count": 5, "zero_candidate": false}
{"pdf_atom_id": "ig34_p0146_a007", "pdf_atom_type": "SENTENCE", "pdf_source": "SDTMIG_v3.4", "pdf_page": 146, "pdf_parent_section": "§6.2.2 [Biospecimen Events (BE)]", "pdf_verbatim": "RELREC relates the records in BE and BS to each other.", "figure_ref": null, "candidates": [{"md_atom_id": "md_dmBE_ex_a037", "md_file": "knowledge_base/domains/BE/examples.md", "md_atom_type": "SENTENCE", "md_parent_section": "§BE.1 [Example 1]", "md_verbatim": "RELREC relates the records in BE and BS to each other.", "score": 1.0, "match_basis": "verbatim_token+domain_route:BE"}, {"md_atom_id": "md_dmBE_ex_a040", "md_file": "knowledge_base/domains/BE/examples.md", "md_atom_type": "SENTENCE", "md_parent_section": "§BE.1 [Example 1]", "md_verbatim": "**relrec.xpt**", "score": 0.5263, "match_basis": "verbatim_token+domain_route:BE"}, {"md_atom_id": "md_dmBE_ex_a111", "md_file": "knowledge_base/domains/BE/examples.md", "md_atom_type": "SENTENCE", "md_parent_section": "§BE.2 [Example 2]", "md_verbatim": "**relrec.xpt**", "score": 0.5263, "match_basis": "verbatim_token+domain_route:BE"}, {"md_atom_id": "md_dmBE_ex_a011", "md_file": "knowledge_base/domains/BE/examples.md", "md_atom_type": "SENTENCE", "md_parent_section": "§BE.1 [Example 1]", "md_verbatim": "**Row 5:** Records the transportation of a biospecimen.", "score": 0.49, "match_basis": "verbatim_token+domain_route:BE"}, {"md_atom_id": "md_dmBE_ex_a006", "md_file": "knowledge_base/domains/BE/examples.md", "md_atom_type": "SENTENCE", "md_parent_section": "§BE.1 [Example 1]", "md_verbatim": "Such information is recorded in the BE domain.", "score": 0.4857, "match_basis": "verbatim_token+domain_route:BE"}], "candidate_count": 5, "zero_candidate": false}
{"pdf_atom_id": "ig34_p0146_a008", "pdf_atom_type": "SENTENCE", "pdf_source": "SDTMIG_v3.4", "pdf_page": 146, "pdf_parent_section": "§6.2.2 [Biospecimen Events (BE)]", "pdf_verbatim": "Rows 1-2:\tTie the specimen's volume to its collection, when the measurement was made.", "figure_ref": null, "candidates": [{"md_atom_id": "md_dmBE_ex_a038", "md_file": "knowledge_base/domains/BE/examples.md", "md_atom_type": "SENTENCE", "md_parent_section": "§BE.1 [Example 1]", "md_verbatim": "**Rows 1-2:** Tie the specimen's volume to its collection, when the measurement was made.", "score": 1.0, "match_basis": "verbatim_token+domain_route:BE"}, {"md_atom_id": "md_dmBE_ex_a007", "md_file": "knowledge_base/domains/BE/examples.md", "md_atom_type": "SENTENCE", "md_parent_section": "§BE.1 [Example 1]", "md_verbatim": "**Row 1:** Shows specimen collection.", "score": 0.6526, "match_basis": "verbatim_token+domain_route:BE"}, {"md_atom_id": "md_dmBE_ex_a029", "md_file": "knowledge_base/domains/BE/examples.md", "md_atom_type": "SENTENCE", "md_parent_section": "§BE.1 [Example 1]", "md_verbatim": "**Row 1:** Shows the volume of the biospecimen.", "score": 0.5902, "match_basis": "verbatim_token+domain_route:BE"}, {"md_atom_id": "md_dmBE_ex_a050", "md_file": "knowledge_base/domains/BE/examples.md", "md_atom_type": "SENTENCE", "md_parent_section": "§BE.2 [Example 2]", "md_verbatim": "**Row 1:** Shows the collection of the blood sample.", "score": 0.5467, "match_basis": "verbatim_token+domain_route:BE"}, {"md_atom_id": "md_dmBE_ex_a039", "md_file": "knowledge_base/domains/BE/examples.md", "md_atom_type": "SENTENCE", "md_parent_section": "§BE.1 [Example 1]", "md_verbatim": "**Rows 3-4:** Tie the temperature to which the specimen was flash frozen to the event of its occurrence.", "score": 0.5312, "match_basis": "verbatim_token+domain_route:BE"}], "candidate_count": 5, "zero_candidate": false}
{"pdf_atom_id": "ig34_p0146_a009", "pdf_atom_type": "SENTENCE", "pdf_source": "SDTMIG_v3.4", "pdf_page": 146, "pdf_parent_section": "§6.2.2 [Biospecimen Events (BE)]", "pdf_verbatim": "Rows 3-4:\tTie the temperature to which the specimen was flash frozen to the event of its occurrence.", "figure_ref": null, "candidates": [{"md_atom_id": "md_dmBE_ex_a039", "md_file": "knowledge_base/domains/BE/examples.md", "md_atom_type": "SENTENCE", "md_parent_section": "§BE.1 [Example 1]", "md_verbatim": "**Rows 3-4:** Tie the temperature to which the specimen was flash frozen to the event of its occurrence.", "score": 1.0, "match_basis": "verbatim_token+domain_route:BE"}, {"md_atom_id": "md_dmBE_ex_a038", "md_file": "knowledge_base/domains/BE/examples.md", "md_atom_type": "SENTENCE", "md_parent_section": "§BE.1 [Example 1]", "md_verbatim": "**Rows 1-2:** Tie the specimen's volume to its collection, when the measurement was made.", "score": 0.5312, "match_basis": "verbatim_token+domain_route:BE"}, {"md_atom_id": "md_dmBE_ex_a030", "md_file": "knowledge_base/domains/BE/examples.md", "md_atom_type": "SENTENCE", "md_parent_section": "§BE.1 [Example 1]", "md_verbatim": "**Rows 2-3:** Show the flash freeze temperature and material, associated via RELREC with BE row 2.", "score": 0.5304, "match_basis": "verbatim_token+domain_route:BE"}, {"md_atom_id": "md_dmBE_ex_a003", "md_file": "knowledge_base/domains/BE/examples.md", "md_atom_type": "SENTENCE", "md_parent_section": "§BE.1 [Example 1]", "md_verbatim": "In this example, a specimen is collected, flash frozen, thawed, and shipped to another location.", "score": 0.5105, "match_basis": "verbatim_token+domain_route:BE"}, {"md_atom_id": "md_dmBE_ex_a010", "md_file": "knowledge_base/domains/BE/examples.md", "md_atom_type": "SENTENCE", "md_parent_section": "§BE.1 [Example 1]", "md_verbatim": "The value in SPDEVID for row 3 identifies the freezer in which the specimen is stored.", "score": 0.5075, "match_basis": "verbatim_token+domain_route:BE"}], "candidate_count": 5, "zero_candidate": false}
{"pdf_atom_id": "ig34_p0146_a010", "pdf_atom_type": "CODE_LITERAL", "pdf_source": "SDTMIG_v3.4", "pdf_page": 146, "pdf_parent_section": "§6.2.2 [Biospecimen Events (BE)]", "pdf_verbatim": "relrec.xpt", "figure_ref": null, "candidates": [{"md_atom_id": "md_dmBE_ex_a040", "md_file": "knowledge_base/domains/BE/examples.md", "md_atom_type": "SENTENCE", "md_parent_section": "§BE.1 [Example 1]", "md_verbatim": "**relrec.xpt**", "score": 0.79, "match_basis": "verbatim_token+domain_route:BE"}, {"md_atom_id": "md_dmBE_ex_a111", "md_file": "knowledge_base/domains/BE/examples.md", "md_atom_type": "SENTENCE", "md_parent_section": "§BE.2 [Example 2]", "md_verbatim": "**relrec.xpt**", "score": 0.79, "match_basis": "verbatim_token+domain_route:BE"}, {"md_atom_id": "md_dmBE_ex_a102", "md_file": "knowledge_base/domains/BE/examples.md", "md_atom_type": "SENTENCE", "md_parent_section": "§BE.2 [Example 2]", "md_verbatim": "**relspec.xpt**", "score": 0.3233, "match_basis": "verbatim_token+domain_route:BE"}, {"md_atom_id": "md_dmBE_ex_a037", "md_file": "knowledge_base/domains/BE/examples.md", "md_atom_type": "SENTENCE", "md_parent_section": "§BE.1 [Example 1]", "md_verbatim": "RELREC relates the records in BE and BS to each other.", "score": 0.3163, "match_basis": "verbatim_token+domain_route:BE"}, {"md_atom_id": "md_dmBE_ex_a014", "md_file": "knowledge_base/domains/BE/examples.md", "md_atom_type": "SENTENCE", "md_parent_section": "§BE.1 [Example 1]", "md_verbatim": "**be.xpt**", "score": 0.31, "match_basis": "verbatim_token+domain_route:BE"}, {"md_atom_id": "md_dmBE_ex_a031", "md_file": "knowledge_base/domains/BE/examples.md", "md_atom_type": "SENTENCE", "md_parent_section": "§BE.1 [Example 1]", "md_verbatim": "**bs.xpt**", "score": 0.31, "match_basis": "verbatim_token+domain_route:BE"}, {"md_atom_id": "md_dmBE_ex_a061", "md_file": "knowledge_base/domains/BE/examples.md", "md_atom_type": "SENTENCE", "md_parent_section": "§BE.2 [Example 2]", "md_verbatim": "**be.xpt**", "score": 0.31, "match_basis": "verbatim_token+domain_route:BE"}, {"md_atom_id": "md_dmBE_ex_a090", "md_file": "knowledge_base/domains/BE/examples.md", "md_atom_type": "SENTENCE", "md_parent_section": "§BE.2 [Example 2]", "md_verbatim": "**bs.xpt**", "score": 0.31, "match_basis": "verbatim_token+domain_route:BE"}, {"md_atom_id": "md_dmBE_ex_a021", "md_file": "knowledge_base/domains/BE/examples.md", "md_atom_type": "SENTENCE", "md_parent_section": "§BE.1 [Example 1]", "md_verbatim": "**suppbe.xpt**", "score": 0.2567, "match_basis": "verbatim_token+domain_route:BE"}, {"md_atom_id": "md_dmBE_ex_a078", "md_file": "knowledge_base/domains/BE/examples.md", "md_atom_type": "SENTENCE", "md_parent_section": "§BE.2 [Example 2]", "md_verbatim": "**suppbe.xpt**", "score": 0.2567, "match_basis": "verbatim_token+domain_route:BE"}], "candidate_count": 10, "zero_candidate": false}
{"pdf_atom_id": "ig34_p0146_a011", "pdf_atom_type": "TABLE_HEADER", "pdf_source": "SDTMIG_v3.4", "pdf_page": 146, "pdf_parent_section": "§6.2.2 [Biospecimen Events (BE)]", "pdf_verbatim": "| Row | STUDYID | RDOMAIN | USUBJID | IDVAR | IDVARVAL | RELTYPE | RELID |", "figure_ref": null, "candidates": [{"md_atom_id": "md_dmBE_ex_a041", "md_file": "knowledge_base/domains/BE/examples.md", "md_atom_type": "TABLE_HEADER", "md_parent_section": "§BE.1 [Example 1]", "md_verbatim": "| Row | STUDYID | RDOMAIN | USUBJID | IDVAR | IDVARVAL | RELTYPE | RELID |\n|-----|---------|---------|---------|-------|----------|---------|-------|", "score": 1.0, "match_basis": "verbatim_token+domain_route:BE"}, {"md_atom_id": "md_dmBE_ex_a112", "md_file": "knowledge_base/domains/BE/examples.md", "md_atom_type": "TABLE_HEADER", "md_parent_section": "§BE.2 [Example 2]", "md_verbatim": "| Row | STUDYID | RDOMAIN | USUBJID | IDVAR | IDVARVAL | RELTYPE | RELID |\n|-----|---------|---------|---------|-------|----------|---------|-------|", "score": 1.0, "match_basis": "verbatim_token+domain_route:BE"}, {"md_atom_id": "md_dmBE_ex_a022", "md_file": "knowledge_base/domains/BE/examples.md", "md_atom_type": "TABLE_HEADER", "md_parent_section": "§BE.1 [Example 1]", "md_verbatim": "| Row | STUDYID | RDOMAIN | USUBJID | IDVAR | IDVARVAL | QNAM | QLABEL | QVAL | QORIG | QEVAL |\n|-----|---------|---------|---------|-------|----------|------|--------|------|-------|-------|", "score": 0.722, "match_basis": "verbatim_token+domain_route:BE"}, {"md_atom_id": "md_dmBE_ex_a079", "md_file": "knowledge_base/domains/BE/examples.md", "md_atom_type": "TABLE_HEADER", "md_parent_section": "§BE.2 [Example 2]", "md_verbatim": "| Row | STUDYID | RDOMAIN | USUBJID | IDVAR | IDVARVAL | QNAM | QLABEL | QVAL | QORIG | QEVAL |\n|-----|---------|---------|---------|-------|----------|------|--------|------|-------|-------|", "score": 0.722, "match_basis": "verbatim_token+domain_route:BE"}, {"md_atom_id": "md_dmBE_ex_a103", "md_file": "knowledge_base/domains/BE/examples.md", "md_atom_type": "TABLE_HEADER", "md_parent_section": "§BE.2 [Example 2]", "md_verbatim": "| Row | STUDYID | USUBJID | REFID | SPEC | PARENT | LEVEL |\n|-----|---------|---------|-------|------|--------|-------|", "score": 0.561, "match_basis": "verbatim_token+domain_route:BE"}], "candidate_count": 5, "zero_candidate": false}
{"pdf_atom_id": "ig34_p0146_a012", "pdf_atom_type": "TABLE_ROW", "pdf_source": "SDTMIG_v3.4", "pdf_page": 146, "pdf_parent_section": "§6.2.2 [Biospecimen Events (BE)]", "pdf_verbatim": "| 1 | ABC134 | BE | 43871 | BESEQ | | | 1 |", "figure_ref": null, "candidates": [{"md_atom_id": "md_dmBE_ex_a042", "md_file": "knowledge_base/domains/BE/examples.md", "md_atom_type": "TABLE_ROW", "md_parent_section": "§BE.1 [Example 1]", "md_verbatim": "| 1 | ABC134 | BE | 43871 | BESEQ | 1 | | 1 |", "score": 1.0, "match_basis": "verbatim_token+domain_route:BE"}, {"md_atom_id": "md_dmBE_ex_a044", "md_file": "knowledge_base/domains/BE/examples.md", "md_atom_type": "TABLE_ROW", "md_parent_section": "§BE.1 [Example 1]", "md_verbatim": "| 3 | ABC134 | BE | 43871 | BESEQ | 2 | | 2 |", "score": 1.0, "match_basis": "verbatim_token+domain_route:BE"}, {"md_atom_id": "md_dmBE_ex_a043", "md_file": "knowledge_base/domains/BE/examples.md", "md_atom_type": "TABLE_ROW", "md_parent_section": "§BE.1 [Example 1]", "md_verbatim": "| 2 | ABC134 | BS | 43871 | BSSEQ | 1 | | 1 |", "score": 0.8, "match_basis": "verbatim_token+domain_route:BE"}, {"md_atom_id": "md_dmBE_ex_a045", "md_file": "knowledge_base/domains/BE/examples.md", "md_atom_type": "TABLE_ROW", "md_parent_section": "§BE.1 [Example 1]", "md_verbatim": "| 4 | ABC134 | BS | 43871 | BSGRPID | 267FF | | 2 |", "score": 0.6333, "match_basis": "verbatim_token+domain_route:BE"}, {"md_atom_id": "md_dmBE_ex_a023", "md_file": "knowledge_base/domains/BE/examples.md", "md_atom_type": "TABLE_ROW", "md_parent_section": "§BE.1 [Example 1]", "md_verbatim": "| 1 | ABC134 | BE | 43871 | BEREFID | 1148.267 | BESPEC | Specimen Type | TISSUE | CRF | |", "score": 0.55, "match_basis": "verbatim_token+domain_route:BE"}], "candidate_count": 5, "zero_candidate": false}
{"pdf_atom_id": "ig34_p0146_a013", "pdf_atom_type": "TABLE_ROW", "pdf_source": "SDTMIG_v3.4", "pdf_page": 146, "pdf_parent_section": "§6.2.2 [Biospecimen Events (BE)]", "pdf_verbatim": "| 2 | ABC134 | BS | 43871 | BSSEQ | 1 | | 1 |", "figure_ref": null, "candidates": [{"md_atom_id": "md_dmBE_ex_a043", "md_file": "knowledge_base/domains/BE/examples.md", "md_atom_type": "TABLE_ROW", "md_parent_section": "§BE.1 [Example 1]", "md_verbatim": "| 2 | ABC134 | BS | 43871 | BSSEQ | 1 | | 1 |", "score": 1.0, "match_basis": "verbatim_token+domain_route:BE"}, {"md_atom_id": "md_dmBE_ex_a042", "md_file": "knowledge_base/domains/BE/examples.md", "md_atom_type": "TABLE_ROW", "md_parent_section": "§BE.1 [Example 1]", "md_verbatim": "| 1 | ABC134 | BE | 43871 | BESEQ | 1 | | 1 |", "score": 0.8, "match_basis": "verbatim_token+domain_route:BE"}, {"md_atom_id": "md_dmBE_ex_a044", "md_file": "knowledge_base/domains/BE/examples.md", "md_atom_type": "TABLE_ROW", "md_parent_section": "§BE.1 [Example 1]", "md_verbatim": "| 3 | ABC134 | BE | 43871 | BESEQ | 2 | | 2 |", "score": 0.8, "match_basis": "verbatim_token+domain_route:BE"}, {"md_atom_id": "md_dmBE_ex_a045", "md_file": "knowledge_base/domains/BE/examples.md", "md_atom_type": "TABLE_ROW", "md_parent_section": "§BE.1 [Example 1]", "md_verbatim": "| 4 | ABC134 | BS | 43871 | BSGRPID | 267FF | | 2 |", "score": 0.6333, "match_basis": "verbatim_token+domain_route:BE"}, {"md_atom_id": "md_dmBE_ex_a023", "md_file": "knowledge_base/domains/BE/examples.md", "md_atom_type": "TABLE_ROW", "md_parent_section": "§BE.1 [Example 1]", "md_verbatim": "| 1 | ABC134 | BE | 43871 | BEREFID | 1148.267 | BESPEC | Specimen Type | TISSUE | CRF | |", "score": 0.5273, "match_basis": "verbatim_token+domain_route:BE"}], "candidate_count": 5, "zero_candidate": false}
{"pdf_atom_id": "ig34_p0146_a014", "pdf_atom_type": "TABLE_ROW", "pdf_source": "SDTMIG_v3.4", "pdf_page": 146, "pdf_parent_section": "§6.2.2 [Biospecimen Events (BE)]", "pdf_verbatim": "| 3 | ABC134 | BE | 43871 | BESEQ | 2 | | 2 |", "figure_ref": null, "candidates": [{"md_atom_id": "md_dmBE_ex_a042", "md_file": "knowledge_base/domains/BE/examples.md", "md_atom_type": "TABLE_ROW", "md_parent_section": "§BE.1 [Example 1]", "md_verbatim": "| 1 | ABC134 | BE | 43871 | BESEQ | 1 | | 1 |", "score": 1.0, "match_basis": "verbatim_token+domain_route:BE"}, {"md_atom_id": "md_dmBE_ex_a044", "md_file": "knowledge_base/domains/BE/examples.md", "md_atom_type": "TABLE_ROW", "md_parent_section": "§BE.1 [Example 1]", "md_verbatim": "| 3 | ABC134 | BE | 43871 | BESEQ | 2 | | 2 |", "score": 1.0, "match_basis": "verbatim_token+domain_route:BE"}, {"md_atom_id": "md_dmBE_ex_a043", "md_file": "knowledge_base/domains/BE/examples.md", "md_atom_type": "TABLE_ROW", "md_parent_section": "§BE.1 [Example 1]", "md_verbatim": "| 2 | ABC134 | BS | 43871 | BSSEQ | 1 | | 1 |", "score": 0.8, "match_basis": "verbatim_token+domain_route:BE"}, {"md_atom_id": "md_dmBE_ex_a045", "md_file": "knowledge_base/domains/BE/examples.md", "md_atom_type": "TABLE_ROW", "md_parent_section": "§BE.1 [Example 1]", "md_verbatim": "| 4 | ABC134 | BS | 43871 | BSGRPID | 267FF | | 2 |", "score": 0.6333, "match_basis": "verbatim_token+domain_route:BE"}, {"md_atom_id": "md_dmBE_ex_a023", "md_file": "knowledge_base/domains/BE/examples.md", "md_atom_type": "TABLE_ROW", "md_parent_section": "§BE.1 [Example 1]", "md_verbatim": "| 1 | ABC134 | BE | 43871 | BEREFID | 1148.267 | BESPEC | Specimen Type | TISSUE | CRF | |", "score": 0.55, "match_basis": "verbatim_token+domain_route:BE"}], "candidate_count": 5, "zero_candidate": false}
{"pdf_atom_id": "ig34_p0146_a015", "pdf_atom_type": "TABLE_ROW", "pdf_source": "SDTMIG_v3.4", "pdf_page": 146, "pdf_parent_section": "§6.2.2 [Biospecimen Events (BE)]", "pdf_verbatim": "| 4 | ABC134 | BS | 43871 | BSGRPID | 267FF | | 2 |", "figure_ref": null, "candidates": [{"md_atom_id": "md_dmBE_ex_a045", "md_file": "knowledge_base/domains/BE/examples.md", "md_atom_type": "TABLE_ROW", "md_parent_section": "§BE.1 [Example 1]", "md_verbatim": "| 4 | ABC134 | BS | 43871 | BSGRPID | 267FF | | 2 |", "score": 1.0, "match_basis": "verbatim_token+domain_route:BE"}, {"md_atom_id": "md_dmBE_ex_a042", "md_file": "knowledge_base/domains/BE/examples.md", "md_atom_type": "TABLE_ROW", "md_parent_section": "§BE.1 [Example 1]", "md_verbatim": "| 1 | ABC134 | BE | 43871 | BESEQ | 1 | | 1 |", "score": 0.6333, "match_basis": "verbatim_token+domain_route:BE"}, {"md_atom_id": "md_dmBE_ex_a043", "md_file": "knowledge_base/domains/BE/examples.md", "md_atom_type": "TABLE_ROW", "md_parent_section": "§BE.1 [Example 1]", "md_verbatim": "| 2 | ABC134 | BS | 43871 | BSSEQ | 1 | | 1 |", "score": 0.6333, "match_basis": "verbatim_token+domain_route:BE"}, {"md_atom_id": "md_dmBE_ex_a044", "md_file": "knowledge_base/domains/BE/examples.md", "md_atom_type": "TABLE_ROW", "md_parent_section": "§BE.1 [Example 1]", "md_verbatim": "| 3 | ABC134 | BE | 43871 | BESEQ | 2 | | 2 |", "score": 0.6333, "match_basis": "verbatim_token+domain_route:BE"}, {"md_atom_id": "md_dmBE_ex_a023", "md_file": "knowledge_base/domains/BE/examples.md", "md_atom_type": "TABLE_ROW", "md_parent_section": "§BE.1 [Example 1]", "md_verbatim": "| 1 | ABC134 | BE | 43871 | BEREFID | 1148.267 | BESPEC | Specimen Type | TISSUE | CRF | |", "score": 0.5297, "match_basis": "verbatim_token+domain_route:BE"}], "candidate_count": 5, "zero_candidate": false}
{"pdf_atom_id": "ig34_p0146_a016", "pdf_atom_type": "HEADING", "pdf_source": "SDTMIG_v3.4", "pdf_page": 146, "pdf_parent_section": "§6.2.2 [Biospecimen Events (BE)]", "pdf_verbatim": "Example 2", "figure_ref": null, "candidates": [{"md_atom_id": "md_dmBE_ex_a002", "md_file": "knowledge_base/domains/BE/examples.md", "md_atom_type": "HEADING", "md_parent_section": "§BE.1 [Example 1]", "md_verbatim": "## Example 1", "score": 1.0, "match_basis": "verbatim_token+domain_route:BE"}, {"md_atom_id": "md_dmBE_ex_a046", "md_file": "knowledge_base/domains/BE/examples.md", "md_atom_type": "HEADING", "md_parent_section": "§BE.2 [Example 2]", "md_verbatim": "## Example 2", "score": 1.0, "match_basis": "verbatim_token+domain_route:BE"}, {"md_atom_id": "md_dmBE_ex_a001", "md_file": "knowledge_base/domains/BE/examples.md", "md_atom_type": "HEADING", "md_parent_section": "§BE [BE — Examples]", "md_verbatim": "# BE — Examples", "score": 0.9, "match_basis": "verbatim_token+domain_route:BE"}, {"md_atom_id": "md_dmBE_assn_a001", "md_file": "knowledge_base/domains/BE/assumptions.md", "md_atom_type": "HEADING", "md_parent_section": "§BE [BE — Assumptions]", "md_verbatim": "# BE — Assumptions", "score": 0.4, "match_basis": "verbatim_token+domain_route:BE"}], "candidate_count": 4, "zero_candidate": false}
{"pdf_atom_id": "ig34_p0146_a017", "pdf_atom_type": "SENTENCE", "pdf_source": "SDTMIG_v3.4", "pdf_page": 146, "pdf_parent_section": "§6.2.2 [Biospecimen Events (BE)]", "pdf_verbatim": "Cell-free RNA, which can be obtained from plasma, may be useful for some tumor-specific cancer detection,[1] but has poor integrity.[2]In this example, a blood sample was drawn, centrifuged to get plasma, and stored in a pretreated container before being shipped to the lab. The lab then extracted and purified RNA from the plasma, divided the RNA into 3 aliquots, and sequenced 1 aliquot immediately while freezing and storing the other 2 for later use.", "figure_ref": null, "candidates": [{"md_atom_id": "md_dmBE_ex_a049", "md_file": "knowledge_base/domains/BE/examples.md", "md_atom_type": "SENTENCE", "md_parent_section": "§BE.2 [Example 2]", "md_verbatim": "The lab then extracted and purified RNA from the plasma, divided the RNA into 3 aliquots, and sequenced 1 aliquot immediately while freezing and storing the other 2 for later use.", "score": 0.6683, "match_basis": "verbatim_token+domain_route:BE"}, {"md_atom_id": "md_dmBE_ex_a048", "md_file": "knowledge_base/domains/BE/examples.md", "md_atom_type": "SENTENCE", "md_parent_section": "§BE.2 [Example 2]", "md_verbatim": "In this example, a blood sample was drawn, centrifuged to get plasma, and stored in a pretreated container before being shipped to the lab.", "score": 0.6311, "match_basis": "verbatim_token+domain_route:BE"}, {"md_atom_id": "md_dmBE_ex_a047", "md_file": "knowledge_base/domains/BE/examples.md", "md_atom_type": "SENTENCE", "md_parent_section": "§BE.2 [Example 2]", "md_verbatim": "Cell-free RNA, which can be obtained from plasma, may be useful for some tumor-specific cancer detection, but has poor integrity.", "score": 0.6199, "match_basis": "verbatim_token+domain_route:BE"}, {"md_atom_id": "md_dmBE_ex_a055", "md_file": "knowledge_base/domains/BE/examples.md", "md_atom_type": "SENTENCE", "md_parent_section": "§BE.2 [Example 2]", "md_verbatim": "**Row 4:** Shows the extraction of the RNA, which includes purification and quality control testing to make sure the sample is of a high enough quality to be viable.", "score": 0.4883, "match_basis": "verbatim_token+domain_route:BE"}, {"md_atom_id": "md_dmBE_ex_a003", "md_file": "knowledge_base/domains/BE/examples.md", "md_atom_type": "SENTENCE", "md_parent_section": "§BE.1 [Example 1]", "md_verbatim": "In this example, a specimen is collected, flash frozen, thawed, and shipped to another location.", "score": 0.4852, "match_basis": "verbatim_token+domain_route:BE"}], "candidate_count": 5, "zero_candidate": false}
{"pdf_atom_id": "ig34_p0146_a018", "pdf_atom_type": "LIST_ITEM", "pdf_source": "SDTMIG_v3.4", "pdf_page": 146, "pdf_parent_section": "§6.2.2 [Biospecimen Events (BE)]", "pdf_verbatim": "Row 1:\tShows the collection of the blood sample.", "figure_ref": null, "candidates": [{"md_atom_id": "md_dmBE_ex_a050", "md_file": "knowledge_base/domains/BE/examples.md", "md_atom_type": "SENTENCE", "md_parent_section": "§BE.2 [Example 2]", "md_verbatim": "**Row 1:** Shows the collection of the blood sample.", "score": 0.91, "match_basis": "verbatim_token+domain_route:BE"}, {"md_atom_id": "md_dmBE_ex_a086", "md_file": "knowledge_base/domains/BE/examples.md", "md_atom_type": "SENTENCE", "md_parent_section": "§BE.2 [Example 2]", "md_verbatim": "**Row 1:** Shows the volume of the blood sample.", "score": 0.61, "match_basis": "verbatim_token+domain_route:BE"}, {"md_atom_id": "md_dmBE_ex_a007", "md_file": "knowledge_base/domains/BE/examples.md", "md_atom_type": "SENTENCE", "md_parent_section": "§BE.1 [Example 1]", "md_verbatim": "**Row 1:** Shows specimen collection.", "score": 0.5869, "match_basis": "verbatim_token+domain_route:BE"}, {"md_atom_id": "md_dmBE_ex_a087", "md_file": "knowledge_base/domains/BE/examples.md", "md_atom_type": "SENTENCE", "md_parent_section": "§BE.2 [Example 2]", "md_verbatim": "**Row 2:** Shows the volume of the plasma sample.", "score": 0.5029, "match_basis": "verbatim_token+domain_route:BE"}, {"md_atom_id": "md_dmBE_ex_a088", "md_file": "knowledge_base/domains/BE/examples.md", "md_atom_type": "SENTENCE", "md_parent_section": "§BE.2 [Example 2]", "md_verbatim": "**Rows 3-4:** Show the volume and purity (integrity) of the RNA sample.", "score": 0.4643, "match_basis": "verbatim_token+domain_route:BE"}], "candidate_count": 5, "zero_candidate": false}
{"pdf_atom_id": "ig34_p0146_a019", "pdf_atom_type": "LIST_ITEM", "pdf_source": "SDTMIG_v3.4", "pdf_page": 146, "pdf_parent_section": "§6.2.2 [Biospecimen Events (BE)]", "pdf_verbatim": "Row 2:\tShows the extraction of the plasma via centrifuge. BESPDEVID holds the identifier for the container into which the plasma is placed. (Not shown: any preservatives with which the container comes pretreated, which would be stored in the Device Properties (DO) domain.)", "figure_ref": null, "candidates": [{"md_atom_id": "md_dmBE_ex_a053", "md_file": "knowledge_base/domains/BE/examples.md", "md_atom_type": "SENTENCE", "md_parent_section": "§BE.2 [Example 2]", "md_verbatim": "(Not shown: any preservatives with which the container comes pretreated, which would be stored in the Device Properties (DO) domain.)", "score": 0.6586, "match_basis": "verbatim_token+domain_route:BE"}, {"md_atom_id": "md_dmBE_ex_a052", "md_file": "knowledge_base/domains/BE/examples.md", "md_atom_type": "SENTENCE", "md_parent_section": "§BE.2 [Example 2]", "md_verbatim": "BESPDEVID holds the identifier for the container into which the plasma is placed.", "score": 0.5329, "match_basis": "verbatim_token+domain_route:BE"}, {"md_atom_id": "md_dmBE_assn_a003", "md_file": "knowledge_base/domains/BE/assumptions.md", "md_atom_type": "LIST_ITEM", "md_parent_section": "§BE [BE — Assumptions]", "md_verbatim": "2. The value in BEREFID identifies the specimen most affected by the event. For aliquoting, this would be the child specimen(s) created by the event, rather than the parent specimen. BEREFID should not contain any identifiers other than specimen IDs.", "score": 0.5013, "match_basis": "verbatim_token+domain_route:BE"}, {"md_atom_id": "md_dmBE_assn_a009", "md_file": "knowledge_base/domains/BE/assumptions.md", "md_atom_type": "LIST_ITEM", "md_parent_section": "§BE [BE — Assumptions]", "md_verbatim": "   b. Unlike other Events domains, BEDTC does not hold the date/time of data collection. Instead, it holds the date/time of specimen collection, in alignment with the use of --DTC for specimen-related findings. BEDTC values for extracted or otherwise derived specimens are copied from that of the parent specimen.", "score": 0.4809, "match_basis": "verbatim_token+domain_route:BE"}, {"md_atom_id": "md_dmBE_assn_a005", "md_file": "knowledge_base/domains/BE/assumptions.md", "md_atom_type": "LIST_ITEM", "md_parent_section": "§BE [BE — Assumptions]", "md_verbatim": "4. BEPARTY and BEPRTYID together identify the individual or organization that takes responsibility for the biospecimen as a result of the action in BETERM. For example, if BETERM is COLLECTED, BEPARTY would be a general term defining the type of responsible party, such as SITE, and BEPRTYID would contain the site identifier, such as 02. If BEPARTY is sufficient to uniquely identify the party (such as SPONSOR in a single-sponsor study), then BEPRTYID may be null.", "score": 0.4764, "match_basis": "verbatim_token+domain_route:BE"}], "candidate_count": 5, "zero_candidate": false}
{"pdf_atom_id": "ig34_p0146_a020", "pdf_atom_type": "LIST_ITEM", "pdf_source": "SDTMIG_v3.4", "pdf_page": 146, "pdf_parent_section": "§6.2.2 [Biospecimen Events (BE)]", "pdf_verbatim": "Row 3:\tShows the transportation of the plasma from the site to the lab.", "figure_ref": null, "candidates": [{"md_atom_id": "md_dmBE_ex_a054", "md_file": "knowledge_base/domains/BE/examples.md", "md_atom_type": "SENTENCE", "md_parent_section": "§BE.2 [Example 2]", "md_verbatim": "**Row 3:** Shows the transportation of the plasma from the site to the lab.", "score": 0.91, "match_basis": "verbatim_token+domain_route:BE"}, {"md_atom_id": "md_dmBE_ex_a011", "md_file": "knowledge_base/domains/BE/examples.md", "md_atom_type": "SENTENCE", "md_parent_section": "§BE.1 [Example 1]", "md_verbatim": "**Row 5:** Records the transportation of a biospecimen.", "score": 0.52, "match_basis": "verbatim_token+domain_route:BE"}, {"md_atom_id": "md_dmBE_ex_a051", "md_file": "knowledge_base/domains/BE/examples.md", "md_atom_type": "SENTENCE", "md_parent_section": "§BE.2 [Example 2]", "md_verbatim": "**Row 2:** Shows the extraction of the plasma via centrifuge.", "score": 0.49, "match_basis": "verbatim_token+domain_route:BE"}, {"md_atom_id": "md_dmBE_ex_a087", "md_file": "knowledge_base/domains/BE/examples.md", "md_atom_type": "SENTENCE", "md_parent_section": "§BE.2 [Example 2]", "md_verbatim": "**Row 2:** Shows the volume of the plasma sample.", "score": 0.4688, "match_basis": "verbatim_token+domain_route:BE"}, {"md_atom_id": "md_dmBE_assn_a002", "md_file": "knowledge_base/domains/BE/assumptions.md", "md_atom_type": "LIST_ITEM", "md_parent_section": "§BE [BE — Assumptions]", "md_verbatim": "1. The BE domain contains data about actions taken that affect or may affect a specimen, such as specimen collection, freezing and thawing, aliquoting, and transportation. This domain is intended to be applicable to any specimen tracking data, regardless of the reason for specimen collection.", "score": 0.4672, "match_basis": "verbatim_token+domain_route:BE"}], "candidate_count": 5, "zero_candidate": false}
{"pdf_atom_id": "ig34_p0146_a021", "pdf_atom_type": "LIST_ITEM", "pdf_source": "SDTMIG_v3.4", "pdf_page": 146, "pdf_parent_section": "§6.2.2 [Biospecimen Events (BE)]", "pdf_verbatim": "Row 4:\tShows the extraction of the RNA, which includes purification and quality control testing to make sure the sample is of a high enough quality to be viable. BESPDEVID holds the identifier for the purification kit.", "figure_ref": null, "candidates": [{"md_atom_id": "md_dmBE_ex_a055", "md_file": "knowledge_base/domains/BE/examples.md", "md_atom_type": "SENTENCE", "md_parent_section": "§BE.2 [Example 2]", "md_verbatim": "**Row 4:** Shows the extraction of the RNA, which includes purification and quality control testing to make sure the sample is of a high enough quality to be viable.", "score": 0.7743, "match_basis": "verbatim_token+domain_route:BE"}, {"md_atom_id": "md_dmBE_ex_a056", "md_file": "knowledge_base/domains/BE/examples.md", "md_atom_type": "SENTENCE", "md_parent_section": "§BE.2 [Example 2]", "md_verbatim": "BESPDEVID holds the identifier for the purification kit.", "score": 0.5243, "match_basis": "verbatim_token+domain_route:BE"}, {"md_atom_id": "md_dmBE_assn_a005", "md_file": "knowledge_base/domains/BE/assumptions.md", "md_atom_type": "LIST_ITEM", "md_parent_section": "§BE [BE — Assumptions]", "md_verbatim": "4. BEPARTY and BEPRTYID together identify the individual or organization that takes responsibility for the biospecimen as a result of the action in BETERM. For example, if BETERM is COLLECTED, BEPARTY would be a general term defining the type of responsible party, such as SITE, and BEPRTYID would contain the site identifier, such as 02. If BEPARTY is sufficient to uniquely identify the party (such as SPONSOR in a single-sponsor study), then BEPRTYID may be null.", "score": 0.4914, "match_basis": "verbatim_token+domain_route:BE"}, {"md_atom_id": "md_dmBE_assn_a002", "md_file": "knowledge_base/domains/BE/assumptions.md", "md_atom_type": "LIST_ITEM", "md_parent_section": "§BE [BE — Assumptions]", "md_verbatim": "1. The BE domain contains data about actions taken that affect or may affect a specimen, such as specimen collection, freezing and thawing, aliquoting, and transportation. This domain is intended to be applicable to any specimen tracking data, regardless of the reason for specimen collection.", "score": 0.4679, "match_basis": "verbatim_token+domain_route:BE"}, {"md_atom_id": "md_dmBE_assn_a003", "md_file": "knowledge_base/domains/BE/assumptions.md", "md_atom_type": "LIST_ITEM", "md_parent_section": "§BE [BE — Assumptions]", "md_verbatim": "2. The value in BEREFID identifies the specimen most affected by the event. For aliquoting, this would be the child specimen(s) created by the event, rather than the parent specimen. BEREFID should not contain any identifiers other than specimen IDs.", "score": 0.4671, "match_basis": "verbatim_token+domain_route:BE"}], "candidate_count": 5, "zero_candidate": false}
{"pdf_atom_id": "ig34_p0146_a022", "pdf_atom_type": "LIST_ITEM", "pdf_source": "SDTMIG_v3.4", "pdf_page": 146, "pdf_parent_section": "§6.2.2 [Biospecimen Events (BE)]", "pdf_verbatim": "Rows 5-7:\tShow the aliquoting of the RNA.", "figure_ref": null, "candidates": [{"md_atom_id": "md_dmBE_ex_a057", "md_file": "knowledge_base/domains/BE/examples.md", "md_atom_type": "SENTENCE", "md_parent_section": "§BE.2 [Example 2]", "md_verbatim": "**Rows 5-7:** Show the aliquoting of the RNA.", "score": 0.91, "match_basis": "verbatim_token+domain_route:BE"}, {"md_atom_id": "md_dmBE_ex_a089", "md_file": "knowledge_base/domains/BE/examples.md", "md_atom_type": "SENTENCE", "md_parent_section": "§BE.2 [Example 2]", "md_verbatim": "**Rows 5-7:** Show the volumes of the RNA aliquots.", "score": 0.64, "match_basis": "verbatim_token+domain_route:BE"}, {"md_atom_id": "md_dmBE_ex_a058", "md_file": "knowledge_base/domains/BE/examples.md", "md_atom_type": "SENTENCE", "md_parent_section": "§BE.2 [Example 2]", "md_verbatim": "**Row 8:** Shows the sequencing of the first RNA aliquot.", "score": 0.61, "match_basis": "verbatim_token+domain_route:BE"}, {"md_atom_id": "md_dmBE_ex_a060", "md_file": "knowledge_base/domains/BE/examples.md", "md_atom_type": "SENTENCE", "md_parent_section": "§BE.2 [Example 2]", "md_verbatim": "**Rows 9-10:** Show the freezing of the second and third RNA aliquots.", "score": 0.5671, "match_basis": "verbatim_token+domain_route:BE"}, {"md_atom_id": "md_dmBE_assn_a003", "md_file": "knowledge_base/domains/BE/assumptions.md", "md_atom_type": "LIST_ITEM", "md_parent_section": "§BE [BE — Assumptions]", "md_verbatim": "2. The value in BEREFID identifies the specimen most affected by the event. For aliquoting, this would be the child specimen(s) created by the event, rather than the parent specimen. BEREFID should not contain any identifiers other than specimen IDs.", "score": 0.4759, "match_basis": "verbatim_token+domain_route:BE"}], "candidate_count": 5, "zero_candidate": false}
{"pdf_atom_id": "ig34_p0146_a023", "pdf_atom_type": "LIST_ITEM", "pdf_source": "SDTMIG_v3.4", "pdf_page": 146, "pdf_parent_section": "§6.2.2 [Biospecimen Events (BE)]", "pdf_verbatim": "Row 8:\tShows the sequencing of the first RNA aliquot. (Not shown: results from sequencing, which would be stored in the Pharmacogenomics Findings (PF) domain.)", "figure_ref": null, "candidates": [{"md_atom_id": "md_dmBE_ex_a059", "md_file": "knowledge_base/domains/BE/examples.md", "md_atom_type": "SENTENCE", "md_parent_section": "§BE.2 [Example 2]", "md_verbatim": "(Not shown: results from sequencing, which would be stored in the Pharmacogenomics Findings (PF) domain.)", "score": 0.8069, "match_basis": "verbatim_token+domain_route:BE"}, {"md_atom_id": "md_dmBE_ex_a099", "md_file": "knowledge_base/domains/BE/examples.md", "md_atom_type": "SENTENCE", "md_parent_section": "§BE.2 [Example 2]", "md_verbatim": "The results from the sequencing procedure are stored in the PF domain, which is not shown in this example.", "score": 0.5454, "match_basis": "verbatim_token+domain_route:BE"}, {"md_atom_id": "md_dmBE_ex_a058", "md_file": "knowledge_base/domains/BE/examples.md", "md_atom_type": "SENTENCE", "md_parent_section": "§BE.2 [Example 2]", "md_verbatim": "**Row 8:** Shows the sequencing of the first RNA aliquot.", "score": 0.5162, "match_basis": "verbatim_token+domain_route:BE"}, {"md_atom_id": "md_dmBE_assn_a003", "md_file": "knowledge_base/domains/BE/assumptions.md", "md_atom_type": "LIST_ITEM", "md_parent_section": "§BE [BE — Assumptions]", "md_verbatim": "2. The value in BEREFID identifies the specimen most affected by the event. For aliquoting, this would be the child specimen(s) created by the event, rather than the parent specimen. BEREFID should not contain any identifiers other than specimen IDs.", "score": 0.4619, "match_basis": "verbatim_token+domain_route:BE"}, {"md_atom_id": "md_dmBE_assn_a009", "md_file": "knowledge_base/domains/BE/assumptions.md", "md_atom_type": "LIST_ITEM", "md_parent_section": "§BE [BE — Assumptions]", "md_verbatim": "   b. Unlike other Events domains, BEDTC does not hold the date/time of data collection. Instead, it holds the date/time of specimen collection, in alignment with the use of --DTC for specimen-related findings. BEDTC values for extracted or otherwise derived specimens are copied from that of the parent specimen.", "score": 0.4616, "match_basis": "verbatim_token+domain_route:BE"}], "candidate_count": 5, "zero_candidate": false}
{"pdf_atom_id": "ig34_p0146_a024", "pdf_atom_type": "LIST_ITEM", "pdf_source": "SDTMIG_v3.4", "pdf_page": 146, "pdf_parent_section": "§6.2.2 [Biospecimen Events (BE)]", "pdf_verbatim": "Rows 9-10:\tShow the freezing of the second and third RNA aliquots.", "figure_ref": null, "candidates": [{"md_atom_id": "md_dmBE_ex_a060", "md_file": "knowledge_base/domains/BE/examples.md", "md_atom_type": "SENTENCE", "md_parent_section": "§BE.2 [Example 2]", "md_verbatim": "**Rows 9-10:** Show the freezing of the second and third RNA aliquots.", "score": 0.91, "match_basis": "verbatim_token+domain_route:BE"}, {"md_atom_id": "md_dmBE_ex_a057", "md_file": "knowledge_base/domains/BE/examples.md", "md_atom_type": "SENTENCE", "md_parent_section": "§BE.2 [Example 2]", "md_verbatim": "**Rows 5-7:** Show the aliquoting of the RNA.", "score": 0.5671, "match_basis": "verbatim_token+domain_route:BE"}, {"md_atom_id": "md_dmBE_ex_a089", "md_file": "knowledge_base/domains/BE/examples.md", "md_atom_type": "SENTENCE", "md_parent_section": "§BE.2 [Example 2]", "md_verbatim": "**Rows 5-7:** Show the volumes of the RNA aliquots.", "score": 0.5423, "match_basis": "verbatim_token+domain_route:BE"}, {"md_atom_id": "md_dmBE_ex_a058", "md_file": "knowledge_base/domains/BE/examples.md", "md_atom_type": "SENTENCE", "md_parent_section": "§BE.2 [Example 2]", "md_verbatim": "**Row 8:** Shows the sequencing of the first RNA aliquot.", "score": 0.51, "match_basis": "verbatim_token+domain_route:BE"}, {"md_atom_id": "md_dmBE_assn_a002", "md_file": "knowledge_base/domains/BE/assumptions.md", "md_atom_type": "LIST_ITEM", "md_parent_section": "§BE [BE — Assumptions]", "md_verbatim": "1. The BE domain contains data about actions taken that affect or may affect a specimen, such as specimen collection, freezing and thawing, aliquoting, and transportation. This domain is intended to be applicable to any specimen tracking data, regardless of the reason for specimen collection.", "score": 0.4789, "match_basis": "verbatim_token+domain_route:BE"}], "candidate_count": 5, "zero_candidate": false}
{"pdf_atom_id": "ig34_p0146_a025", "pdf_atom_type": "CODE_LITERAL", "pdf_source": "SDTMIG_v3.4", "pdf_page": 146, "pdf_parent_section": "§6.2.2 [Biospecimen Events (BE)]", "pdf_verbatim": "be.xpt", "figure_ref": null, "candidates": [{"md_atom_id": "md_dmBE_ex_a014", "md_file": "knowledge_base/domains/BE/examples.md", "md_atom_type": "SENTENCE", "md_parent_section": "§BE.1 [Example 1]", "md_verbatim": "**be.xpt**", "score": 0.79, "match_basis": "verbatim_token+domain_route:BE"}, {"md_atom_id": "md_dmBE_ex_a031", "md_file": "knowledge_base/domains/BE/examples.md", "md_atom_type": "SENTENCE", "md_parent_section": "§BE.1 [Example 1]", "md_verbatim": "**bs.xpt**", "score": 0.79, "match_basis": "verbatim_token+domain_route:BE"}, {"md_atom_id": "md_dmBE_ex_a061", "md_file": "knowledge_base/domains/BE/examples.md", "md_atom_type": "SENTENCE", "md_parent_section": "§BE.2 [Example 2]", "md_verbatim": "**be.xpt**", "score": 0.79, "match_basis": "verbatim_token+domain_route:BE"}, {"md_atom_id": "md_dmBE_ex_a090", "md_file": "knowledge_base/domains/BE/examples.md", "md_atom_type": "SENTENCE", "md_parent_section": "§BE.2 [Example 2]", "md_verbatim": "**bs.xpt**", "score": 0.79, "match_basis": "verbatim_token+domain_route:BE"}, {"md_atom_id": "md_dmBE_ex_a021", "md_file": "knowledge_base/domains/BE/examples.md", "md_atom_type": "SENTENCE", "md_parent_section": "§BE.1 [Example 1]", "md_verbatim": "**suppbe.xpt**", "score": 0.31, "match_basis": "verbatim_token+domain_route:BE"}, {"md_atom_id": "md_dmBE_ex_a040", "md_file": "knowledge_base/domains/BE/examples.md", "md_atom_type": "SENTENCE", "md_parent_section": "§BE.1 [Example 1]", "md_verbatim": "**relrec.xpt**", "score": 0.31, "match_basis": "verbatim_token+domain_route:BE"}, {"md_atom_id": "md_dmBE_ex_a078", "md_file": "knowledge_base/domains/BE/examples.md", "md_atom_type": "SENTENCE", "md_parent_section": "§BE.2 [Example 2]", "md_verbatim": "**suppbe.xpt**", "score": 0.31, "match_basis": "verbatim_token+domain_route:BE"}, {"md_atom_id": "md_dmBE_ex_a111", "md_file": "knowledge_base/domains/BE/examples.md", "md_atom_type": "SENTENCE", "md_parent_section": "§BE.2 [Example 2]", "md_verbatim": "**relrec.xpt**", "score": 0.31, "match_basis": "verbatim_token+domain_route:BE"}, {"md_atom_id": "md_dmBE_ex_a102", "md_file": "knowledge_base/domains/BE/examples.md", "md_atom_type": "SENTENCE", "md_parent_section": "§BE.2 [Example 2]", "md_verbatim": "**relspec.xpt**", "score": 0.29, "match_basis": "verbatim_token+domain_route:BE"}, {"md_atom_id": "md_dmBE_assn_a001", "md_file": "knowledge_base/domains/BE/assumptions.md", "md_atom_type": "HEADING", "md_parent_section": "§BE [BE — Assumptions]", "md_verbatim": "# BE — Assumptions", "score": 0.19, "match_basis": "verbatim_token+domain_route:BE"}], "candidate_count": 10, "zero_candidate": false}
{"pdf_atom_id": "ig34_p0146_a026", "pdf_atom_type": "TABLE_HEADER", "pdf_source": "SDTMIG_v3.4", "pdf_page": 146, "pdf_parent_section": "§6.2.2 [Biospecimen Events (BE)]", "pdf_verbatim": "| Row | STUDYID | DOMAIN | USUBJID | SPDEVID | BESEQ | BEREFID | BETERM | BEDECOD | BEPARTY | BEPRTYID | BECAT | VISITNUM | BEDTC | BESTDTC | BEENDTC |", "figure_ref": null, "candidates": [{"md_atom_id": "md_dmBE_ex_a062", "md_file": "knowledge_base/domains/BE/examples.md", "md_atom_type": "TABLE_HEADER", "md_parent_section": "§BE.2 [Example 2]", "md_verbatim": "| Row | STUDYID | DOMAIN | USUBJID | SPDEVID | BESEQ | BEREFID | BETERM | BEDECOD | BEPARTY | BEPRTYID | BECAT | VISITNUM | BEDTC | BESTDTC | BEENDTC |\n|-----|---------|--------|---------|---------|-------|---------|--------|---------|---------|----------|-------|----------|-------|---------|---------|", "score": 1.0, "match_basis": "verbatim_token+domain_route:BE"}, {"md_atom_id": "md_dmBE_ex_a015", "md_file": "knowledge_base/domains/BE/examples.md", "md_atom_type": "TABLE_HEADER", "md_parent_section": "§BE.1 [Example 1]", "md_verbatim": "| Row | STUDYID | DOMAIN | USUBJID | SPDEVID | BESEQ | BEREFID | BETERM | BEDECOD | BEPARTY | BEPRTYID | BECAT | BELOC | VISITNUM | VISIT | BEDTC | BESTDTC | BEENDTC |\n|-----|---------|--------|---------|---------|-------|---------|--------|---------|---------|----------|-------|-------|----------|-------|-------|---------|---------|", "score": 0.9727, "match_basis": "verbatim_token+domain_route:BE"}, {"md_atom_id": "md_dmBE_ex_a091", "md_file": "knowledge_base/domains/BE/examples.md", "md_atom_type": "TABLE_HEADER", "md_parent_section": "§BE.2 [Example 2]", "md_verbatim": "| Row | STUDYID | DOMAIN | USUBJID | BSSEQ | BSREFID | BSTESTCD | BSTEST | BSCAT | BSORRES | BSORRESU | BSSTRESC | BSSTRESN | BSSTRESU | BSSPEC | VISITNUM | BSDTC |\n|-----|---------|--------|---------|-------|---------|----------|--------|-------|---------|----------|----------|----------|----------|--------|----------|-------|", "score": 0.5867, "match_basis": "verbatim_token+domain_route:BE"}, {"md_atom_id": "md_dmBE_ex_a032", "md_file": "knowledge_base/domains/BE/examples.md", "md_atom_type": "TABLE_HEADER", "md_parent_section": "§BE.1 [Example 1]", "md_verbatim": "| Row | STUDYID | DOMAIN | USUBJID | BSSEQ | BSGRPID | BSREFID | BSTESTCD | BSTEST | BSCAT | BSORRES | BSORRESU | BSSTRESC | BSSTRESN | BSSTRESU | BSSPEC | BSANTREG | VISITNUM | BSDTC |\n|-----|---------|--------|---------|-------|---------|---------|----------|--------|-------|---------|----------|----------|----------|----------|--------|----------|----------|-------|", "score": 0.568, "match_basis": "verbatim_token+domain_route:BE"}, {"md_atom_id": "md_dmBE_ex_a103", "md_file": "knowledge_base/domains/BE/examples.md", "md_atom_type": "TABLE_HEADER", "md_parent_section": "§BE.2 [Example 2]", "md_verbatim": "| Row | STUDYID | USUBJID | REFID | SPEC | PARENT | LEVEL |\n|-----|---------|---------|-------|------|--------|-------|", "score": 0.5268, "match_basis": "verbatim_token+domain_route:BE"}], "candidate_count": 5, "zero_candidate": false}
{"pdf_atom_id": "ig34_p0146_a027", "pdf_atom_type": "TABLE_ROW", "pdf_source": "SDTMIG_v3.4", "pdf_page": 146, "pdf_parent_section": "§6.2.2 [Biospecimen Events (BE)]", "pdf_verbatim": "| 1 | 3441271 | BE | MU-298 | | 1 | 298B1 | Collecting | COLLECTING | SITE | 05 | COLLECTION | 2 | 2010-04-01T11:50 | 2010-04-01T11:50 |", "figure_ref": null, "candidates": [{"md_atom_id": "md_dmBE_ex_a063", "md_file": "knowledge_base/domains/BE/examples.md", "md_atom_type": "TABLE_ROW", "md_parent_section": "§BE.2 [Example 2]", "md_verbatim": "| 1 | 3441271 | BE | MU-298 | | 1 | 298B1 | Collecting | COLLECTING | SITE | 05 | COLLECTION | 2 | 2010-04-01T11:50 | 2010-04-01T11:50 | |", "score": 1.0, "match_basis": "verbatim_token+domain_route:BE"}, {"md_atom_id": "md_dmBE_ex_a064", "md_file": "knowledge_base/domains/BE/examples.md", "md_atom_type": "TABLE_ROW", "md_parent_section": "§BE.2 [Example 2]", "md_verbatim": "| 2 | 3441271 | BE | MU-298 | 293USHE8 | 2 | 298B1-1 | Extracting | EXTRACTING | SITE | 05 | EXTRACTION | 2 | 2010-04-01T11:50 | 2010-04-01T12:10 | |", "score": 0.7243, "match_basis": "verbatim_token+domain_route:BE"}, {"md_atom_id": "md_dmBE_ex_a066", "md_file": "knowledge_base/domains/BE/examples.md", "md_atom_type": "TABLE_ROW", "md_parent_section": "§BE.2 [Example 2]", "md_verbatim": "| 4 | 3441271 | BE | MU-298 | PURKIT | 4 | 298R1-1R0 | Extracting | EXTRACTING | ABC LAB | | EXTRACTION | 2 | 2010-04-01T11:50 | 2010-04-02T9:00 | 2010-04-05T13:50 |", "score": 0.6182, "match_basis": "verbatim_token+domain_route:BE"}, {"md_atom_id": "md_dmBE_ex_a065", "md_file": "knowledge_base/domains/BE/examples.md", "md_atom_type": "TABLE_ROW", "md_parent_section": "§BE.2 [Example 2]", "md_verbatim": "| 3 | 3441271 | BE | MU-298 | | 3 | 298B1-1 | Shipping | SHIPPING | ABC LAB | | TRANSPORT | 2 | 2010-04-01T11:50 | 2010-04-01T15:00 | 2010-04-02T8:00 |", "score": 0.6, "match_basis": "verbatim_token+domain_route:BE"}, {"md_atom_id": "md_dmBE_ex_a067", "md_file": "knowledge_base/domains/BE/examples.md", "md_atom_type": "TABLE_ROW", "md_parent_section": "§BE.2 [Example 2]", "md_verbatim": "| 5 | 3441271 | BE | MU-298 | | 5 | 298R1-1R1 | Aliquoting | ALIQUOTING | ABC LAB | | PREPARATION | 2 | 2010-04-01T11:50 | 2010-04-05T13:50 | |", "score": 0.5957, "match_basis": "verbatim_token+domain_route:BE"}], "candidate_count": 5, "zero_candidate": false}
{"pdf_atom_id": "ig34_p0146_a028", "pdf_atom_type": "TABLE_ROW", "pdf_source": "SDTMIG_v3.4", "pdf_page": 146, "pdf_parent_section": "§6.2.2 [Biospecimen Events (BE)]", "pdf_verbatim": "| 2 | 3441271 | BE | MU-298 | 293USHE8 | 2 | 298B1-1 | Extracting | EXTRACTING | SITE | 05 | EXTRACTION | 2 | 2010-04-01T11:50 | 2010-04-01T12:10 |", "figure_ref": null, "candidates": [{"md_atom_id": "md_dmBE_ex_a064", "md_file": "knowledge_base/domains/BE/examples.md", "md_atom_type": "TABLE_ROW", "md_parent_section": "§BE.2 [Example 2]", "md_verbatim": "| 2 | 3441271 | BE | MU-298 | 293USHE8 | 2 | 298B1-1 | Extracting | EXTRACTING | SITE | 05 | EXTRACTION | 2 | 2010-04-01T11:50 | 2010-04-01T12:10 | |", "score": 1.0, "match_basis": "verbatim_token+domain_route:BE"}, {"md_atom_id": "md_dmBE_ex_a063", "md_file": "knowledge_base/domains/BE/examples.md", "md_atom_type": "TABLE_ROW", "md_parent_section": "§BE.2 [Example 2]", "md_verbatim": "| 1 | 3441271 | BE | MU-298 | | 1 | 298B1 | Collecting | COLLECTING | SITE | 05 | COLLECTION | 2 | 2010-04-01T11:50 | 2010-04-01T11:50 | |", "score": 0.7243, "match_basis": "verbatim_token+domain_route:BE"}, {"md_atom_id": "md_dmBE_ex_a066", "md_file": "knowledge_base/domains/BE/examples.md", "md_atom_type": "TABLE_ROW", "md_parent_section": "§BE.2 [Example 2]", "md_verbatim": "| 4 | 3441271 | BE | MU-298 | PURKIT | 4 | 298R1-1R0 | Extracting | EXTRACTING | ABC LAB | | EXTRACTION | 2 | 2010-04-01T11:50 | 2010-04-02T9:00 | 2010-04-05T13:50 |", "score": 0.6739, "match_basis": "verbatim_token+domain_route:BE"}, {"md_atom_id": "md_dmBE_ex_a065", "md_file": "knowledge_base/domains/BE/examples.md", "md_atom_type": "TABLE_ROW", "md_parent_section": "§BE.2 [Example 2]", "md_verbatim": "| 3 | 3441271 | BE | MU-298 | | 3 | 298B1-1 | Shipping | SHIPPING | ABC LAB | | TRANSPORT | 2 | 2010-04-01T11:50 | 2010-04-01T15:00 | 2010-04-02T8:00 |", "score": 0.5875, "match_basis": "verbatim_token+domain_route:BE"}, {"md_atom_id": "md_dmBE_ex_a067", "md_file": "knowledge_base/domains/BE/examples.md", "md_atom_type": "TABLE_ROW", "md_parent_section": "§BE.2 [Example 2]", "md_verbatim": "| 5 | 3441271 | BE | MU-298 | | 5 | 298R1-1R1 | Aliquoting | ALIQUOTING | ABC LAB | | PREPARATION | 2 | 2010-04-01T11:50 | 2010-04-05T13:50 | |", "score": 0.5698, "match_basis": "verbatim_token+domain_route:BE"}], "candidate_count": 5, "zero_candidate": false}
{"pdf_atom_id": "ig34_p0146_a029", "pdf_atom_type": "TABLE_ROW", "pdf_source": "SDTMIG_v3.4", "pdf_page": 146, "pdf_parent_section": "§6.2.2 [Biospecimen Events (BE)]", "pdf_verbatim": "| 3 | 3441271 | BE | MU-298 | | 3 | 298B1-1 | Shipping | SHIPPING | ABC LAB | | TRANSPORT | 2 | 2010-04-01T11:50 | 2010-04-01T15:00 | 2010-04-02T8:00 |", "figure_ref": null, "candidates": [{"md_atom_id": "md_dmBE_ex_a065", "md_file": "knowledge_base/domains/BE/examples.md", "md_atom_type": "TABLE_ROW", "md_parent_section": "§BE.2 [Example 2]", "md_verbatim": "| 3 | 3441271 | BE | MU-298 | | 3 | 298B1-1 | Shipping | SHIPPING | ABC LAB | | TRANSPORT | 2 | 2010-04-01T11:50 | 2010-04-01T15:00 | 2010-04-02T8:00 |", "score": 1.0, "match_basis": "verbatim_token+domain_route:BE"}, {"md_atom_id": "md_dmBE_ex_a020", "md_file": "knowledge_base/domains/BE/examples.md", "md_atom_type": "TABLE_ROW", "md_parent_section": "§BE.1 [Example 1]", "md_verbatim": "| 5 | ABC134 | BE | 43871 | LN43871 | 5 | 1148.267 | Shipping | SHIPPING | ABC LAB | | TRANSPORT | | 1 | BASELINE | 2005-03-20 | 2005-03-21T11:00 | 2005-03-21T15:00 |", "score": 0.6118, "match_basis": "verbatim_token+domain_route:BE"}, {"md_atom_id": "md_dmBE_ex_a063", "md_file": "knowledge_base/domains/BE/examples.md", "md_atom_type": "TABLE_ROW", "md_parent_section": "§BE.2 [Example 2]", "md_verbatim": "| 1 | 3441271 | BE | MU-298 | | 1 | 298B1 | Collecting | COLLECTING | SITE | 05 | COLLECTION | 2 | 2010-04-01T11:50 | 2010-04-01T11:50 | |", "score": 0.6, "match_basis": "verbatim_token+domain_route:BE"}, {"md_atom_id": "md_dmBE_ex_a066", "md_file": "knowledge_base/domains/BE/examples.md", "md_atom_type": "TABLE_ROW", "md_parent_section": "§BE.2 [Example 2]", "md_verbatim": "| 4 | 3441271 | BE | MU-298 | PURKIT | 4 | 298R1-1R0 | Extracting | EXTRACTING | ABC LAB | | EXTRACTION | 2 | 2010-04-01T11:50 | 2010-04-02T9:00 | 2010-04-05T13:50 |", "score": 0.592, "match_basis": "verbatim_token+domain_route:BE"}, {"md_atom_id": "md_dmBE_ex_a064", "md_file": "knowledge_base/domains/BE/examples.md", "md_atom_type": "TABLE_ROW", "md_parent_section": "§BE.2 [Example 2]", "md_verbatim": "| 2 | 3441271 | BE | MU-298 | 293USHE8 | 2 | 298B1-1 | Extracting | EXTRACTING | SITE | 05 | EXTRACTION | 2 | 2010-04-01T11:50 | 2010-04-01T12:10 | |", "score": 0.5875, "match_basis": "verbatim_token+domain_route:BE"}], "candidate_count": 5, "zero_candidate": false}
{"pdf_atom_id": "ig34_p0146_a030", "pdf_atom_type": "TABLE_ROW", "pdf_source": "SDTMIG_v3.4", "pdf_page": 146, "pdf_parent_section": "§6.2.2 [Biospecimen Events (BE)]", "pdf_verbatim": "| 4 | 3441271 | BE | MU-298 | PURKIT | 4 | 298R1-R0 | Extracting | EXTRACTING | ABC LAB | | EXTRACTION | 2 | 2010-04-01T11:50 | 2010-04-02T9:00 | 2010-04-05T13:50 |", "figure_ref": null, "candidates": [{"md_atom_id": "md_dmBE_ex_a066", "md_file": "knowledge_base/domains/BE/examples.md", "md_atom_type": "TABLE_ROW", "md_parent_section": "§BE.2 [Example 2]", "md_verbatim": "| 4 | 3441271 | BE | MU-298 | PURKIT | 4 | 298R1-1R0 | Extracting | EXTRACTING | ABC LAB | | EXTRACTION | 2 | 2010-04-01T11:50 | 2010-04-02T9:00 | 2010-04-05T13:50 |", "score": 0.9829, "match_basis": "verbatim_token+domain_route:BE"}, {"md_atom_id": "md_dmBE_ex_a064", "md_file": "knowledge_base/domains/BE/examples.md", "md_atom_type": "TABLE_ROW", "md_parent_section": "§BE.2 [Example 2]", "md_verbatim": "| 2 | 3441271 | BE | MU-298 | 293USHE8 | 2 | 298B1-1 | Extracting | EXTRACTING | SITE | 05 | EXTRACTION | 2 | 2010-04-01T11:50 | 2010-04-01T12:10 | |", "score": 0.68, "match_basis": "verbatim_token+domain_route:BE"}, {"md_atom_id": "md_dmBE_ex_a067", "md_file": "knowledge_base/domains/BE/examples.md", "md_atom_type": "TABLE_ROW", "md_parent_section": "§BE.2 [Example 2]", "md_verbatim": "| 5 | 3441271 | BE | MU-298 | | 5 | 298R1-1R1 | Aliquoting | ALIQUOTING | ABC LAB | | PREPARATION | 2 | 2010-04-01T11:50 | 2010-04-05T13:50 | |", "score": 0.675, "match_basis": "verbatim_token+domain_route:BE"}, {"md_atom_id": "md_dmBE_ex_a068", "md_file": "knowledge_base/domains/BE/examples.md", "md_atom_type": "TABLE_ROW", "md_parent_section": "§BE.2 [Example 2]", "md_verbatim": "| 6 | 3441271 | BE | MU-298 | | 6 | 298R1-1R2 | Aliquoting | ALIQUOTING | ABC LAB | | PREPARATION | 2 | 2010-04-01T11:50 | 2010-04-05T13:50 | |", "score": 0.675, "match_basis": "verbatim_token+domain_route:BE"}, {"md_atom_id": "md_dmBE_ex_a069", "md_file": "knowledge_base/domains/BE/examples.md", "md_atom_type": "TABLE_ROW", "md_parent_section": "§BE.2 [Example 2]", "md_verbatim": "| 7 | 3441271 | BE | MU-298 | | 7 | 298R1-1R3 | Aliquoted | ALIQUOTING | ABC LAB | | PREPARATION | 2 | 2010-04-01T11:50 | 2010-04-05T13:50 | |", "score": 0.664, "match_basis": "verbatim_token+domain_route:BE"}], "candidate_count": 5, "zero_candidate": false}
{"pdf_atom_id": "ig34_p0146_a031", "pdf_atom_type": "TABLE_ROW", "pdf_source": "SDTMIG_v3.4", "pdf_page": 146, "pdf_parent_section": "§6.2.2 [Biospecimen Events (BE)]", "pdf_verbatim": "| 5 | 3441271 | BE | MU-298 | | 5 | 298R1-1R1 | Aliquoting | ALIQUOTING | ABC LAB | | PREPARATION | 2 | 2010-04-01T11:50 | 2010-04-05T13:50 |", "figure_ref": null, "candidates": [{"md_atom_id": "md_dmBE_ex_a067", "md_file": "knowledge_base/domains/BE/examples.md", "md_atom_type": "TABLE_ROW", "md_parent_section": "§BE.2 [Example 2]", "md_verbatim": "| 5 | 3441271 | BE | MU-298 | | 5 | 298R1-1R1 | Aliquoting | ALIQUOTING | ABC LAB | | PREPARATION | 2 | 2010-04-01T11:50 | 2010-04-05T13:50 | |", "score": 1.0, "match_basis": "verbatim_token+domain_route:BE"}, {"md_atom_id": "md_dmBE_ex_a068", "md_file": "knowledge_base/domains/BE/examples.md", "md_atom_type": "TABLE_ROW", "md_parent_section": "§BE.2 [Example 2]", "md_verbatim": "| 6 | 3441271 | BE | MU-298 | | 6 | 298R1-1R2 | Aliquoting | ALIQUOTING | ABC LAB | | PREPARATION | 2 | 2010-04-01T11:50 | 2010-04-05T13:50 | |", "score": 0.9676, "match_basis": "verbatim_token+domain_route:BE"}, {"md_atom_id": "md_dmBE_ex_a069", "md_file": "knowledge_base/domains/BE/examples.md", "md_atom_type": "TABLE_ROW", "md_parent_section": "§BE.2 [Example 2]", "md_verbatim": "| 7 | 3441271 | BE | MU-298 | | 7 | 298R1-1R3 | Aliquoted | ALIQUOTING | ABC LAB | | PREPARATION | 2 | 2010-04-01T11:50 | 2010-04-05T13:50 | |", "score": 0.9385, "match_basis": "verbatim_token+domain_route:BE"}, {"md_atom_id": "md_dmBE_ex_a071", "md_file": "knowledge_base/domains/BE/examples.md", "md_atom_type": "TABLE_ROW", "md_parent_section": "§BE.2 [Example 2]", "md_verbatim": "| 9 | 3441271 | BE | MU-298 | | 9 | 298R1-1R2 | Frozen | FREEZING | ABC LAB | | PREPARATION | 2 | 2010-04-01T11:50 | 2010-04-05T13:50 | |", "score": 0.7652, "match_basis": "verbatim_token+domain_route:BE"}, {"md_atom_id": "md_dmBE_ex_a072", "md_file": "knowledge_base/domains/BE/examples.md", "md_atom_type": "TABLE_ROW", "md_parent_section": "§BE.2 [Example 2]", "md_verbatim": "| 10 | 3441271 | BE | MU-298 | | 10 | 298R1-1R3 | Frozen | FREEZING | ABC LAB | | PREPARATION | 2 | 2010-04-01T11:50 | 2010-04-05T13:50 | |", "score": 0.7652, "match_basis": "verbatim_token+domain_route:BE"}], "candidate_count": 5, "zero_candidate": false}
{"pdf_atom_id": "ig34_p0146_a032", "pdf_atom_type": "TABLE_ROW", "pdf_source": "SDTMIG_v3.4", "pdf_page": 146, "pdf_parent_section": "§6.2.2 [Biospecimen Events (BE)]", "pdf_verbatim": "| 6 | 3441271 | BE | MU-298 | | 6 | 298R1-1R2 | Aliquoting | ALIQUOTING | ABC LAB | | PREPARATION | 2 | 2010-04-01T11:50 | 2010-04-05T13:50 |", "figure_ref": null, "candidates": [{"md_atom_id": "md_dmBE_ex_a068", "md_file": "knowledge_base/domains/BE/examples.md", "md_atom_type": "TABLE_ROW", "md_parent_section": "§BE.2 [Example 2]", "md_verbatim": "| 6 | 3441271 | BE | MU-298 | | 6 | 298R1-1R2 | Aliquoting | ALIQUOTING | ABC LAB | | PREPARATION | 2 | 2010-04-01T11:50 | 2010-04-05T13:50 | |", "score": 1.0, "match_basis": "verbatim_token+domain_route:BE"}, {"md_atom_id": "md_dmBE_ex_a067", "md_file": "knowledge_base/domains/BE/examples.md", "md_atom_type": "TABLE_ROW", "md_parent_section": "§BE.2 [Example 2]", "md_verbatim": "| 5 | 3441271 | BE | MU-298 | | 5 | 298R1-1R1 | Aliquoting | ALIQUOTING | ABC LAB | | PREPARATION | 2 | 2010-04-01T11:50 | 2010-04-05T13:50 | |", "score": 0.9676, "match_basis": "verbatim_token+domain_route:BE"}, {"md_atom_id": "md_dmBE_ex_a069", "md_file": "knowledge_base/domains/BE/examples.md", "md_atom_type": "TABLE_ROW", "md_parent_section": "§BE.2 [Example 2]", "md_verbatim": "| 7 | 3441271 | BE | MU-298 | | 7 | 298R1-1R3 | Aliquoted | ALIQUOTING | ABC LAB | | PREPARATION | 2 | 2010-04-01T11:50 | 2010-04-05T13:50 | |", "score": 0.9385, "match_basis": "verbatim_token+domain_route:BE"}, {"md_atom_id": "md_dmBE_ex_a071", "md_file": "knowledge_base/domains/BE/examples.md", "md_atom_type": "TABLE_ROW", "md_parent_section": "§BE.2 [Example 2]", "md_verbatim": "| 9 | 3441271 | BE | MU-298 | | 9 | 298R1-1R2 | Frozen | FREEZING | ABC LAB | | PREPARATION | 2 | 2010-04-01T11:50 | 2010-04-05T13:50 | |", "score": 0.7867, "match_basis": "verbatim_token+domain_route:BE"}, {"md_atom_id": "md_dmBE_ex_a072", "md_file": "knowledge_base/domains/BE/examples.md", "md_atom_type": "TABLE_ROW", "md_parent_section": "§BE.2 [Example 2]", "md_verbatim": "| 10 | 3441271 | BE | MU-298 | | 10 | 298R1-1R3 | Frozen | FREEZING | ABC LAB | | PREPARATION | 2 | 2010-04-01T11:50 | 2010-04-05T13:50 | |", "score": 0.7652, "match_basis": "verbatim_token+domain_route:BE"}], "candidate_count": 5, "zero_candidate": false}
{"pdf_atom_id": "ig34_p0147_a001", "pdf_atom_type": "TABLE_HEADER", "pdf_source": "SDTMIG_v3.4", "pdf_page": 147, "pdf_parent_section": "§6.2.2 [Biospecimen Events (BE)]", "pdf_verbatim": "| Row | STUDYID | DOMAIN | USUBJID | SPDEVID | BESEQ | BEREFID | BETERM | BEDECOD | BEPARTY | BEPRTYID | BECAT | VISITNUM | BEDTC | BESTDTC | BEENDTC |", "figure_ref": null, "candidates": [{"md_atom_id": "md_dmBE_ex_a062", "md_file": "knowledge_base/domains/BE/examples.md", "md_atom_type": "TABLE_HEADER", "md_parent_section": "§BE.2 [Example 2]", "md_verbatim": "| Row | STUDYID | DOMAIN | USUBJID | SPDEVID | BESEQ | BEREFID | BETERM | BEDECOD | BEPARTY | BEPRTYID | BECAT | VISITNUM | BEDTC | BESTDTC | BEENDTC |\n|-----|---------|--------|---------|---------|-------|---------|--------|---------|---------|----------|-------|----------|-------|---------|---------|", "score": 1.0, "match_basis": "verbatim_token+domain_route:BE"}, {"md_atom_id": "md_dmBE_ex_a015", "md_file": "knowledge_base/domains/BE/examples.md", "md_atom_type": "TABLE_HEADER", "md_parent_section": "§BE.1 [Example 1]", "md_verbatim": "| Row | STUDYID | DOMAIN | USUBJID | SPDEVID | BESEQ | BEREFID | BETERM | BEDECOD | BEPARTY | BEPRTYID | BECAT | BELOC | VISITNUM | VISIT | BEDTC | BESTDTC | BEENDTC |\n|-----|---------|--------|---------|---------|-------|---------|--------|---------|---------|----------|-------|-------|----------|-------|-------|---------|---------|", "score": 0.9727, "match_basis": "verbatim_token+domain_route:BE"}, {"md_atom_id": "md_dmBE_ex_a091", "md_file": "knowledge_base/domains/BE/examples.md", "md_atom_type": "TABLE_HEADER", "md_parent_section": "§BE.2 [Example 2]", "md_verbatim": "| Row | STUDYID | DOMAIN | USUBJID | BSSEQ | BSREFID | BSTESTCD | BSTEST | BSCAT | BSORRES | BSORRESU | BSSTRESC | BSSTRESN | BSSTRESU | BSSPEC | VISITNUM | BSDTC |\n|-----|---------|--------|---------|-------|---------|----------|--------|-------|---------|----------|----------|----------|----------|--------|----------|-------|", "score": 0.5867, "match_basis": "verbatim_token+domain_route:BE"}, {"md_atom_id": "md_dmBE_ex_a032", "md_file": "knowledge_base/domains/BE/examples.md", "md_atom_type": "TABLE_HEADER", "md_parent_section": "§BE.1 [Example 1]", "md_verbatim": "| Row | STUDYID | DOMAIN | USUBJID | BSSEQ | BSGRPID | BSREFID | BSTESTCD | BSTEST | BSCAT | BSORRES | BSORRESU | BSSTRESC | BSSTRESN | BSSTRESU | BSSPEC | BSANTREG | VISITNUM | BSDTC |\n|-----|---------|--------|---------|-------|---------|---------|----------|--------|-------|---------|----------|----------|----------|----------|--------|----------|----------|-------|", "score": 0.568, "match_basis": "verbatim_token+domain_route:BE"}, {"md_atom_id": "md_dmBE_ex_a103", "md_file": "knowledge_base/domains/BE/examples.md", "md_atom_type": "TABLE_HEADER", "md_parent_section": "§BE.2 [Example 2]", "md_verbatim": "| Row | STUDYID | USUBJID | REFID | SPEC | PARENT | LEVEL |\n|-----|---------|---------|-------|------|--------|-------|", "score": 0.5268, "match_basis": "verbatim_token+domain_route:BE"}], "candidate_count": 5, "zero_candidate": false}
{"pdf_atom_id": "ig34_p0147_a002", "pdf_atom_type": "TABLE_ROW", "pdf_source": "SDTMIG_v3.4", "pdf_page": 147, "pdf_parent_section": "§6.2.2 [Biospecimen Events (BE)]", "pdf_verbatim": "| 7 | 3441271 | BE | MU-298 | | 7 | 298R1-1R3 | Aliquoted | ALIQUOTING | ABC LAB | | PREPARATION | 2 | 2010-04-01T11:50 | 2010-04-05T13:50 | |", "figure_ref": null, "candidates": [{"md_atom_id": "md_dmBE_ex_a069", "md_file": "knowledge_base/domains/BE/examples.md", "md_atom_type": "TABLE_ROW", "md_parent_section": "§BE.2 [Example 2]", "md_verbatim": "| 7 | 3441271 | BE | MU-298 | | 7 | 298R1-1R3 | Aliquoted | ALIQUOTING | ABC LAB | | PREPARATION | 2 | 2010-04-01T11:50 | 2010-04-05T13:50 | |", "score": 1.0, "match_basis": "verbatim_token+domain_route:BE"}, {"md_atom_id": "md_dmBE_ex_a067", "md_file": "knowledge_base/domains/BE/examples.md", "md_atom_type": "TABLE_ROW", "md_parent_section": "§BE.2 [Example 2]", "md_verbatim": "| 5 | 3441271 | BE | MU-298 | | 5 | 298R1-1R1 | Aliquoting | ALIQUOTING | ABC LAB | | PREPARATION | 2 | 2010-04-01T11:50 | 2010-04-05T13:50 | |", "score": 0.9385, "match_basis": "verbatim_token+domain_route:BE"}, {"md_atom_id": "md_dmBE_ex_a068", "md_file": "knowledge_base/domains/BE/examples.md", "md_atom_type": "TABLE_ROW", "md_parent_section": "§BE.2 [Example 2]", "md_verbatim": "| 6 | 3441271 | BE | MU-298 | | 6 | 298R1-1R2 | Aliquoting | ALIQUOTING | ABC LAB | | PREPARATION | 2 | 2010-04-01T11:50 | 2010-04-05T13:50 | |", "score": 0.9385, "match_basis": "verbatim_token+domain_route:BE"}, {"md_atom_id": "md_dmBE_ex_a072", "md_file": "knowledge_base/domains/BE/examples.md", "md_atom_type": "TABLE_ROW", "md_parent_section": "§BE.2 [Example 2]", "md_verbatim": "| 10 | 3441271 | BE | MU-298 | | 10 | 298R1-1R3 | Frozen | FREEZING | ABC LAB | | PREPARATION | 2 | 2010-04-01T11:50 | 2010-04-05T13:50 | |", "score": 0.7702, "match_basis": "verbatim_token+domain_route:BE"}, {"md_atom_id": "md_dmBE_ex_a071", "md_file": "knowledge_base/domains/BE/examples.md", "md_atom_type": "TABLE_ROW", "md_parent_section": "§BE.2 [Example 2]", "md_verbatim": "| 9 | 3441271 | BE | MU-298 | | 9 | 298R1-1R2 | Frozen | FREEZING | ABC LAB | | PREPARATION | 2 | 2010-04-01T11:50 | 2010-04-05T13:50 | |", "score": 0.75, "match_basis": "verbatim_token+domain_route:BE"}], "candidate_count": 5, "zero_candidate": false}
{"pdf_atom_id": "ig34_p0147_a003", "pdf_atom_type": "TABLE_ROW", "pdf_source": "SDTMIG_v3.4", "pdf_page": 147, "pdf_parent_section": "§6.2.2 [Biospecimen Events (BE)]", "pdf_verbatim": "| 8 | 3441271 | BE | MU-298 | | 8 | 298R1-1R1 | Sequenced | SEQUENCING | ABC LAB | | PREPARATION | 2 | 2010-04-01T11:50 | 2010-04-05T13:50 | |", "figure_ref": null, "candidates": [{"md_atom_id": "md_dmBE_ex_a070", "md_file": "knowledge_base/domains/BE/examples.md", "md_atom_type": "TABLE_ROW", "md_parent_section": "§BE.2 [Example 2]", "md_verbatim": "| 8 | 3441271 | BE | MU-298 | | 8 | 298R1-1R1 | Sequenced | SEQUENCING | ABC LAB | | PREPARATION | 2 | 2010-04-01T11:50 | 2010-04-05T13:50 | 2010-04-06T10:30 |", "score": 0.9561, "match_basis": "verbatim_token+domain_route:BE"}, {"md_atom_id": "md_dmBE_ex_a067", "md_file": "knowledge_base/domains/BE/examples.md", "md_atom_type": "TABLE_ROW", "md_parent_section": "§BE.2 [Example 2]", "md_verbatim": "| 5 | 3441271 | BE | MU-298 | | 5 | 298R1-1R1 | Aliquoting | ALIQUOTING | ABC LAB | | PREPARATION | 2 | 2010-04-01T11:50 | 2010-04-05T13:50 | |", "score": 0.7867, "match_basis": "verbatim_token+domain_route:BE"}, {"md_atom_id": "md_dmBE_ex_a068", "md_file": "knowledge_base/domains/BE/examples.md", "md_atom_type": "TABLE_ROW", "md_parent_section": "§BE.2 [Example 2]", "md_verbatim": "| 6 | 3441271 | BE | MU-298 | | 6 | 298R1-1R2 | Aliquoting | ALIQUOTING | ABC LAB | | PREPARATION | 2 | 2010-04-01T11:50 | 2010-04-05T13:50 | |", "score": 0.7652, "match_basis": "verbatim_token+domain_route:BE"}, {"md_atom_id": "md_dmBE_ex_a069", "md_file": "knowledge_base/domains/BE/examples.md", "md_atom_type": "TABLE_ROW", "md_parent_section": "§BE.2 [Example 2]", "md_verbatim": "| 7 | 3441271 | BE | MU-298 | | 7 | 298R1-1R3 | Aliquoted | ALIQUOTING | ABC LAB | | PREPARATION | 2 | 2010-04-01T11:50 | 2010-04-05T13:50 | |", "score": 0.75, "match_basis": "verbatim_token+domain_route:BE"}, {"md_atom_id": "md_dmBE_ex_a071", "md_file": "knowledge_base/domains/BE/examples.md", "md_atom_type": "TABLE_ROW", "md_parent_section": "§BE.2 [Example 2]", "md_verbatim": "| 9 | 3441271 | BE | MU-298 | | 9 | 298R1-1R2 | Frozen | FREEZING | ABC LAB | | PREPARATION | 2 | 2010-04-01T11:50 | 2010-04-05T13:50 | |", "score": 0.75, "match_basis": "verbatim_token+domain_route:BE"}], "candidate_count": 5, "zero_candidate": false}
{"pdf_atom_id": "ig34_p0147_a004", "pdf_atom_type": "TABLE_ROW", "pdf_source": "SDTMIG_v3.4", "pdf_page": 147, "pdf_parent_section": "§6.2.2 [Biospecimen Events (BE)]", "pdf_verbatim": "| 9 | 3441271 | BE | MU-298 | | 9 | 298R1-1R2 | Frozen | FREEZING | ABC LAB | | PREPARATION | 2 | 2010-04-01T11:50 | 2010-04-05T13:50 | |", "figure_ref": null, "candidates": [{"md_atom_id": "md_dmBE_ex_a071", "md_file": "knowledge_base/domains/BE/examples.md", "md_atom_type": "TABLE_ROW", "md_parent_section": "§BE.2 [Example 2]", "md_verbatim": "| 9 | 3441271 | BE | MU-298 | | 9 | 298R1-1R2 | Frozen | FREEZING | ABC LAB | | PREPARATION | 2 | 2010-04-01T11:50 | 2010-04-05T13:50 | |", "score": 1.0, "match_basis": "verbatim_token+domain_route:BE"}, {"md_atom_id": "md_dmBE_ex_a072", "md_file": "knowledge_base/domains/BE/examples.md", "md_atom_type": "TABLE_ROW", "md_parent_section": "§BE.2 [Example 2]", "md_verbatim": "| 10 | 3441271 | BE | MU-298 | | 10 | 298R1-1R3 | Frozen | FREEZING | ABC LAB | | PREPARATION | 2 | 2010-04-01T11:50 | 2010-04-05T13:50 | |", "score": 0.9692, "match_basis": "verbatim_token+domain_route:BE"}, {"md_atom_id": "md_dmBE_ex_a068", "md_file": "knowledge_base/domains/BE/examples.md", "md_atom_type": "TABLE_ROW", "md_parent_section": "§BE.2 [Example 2]", "md_verbatim": "| 6 | 3441271 | BE | MU-298 | | 6 | 298R1-1R2 | Aliquoting | ALIQUOTING | ABC LAB | | PREPARATION | 2 | 2010-04-01T11:50 | 2010-04-05T13:50 | |", "score": 0.7867, "match_basis": "verbatim_token+domain_route:BE"}, {"md_atom_id": "md_dmBE_ex_a067", "md_file": "knowledge_base/domains/BE/examples.md", "md_atom_type": "TABLE_ROW", "md_parent_section": "§BE.2 [Example 2]", "md_verbatim": "| 5 | 3441271 | BE | MU-298 | | 5 | 298R1-1R1 | Aliquoting | ALIQUOTING | ABC LAB | | PREPARATION | 2 | 2010-04-01T11:50 | 2010-04-05T13:50 | |", "score": 0.7652, "match_basis": "verbatim_token+domain_route:BE"}, {"md_atom_id": "md_dmBE_ex_a069", "md_file": "knowledge_base/domains/BE/examples.md", "md_atom_type": "TABLE_ROW", "md_parent_section": "§BE.2 [Example 2]", "md_verbatim": "| 7 | 3441271 | BE | MU-298 | | 7 | 298R1-1R3 | Aliquoted | ALIQUOTING | ABC LAB | | PREPARATION | 2 | 2010-04-01T11:50 | 2010-04-05T13:50 | |", "score": 0.75, "match_basis": "verbatim_token+domain_route:BE"}], "candidate_count": 5, "zero_candidate": false}
{"pdf_atom_id": "ig34_p0147_a005", "pdf_atom_type": "TABLE_ROW", "pdf_source": "SDTMIG_v3.4", "pdf_page": 147, "pdf_parent_section": "§6.2.2 [Biospecimen Events (BE)]", "pdf_verbatim": "| 10 | 3441271 | BE | MU-298 | | 10 | 298R1-1R3 | Frozen | FREEZING | ABC LAB | | PREPARATION | 2 | 2010-04-01T11:50 | 2010-04-05T13:50 | |", "figure_ref": null, "candidates": [{"md_atom_id": "md_dmBE_ex_a072", "md_file": "knowledge_base/domains/BE/examples.md", "md_atom_type": "TABLE_ROW", "md_parent_section": "§BE.2 [Example 2]", "md_verbatim": "| 10 | 3441271 | BE | MU-298 | | 10 | 298R1-1R3 | Frozen | FREEZING | ABC LAB | | PREPARATION | 2 | 2010-04-01T11:50 | 2010-04-05T13:50 | |", "score": 1.0, "match_basis": "verbatim_token+domain_route:BE"}, {"md_atom_id": "md_dmBE_ex_a071", "md_file": "knowledge_base/domains/BE/examples.md", "md_atom_type": "TABLE_ROW", "md_parent_section": "§BE.2 [Example 2]", "md_verbatim": "| 9 | 3441271 | BE | MU-298 | | 9 | 298R1-1R2 | Frozen | FREEZING | ABC LAB | | PREPARATION | 2 | 2010-04-01T11:50 | 2010-04-05T13:50 | |", "score": 0.9692, "match_basis": "verbatim_token+domain_route:BE"}, {"md_atom_id": "md_dmBE_ex_a069", "md_file": "knowledge_base/domains/BE/examples.md", "md_atom_type": "TABLE_ROW", "md_parent_section": "§BE.2 [Example 2]", "md_verbatim": "| 7 | 3441271 | BE | MU-298 | | 7 | 298R1-1R3 | Aliquoted | ALIQUOTING | ABC LAB | | PREPARATION | 2 | 2010-04-01T11:50 | 2010-04-05T13:50 | |", "score": 0.7702, "match_basis": "verbatim_token+domain_route:BE"}, {"md_atom_id": "md_dmBE_ex_a067", "md_file": "knowledge_base/domains/BE/examples.md", "md_atom_type": "TABLE_ROW", "md_parent_section": "§BE.2 [Example 2]", "md_verbatim": "| 5 | 3441271 | BE | MU-298 | | 5 | 298R1-1R1 | Aliquoting | ALIQUOTING | ABC LAB | | PREPARATION | 2 | 2010-04-01T11:50 | 2010-04-05T13:50 | |", "score": 0.7652, "match_basis": "verbatim_token+domain_route:BE"}, {"md_atom_id": "md_dmBE_ex_a068", "md_file": "knowledge_base/domains/BE/examples.md", "md_atom_type": "TABLE_ROW", "md_parent_section": "§BE.2 [Example 2]", "md_verbatim": "| 6 | 3441271 | BE | MU-298 | | 6 | 298R1-1R2 | Aliquoting | ALIQUOTING | ABC LAB | | PREPARATION | 2 | 2010-04-01T11:50 | 2010-04-05T13:50 | |", "score": 0.7652, "match_basis": "verbatim_token+domain_route:BE"}], "candidate_count": 5, "zero_candidate": false}
{"pdf_atom_id": "ig34_p0147_a006", "pdf_atom_type": "SENTENCE", "pdf_source": "SDTMIG_v3.4", "pdf_page": 147, "pdf_parent_section": "§6.2.2 [Biospecimen Events (BE)]", "pdf_verbatim": "The specimen type is given in a supplemental qualifier that mimics the standard findings variable --SPEC, and draws from the 2 codelists (GENSMP and SPECTYPE) for its values, depending on whether or not the biospecimen is a sample of the subject's genetic material.", "figure_ref": null, "candidates": [{"md_atom_id": "md_dmBE_ex_a073", "md_file": "knowledge_base/domains/BE/examples.md", "md_atom_type": "SENTENCE", "md_parent_section": "§BE.2 [Example 2]", "md_verbatim": "The specimen type is given in a supplemental qualifier that mimics the standard findings variable --SPEC, and draws from the 2 codelists (GENSMP and SPECTYPE) for its values, depending on whether or not the biospecimen is a sample of the subject's genetic material.", "score": 1.0, "match_basis": "verbatim_token+domain_route:BE"}, {"md_atom_id": "md_dmBE_ex_a075", "md_file": "knowledge_base/domains/BE/examples.md", "md_atom_type": "SENTENCE", "md_parent_section": "§BE.2 [Example 2]", "md_verbatim": "These values come from the SPECTYPE codelist.", "score": 0.5056, "match_basis": "verbatim_token+domain_route:BE"}, {"md_atom_id": "md_dmBE_ex_a110", "md_file": "knowledge_base/domains/BE/examples.md", "md_atom_type": "SENTENCE", "md_parent_section": "§BE.2 [Example 2]", "md_verbatim": "The relationship between BE and BS is often many-to-many because any given biospecimen may have multiple findings about it and may undergo multiple events.", "score": 0.4898, "match_basis": "verbatim_token+domain_route:BE"}, {"md_atom_id": "md_dmBE_ex_a024", "md_file": "knowledge_base/domains/BE/examples.md", "md_atom_type": "SENTENCE", "md_parent_section": "§BE.1 [Example 1]", "md_verbatim": "Findings related to specimen handling processes are stored in the Biospecimen (BS) domain.", "score": 0.4844, "match_basis": "verbatim_token+domain_route:BE"}, {"md_atom_id": "md_dmBE_ex_a025", "md_file": "knowledge_base/domains/BE/examples.md", "md_atom_type": "SENTENCE", "md_parent_section": "§BE.1 [Example 1]", "md_verbatim": "These processes can be important to maintain the integrity of the specimens used in genetic variation and gene expression testing.", "score": 0.4822, "match_basis": "verbatim_token+domain_route:BE"}], "candidate_count": 5, "zero_candidate": false}
{"pdf_atom_id": "ig34_p0147_a007", "pdf_atom_type": "SENTENCE", "pdf_source": "SDTMIG_v3.4", "pdf_page": 147, "pdf_parent_section": "§6.2.2 [Biospecimen Events (BE)]", "pdf_verbatim": "Rows 1-2:\tGive the specimen types for the first 2 specimens as blood and plasma, respectively. These values come from the SPECTYPE codelist.", "figure_ref": null, "candidates": [{"md_atom_id": "md_dmBE_ex_a074", "md_file": "knowledge_base/domains/BE/examples.md", "md_atom_type": "SENTENCE", "md_parent_section": "§BE.2 [Example 2]", "md_verbatim": "**Rows 1-2:** Give the specimen types for the first 2 specimens as blood and plasma, respectively.", "score": 0.8, "match_basis": "verbatim_token+domain_route:BE"}, {"md_atom_id": "md_dmBE_ex_a075", "md_file": "knowledge_base/domains/BE/examples.md", "md_atom_type": "SENTENCE", "md_parent_section": "§BE.2 [Example 2]", "md_verbatim": "These values come from the SPECTYPE codelist.", "score": 0.6706, "match_basis": "verbatim_token+domain_route:BE"}, {"md_atom_id": "md_dmBE_ex_a076", "md_file": "knowledge_base/domains/BE/examples.md", "md_atom_type": "SENTENCE", "md_parent_section": "§BE.2 [Example 2]", "md_verbatim": "**Rows 3-6:** Give the specimen type for all subsequent specimens as RNA.", "score": 0.5475, "match_basis": "verbatim_token+domain_route:BE"}, {"md_atom_id": "md_dmBE_ex_a073", "md_file": "knowledge_base/domains/BE/examples.md", "md_atom_type": "SENTENCE", "md_parent_section": "§BE.2 [Example 2]", "md_verbatim": "The specimen type is given in a supplemental qualifier that mimics the standard findings variable --SPEC, and draws from the 2 codelists (GENSMP and SPECTYPE) for its values, depending on whether or not the biospecimen is a sample of the subject's genetic material.", "score": 0.5323, "match_basis": "verbatim_token+domain_route:BE"}, {"md_atom_id": "md_dmBE_ex_a007", "md_file": "knowledge_base/domains/BE/examples.md", "md_atom_type": "SENTENCE", "md_parent_section": "§BE.1 [Example 1]", "md_verbatim": "**Row 1:** Shows specimen collection.", "score": 0.5017, "match_basis": "verbatim_token+domain_route:BE"}], "candidate_count": 5, "zero_candidate": false}
{"pdf_atom_id": "ig34_p0147_a008", "pdf_atom_type": "SENTENCE", "pdf_source": "SDTMIG_v3.4", "pdf_page": 147, "pdf_parent_section": "§6.2.2 [Biospecimen Events (BE)]", "pdf_verbatim": "Rows 3-6:\tGive the specimen type for all subsequent specimens as RNA. \"RNA\" is one of the terms in the GENSMP codelist.", "figure_ref": null, "candidates": [{"md_atom_id": "md_dmBE_ex_a076", "md_file": "knowledge_base/domains/BE/examples.md", "md_atom_type": "SENTENCE", "md_parent_section": "§BE.2 [Example 2]", "md_verbatim": "**Rows 3-6:** Give the specimen type for all subsequent specimens as RNA.", "score": 0.7947, "match_basis": "verbatim_token+domain_route:BE"}, {"md_atom_id": "md_dmBE_ex_a077", "md_file": "knowledge_base/domains/BE/examples.md", "md_atom_type": "SENTENCE", "md_parent_section": "§BE.2 [Example 2]", "md_verbatim": "\"RNA\" is one of the terms in the GENSMP codelist.", "score": 0.6526, "match_basis": "verbatim_token+domain_route:BE"}, {"md_atom_id": "md_dmBE_ex_a074", "md_file": "knowledge_base/domains/BE/examples.md", "md_atom_type": "SENTENCE", "md_parent_section": "§BE.2 [Example 2]", "md_verbatim": "**Rows 1-2:** Give the specimen types for the first 2 specimens as blood and plasma, respectively.", "score": 0.5579, "match_basis": "verbatim_token+domain_route:BE"}, {"md_atom_id": "md_dmBE_ex_a075", "md_file": "knowledge_base/domains/BE/examples.md", "md_atom_type": "SENTENCE", "md_parent_section": "§BE.2 [Example 2]", "md_verbatim": "These values come from the SPECTYPE codelist.", "score": 0.532, "match_basis": "verbatim_token+domain_route:BE"}, {"md_atom_id": "md_dmBE_ex_a073", "md_file": "knowledge_base/domains/BE/examples.md", "md_atom_type": "SENTENCE", "md_parent_section": "§BE.2 [Example 2]", "md_verbatim": "The specimen type is given in a supplemental qualifier that mimics the standard findings variable --SPEC, and draws from the 2 codelists (GENSMP and SPECTYPE) for its values, depending on whether or not the biospecimen is a sample of the subject's genetic material.", "score": 0.5282, "match_basis": "verbatim_token+domain_route:BE"}], "candidate_count": 5, "zero_candidate": false}
{"pdf_atom_id": "ig34_p0147_a009", "pdf_atom_type": "CODE_LITERAL", "pdf_source": "SDTMIG_v3.4", "pdf_page": 147, "pdf_parent_section": "§6.2.2 [Biospecimen Events (BE)]", "pdf_verbatim": "suppbe.xpt", "figure_ref": null, "candidates": [{"md_atom_id": "md_dmBE_ex_a021", "md_file": "knowledge_base/domains/BE/examples.md", "md_atom_type": "SENTENCE", "md_parent_section": "§BE.1 [Example 1]", "md_verbatim": "**suppbe.xpt**", "score": 0.79, "match_basis": "verbatim_token+domain_route:BE"}, {"md_atom_id": "md_dmBE_ex_a078", "md_file": "knowledge_base/domains/BE/examples.md", "md_atom_type": "SENTENCE", "md_parent_section": "§BE.2 [Example 2]", "md_verbatim": "**suppbe.xpt**", "score": 0.79, "match_basis": "verbatim_token+domain_route:BE"}, {"md_atom_id": "md_dmBE_ex_a014", "md_file": "knowledge_base/domains/BE/examples.md", "md_atom_type": "SENTENCE", "md_parent_section": "§BE.1 [Example 1]", "md_verbatim": "**be.xpt**", "score": 0.31, "match_basis": "verbatim_token+domain_route:BE"}, {"md_atom_id": "md_dmBE_ex_a031", "md_file": "knowledge_base/domains/BE/examples.md", "md_atom_type": "SENTENCE", "md_parent_section": "§BE.1 [Example 1]", "md_verbatim": "**bs.xpt**", "score": 0.31, "match_basis": "verbatim_token+domain_route:BE"}, {"md_atom_id": "md_dmBE_ex_a061", "md_file": "knowledge_base/domains/BE/examples.md", "md_atom_type": "SENTENCE", "md_parent_section": "§BE.2 [Example 2]", "md_verbatim": "**be.xpt**", "score": 0.31, "match_basis": "verbatim_token+domain_route:BE"}, {"md_atom_id": "md_dmBE_ex_a090", "md_file": "knowledge_base/domains/BE/examples.md", "md_atom_type": "SENTENCE", "md_parent_section": "§BE.2 [Example 2]", "md_verbatim": "**bs.xpt**", "score": 0.31, "match_basis": "verbatim_token+domain_route:BE"}, {"md_atom_id": "md_dmBE_ex_a040", "md_file": "knowledge_base/domains/BE/examples.md", "md_atom_type": "SENTENCE", "md_parent_section": "§BE.1 [Example 1]", "md_verbatim": "**relrec.xpt**", "score": 0.2567, "match_basis": "verbatim_token+domain_route:BE"}, {"md_atom_id": "md_dmBE_ex_a111", "md_file": "knowledge_base/domains/BE/examples.md", "md_atom_type": "SENTENCE", "md_parent_section": "§BE.2 [Example 2]", "md_verbatim": "**relrec.xpt**", "score": 0.2567, "match_basis": "verbatim_token+domain_route:BE"}, {"md_atom_id": "md_dmBE_ex_a102", "md_file": "knowledge_base/domains/BE/examples.md", "md_atom_type": "SENTENCE", "md_parent_section": "§BE.2 [Example 2]", "md_verbatim": "**relspec.xpt**", "score": 0.25, "match_basis": "verbatim_token+domain_route:BE"}, {"md_atom_id": "md_dmBE_ex_a073", "md_file": "knowledge_base/domains/BE/examples.md", "md_atom_type": "SENTENCE", "md_parent_section": "§BE.2 [Example 2]", "md_verbatim": "The specimen type is given in a supplemental qualifier that mimics the standard findings variable --SPEC, and draws from the 2 codelists (GENSMP and SPECTYPE) for its values, depending on whether or not the biospecimen is a sample of the subject's genetic material.", "score": 0.2012, "match_basis": "verbatim_token+domain_route:BE"}], "candidate_count": 10, "zero_candidate": false}
