{"pdf_atom_id": "ig34_p0266_a006", "pdf_atom_type": "CODE_LITERAL", "pdf_source": "SDTMIG_v3.4", "pdf_page": 266, "pdf_parent_section": "§6.3.5.8 Microscopic Findings (MI)", "pdf_verbatim": "mi.xpt", "figure_ref": null, "candidates": [{"md_atom_id": "md_dmMI_ex_a010", "md_file": "knowledge_base/domains/MI/examples.md", "md_atom_type": "SENTENCE", "md_parent_section": "§MI.1 [Example 1]", "md_verbatim": "**mi.xpt**", "score": 0.79, "match_basis": "verbatim_token+domain_route:MI"}, {"md_atom_id": "md_dmMI_ex_a023", "md_file": "knowledge_base/domains/MI/examples.md", "md_atom_type": "SENTENCE", "md_parent_section": "§MI.2 [Example 2]", "md_verbatim": "**mi.xpt**", "score": 0.79, "match_basis": "verbatim_token+domain_route:MI"}, {"md_atom_id": "md_dmMI_ex_a039", "md_file": "knowledge_base/domains/MI/examples.md", "md_atom_type": "SENTENCE", "md_parent_section": "§MI.3 [Example 3]", "md_verbatim": "**mi.xpt**", "score": 0.79, "match_basis": "verbatim_token+domain_route:MI"}, {"md_atom_id": "md_dmMI_ex_a029", "md_file": "knowledge_base/domains/MI/examples.md", "md_atom_type": "SENTENCE", "md_parent_section": "§MI.2 [Example 2]", "md_verbatim": "**suppmi.xpt**", "score": 0.31, "match_basis": "verbatim_token+domain_route:MI"}, {"md_atom_id": "md_dmMI_ex_a047", "md_file": "knowledge_base/domains/MI/examples.md", "md_atom_type": "SENTENCE", "md_parent_section": "§MI.3 [Example 3]", "md_verbatim": "**suppmi.xpt**", "score": 0.31, "match_basis": "verbatim_token+domain_route:MI"}, {"md_atom_id": "md_dmMI_assn_a001", "md_file": "knowledge_base/domains/MI/assumptions.md", "md_atom_type": "HEADING", "md_parent_section": "§MI [MI — Assumptions]", "md_verbatim": "# MI — Assumptions", "score": 0.19, "match_basis": "verbatim_token+domain_route:MI"}, {"md_atom_id": "md_dmMI_assn_a002", "md_file": "knowledge_base/domains/MI/assumptions.md", "md_atom_type": "LIST_ITEM", "md_parent_section": "§MI [MI — Assumptions]", "md_verbatim": "1. This domain holds findings resulting from the microscopic examination of tissue samples. These examinations are performed on a specimen, usually one that has been prepared with some type of stain. Some examinations of cells in fluid specimens (e.g., blood, urine) are classified as lab tests and should be stored in the Laboratory Test Results (LB) domain. Biomarkers assessed by histologic or histopathological examination (by employing cytochemical/immunocytochemical stains) are stored in the MI domain.", "score": 0.19, "match_basis": "verbatim_token+domain_route:MI"}, {"md_atom_id": "md_dmMI_assn_a003", "md_file": "knowledge_base/domains/MI/assumptions.md", "md_atom_type": "LIST_ITEM", "md_parent_section": "§MI [MI — Assumptions]", "md_verbatim": "2. When biomarker results are represented in MI, MITESTCD reflects the biomarker of interest (e.g., \"BRCA1\", \"HER2\", \"TTF1\"), and MITSTDTL further qualifies the record. MITSTDTL is used to represent details descriptive of staining results (e.g., \"H SCORE TOTAL SCORE\", \"STAINING INTENSITY\", \"PERCENT POSITIVE CELL\").", "score": 0.19, "match_basis": "verbatim_token+domain_route:MI"}, {"md_atom_id": "md_dmMI_assn_a004", "md_file": "knowledge_base/domains/MI/assumptions.md", "md_atom_type": "LIST_ITEM", "md_parent_section": "§MI [MI — Assumptions]", "md_verbatim": "3. Any Identifiers, Timing variables, or Findings general observation class qualifiers may be added to the MI domain, but the following qualifiers would generally not be used: --POS, --MODIFY, --ORNRLO, --ORNRHI, --STNRLO, --STNRHI, --STNRC, --NRIND, --LEAD, --CSTATE, --BLFL, --FAST, --DRVFL, --LLOQ, --ULOQ.", "score": 0.19, "match_basis": "verbatim_token+domain_route:MI"}, {"md_atom_id": "md_dmMI_ex_a001", "md_file": "knowledge_base/domains/MI/examples.md", "md_atom_type": "HEADING", "md_parent_section": "§MI [MI — Examples]", "md_verbatim": "# MI — Examples", "score": 0.19, "match_basis": "verbatim_token+domain_route:MI"}], "candidate_count": 10, "zero_candidate": false}
{"pdf_atom_id": "ig34_p0266_a007", "pdf_atom_type": "TABLE_HEADER", "pdf_source": "SDTMIG_v3.4", "pdf_page": 266, "pdf_parent_section": "§6.3.5.8 Microscopic Findings (MI)", "pdf_verbatim": "Row | STUDYID | DOMAIN | USUBJID | MISEQ | MITESTCD | MITEST | MITSTDTL | MIORRES | MISTRESC | MIRESCAT | MISPEC | MILOC | MIMETHOD | VISIT | MIDTC", "figure_ref": null, "candidates": [{"md_atom_id": "md_dmMI_ex_a011", "md_file": "knowledge_base/domains/MI/examples.md", "md_atom_type": "TABLE_HEADER", "md_parent_section": "§MI.1 [Example 1]", "md_verbatim": "| Row | STUDYID | DOMAIN | USUBJID | MISEQ | MITESTCD | MITEST | MITSTDTL | MIORRES | MISTRESC | MIRESCAT | MISPEC | MILOC | MIMETHOD | VISIT | MIDTC |\n|-----|---------|--------|---------|-------|----------|--------|----------|---------|----------|----------|--------|-------|----------|-------|-------|", "score": 1.0, "match_basis": "verbatim_token+domain_route:MI"}, {"md_atom_id": "md_dmMI_ex_a024", "md_file": "knowledge_base/domains/MI/examples.md", "md_atom_type": "TABLE_HEADER", "md_parent_section": "§MI.2 [Example 2]", "md_verbatim": "| Row | STUDYID | DOMAIN | USUBJID | MISEQ | MIGRPID | MITESTCD | MITEST | MITSTDTL | MIORRES | MISTRESC | MISTRESN | MISPEC | MILOC | MIMETHOD | MIDRVFL | VISIT | MIDTC |\n|-----|---------|--------|---------|-------|---------|----------|--------|----------|---------|----------|----------|--------|-------|----------|---------|-------|-------|", "score": 0.88, "match_basis": "verbatim_token+domain_route:MI"}, {"md_atom_id": "md_dmMI_ex_a040", "md_file": "knowledge_base/domains/MI/examples.md", "md_atom_type": "TABLE_HEADER", "md_parent_section": "§MI.3 [Example 3]", "md_verbatim": "| Row | STUDYID | DOMAIN | USUBJID | MISEQ | MIGRPID | MITESTCD | MITEST | MITSTDTL | MIORRES | MIORRESU | MISTRESC | MISTRESN | MISTRESU | MISPEC | MILOC | MIMETHOD | MIDRVFL | VISIT | MIDTC |\n|-----|---------|--------|---------|-------|---------|----------|--------|----------|---------|----------|----------|----------|----------|--------|-------|----------|---------|-------|-------|", "score": 0.8732, "match_basis": "verbatim_token+domain_route:MI"}, {"md_atom_id": "md_dmMI_ex_a030", "md_file": "knowledge_base/domains/MI/examples.md", "md_atom_type": "TABLE_HEADER", "md_parent_section": "§MI.2 [Example 2]", "md_verbatim": "| Row | STUDYID | RDOMAIN | USUBJID | IDVAR | IDVARVAL | QNAM | QLABEL | QVAL | QORIG | QEVAL |\n|-----|---------|---------|---------|-------|----------|------|--------|------|-------|-------|", "score": 0.5139, "match_basis": "verbatim_token+domain_route:MI"}, {"md_atom_id": "md_dmMI_ex_a048", "md_file": "knowledge_base/domains/MI/examples.md", "md_atom_type": "TABLE_HEADER", "md_parent_section": "§MI.3 [Example 3]", "md_verbatim": "| Row | STUDYID | RDOMAIN | USUBJID | IDVAR | IDVARVAL | QNAM | QLABEL | QVAL | QORIG | QEVAL |\n|-----|---------|---------|---------|-------|----------|------|--------|------|-------|-------|", "score": 0.5139, "match_basis": "verbatim_token+domain_route:MI"}], "candidate_count": 5, "zero_candidate": false}
{"pdf_atom_id": "ig34_p0266_a008", "pdf_atom_type": "TABLE_ROW", "pdf_source": "SDTMIG_v3.4", "pdf_page": 266, "pdf_parent_section": "§6.3.5.8 Microscopic Findings (MI)", "pdf_verbatim": "1 | ABC | MI | ABC-1001 | 1 | HER2 | Human Epidermal Growth Factor Receptor 2 | STAINING INTENSITY | 0 | 0 | NEGATIVE | TISSUE | BREAST | IHC | SCREENING | 2001-06-15", "figure_ref": null, "candidates": [{"md_atom_id": "md_dmMI_ex_a012", "md_file": "knowledge_base/domains/MI/examples.md", "md_atom_type": "TABLE_ROW", "md_parent_section": "§MI.1 [Example 1]", "md_verbatim": "| 1 | ABC | MI | ABC-1001 | 1 | HER2 | Human Epidermal Growth Factor Receptor 2 | STAINING INTENSITY | 0 | 0 | NEGATIVE | TISSUE | BREAST | IHC | SCREENING | 2001-06-15 |", "score": 1.0, "match_basis": "verbatim_token+domain_route:MI"}, {"md_atom_id": "md_dmMI_ex_a013", "md_file": "knowledge_base/domains/MI/examples.md", "md_atom_type": "TABLE_ROW", "md_parent_section": "§MI.1 [Example 1]", "md_verbatim": "| 2 | ABC | MI | ABC-2002 | 1 | HER2 | Human Epidermal Growth Factor Receptor 2 | STAINING INTENSITY | 2+ | 2+ | POSITIVE | TISSUE | BREAST | IHC | SCREENING | 2001-06-15 |", "score": 0.9182, "match_basis": "verbatim_token+domain_route:MI"}, {"md_atom_id": "md_dmMI_ex_a026", "md_file": "knowledge_base/domains/MI/examples.md", "md_atom_type": "TABLE_ROW", "md_parent_section": "§MI.2 [Example 2]", "md_verbatim": "| 2 | ABC | MI | ABC-1001 | 2 | 1 | ESTRCPT | Estrogen Receptor | ALLRED STAINING INTENSITY SCORE | STRONG | 3 | 3 | TISSUE | BREAST | IHC | | SCREENING | 2001-06-15 |", "score": 0.6775, "match_basis": "verbatim_token+domain_route:MI"}, {"md_atom_id": "md_dmMI_ex_a041", "md_file": "knowledge_base/domains/MI/examples.md", "md_atom_type": "TABLE_ROW", "md_parent_section": "§MI.3 [Example 3]", "md_verbatim": "| 1 | ABC | MI | ABC-1001 | 1 | 1 | NKX2_1 | NK2 Homeobox 1 | H SCORE STAINING INTENSITY 0 | 25 | % | 25 | 25 | % | TISSUE | LUNG | IHC | | SCREENING | 2001-06-15 |", "score": 0.6132, "match_basis": "verbatim_token+domain_route:MI"}, {"md_atom_id": "md_dmMI_ex_a042", "md_file": "knowledge_base/domains/MI/examples.md", "md_atom_type": "TABLE_ROW", "md_parent_section": "§MI.3 [Example 3]", "md_verbatim": "| 2 | ABC | MI | ABC-1001 | 2 | 1 | NKX2_1 | NK2 Homeobox 1 | H SCORE STAINING INTENSITY 1+ | 40 | % | 40 | 40 | % | TISSUE | LUNG | IHC | | SCREENING | 2001-06-15 |", "score": 0.6132, "match_basis": "verbatim_token+domain_route:MI"}], "candidate_count": 5, "zero_candidate": false}
{"pdf_atom_id": "ig34_p0266_a009", "pdf_atom_type": "TABLE_ROW", "pdf_source": "SDTMIG_v3.4", "pdf_page": 266, "pdf_parent_section": "§6.3.5.8 Microscopic Findings (MI)", "pdf_verbatim": "2 | ABC | MI | ABC-2002 | 1 | HER2 | Human Epidermal Growth Factor Receptor 2 | STAINING INTENSITY | 2+ | 2+ | POSITIVE | TISSUE | BREAST | IHC | SCREENING | 2001-06-15", "figure_ref": null, "candidates": [{"md_atom_id": "md_dmMI_ex_a013", "md_file": "knowledge_base/domains/MI/examples.md", "md_atom_type": "TABLE_ROW", "md_parent_section": "§MI.1 [Example 1]", "md_verbatim": "| 2 | ABC | MI | ABC-2002 | 1 | HER2 | Human Epidermal Growth Factor Receptor 2 | STAINING INTENSITY | 2+ | 2+ | POSITIVE | TISSUE | BREAST | IHC | SCREENING | 2001-06-15 |", "score": 1.0, "match_basis": "verbatim_token+domain_route:MI"}, {"md_atom_id": "md_dmMI_ex_a012", "md_file": "knowledge_base/domains/MI/examples.md", "md_atom_type": "TABLE_ROW", "md_parent_section": "§MI.1 [Example 1]", "md_verbatim": "| 1 | ABC | MI | ABC-1001 | 1 | HER2 | Human Epidermal Growth Factor Receptor 2 | STAINING INTENSITY | 0 | 0 | NEGATIVE | TISSUE | BREAST | IHC | SCREENING | 2001-06-15 |", "score": 0.9182, "match_basis": "verbatim_token+domain_route:MI"}, {"md_atom_id": "md_dmMI_ex_a026", "md_file": "knowledge_base/domains/MI/examples.md", "md_atom_type": "TABLE_ROW", "md_parent_section": "§MI.2 [Example 2]", "md_verbatim": "| 2 | ABC | MI | ABC-1001 | 2 | 1 | ESTRCPT | Estrogen Receptor | ALLRED STAINING INTENSITY SCORE | STRONG | 3 | 3 | TISSUE | BREAST | IHC | | SCREENING | 2001-06-15 |", "score": 0.67, "match_basis": "verbatim_token+domain_route:MI"}, {"md_atom_id": "md_dmMI_ex_a025", "md_file": "knowledge_base/domains/MI/examples.md", "md_atom_type": "TABLE_ROW", "md_parent_section": "§MI.2 [Example 2]", "md_verbatim": "| 1 | ABC | MI | ABC-1001 | 1 | 1 | ESTRCPT | Estrogen Receptor | ALLRED PROPORTION POSITIVE SCORE | 3 | 3 | 3 | TISSUE | BREAST | IHC | | SCREENING | 2001-06-15 |", "score": 0.6163, "match_basis": "verbatim_token+domain_route:MI"}, {"md_atom_id": "md_dmMI_ex_a041", "md_file": "knowledge_base/domains/MI/examples.md", "md_atom_type": "TABLE_ROW", "md_parent_section": "§MI.3 [Example 3]", "md_verbatim": "| 1 | ABC | MI | ABC-1001 | 1 | 1 | NKX2_1 | NK2 Homeobox 1 | H SCORE STAINING INTENSITY 0 | 25 | % | 25 | 25 | % | TISSUE | LUNG | IHC | | SCREENING | 2001-06-15 |", "score": 0.6053, "match_basis": "verbatim_token+domain_route:MI"}], "candidate_count": 5, "zero_candidate": false}
{"pdf_atom_id": "ig34_p0266_a010", "pdf_atom_type": "HEADING", "pdf_source": "SDTMIG_v3.4", "pdf_page": 266, "pdf_parent_section": "§6.3.5.8 Microscopic Findings (MI)", "pdf_verbatim": "Example 2", "figure_ref": null, "candidates": [{"md_atom_id": "md_dmMI_ex_a002", "md_file": "knowledge_base/domains/MI/examples.md", "md_atom_type": "HEADING", "md_parent_section": "§MI [MI — Examples]", "md_verbatim": "## Example 1", "score": 1.0, "match_basis": "verbatim_token+domain_route:MI"}, {"md_atom_id": "md_dmMI_ex_a014", "md_file": "knowledge_base/domains/MI/examples.md", "md_atom_type": "HEADING", "md_parent_section": "§MI [MI — Examples]", "md_verbatim": "## Example 2", "score": 1.0, "match_basis": "verbatim_token+domain_route:MI"}, {"md_atom_id": "md_dmMI_ex_a032", "md_file": "knowledge_base/domains/MI/examples.md", "md_atom_type": "HEADING", "md_parent_section": "§MI [MI — Examples]", "md_verbatim": "## Example 3", "score": 1.0, "match_basis": "verbatim_token+domain_route:MI"}, {"md_atom_id": "md_dmMI_ex_a001", "md_file": "knowledge_base/domains/MI/examples.md", "md_atom_type": "HEADING", "md_parent_section": "§MI [MI — Examples]", "md_verbatim": "# MI — Examples", "score": 0.9, "match_basis": "verbatim_token+domain_route:MI"}, {"md_atom_id": "md_dmMI_assn_a001", "md_file": "knowledge_base/domains/MI/assumptions.md", "md_atom_type": "HEADING", "md_parent_section": "§MI [MI — Assumptions]", "md_verbatim": "# MI — Assumptions", "score": 0.4, "match_basis": "verbatim_token+domain_route:MI"}], "candidate_count": 5, "zero_candidate": false}
{"pdf_atom_id": "ig34_p0266_a011", "pdf_atom_type": "SENTENCE", "pdf_source": "SDTMIG_v3.4", "pdf_page": 266, "pdf_parent_section": "§6.3.5.8 Microscopic Findings (MI)", "pdf_verbatim": "In this study, IHC for estrogen receptor protein expression in a tissue was reported using the Allred scoring system. The proportion positive score was assessed as the percentage of tumor cells that stained positive on a scale from 0 to 5. Staining intensity was assessed as none, weak, intermediate, or strong, and scored from 0 to 3, respectively. The total score is the sum of the proportion positive and stain intensity scores.", "figure_ref": null, "candidates": [{"md_atom_id": "md_dmMI_ex_a015", "md_file": "knowledge_base/domains/MI/examples.md", "md_atom_type": "SENTENCE", "md_parent_section": "§MI.2 [Example 2]", "md_verbatim": "In this study, IHC for estrogen receptor protein expression in a tissue was reported using the Allred scoring system.", "score": 0.6642, "match_basis": "verbatim_token+domain_route:MI"}, {"md_atom_id": "md_dmMI_ex_a017", "md_file": "knowledge_base/domains/MI/examples.md", "md_atom_type": "SENTENCE", "md_parent_section": "§MI.2 [Example 2]", "md_verbatim": "Staining intensity was assessed as none, weak, intermediate, or strong, and scored from 0 to 3, respectively.", "score": 0.6328, "match_basis": "verbatim_token+domain_route:MI"}, {"md_atom_id": "md_dmMI_ex_a016", "md_file": "knowledge_base/domains/MI/examples.md", "md_atom_type": "SENTENCE", "md_parent_section": "§MI.2 [Example 2]", "md_verbatim": "The proportion positive score was assessed as the percentage of tumor cells that stained positive on a scale from 0 to 5.", "score": 0.6239, "match_basis": "verbatim_token+domain_route:MI"}, {"md_atom_id": "md_dmMI_ex_a034", "md_file": "knowledge_base/domains/MI/examples.md", "md_atom_type": "SENTENCE", "md_parent_section": "§MI.3 [Example 3]", "md_verbatim": "Staining intensity of individual cells was assessed on a semi-quantitative scale ranging from 0 to 3+, and the percentage of tumor cells at each staining intensity level was reported.", "score": 0.5837, "match_basis": "verbatim_token+domain_route:MI"}, {"md_atom_id": "md_dmMI_ex_a018", "md_file": "knowledge_base/domains/MI/examples.md", "md_atom_type": "SENTENCE", "md_parent_section": "§MI.2 [Example 2]", "md_verbatim": "The total score is the sum of the proportion positive and stain intensity scores.", "score": 0.5478, "match_basis": "verbatim_token+domain_route:MI"}], "candidate_count": 5, "zero_candidate": false}
{"pdf_atom_id": "ig34_p0266_a012", "pdf_atom_type": "LIST_ITEM", "pdf_source": "SDTMIG_v3.4", "pdf_page": 266, "pdf_parent_section": "§6.3.5.8 Microscopic Findings (MI)", "pdf_verbatim": "Row 1:\tShows the Allred proportion positive score.", "figure_ref": null, "candidates": [{"md_atom_id": "md_dmMI_ex_a019", "md_file": "knowledge_base/domains/MI/examples.md", "md_atom_type": "SENTENCE", "md_parent_section": "§MI.2 [Example 2]", "md_verbatim": "**Row 1:** Shows the Allred proportion positive score.", "score": 0.91, "match_basis": "verbatim_token+domain_route:MI"}, {"md_atom_id": "md_dmMI_ex_a018", "md_file": "knowledge_base/domains/MI/examples.md", "md_atom_type": "SENTENCE", "md_parent_section": "§MI.2 [Example 2]", "md_verbatim": "The total score is the sum of the proportion positive and stain intensity scores.", "score": 0.5734, "match_basis": "verbatim_token+domain_route:MI"}, {"md_atom_id": "md_dmMI_ex_a016", "md_file": "knowledge_base/domains/MI/examples.md", "md_atom_type": "SENTENCE", "md_parent_section": "§MI.2 [Example 2]", "md_verbatim": "The proportion positive score was assessed as the percentage of tumor cells that stained positive on a scale from 0 to 5.", "score": 0.4962, "match_basis": "verbatim_token+domain_route:MI"}, {"md_atom_id": "md_dmMI_ex_a025", "md_file": "knowledge_base/domains/MI/examples.md", "md_atom_type": "TABLE_ROW", "md_parent_section": "§MI.2 [Example 2]", "md_verbatim": "| 1 | ABC | MI | ABC-1001 | 1 | 1 | ESTRCPT | Estrogen Receptor | ALLRED PROPORTION POSITIVE SCORE | 3 | 3 | 3 | TISSUE | BREAST | IHC | | SCREENING | 2001-06-15 |", "score": 0.4566, "match_basis": "verbatim_token+domain_route:MI"}, {"md_atom_id": "md_dmMI_assn_a003", "md_file": "knowledge_base/domains/MI/assumptions.md", "md_atom_type": "LIST_ITEM", "md_parent_section": "§MI [MI — Assumptions]", "md_verbatim": "2. When biomarker results are represented in MI, MITESTCD reflects the biomarker of interest (e.g., \"BRCA1\", \"HER2\", \"TTF1\"), and MITSTDTL further qualifies the record. MITSTDTL is used to represent details descriptive of staining results (e.g., \"H SCORE TOTAL SCORE\", \"STAINING INTENSITY\", \"PERCENT POSITIVE CELL\").", "score": 0.4492, "match_basis": "verbatim_token+domain_route:MI"}], "candidate_count": 5, "zero_candidate": false}
{"pdf_atom_id": "ig34_p0266_a013", "pdf_atom_type": "LIST_ITEM", "pdf_source": "SDTMIG_v3.4", "pdf_page": 266, "pdf_parent_section": "§6.3.5.8 Microscopic Findings (MI)", "pdf_verbatim": "Row 2:\tShows the staining intensity, which was assessed as \"Strong\". The score associated with an intensity of \"STRONG\" is in MISTRESC and MISTRESN.", "figure_ref": null, "candidates": [{"md_atom_id": "md_dmMI_ex_a021", "md_file": "knowledge_base/domains/MI/examples.md", "md_atom_type": "SENTENCE", "md_parent_section": "§MI.2 [Example 2]", "md_verbatim": "The score associated with an intensity of \"STRONG\" is in MISTRESC and MISTRESN.", "score": 0.694, "match_basis": "verbatim_token+domain_route:MI"}, {"md_atom_id": "md_dmMI_ex_a020", "md_file": "knowledge_base/domains/MI/examples.md", "md_atom_type": "SENTENCE", "md_parent_section": "§MI.2 [Example 2]", "md_verbatim": "**Row 2:** Shows the staining intensity, which was assessed as \"Strong\".", "score": 0.682, "match_basis": "verbatim_token+domain_route:MI"}, {"md_atom_id": "md_dmMI_ex_a017", "md_file": "knowledge_base/domains/MI/examples.md", "md_atom_type": "SENTENCE", "md_parent_section": "§MI.2 [Example 2]", "md_verbatim": "Staining intensity was assessed as none, weak, intermediate, or strong, and scored from 0 to 3, respectively.", "score": 0.56, "match_basis": "verbatim_token+domain_route:MI"}, {"md_atom_id": "md_dmMI_ex_a036", "md_file": "knowledge_base/domains/MI/examples.md", "md_atom_type": "SENTENCE", "md_parent_section": "§MI.3 [Example 3]", "md_verbatim": "**Rows 1-4:** Show the percentage of cells at each H-Score staining intensity.", "score": 0.51, "match_basis": "verbatim_token+domain_route:MI"}, {"md_atom_id": "md_dmMI_assn_a003", "md_file": "knowledge_base/domains/MI/assumptions.md", "md_atom_type": "LIST_ITEM", "md_parent_section": "§MI [MI — Assumptions]", "md_verbatim": "2. When biomarker results are represented in MI, MITESTCD reflects the biomarker of interest (e.g., \"BRCA1\", \"HER2\", \"TTF1\"), and MITSTDTL further qualifies the record. MITSTDTL is used to represent details descriptive of staining results (e.g., \"H SCORE TOTAL SCORE\", \"STAINING INTENSITY\", \"PERCENT POSITIVE CELL\").", "score": 0.4985, "match_basis": "verbatim_token+domain_route:MI"}], "candidate_count": 5, "zero_candidate": false}
{"pdf_atom_id": "ig34_p0266_a014", "pdf_atom_type": "LIST_ITEM", "pdf_source": "SDTMIG_v3.4", "pdf_page": 266, "pdf_parent_section": "§6.3.5.8 Microscopic Findings (MI)", "pdf_verbatim": "Row 3:\tThe total score is a represented in a derived record, so MIORRES is null.", "figure_ref": null, "candidates": [{"md_atom_id": "md_dmMI_ex_a022", "md_file": "knowledge_base/domains/MI/examples.md", "md_atom_type": "SENTENCE", "md_parent_section": "§MI.2 [Example 2]", "md_verbatim": "**Row 3:** The total score is a represented in a derived record, so MIORRES is null.", "score": 0.91, "match_basis": "verbatim_token+domain_route:MI"}, {"md_atom_id": "md_dmMI_ex_a038", "md_file": "knowledge_base/domains/MI/examples.md", "md_atom_type": "SENTENCE", "md_parent_section": "§MI.3 [Example 3]", "md_verbatim": "This is a derived record, so MIORRES is blank.", "score": 0.5433, "match_basis": "verbatim_token+domain_route:MI"}, {"md_atom_id": "md_dmMI_assn_a003", "md_file": "knowledge_base/domains/MI/assumptions.md", "md_atom_type": "LIST_ITEM", "md_parent_section": "§MI [MI — Assumptions]", "md_verbatim": "2. When biomarker results are represented in MI, MITESTCD reflects the biomarker of interest (e.g., \"BRCA1\", \"HER2\", \"TTF1\"), and MITSTDTL further qualifies the record. MITSTDTL is used to represent details descriptive of staining results (e.g., \"H SCORE TOTAL SCORE\", \"STAINING INTENSITY\", \"PERCENT POSITIVE CELL\").", "score": 0.5026, "match_basis": "verbatim_token+domain_route:MI"}, {"md_atom_id": "md_dmMI_ex_a037", "md_file": "knowledge_base/domains/MI/examples.md", "md_atom_type": "SENTENCE", "md_parent_section": "§MI.3 [Example 3]", "md_verbatim": "**Row 5:** Shows the H-score derived from the percentages.", "score": 0.46, "match_basis": "verbatim_token+domain_route:MI"}, {"md_atom_id": "md_dmMI_ex_a018", "md_file": "knowledge_base/domains/MI/examples.md", "md_atom_type": "SENTENCE", "md_parent_section": "§MI.2 [Example 2]", "md_verbatim": "The total score is the sum of the proportion positive and stain intensity scores.", "score": 0.4211, "match_basis": "verbatim_token+domain_route:MI"}], "candidate_count": 5, "zero_candidate": false}
{"pdf_atom_id": "ig34_p0266_a015", "pdf_atom_type": "CODE_LITERAL", "pdf_source": "SDTMIG_v3.4", "pdf_page": 266, "pdf_parent_section": "§6.3.5.8 Microscopic Findings (MI)", "pdf_verbatim": "mi.xpt", "figure_ref": null, "candidates": [{"md_atom_id": "md_dmMI_ex_a010", "md_file": "knowledge_base/domains/MI/examples.md", "md_atom_type": "SENTENCE", "md_parent_section": "§MI.1 [Example 1]", "md_verbatim": "**mi.xpt**", "score": 0.79, "match_basis": "verbatim_token+domain_route:MI"}, {"md_atom_id": "md_dmMI_ex_a023", "md_file": "knowledge_base/domains/MI/examples.md", "md_atom_type": "SENTENCE", "md_parent_section": "§MI.2 [Example 2]", "md_verbatim": "**mi.xpt**", "score": 0.79, "match_basis": "verbatim_token+domain_route:MI"}, {"md_atom_id": "md_dmMI_ex_a039", "md_file": "knowledge_base/domains/MI/examples.md", "md_atom_type": "SENTENCE", "md_parent_section": "§MI.3 [Example 3]", "md_verbatim": "**mi.xpt**", "score": 0.79, "match_basis": "verbatim_token+domain_route:MI"}, {"md_atom_id": "md_dmMI_ex_a029", "md_file": "knowledge_base/domains/MI/examples.md", "md_atom_type": "SENTENCE", "md_parent_section": "§MI.2 [Example 2]", "md_verbatim": "**suppmi.xpt**", "score": 0.31, "match_basis": "verbatim_token+domain_route:MI"}, {"md_atom_id": "md_dmMI_ex_a047", "md_file": "knowledge_base/domains/MI/examples.md", "md_atom_type": "SENTENCE", "md_parent_section": "§MI.3 [Example 3]", "md_verbatim": "**suppmi.xpt**", "score": 0.31, "match_basis": "verbatim_token+domain_route:MI"}, {"md_atom_id": "md_dmMI_assn_a001", "md_file": "knowledge_base/domains/MI/assumptions.md", "md_atom_type": "HEADING", "md_parent_section": "§MI [MI — Assumptions]", "md_verbatim": "# MI — Assumptions", "score": 0.19, "match_basis": "verbatim_token+domain_route:MI"}, {"md_atom_id": "md_dmMI_assn_a002", "md_file": "knowledge_base/domains/MI/assumptions.md", "md_atom_type": "LIST_ITEM", "md_parent_section": "§MI [MI — Assumptions]", "md_verbatim": "1. This domain holds findings resulting from the microscopic examination of tissue samples. These examinations are performed on a specimen, usually one that has been prepared with some type of stain. Some examinations of cells in fluid specimens (e.g., blood, urine) are classified as lab tests and should be stored in the Laboratory Test Results (LB) domain. Biomarkers assessed by histologic or histopathological examination (by employing cytochemical/immunocytochemical stains) are stored in the MI domain.", "score": 0.19, "match_basis": "verbatim_token+domain_route:MI"}, {"md_atom_id": "md_dmMI_assn_a003", "md_file": "knowledge_base/domains/MI/assumptions.md", "md_atom_type": "LIST_ITEM", "md_parent_section": "§MI [MI — Assumptions]", "md_verbatim": "2. When biomarker results are represented in MI, MITESTCD reflects the biomarker of interest (e.g., \"BRCA1\", \"HER2\", \"TTF1\"), and MITSTDTL further qualifies the record. MITSTDTL is used to represent details descriptive of staining results (e.g., \"H SCORE TOTAL SCORE\", \"STAINING INTENSITY\", \"PERCENT POSITIVE CELL\").", "score": 0.19, "match_basis": "verbatim_token+domain_route:MI"}, {"md_atom_id": "md_dmMI_assn_a004", "md_file": "knowledge_base/domains/MI/assumptions.md", "md_atom_type": "LIST_ITEM", "md_parent_section": "§MI [MI — Assumptions]", "md_verbatim": "3. Any Identifiers, Timing variables, or Findings general observation class qualifiers may be added to the MI domain, but the following qualifiers would generally not be used: --POS, --MODIFY, --ORNRLO, --ORNRHI, --STNRLO, --STNRHI, --STNRC, --NRIND, --LEAD, --CSTATE, --BLFL, --FAST, --DRVFL, --LLOQ, --ULOQ.", "score": 0.19, "match_basis": "verbatim_token+domain_route:MI"}, {"md_atom_id": "md_dmMI_ex_a001", "md_file": "knowledge_base/domains/MI/examples.md", "md_atom_type": "HEADING", "md_parent_section": "§MI [MI — Examples]", "md_verbatim": "# MI — Examples", "score": 0.19, "match_basis": "verbatim_token+domain_route:MI"}], "candidate_count": 10, "zero_candidate": false}
{"pdf_atom_id": "ig34_p0266_a016", "pdf_atom_type": "TABLE_HEADER", "pdf_source": "SDTMIG_v3.4", "pdf_page": 266, "pdf_parent_section": "§6.3.5.8 Microscopic Findings (MI)", "pdf_verbatim": "Row | STUDYID | DOMAIN | USUBJID | MISEQ | MIGRPID | MITESTCD | MITEST | MITSTDTL | MIORRES | MISTRESC | MISTRESN | MISPEC | MILOC | MIMETHOD | MIDRVFL | VISIT | MIDTC", "figure_ref": null, "candidates": [{"md_atom_id": "md_dmMI_ex_a024", "md_file": "knowledge_base/domains/MI/examples.md", "md_atom_type": "TABLE_HEADER", "md_parent_section": "§MI.2 [Example 2]", "md_verbatim": "| Row | STUDYID | DOMAIN | USUBJID | MISEQ | MIGRPID | MITESTCD | MITEST | MITSTDTL | MIORRES | MISTRESC | MISTRESN | MISPEC | MILOC | MIMETHOD | MIDRVFL | VISIT | MIDTC |\n|-----|---------|--------|---------|-------|---------|----------|--------|----------|---------|----------|----------|--------|-------|----------|---------|-------|-------|", "score": 1.0, "match_basis": "verbatim_token+domain_route:MI"}, {"md_atom_id": "md_dmMI_ex_a040", "md_file": "knowledge_base/domains/MI/examples.md", "md_atom_type": "TABLE_HEADER", "md_parent_section": "§MI.3 [Example 3]", "md_verbatim": "| Row | STUDYID | DOMAIN | USUBJID | MISEQ | MIGRPID | MITESTCD | MITEST | MITSTDTL | MIORRES | MIORRESU | MISTRESC | MISTRESN | MISTRESU | MISPEC | MILOC | MIMETHOD | MIDRVFL | VISIT | MIDTC |\n|-----|---------|--------|---------|-------|---------|----------|--------|----------|---------|----------|----------|----------|----------|--------|-------|----------|---------|-------|-------|", "score": 0.991, "match_basis": "verbatim_token+domain_route:MI"}, {"md_atom_id": "md_dmMI_ex_a011", "md_file": "knowledge_base/domains/MI/examples.md", "md_atom_type": "TABLE_HEADER", "md_parent_section": "§MI.1 [Example 1]", "md_verbatim": "| Row | STUDYID | DOMAIN | USUBJID | MISEQ | MITESTCD | MITEST | MITSTDTL | MIORRES | MISTRESC | MIRESCAT | MISPEC | MILOC | MIMETHOD | VISIT | MIDTC |\n|-----|---------|--------|---------|-------|----------|--------|----------|---------|----------|----------|--------|-------|----------|-------|-------|", "score": 0.88, "match_basis": "verbatim_token+domain_route:MI"}, {"md_atom_id": "md_dmMI_ex_a030", "md_file": "knowledge_base/domains/MI/examples.md", "md_atom_type": "TABLE_HEADER", "md_parent_section": "§MI.2 [Example 2]", "md_verbatim": "| Row | STUDYID | RDOMAIN | USUBJID | IDVAR | IDVARVAL | QNAM | QLABEL | QVAL | QORIG | QEVAL |\n|-----|---------|---------|---------|-------|----------|------|--------|------|-------|-------|", "score": 0.5059, "match_basis": "verbatim_token+domain_route:MI"}, {"md_atom_id": "md_dmMI_ex_a048", "md_file": "knowledge_base/domains/MI/examples.md", "md_atom_type": "TABLE_HEADER", "md_parent_section": "§MI.3 [Example 3]", "md_verbatim": "| Row | STUDYID | RDOMAIN | USUBJID | IDVAR | IDVARVAL | QNAM | QLABEL | QVAL | QORIG | QEVAL |\n|-----|---------|---------|---------|-------|----------|------|--------|------|-------|-------|", "score": 0.5059, "match_basis": "verbatim_token+domain_route:MI"}], "candidate_count": 5, "zero_candidate": false}
{"pdf_atom_id": "ig34_p0266_a017", "pdf_atom_type": "TABLE_ROW", "pdf_source": "SDTMIG_v3.4", "pdf_page": 266, "pdf_parent_section": "§6.3.5.8 Microscopic Findings (MI)", "pdf_verbatim": "1 | ABC | MI | ABC-1001 | 1 | 1 | ESTRCPT | Estrogen Receptor | ALLRED PROPORTION POSITIVE SCORE | 3 | 3 | 3 | TISSUE | BREAST | IHC | | SCREENING | 2001-06-15", "figure_ref": null, "candidates": [{"md_atom_id": "md_dmMI_ex_a025", "md_file": "knowledge_base/domains/MI/examples.md", "md_atom_type": "TABLE_ROW", "md_parent_section": "§MI.2 [Example 2]", "md_verbatim": "| 1 | ABC | MI | ABC-1001 | 1 | 1 | ESTRCPT | Estrogen Receptor | ALLRED PROPORTION POSITIVE SCORE | 3 | 3 | 3 | TISSUE | BREAST | IHC | | SCREENING | 2001-06-15 |", "score": 1.0, "match_basis": "verbatim_token+domain_route:MI"}, {"md_atom_id": "md_dmMI_ex_a027", "md_file": "knowledge_base/domains/MI/examples.md", "md_atom_type": "TABLE_ROW", "md_parent_section": "§MI.2 [Example 2]", "md_verbatim": "| 3 | ABC | MI | ABC-1001 | 3 | 1 | ESTRCPT | Estrogen Receptor | ALLRED TOTAL SCORE | | 6 | 6 | TISSUE | BREAST | IHC | Y | SCREENING | 2001-06-15 |", "score": 0.8271, "match_basis": "verbatim_token+domain_route:MI"}, {"md_atom_id": "md_dmMI_ex_a026", "md_file": "knowledge_base/domains/MI/examples.md", "md_atom_type": "TABLE_ROW", "md_parent_section": "§MI.2 [Example 2]", "md_verbatim": "| 2 | ABC | MI | ABC-1001 | 2 | 1 | ESTRCPT | Estrogen Receptor | ALLRED STAINING INTENSITY SCORE | STRONG | 3 | 3 | TISSUE | BREAST | IHC | | SCREENING | 2001-06-15 |", "score": 0.7794, "match_basis": "verbatim_token+domain_route:MI"}, {"md_atom_id": "md_dmMI_ex_a013", "md_file": "knowledge_base/domains/MI/examples.md", "md_atom_type": "TABLE_ROW", "md_parent_section": "§MI.1 [Example 1]", "md_verbatim": "| 2 | ABC | MI | ABC-2002 | 1 | HER2 | Human Epidermal Growth Factor Receptor 2 | STAINING INTENSITY | 2+ | 2+ | POSITIVE | TISSUE | BREAST | IHC | SCREENING | 2001-06-15 |", "score": 0.6163, "match_basis": "verbatim_token+domain_route:MI"}, {"md_atom_id": "md_dmMI_ex_a012", "md_file": "knowledge_base/domains/MI/examples.md", "md_atom_type": "TABLE_ROW", "md_parent_section": "§MI.1 [Example 1]", "md_verbatim": "| 1 | ABC | MI | ABC-1001 | 1 | HER2 | Human Epidermal Growth Factor Receptor 2 | STAINING INTENSITY | 0 | 0 | NEGATIVE | TISSUE | BREAST | IHC | SCREENING | 2001-06-15 |", "score": 0.5955, "match_basis": "verbatim_token+domain_route:MI"}], "candidate_count": 5, "zero_candidate": false}
{"pdf_atom_id": "ig34_p0266_a018", "pdf_atom_type": "TABLE_ROW", "pdf_source": "SDTMIG_v3.4", "pdf_page": 266, "pdf_parent_section": "§6.3.5.8 Microscopic Findings (MI)", "pdf_verbatim": "2 | ABC | MI | ABC-1001 | 2 | 1 | ESTRCPT | Estrogen Receptor | ALLRED STAINING INTENSITY SCORE | STRONG | 3 | 3 | TISSUE | BREAST | IHC | | SCREENING | 2001-06-15", "figure_ref": null, "candidates": [{"md_atom_id": "md_dmMI_ex_a026", "md_file": "knowledge_base/domains/MI/examples.md", "md_atom_type": "TABLE_ROW", "md_parent_section": "§MI.2 [Example 2]", "md_verbatim": "| 2 | ABC | MI | ABC-1001 | 2 | 1 | ESTRCPT | Estrogen Receptor | ALLRED STAINING INTENSITY SCORE | STRONG | 3 | 3 | TISSUE | BREAST | IHC | | SCREENING | 2001-06-15 |", "score": 1.0, "match_basis": "verbatim_token+domain_route:MI"}, {"md_atom_id": "md_dmMI_ex_a027", "md_file": "knowledge_base/domains/MI/examples.md", "md_atom_type": "TABLE_ROW", "md_parent_section": "§MI.2 [Example 2]", "md_verbatim": "| 3 | ABC | MI | ABC-1001 | 3 | 1 | ESTRCPT | Estrogen Receptor | ALLRED TOTAL SCORE | | 6 | 6 | TISSUE | BREAST | IHC | Y | SCREENING | 2001-06-15 |", "score": 0.8345, "match_basis": "verbatim_token+domain_route:MI"}, {"md_atom_id": "md_dmMI_ex_a025", "md_file": "knowledge_base/domains/MI/examples.md", "md_atom_type": "TABLE_ROW", "md_parent_section": "§MI.2 [Example 2]", "md_verbatim": "| 1 | ABC | MI | ABC-1001 | 1 | 1 | ESTRCPT | Estrogen Receptor | ALLRED PROPORTION POSITIVE SCORE | 3 | 3 | 3 | TISSUE | BREAST | IHC | | SCREENING | 2001-06-15 |", "score": 0.7794, "match_basis": "verbatim_token+domain_route:MI"}, {"md_atom_id": "md_dmMI_ex_a012", "md_file": "knowledge_base/domains/MI/examples.md", "md_atom_type": "TABLE_ROW", "md_parent_section": "§MI.1 [Example 1]", "md_verbatim": "| 1 | ABC | MI | ABC-1001 | 1 | HER2 | Human Epidermal Growth Factor Receptor 2 | STAINING INTENSITY | 0 | 0 | NEGATIVE | TISSUE | BREAST | IHC | SCREENING | 2001-06-15 |", "score": 0.6775, "match_basis": "verbatim_token+domain_route:MI"}, {"md_atom_id": "md_dmMI_ex_a041", "md_file": "knowledge_base/domains/MI/examples.md", "md_atom_type": "TABLE_ROW", "md_parent_section": "§MI.3 [Example 3]", "md_verbatim": "| 1 | ABC | MI | ABC-1001 | 1 | 1 | NKX2_1 | NK2 Homeobox 1 | H SCORE STAINING INTENSITY 0 | 25 | % | 25 | 25 | % | TISSUE | LUNG | IHC | | SCREENING | 2001-06-15 |", "score": 0.6727, "match_basis": "verbatim_token+domain_route:MI"}], "candidate_count": 5, "zero_candidate": false}
{"pdf_atom_id": "ig34_p0266_a019", "pdf_atom_type": "TABLE_ROW", "pdf_source": "SDTMIG_v3.4", "pdf_page": 266, "pdf_parent_section": "§6.3.5.8 Microscopic Findings (MI)", "pdf_verbatim": "3 | ABC | MI | ABC-1001 | 3 | 1 | ESTRCPT | Estrogen Receptor | ALLRED TOTAL SCORE | | 6 | 6 | TISSUE | BREAST | IHC | Y | SCREENING | 2001-06-15", "figure_ref": null, "candidates": [{"md_atom_id": "md_dmMI_ex_a027", "md_file": "knowledge_base/domains/MI/examples.md", "md_atom_type": "TABLE_ROW", "md_parent_section": "§MI.2 [Example 2]", "md_verbatim": "| 3 | ABC | MI | ABC-1001 | 3 | 1 | ESTRCPT | Estrogen Receptor | ALLRED TOTAL SCORE | | 6 | 6 | TISSUE | BREAST | IHC | Y | SCREENING | 2001-06-15 |", "score": 1.0, "match_basis": "verbatim_token+domain_route:MI"}, {"md_atom_id": "md_dmMI_ex_a026", "md_file": "knowledge_base/domains/MI/examples.md", "md_atom_type": "TABLE_ROW", "md_parent_section": "§MI.2 [Example 2]", "md_verbatim": "| 2 | ABC | MI | ABC-1001 | 2 | 1 | ESTRCPT | Estrogen Receptor | ALLRED STAINING INTENSITY SCORE | STRONG | 3 | 3 | TISSUE | BREAST | IHC | | SCREENING | 2001-06-15 |", "score": 0.8345, "match_basis": "verbatim_token+domain_route:MI"}, {"md_atom_id": "md_dmMI_ex_a025", "md_file": "knowledge_base/domains/MI/examples.md", "md_atom_type": "TABLE_ROW", "md_parent_section": "§MI.2 [Example 2]", "md_verbatim": "| 1 | ABC | MI | ABC-1001 | 1 | 1 | ESTRCPT | Estrogen Receptor | ALLRED PROPORTION POSITIVE SCORE | 3 | 3 | 3 | TISSUE | BREAST | IHC | | SCREENING | 2001-06-15 |", "score": 0.8271, "match_basis": "verbatim_token+domain_route:MI"}, {"md_atom_id": "md_dmMI_ex_a045", "md_file": "knowledge_base/domains/MI/examples.md", "md_atom_type": "TABLE_ROW", "md_parent_section": "§MI.3 [Example 3]", "md_verbatim": "| 5 | ABC | MI | ABC-1001 | 5 | 1 | NKX2_1 | NK2 Homeobox 1 | H SCORE TOTAL SCORE | | | 110 | 110 | | TISSUE | LUNG | IHC | Y | SCREENING | 2001-06-15 |", "score": 0.6316, "match_basis": "verbatim_token+domain_route:MI"}, {"md_atom_id": "md_dmMI_ex_a012", "md_file": "knowledge_base/domains/MI/examples.md", "md_atom_type": "TABLE_ROW", "md_parent_section": "§MI.1 [Example 1]", "md_verbatim": "| 1 | ABC | MI | ABC-1001 | 1 | HER2 | Human Epidermal Growth Factor Receptor 2 | STAINING INTENSITY | 0 | 0 | NEGATIVE | TISSUE | BREAST | IHC | SCREENING | 2001-06-15 |", "score": 0.5926, "match_basis": "verbatim_token+domain_route:MI"}], "candidate_count": 5, "zero_candidate": false}
{"pdf_atom_id": "ig34_p0266_a020", "pdf_atom_type": "SENTENCE", "pdf_source": "SDTMIG_v3.4", "pdf_page": 266, "pdf_parent_section": "§6.3.5.8 Microscopic Findings (MI)", "pdf_verbatim": "These IHC staining results were all for the cell nucleus, represented using a supplemental qualifier for subcellular location.", "figure_ref": null, "candidates": [{"md_atom_id": "md_dmMI_ex_a028", "md_file": "knowledge_base/domains/MI/examples.md", "md_atom_type": "SENTENCE", "md_parent_section": "§MI.2 [Example 2]", "md_verbatim": "These IHC staining results were all for the cell nucleus, represented using a supplemental qualifier for subcellular location.", "score": 1.0, "match_basis": "verbatim_token+domain_route:MI"}, {"md_atom_id": "md_dmMI_ex_a046", "md_file": "knowledge_base/domains/MI/examples.md", "md_atom_type": "SENTENCE", "md_parent_section": "§MI.3 [Example 3]", "md_verbatim": "These IHC staining results were all for the cell cytoplasm, represented using a supplemental qualifier for subcellular location.", "score": 0.8986, "match_basis": "verbatim_token+domain_route:MI"}, {"md_atom_id": "md_dmMI_ex_a036", "md_file": "knowledge_base/domains/MI/examples.md", "md_atom_type": "SENTENCE", "md_parent_section": "§MI.3 [Example 3]", "md_verbatim": "**Rows 1-4:** Show the percentage of cells at each H-Score staining intensity.", "score": 0.4837, "match_basis": "verbatim_token+domain_route:MI"}, {"md_atom_id": "md_dmMI_ex_a034", "md_file": "knowledge_base/domains/MI/examples.md", "md_atom_type": "SENTENCE", "md_parent_section": "§MI.3 [Example 3]", "md_verbatim": "Staining intensity of individual cells was assessed on a semi-quantitative scale ranging from 0 to 3+, and the percentage of tumor cells at each staining intensity level was reported.", "score": 0.4836, "match_basis": "verbatim_token+domain_route:MI"}, {"md_atom_id": "md_dmMI_ex_a022", "md_file": "knowledge_base/domains/MI/examples.md", "md_atom_type": "SENTENCE", "md_parent_section": "§MI.2 [Example 2]", "md_verbatim": "**Row 3:** The total score is a represented in a derived record, so MIORRES is null.", "score": 0.4786, "match_basis": "verbatim_token+domain_route:MI"}], "candidate_count": 5, "zero_candidate": false}
{"pdf_atom_id": "ig34_p0266_a021", "pdf_atom_type": "CODE_LITERAL", "pdf_source": "SDTMIG_v3.4", "pdf_page": 266, "pdf_parent_section": "§6.3.5.8 Microscopic Findings (MI)", "pdf_verbatim": "suppmi.xpt", "figure_ref": null, "candidates": [{"md_atom_id": "md_dmMI_ex_a029", "md_file": "knowledge_base/domains/MI/examples.md", "md_atom_type": "SENTENCE", "md_parent_section": "§MI.2 [Example 2]", "md_verbatim": "**suppmi.xpt**", "score": 0.79, "match_basis": "verbatim_token+domain_route:MI"}, {"md_atom_id": "md_dmMI_ex_a047", "md_file": "knowledge_base/domains/MI/examples.md", "md_atom_type": "SENTENCE", "md_parent_section": "§MI.3 [Example 3]", "md_verbatim": "**suppmi.xpt**", "score": 0.79, "match_basis": "verbatim_token+domain_route:MI"}, {"md_atom_id": "md_dmMI_ex_a010", "md_file": "knowledge_base/domains/MI/examples.md", "md_atom_type": "SENTENCE", "md_parent_section": "§MI.1 [Example 1]", "md_verbatim": "**mi.xpt**", "score": 0.31, "match_basis": "verbatim_token+domain_route:MI"}, {"md_atom_id": "md_dmMI_ex_a023", "md_file": "knowledge_base/domains/MI/examples.md", "md_atom_type": "SENTENCE", "md_parent_section": "§MI.2 [Example 2]", "md_verbatim": "**mi.xpt**", "score": 0.31, "match_basis": "verbatim_token+domain_route:MI"}, {"md_atom_id": "md_dmMI_ex_a039", "md_file": "knowledge_base/domains/MI/examples.md", "md_atom_type": "SENTENCE", "md_parent_section": "§MI.3 [Example 3]", "md_verbatim": "**mi.xpt**", "score": 0.31, "match_basis": "verbatim_token+domain_route:MI"}, {"md_atom_id": "md_dmMI_ex_a028", "md_file": "knowledge_base/domains/MI/examples.md", "md_atom_type": "SENTENCE", "md_parent_section": "§MI.2 [Example 2]", "md_verbatim": "These IHC staining results were all for the cell nucleus, represented using a supplemental qualifier for subcellular location.", "score": 0.2079, "match_basis": "verbatim_token+domain_route:MI"}, {"md_atom_id": "md_dmMI_ex_a046", "md_file": "knowledge_base/domains/MI/examples.md", "md_atom_type": "SENTENCE", "md_parent_section": "§MI.3 [Example 3]", "md_verbatim": "These IHC staining results were all for the cell cytoplasm, represented using a supplemental qualifier for subcellular location.", "score": 0.2074, "match_basis": "verbatim_token+domain_route:MI"}, {"md_atom_id": "md_dmMI_assn_a001", "md_file": "knowledge_base/domains/MI/assumptions.md", "md_atom_type": "HEADING", "md_parent_section": "§MI [MI — Assumptions]", "md_verbatim": "# MI — Assumptions", "score": 0.19, "match_basis": "verbatim_token+domain_route:MI"}, {"md_atom_id": "md_dmMI_assn_a002", "md_file": "knowledge_base/domains/MI/assumptions.md", "md_atom_type": "LIST_ITEM", "md_parent_section": "§MI [MI — Assumptions]", "md_verbatim": "1. This domain holds findings resulting from the microscopic examination of tissue samples. These examinations are performed on a specimen, usually one that has been prepared with some type of stain. Some examinations of cells in fluid specimens (e.g., blood, urine) are classified as lab tests and should be stored in the Laboratory Test Results (LB) domain. Biomarkers assessed by histologic or histopathological examination (by employing cytochemical/immunocytochemical stains) are stored in the MI domain.", "score": 0.19, "match_basis": "verbatim_token+domain_route:MI"}, {"md_atom_id": "md_dmMI_assn_a003", "md_file": "knowledge_base/domains/MI/assumptions.md", "md_atom_type": "LIST_ITEM", "md_parent_section": "§MI [MI — Assumptions]", "md_verbatim": "2. When biomarker results are represented in MI, MITESTCD reflects the biomarker of interest (e.g., \"BRCA1\", \"HER2\", \"TTF1\"), and MITSTDTL further qualifies the record. MITSTDTL is used to represent details descriptive of staining results (e.g., \"H SCORE TOTAL SCORE\", \"STAINING INTENSITY\", \"PERCENT POSITIVE CELL\").", "score": 0.19, "match_basis": "verbatim_token+domain_route:MI"}], "candidate_count": 10, "zero_candidate": false}
{"pdf_atom_id": "ig34_p0266_a022", "pdf_atom_type": "TABLE_HEADER", "pdf_source": "SDTMIG_v3.4", "pdf_page": 266, "pdf_parent_section": "§6.3.5.8 Microscopic Findings (MI)", "pdf_verbatim": "Row | STUDYID | RDOMAIN | USUBJID | IDVAR | IDVARVAL | QNAM | QLABEL | QVAL | QORIG | QEVAL", "figure_ref": null, "candidates": [{"md_atom_id": "md_dmMI_ex_a030", "md_file": "knowledge_base/domains/MI/examples.md", "md_atom_type": "TABLE_HEADER", "md_parent_section": "§MI.2 [Example 2]", "md_verbatim": "| Row | STUDYID | RDOMAIN | USUBJID | IDVAR | IDVARVAL | QNAM | QLABEL | QVAL | QORIG | QEVAL |\n|-----|---------|---------|---------|-------|----------|------|--------|------|-------|-------|", "score": 1.0, "match_basis": "verbatim_token+domain_route:MI"}, {"md_atom_id": "md_dmMI_ex_a048", "md_file": "knowledge_base/domains/MI/examples.md", "md_atom_type": "TABLE_HEADER", "md_parent_section": "§MI.3 [Example 3]", "md_verbatim": "| Row | STUDYID | RDOMAIN | USUBJID | IDVAR | IDVARVAL | QNAM | QLABEL | QVAL | QORIG | QEVAL |\n|-----|---------|---------|---------|-------|----------|------|--------|------|-------|-------|", "score": 1.0, "match_basis": "verbatim_token+domain_route:MI"}, {"md_atom_id": "md_dmMI_ex_a011", "md_file": "knowledge_base/domains/MI/examples.md", "md_atom_type": "TABLE_HEADER", "md_parent_section": "§MI.1 [Example 1]", "md_verbatim": "| Row | STUDYID | DOMAIN | USUBJID | MISEQ | MITESTCD | MITEST | MITSTDTL | MIORRES | MISTRESC | MIRESCAT | MISPEC | MILOC | MIMETHOD | VISIT | MIDTC |\n|-----|---------|--------|---------|-------|----------|--------|----------|---------|----------|----------|--------|-------|----------|-------|-------|", "score": 0.5139, "match_basis": "verbatim_token+domain_route:MI"}, {"md_atom_id": "md_dmMI_ex_a024", "md_file": "knowledge_base/domains/MI/examples.md", "md_atom_type": "TABLE_HEADER", "md_parent_section": "§MI.2 [Example 2]", "md_verbatim": "| Row | STUDYID | DOMAIN | USUBJID | MISEQ | MIGRPID | MITESTCD | MITEST | MITSTDTL | MIORRES | MISTRESC | MISTRESN | MISPEC | MILOC | MIMETHOD | MIDRVFL | VISIT | MIDTC |\n|-----|---------|--------|---------|-------|---------|----------|--------|----------|---------|----------|----------|--------|-------|----------|---------|-------|-------|", "score": 0.5059, "match_basis": "verbatim_token+domain_route:MI"}, {"md_atom_id": "md_dmMI_ex_a040", "md_file": "knowledge_base/domains/MI/examples.md", "md_atom_type": "TABLE_HEADER", "md_parent_section": "§MI.3 [Example 3]", "md_verbatim": "| Row | STUDYID | DOMAIN | USUBJID | MISEQ | MIGRPID | MITESTCD | MITEST | MITSTDTL | MIORRES | MIORRESU | MISTRESC | MISTRESN | MISTRESU | MISPEC | MILOC | MIMETHOD | MIDRVFL | VISIT | MIDTC |\n|-----|---------|--------|---------|-------|---------|----------|--------|----------|---------|----------|----------|----------|----------|--------|-------|----------|---------|-------|-------|", "score": 0.5047, "match_basis": "verbatim_token+domain_route:MI"}], "candidate_count": 5, "zero_candidate": false}
{"pdf_atom_id": "ig34_p0266_a023", "pdf_atom_type": "TABLE_ROW", "pdf_source": "SDTMIG_v3.4", "pdf_page": 266, "pdf_parent_section": "§6.3.5.8 Microscopic Findings (MI)", "pdf_verbatim": "1 | ABC | MI | ABC-1001 | MIGRPID | 1 | MISCELOC | Subcellular Location | NUCLEUS | CRF | ", "figure_ref": null, "candidates": [{"md_atom_id": "md_dmMI_ex_a031", "md_file": "knowledge_base/domains/MI/examples.md", "md_atom_type": "TABLE_ROW", "md_parent_section": "§MI.2 [Example 2]", "md_verbatim": "| 1 | ABC | MI | ABC-1001 | MIGRPID | 1 | MISCELOC | Subcellular Location | NUCLEUS | CRF | |", "score": 1.0, "match_basis": "verbatim_token+domain_route:MI"}, {"md_atom_id": "md_dmMI_ex_a049", "md_file": "knowledge_base/domains/MI/examples.md", "md_atom_type": "TABLE_ROW", "md_parent_section": "§MI.3 [Example 3]", "md_verbatim": "| 1 | ABC | MI | ABC-1001 | MIGRPID | 1 | MISCELOC | Subcellular Location | CYTOPLASM | CRF | |", "score": 0.82, "match_basis": "verbatim_token+domain_route:MI"}, {"md_atom_id": "md_dmMI_ex_a025", "md_file": "knowledge_base/domains/MI/examples.md", "md_atom_type": "TABLE_ROW", "md_parent_section": "§MI.2 [Example 2]", "md_verbatim": "| 1 | ABC | MI | ABC-1001 | 1 | 1 | ESTRCPT | Estrogen Receptor | ALLRED PROPORTION POSITIVE SCORE | 3 | 3 | 3 | TISSUE | BREAST | IHC | | SCREENING | 2001-06-15 |", "score": 0.4357, "match_basis": "verbatim_token+domain_route:MI"}, {"md_atom_id": "md_dmMI_ex_a012", "md_file": "knowledge_base/domains/MI/examples.md", "md_atom_type": "TABLE_ROW", "md_parent_section": "§MI.1 [Example 1]", "md_verbatim": "| 1 | ABC | MI | ABC-1001 | 1 | HER2 | Human Epidermal Growth Factor Receptor 2 | STAINING INTENSITY | 0 | 0 | NEGATIVE | TISSUE | BREAST | IHC | SCREENING | 2001-06-15 |", "score": 0.4333, "match_basis": "verbatim_token+domain_route:MI"}, {"md_atom_id": "md_dmMI_ex_a045", "md_file": "knowledge_base/domains/MI/examples.md", "md_atom_type": "TABLE_ROW", "md_parent_section": "§MI.3 [Example 3]", "md_verbatim": "| 5 | ABC | MI | ABC-1001 | 5 | 1 | NKX2_1 | NK2 Homeobox 1 | H SCORE TOTAL SCORE | | | 110 | 110 | | TISSUE | LUNG | IHC | Y | SCREENING | 2001-06-15 |", "score": 0.4281, "match_basis": "verbatim_token+domain_route:MI"}], "candidate_count": 5, "zero_candidate": false}
{"pdf_atom_id": "ig34_p0267_a001", "pdf_atom_type": "HEADING", "pdf_source": "SDTMIG_v3.4", "pdf_page": 267, "pdf_parent_section": "§6.3.5.8 Microscopic Findings (MI)", "pdf_verbatim": "Example 3", "figure_ref": null, "candidates": [{"md_atom_id": "md_dmMI_ex_a002", "md_file": "knowledge_base/domains/MI/examples.md", "md_atom_type": "HEADING", "md_parent_section": "§MI [MI — Examples]", "md_verbatim": "## Example 1", "score": 1.0, "match_basis": "verbatim_token+domain_route:MI"}, {"md_atom_id": "md_dmMI_ex_a014", "md_file": "knowledge_base/domains/MI/examples.md", "md_atom_type": "HEADING", "md_parent_section": "§MI [MI — Examples]", "md_verbatim": "## Example 2", "score": 1.0, "match_basis": "verbatim_token+domain_route:MI"}, {"md_atom_id": "md_dmMI_ex_a032", "md_file": "knowledge_base/domains/MI/examples.md", "md_atom_type": "HEADING", "md_parent_section": "§MI [MI — Examples]", "md_verbatim": "## Example 3", "score": 1.0, "match_basis": "verbatim_token+domain_route:MI"}, {"md_atom_id": "md_dmMI_ex_a001", "md_file": "knowledge_base/domains/MI/examples.md", "md_atom_type": "HEADING", "md_parent_section": "§MI [MI — Examples]", "md_verbatim": "# MI — Examples", "score": 0.9, "match_basis": "verbatim_token+domain_route:MI"}, {"md_atom_id": "md_dmMI_assn_a001", "md_file": "knowledge_base/domains/MI/assumptions.md", "md_atom_type": "HEADING", "md_parent_section": "§MI [MI — Assumptions]", "md_verbatim": "# MI — Assumptions", "score": 0.4, "match_basis": "verbatim_token+domain_route:MI"}], "candidate_count": 5, "zero_candidate": false}
{"pdf_atom_id": "ig34_p0267_a002", "pdf_atom_type": "SENTENCE", "pdf_source": "SDTMIG_v3.4", "pdf_page": 267, "pdf_parent_section": "§6.3.5.8 Microscopic Findings (MI)", "pdf_verbatim": "In this study, IHC staining for NK2 homeobox 1 (NKX2-1; also known as thyroid transcription factor 1) was reported at a detailed level. Staining intensity of individual cells was assessed on a semi-quantitative scale ranging from 0 to 3+, and the percentage of tumor cells at each staining intensity level was reported. These results were used to calculate the H-score, which ranges from 0 to 300.", "figure_ref": null, "candidates": [{"md_atom_id": "md_dmMI_ex_a034", "md_file": "knowledge_base/domains/MI/examples.md", "md_atom_type": "SENTENCE", "md_parent_section": "§MI.3 [Example 3]", "md_verbatim": "Staining intensity of individual cells was assessed on a semi-quantitative scale ranging from 0 to 3+, and the percentage of tumor cells at each staining intensity level was reported.", "score": 0.7103, "match_basis": "verbatim_token+domain_route:MI"}, {"md_atom_id": "md_dmMI_ex_a033", "md_file": "knowledge_base/domains/MI/examples.md", "md_atom_type": "SENTENCE", "md_parent_section": "§MI.3 [Example 3]", "md_verbatim": "In this study, IHC staining for NK2 homeobox 1 (NKX2-1; also known as thyroid transcription factor 1) was reported at a detailed level.", "score": 0.6566, "match_basis": "verbatim_token+domain_route:MI"}, {"md_atom_id": "md_dmMI_ex_a016", "md_file": "knowledge_base/domains/MI/examples.md", "md_atom_type": "SENTENCE", "md_parent_section": "§MI.2 [Example 2]", "md_verbatim": "The proportion positive score was assessed as the percentage of tumor cells that stained positive on a scale from 0 to 5.", "score": 0.55, "match_basis": "verbatim_token+domain_route:MI"}, {"md_atom_id": "md_dmMI_ex_a035", "md_file": "knowledge_base/domains/MI/examples.md", "md_atom_type": "SENTENCE", "md_parent_section": "§MI.3 [Example 3]", "md_verbatim": "These results were used to calculate the H-score, which ranges from 0 to 300.", "score": 0.5324, "match_basis": "verbatim_token+domain_route:MI"}, {"md_atom_id": "md_dmMI_ex_a036", "md_file": "knowledge_base/domains/MI/examples.md", "md_atom_type": "SENTENCE", "md_parent_section": "§MI.3 [Example 3]", "md_verbatim": "**Rows 1-4:** Show the percentage of cells at each H-Score staining intensity.", "score": 0.5208, "match_basis": "verbatim_token+domain_route:MI"}], "candidate_count": 5, "zero_candidate": false}
{"pdf_atom_id": "ig34_p0267_a003", "pdf_atom_type": "LIST_ITEM", "pdf_source": "SDTMIG_v3.4", "pdf_page": 267, "pdf_parent_section": "§6.3.5.8 Microscopic Findings (MI)", "pdf_verbatim": "Rows 1-4:\tShow the percentage of cells at each H-Score staining intensity.", "figure_ref": null, "candidates": [{"md_atom_id": "md_dmMI_ex_a036", "md_file": "knowledge_base/domains/MI/examples.md", "md_atom_type": "SENTENCE", "md_parent_section": "§MI.3 [Example 3]", "md_verbatim": "**Rows 1-4:** Show the percentage of cells at each H-Score staining intensity.", "score": 0.91, "match_basis": "verbatim_token+domain_route:MI"}, {"md_atom_id": "md_dmMI_ex_a020", "md_file": "knowledge_base/domains/MI/examples.md", "md_atom_type": "SENTENCE", "md_parent_section": "§MI.2 [Example 2]", "md_verbatim": "**Row 2:** Shows the staining intensity, which was assessed as \"Strong\".", "score": 0.5398, "match_basis": "verbatim_token+domain_route:MI"}, {"md_atom_id": "md_dmMI_ex_a037", "md_file": "knowledge_base/domains/MI/examples.md", "md_atom_type": "SENTENCE", "md_parent_section": "§MI.3 [Example 3]", "md_verbatim": "**Row 5:** Shows the H-score derived from the percentages.", "score": 0.5386, "match_basis": "verbatim_token+domain_route:MI"}, {"md_atom_id": "md_dmMI_assn_a003", "md_file": "knowledge_base/domains/MI/assumptions.md", "md_atom_type": "LIST_ITEM", "md_parent_section": "§MI [MI — Assumptions]", "md_verbatim": "2. When biomarker results are represented in MI, MITESTCD reflects the biomarker of interest (e.g., \"BRCA1\", \"HER2\", \"TTF1\"), and MITSTDTL further qualifies the record. MITSTDTL is used to represent details descriptive of staining results (e.g., \"H SCORE TOTAL SCORE\", \"STAINING INTENSITY\", \"PERCENT POSITIVE CELL\").", "score": 0.5241, "match_basis": "verbatim_token+domain_route:MI"}, {"md_atom_id": "md_dmMI_ex_a034", "md_file": "knowledge_base/domains/MI/examples.md", "md_atom_type": "SENTENCE", "md_parent_section": "§MI.3 [Example 3]", "md_verbatim": "Staining intensity of individual cells was assessed on a semi-quantitative scale ranging from 0 to 3+, and the percentage of tumor cells at each staining intensity level was reported.", "score": 0.5076, "match_basis": "verbatim_token+domain_route:MI"}], "candidate_count": 5, "zero_candidate": false}
{"pdf_atom_id": "ig34_p0267_a004", "pdf_atom_type": "LIST_ITEM", "pdf_source": "SDTMIG_v3.4", "pdf_page": 267, "pdf_parent_section": "§6.3.5.8 Microscopic Findings (MI)", "pdf_verbatim": "Row 5:\tShows the H-score derived from the percentages. This is a derived record, so MIORRES is blank.", "figure_ref": null, "candidates": [{"md_atom_id": "md_dmMI_ex_a037", "md_file": "knowledge_base/domains/MI/examples.md", "md_atom_type": "SENTENCE", "md_parent_section": "§MI.3 [Example 3]", "md_verbatim": "**Row 5:** Shows the H-score derived from the percentages.", "score": 0.6992, "match_basis": "verbatim_token+domain_route:MI"}, {"md_atom_id": "md_dmMI_ex_a038", "md_file": "knowledge_base/domains/MI/examples.md", "md_atom_type": "SENTENCE", "md_parent_section": "§MI.3 [Example 3]", "md_verbatim": "This is a derived record, so MIORRES is blank.", "score": 0.6181, "match_basis": "verbatim_token+domain_route:MI"}, {"md_atom_id": "md_dmMI_ex_a022", "md_file": "knowledge_base/domains/MI/examples.md", "md_atom_type": "SENTENCE", "md_parent_section": "§MI.2 [Example 2]", "md_verbatim": "**Row 3:** The total score is a represented in a derived record, so MIORRES is null.", "score": 0.5427, "match_basis": "verbatim_token+domain_route:MI"}, {"md_atom_id": "md_dmMI_ex_a036", "md_file": "knowledge_base/domains/MI/examples.md", "md_atom_type": "SENTENCE", "md_parent_section": "§MI.3 [Example 3]", "md_verbatim": "**Rows 1-4:** Show the percentage of cells at each H-Score staining intensity.", "score": 0.4845, "match_basis": "verbatim_token+domain_route:MI"}, {"md_atom_id": "md_dmMI_assn_a003", "md_file": "knowledge_base/domains/MI/assumptions.md", "md_atom_type": "LIST_ITEM", "md_parent_section": "§MI [MI — Assumptions]", "md_verbatim": "2. When biomarker results are represented in MI, MITESTCD reflects the biomarker of interest (e.g., \"BRCA1\", \"HER2\", \"TTF1\"), and MITSTDTL further qualifies the record. MITSTDTL is used to represent details descriptive of staining results (e.g., \"H SCORE TOTAL SCORE\", \"STAINING INTENSITY\", \"PERCENT POSITIVE CELL\").", "score": 0.4651, "match_basis": "verbatim_token+domain_route:MI"}], "candidate_count": 5, "zero_candidate": false}
{"pdf_atom_id": "ig34_p0267_a005", "pdf_atom_type": "CODE_LITERAL", "pdf_source": "SDTMIG_v3.4", "pdf_page": 267, "pdf_parent_section": "§6.3.5.8 Microscopic Findings (MI)", "pdf_verbatim": "mi.xpt", "figure_ref": null, "candidates": [{"md_atom_id": "md_dmMI_ex_a010", "md_file": "knowledge_base/domains/MI/examples.md", "md_atom_type": "SENTENCE", "md_parent_section": "§MI.1 [Example 1]", "md_verbatim": "**mi.xpt**", "score": 0.79, "match_basis": "verbatim_token+domain_route:MI"}, {"md_atom_id": "md_dmMI_ex_a023", "md_file": "knowledge_base/domains/MI/examples.md", "md_atom_type": "SENTENCE", "md_parent_section": "§MI.2 [Example 2]", "md_verbatim": "**mi.xpt**", "score": 0.79, "match_basis": "verbatim_token+domain_route:MI"}, {"md_atom_id": "md_dmMI_ex_a039", "md_file": "knowledge_base/domains/MI/examples.md", "md_atom_type": "SENTENCE", "md_parent_section": "§MI.3 [Example 3]", "md_verbatim": "**mi.xpt**", "score": 0.79, "match_basis": "verbatim_token+domain_route:MI"}, {"md_atom_id": "md_dmMI_ex_a029", "md_file": "knowledge_base/domains/MI/examples.md", "md_atom_type": "SENTENCE", "md_parent_section": "§MI.2 [Example 2]", "md_verbatim": "**suppmi.xpt**", "score": 0.31, "match_basis": "verbatim_token+domain_route:MI"}, {"md_atom_id": "md_dmMI_ex_a047", "md_file": "knowledge_base/domains/MI/examples.md", "md_atom_type": "SENTENCE", "md_parent_section": "§MI.3 [Example 3]", "md_verbatim": "**suppmi.xpt**", "score": 0.31, "match_basis": "verbatim_token+domain_route:MI"}, {"md_atom_id": "md_dmMI_assn_a001", "md_file": "knowledge_base/domains/MI/assumptions.md", "md_atom_type": "HEADING", "md_parent_section": "§MI [MI — Assumptions]", "md_verbatim": "# MI — Assumptions", "score": 0.19, "match_basis": "verbatim_token+domain_route:MI"}, {"md_atom_id": "md_dmMI_assn_a002", "md_file": "knowledge_base/domains/MI/assumptions.md", "md_atom_type": "LIST_ITEM", "md_parent_section": "§MI [MI — Assumptions]", "md_verbatim": "1. This domain holds findings resulting from the microscopic examination of tissue samples. These examinations are performed on a specimen, usually one that has been prepared with some type of stain. Some examinations of cells in fluid specimens (e.g., blood, urine) are classified as lab tests and should be stored in the Laboratory Test Results (LB) domain. Biomarkers assessed by histologic or histopathological examination (by employing cytochemical/immunocytochemical stains) are stored in the MI domain.", "score": 0.19, "match_basis": "verbatim_token+domain_route:MI"}, {"md_atom_id": "md_dmMI_assn_a003", "md_file": "knowledge_base/domains/MI/assumptions.md", "md_atom_type": "LIST_ITEM", "md_parent_section": "§MI [MI — Assumptions]", "md_verbatim": "2. When biomarker results are represented in MI, MITESTCD reflects the biomarker of interest (e.g., \"BRCA1\", \"HER2\", \"TTF1\"), and MITSTDTL further qualifies the record. MITSTDTL is used to represent details descriptive of staining results (e.g., \"H SCORE TOTAL SCORE\", \"STAINING INTENSITY\", \"PERCENT POSITIVE CELL\").", "score": 0.19, "match_basis": "verbatim_token+domain_route:MI"}, {"md_atom_id": "md_dmMI_assn_a004", "md_file": "knowledge_base/domains/MI/assumptions.md", "md_atom_type": "LIST_ITEM", "md_parent_section": "§MI [MI — Assumptions]", "md_verbatim": "3. Any Identifiers, Timing variables, or Findings general observation class qualifiers may be added to the MI domain, but the following qualifiers would generally not be used: --POS, --MODIFY, --ORNRLO, --ORNRHI, --STNRLO, --STNRHI, --STNRC, --NRIND, --LEAD, --CSTATE, --BLFL, --FAST, --DRVFL, --LLOQ, --ULOQ.", "score": 0.19, "match_basis": "verbatim_token+domain_route:MI"}, {"md_atom_id": "md_dmMI_ex_a001", "md_file": "knowledge_base/domains/MI/examples.md", "md_atom_type": "HEADING", "md_parent_section": "§MI [MI — Examples]", "md_verbatim": "# MI — Examples", "score": 0.19, "match_basis": "verbatim_token+domain_route:MI"}], "candidate_count": 10, "zero_candidate": false}
{"pdf_atom_id": "ig34_p0267_a006", "pdf_atom_type": "TABLE_HEADER", "pdf_source": "SDTMIG_v3.4", "pdf_page": 267, "pdf_parent_section": "§6.3.5.8 Microscopic Findings (MI)", "pdf_verbatim": "Row | STUDYID | DOMAIN | USUBJID | MISEQ | MIGRPID | MITESTCD | MITEST | MITSTDTL | MIORRES | MIORRESU | MISTRESC | MISTRESN | MISTRESU | MISPEC | MILOC | MIMETHOD | MIDRVFL | VISIT | MIDTC", "figure_ref": null, "candidates": [{"md_atom_id": "md_dmMI_ex_a040", "md_file": "knowledge_base/domains/MI/examples.md", "md_atom_type": "TABLE_HEADER", "md_parent_section": "§MI.3 [Example 3]", "md_verbatim": "| Row | STUDYID | DOMAIN | USUBJID | MISEQ | MIGRPID | MITESTCD | MITEST | MITSTDTL | MIORRES | MIORRESU | MISTRESC | MISTRESN | MISTRESU | MISPEC | MILOC | MIMETHOD | MIDRVFL | VISIT | MIDTC |\n|-----|---------|--------|---------|-------|---------|----------|--------|----------|---------|----------|----------|----------|----------|--------|-------|----------|---------|-------|-------|", "score": 1.0, "match_basis": "verbatim_token+domain_route:MI"}, {"md_atom_id": "md_dmMI_ex_a024", "md_file": "knowledge_base/domains/MI/examples.md", "md_atom_type": "TABLE_HEADER", "md_parent_section": "§MI.2 [Example 2]", "md_verbatim": "| Row | STUDYID | DOMAIN | USUBJID | MISEQ | MIGRPID | MITESTCD | MITEST | MITSTDTL | MIORRES | MISTRESC | MISTRESN | MISPEC | MILOC | MIMETHOD | MIDRVFL | VISIT | MIDTC |\n|-----|---------|--------|---------|-------|---------|----------|--------|----------|---------|----------|----------|--------|-------|----------|---------|-------|-------|", "score": 0.991, "match_basis": "verbatim_token+domain_route:MI"}, {"md_atom_id": "md_dmMI_ex_a011", "md_file": "knowledge_base/domains/MI/examples.md", "md_atom_type": "TABLE_HEADER", "md_parent_section": "§MI.1 [Example 1]", "md_verbatim": "| Row | STUDYID | DOMAIN | USUBJID | MISEQ | MITESTCD | MITEST | MITSTDTL | MIORRES | MISTRESC | MIRESCAT | MISPEC | MILOC | MIMETHOD | VISIT | MIDTC |\n|-----|---------|--------|---------|-------|----------|--------|----------|---------|----------|----------|--------|-------|----------|-------|-------|", "score": 0.8732, "match_basis": "verbatim_token+domain_route:MI"}, {"md_atom_id": "md_dmMI_ex_a030", "md_file": "knowledge_base/domains/MI/examples.md", "md_atom_type": "TABLE_HEADER", "md_parent_section": "§MI.2 [Example 2]", "md_verbatim": "| Row | STUDYID | RDOMAIN | USUBJID | IDVAR | IDVARVAL | QNAM | QLABEL | QVAL | QORIG | QEVAL |\n|-----|---------|---------|---------|-------|----------|------|--------|------|-------|-------|", "score": 0.5047, "match_basis": "verbatim_token+domain_route:MI"}, {"md_atom_id": "md_dmMI_ex_a048", "md_file": "knowledge_base/domains/MI/examples.md", "md_atom_type": "TABLE_HEADER", "md_parent_section": "§MI.3 [Example 3]", "md_verbatim": "| Row | STUDYID | RDOMAIN | USUBJID | IDVAR | IDVARVAL | QNAM | QLABEL | QVAL | QORIG | QEVAL |\n|-----|---------|---------|---------|-------|----------|------|--------|------|-------|-------|", "score": 0.5047, "match_basis": "verbatim_token+domain_route:MI"}], "candidate_count": 5, "zero_candidate": false}
{"pdf_atom_id": "ig34_p0267_a007", "pdf_atom_type": "TABLE_ROW", "pdf_source": "SDTMIG_v3.4", "pdf_page": 267, "pdf_parent_section": "§6.3.5.8 Microscopic Findings (MI)", "pdf_verbatim": "1 | ABC | MI | ABC-1001 | 1 | 1 | NKX2_1 | NK2 Homeobox 1 | H SCORE STAINING INTENSITY 0 | 25 | % | 25 | 25 | % | TISSUE | LUNG | IHC | | SCREENING | 2001-06-15", "figure_ref": null, "candidates": [{"md_atom_id": "md_dmMI_ex_a041", "md_file": "knowledge_base/domains/MI/examples.md", "md_atom_type": "TABLE_ROW", "md_parent_section": "§MI.3 [Example 3]", "md_verbatim": "| 1 | ABC | MI | ABC-1001 | 1 | 1 | NKX2_1 | NK2 Homeobox 1 | H SCORE STAINING INTENSITY 0 | 25 | % | 25 | 25 | % | TISSUE | LUNG | IHC | | SCREENING | 2001-06-15 |", "score": 1.0, "match_basis": "verbatim_token+domain_route:MI"}, {"md_atom_id": "md_dmMI_ex_a042", "md_file": "knowledge_base/domains/MI/examples.md", "md_atom_type": "TABLE_ROW", "md_parent_section": "§MI.3 [Example 3]", "md_verbatim": "| 2 | ABC | MI | ABC-1001 | 2 | 1 | NKX2_1 | NK2 Homeobox 1 | H SCORE STAINING INTENSITY 1+ | 40 | % | 40 | 40 | % | TISSUE | LUNG | IHC | | SCREENING | 2001-06-15 |", "score": 1.0, "match_basis": "verbatim_token+domain_route:MI"}, {"md_atom_id": "md_dmMI_ex_a043", "md_file": "knowledge_base/domains/MI/examples.md", "md_atom_type": "TABLE_ROW", "md_parent_section": "§MI.3 [Example 3]", "md_verbatim": "| 3 | ABC | MI | ABC-1001 | 3 | 1 | NKX2_1 | NK2 Homeobox 1 | H SCORE STAINING INTENSITY 2+ | 35 | % | 35 | 35 | % | TISSUE | LUNG | IHC | | SCREENING | 2001-06-15 |", "score": 1.0, "match_basis": "verbatim_token+domain_route:MI"}, {"md_atom_id": "md_dmMI_ex_a044", "md_file": "knowledge_base/domains/MI/examples.md", "md_atom_type": "TABLE_ROW", "md_parent_section": "§MI.3 [Example 3]", "md_verbatim": "| 4 | ABC | MI | ABC-1001 | 4 | 1 | NKX2_1 | NK2 Homeobox 1 | H SCORE STAINING INTENSITY 3+ | 0 | % | 0 | 0 | % | TISSUE | LUNG | IHC | | SCREENING | 2001-06-15 |", "score": 1.0, "match_basis": "verbatim_token+domain_route:MI"}, {"md_atom_id": "md_dmMI_ex_a045", "md_file": "knowledge_base/domains/MI/examples.md", "md_atom_type": "TABLE_ROW", "md_parent_section": "§MI.3 [Example 3]", "md_verbatim": "| 5 | ABC | MI | ABC-1001 | 5 | 1 | NKX2_1 | NK2 Homeobox 1 | H SCORE TOTAL SCORE | | | 110 | 110 | | TISSUE | LUNG | IHC | Y | SCREENING | 2001-06-15 |", "score": 0.8, "match_basis": "verbatim_token+domain_route:MI"}], "candidate_count": 5, "zero_candidate": false}
{"pdf_atom_id": "ig34_p0267_a008", "pdf_atom_type": "TABLE_ROW", "pdf_source": "SDTMIG_v3.4", "pdf_page": 267, "pdf_parent_section": "§6.3.5.8 Microscopic Findings (MI)", "pdf_verbatim": "2 | ABC | MI | ABC-1001 | 2 | 1 | NKX2_1 | NK2 Homeobox 1 | H SCORE STAINING INTENSITY 1+ | 40 | % | 40 | 40 | % | TISSUE | LUNG | IHC | | SCREENING | 2001-06-15", "figure_ref": null, "candidates": [{"md_atom_id": "md_dmMI_ex_a041", "md_file": "knowledge_base/domains/MI/examples.md", "md_atom_type": "TABLE_ROW", "md_parent_section": "§MI.3 [Example 3]", "md_verbatim": "| 1 | ABC | MI | ABC-1001 | 1 | 1 | NKX2_1 | NK2 Homeobox 1 | H SCORE STAINING INTENSITY 0 | 25 | % | 25 | 25 | % | TISSUE | LUNG | IHC | | SCREENING | 2001-06-15 |", "score": 1.0, "match_basis": "verbatim_token+domain_route:MI"}, {"md_atom_id": "md_dmMI_ex_a042", "md_file": "knowledge_base/domains/MI/examples.md", "md_atom_type": "TABLE_ROW", "md_parent_section": "§MI.3 [Example 3]", "md_verbatim": "| 2 | ABC | MI | ABC-1001 | 2 | 1 | NKX2_1 | NK2 Homeobox 1 | H SCORE STAINING INTENSITY 1+ | 40 | % | 40 | 40 | % | TISSUE | LUNG | IHC | | SCREENING | 2001-06-15 |", "score": 1.0, "match_basis": "verbatim_token+domain_route:MI"}, {"md_atom_id": "md_dmMI_ex_a043", "md_file": "knowledge_base/domains/MI/examples.md", "md_atom_type": "TABLE_ROW", "md_parent_section": "§MI.3 [Example 3]", "md_verbatim": "| 3 | ABC | MI | ABC-1001 | 3 | 1 | NKX2_1 | NK2 Homeobox 1 | H SCORE STAINING INTENSITY 2+ | 35 | % | 35 | 35 | % | TISSUE | LUNG | IHC | | SCREENING | 2001-06-15 |", "score": 1.0, "match_basis": "verbatim_token+domain_route:MI"}, {"md_atom_id": "md_dmMI_ex_a044", "md_file": "knowledge_base/domains/MI/examples.md", "md_atom_type": "TABLE_ROW", "md_parent_section": "§MI.3 [Example 3]", "md_verbatim": "| 4 | ABC | MI | ABC-1001 | 4 | 1 | NKX2_1 | NK2 Homeobox 1 | H SCORE STAINING INTENSITY 3+ | 0 | % | 0 | 0 | % | TISSUE | LUNG | IHC | | SCREENING | 2001-06-15 |", "score": 1.0, "match_basis": "verbatim_token+domain_route:MI"}, {"md_atom_id": "md_dmMI_ex_a045", "md_file": "knowledge_base/domains/MI/examples.md", "md_atom_type": "TABLE_ROW", "md_parent_section": "§MI.3 [Example 3]", "md_verbatim": "| 5 | ABC | MI | ABC-1001 | 5 | 1 | NKX2_1 | NK2 Homeobox 1 | H SCORE TOTAL SCORE | | | 110 | 110 | | TISSUE | LUNG | IHC | Y | SCREENING | 2001-06-15 |", "score": 0.8, "match_basis": "verbatim_token+domain_route:MI"}], "candidate_count": 5, "zero_candidate": false}
{"pdf_atom_id": "ig34_p0267_a009", "pdf_atom_type": "TABLE_ROW", "pdf_source": "SDTMIG_v3.4", "pdf_page": 267, "pdf_parent_section": "§6.3.5.8 Microscopic Findings (MI)", "pdf_verbatim": "3 | ABC | MI | ABC-1001 | 3 | 1 | NKX2_1 | NK2 Homeobox 1 | H SCORE STAINING INTENSITY 2+ | 35 | % | 35 | 35 | % | TISSUE | LUNG | IHC | | SCREENING | 2001-06-15", "figure_ref": null, "candidates": [{"md_atom_id": "md_dmMI_ex_a041", "md_file": "knowledge_base/domains/MI/examples.md", "md_atom_type": "TABLE_ROW", "md_parent_section": "§MI.3 [Example 3]", "md_verbatim": "| 1 | ABC | MI | ABC-1001 | 1 | 1 | NKX2_1 | NK2 Homeobox 1 | H SCORE STAINING INTENSITY 0 | 25 | % | 25 | 25 | % | TISSUE | LUNG | IHC | | SCREENING | 2001-06-15 |", "score": 1.0, "match_basis": "verbatim_token+domain_route:MI"}, {"md_atom_id": "md_dmMI_ex_a042", "md_file": "knowledge_base/domains/MI/examples.md", "md_atom_type": "TABLE_ROW", "md_parent_section": "§MI.3 [Example 3]", "md_verbatim": "| 2 | ABC | MI | ABC-1001 | 2 | 1 | NKX2_1 | NK2 Homeobox 1 | H SCORE STAINING INTENSITY 1+ | 40 | % | 40 | 40 | % | TISSUE | LUNG | IHC | | SCREENING | 2001-06-15 |", "score": 1.0, "match_basis": "verbatim_token+domain_route:MI"}, {"md_atom_id": "md_dmMI_ex_a043", "md_file": "knowledge_base/domains/MI/examples.md", "md_atom_type": "TABLE_ROW", "md_parent_section": "§MI.3 [Example 3]", "md_verbatim": "| 3 | ABC | MI | ABC-1001 | 3 | 1 | NKX2_1 | NK2 Homeobox 1 | H SCORE STAINING INTENSITY 2+ | 35 | % | 35 | 35 | % | TISSUE | LUNG | IHC | | SCREENING | 2001-06-15 |", "score": 1.0, "match_basis": "verbatim_token+domain_route:MI"}, {"md_atom_id": "md_dmMI_ex_a044", "md_file": "knowledge_base/domains/MI/examples.md", "md_atom_type": "TABLE_ROW", "md_parent_section": "§MI.3 [Example 3]", "md_verbatim": "| 4 | ABC | MI | ABC-1001 | 4 | 1 | NKX2_1 | NK2 Homeobox 1 | H SCORE STAINING INTENSITY 3+ | 0 | % | 0 | 0 | % | TISSUE | LUNG | IHC | | SCREENING | 2001-06-15 |", "score": 1.0, "match_basis": "verbatim_token+domain_route:MI"}, {"md_atom_id": "md_dmMI_ex_a045", "md_file": "knowledge_base/domains/MI/examples.md", "md_atom_type": "TABLE_ROW", "md_parent_section": "§MI.3 [Example 3]", "md_verbatim": "| 5 | ABC | MI | ABC-1001 | 5 | 1 | NKX2_1 | NK2 Homeobox 1 | H SCORE TOTAL SCORE | | | 110 | 110 | | TISSUE | LUNG | IHC | Y | SCREENING | 2001-06-15 |", "score": 0.8, "match_basis": "verbatim_token+domain_route:MI"}], "candidate_count": 5, "zero_candidate": false}
{"pdf_atom_id": "ig34_p0267_a010", "pdf_atom_type": "TABLE_ROW", "pdf_source": "SDTMIG_v3.4", "pdf_page": 267, "pdf_parent_section": "§6.3.5.8 Microscopic Findings (MI)", "pdf_verbatim": "4 | ABC | MI | ABC-1001 | 4 | 1 | NKX2_1 | NK2 Homeobox 1 | H SCORE STAINING INTENSITY 3+ | 0 | % | 0 | 0 | % | TISSUE | LUNG | IHC | | SCREENING | 2001-06-15", "figure_ref": null, "candidates": [{"md_atom_id": "md_dmMI_ex_a041", "md_file": "knowledge_base/domains/MI/examples.md", "md_atom_type": "TABLE_ROW", "md_parent_section": "§MI.3 [Example 3]", "md_verbatim": "| 1 | ABC | MI | ABC-1001 | 1 | 1 | NKX2_1 | NK2 Homeobox 1 | H SCORE STAINING INTENSITY 0 | 25 | % | 25 | 25 | % | TISSUE | LUNG | IHC | | SCREENING | 2001-06-15 |", "score": 1.0, "match_basis": "verbatim_token+domain_route:MI"}, {"md_atom_id": "md_dmMI_ex_a042", "md_file": "knowledge_base/domains/MI/examples.md", "md_atom_type": "TABLE_ROW", "md_parent_section": "§MI.3 [Example 3]", "md_verbatim": "| 2 | ABC | MI | ABC-1001 | 2 | 1 | NKX2_1 | NK2 Homeobox 1 | H SCORE STAINING INTENSITY 1+ | 40 | % | 40 | 40 | % | TISSUE | LUNG | IHC | | SCREENING | 2001-06-15 |", "score": 1.0, "match_basis": "verbatim_token+domain_route:MI"}, {"md_atom_id": "md_dmMI_ex_a043", "md_file": "knowledge_base/domains/MI/examples.md", "md_atom_type": "TABLE_ROW", "md_parent_section": "§MI.3 [Example 3]", "md_verbatim": "| 3 | ABC | MI | ABC-1001 | 3 | 1 | NKX2_1 | NK2 Homeobox 1 | H SCORE STAINING INTENSITY 2+ | 35 | % | 35 | 35 | % | TISSUE | LUNG | IHC | | SCREENING | 2001-06-15 |", "score": 1.0, "match_basis": "verbatim_token+domain_route:MI"}, {"md_atom_id": "md_dmMI_ex_a044", "md_file": "knowledge_base/domains/MI/examples.md", "md_atom_type": "TABLE_ROW", "md_parent_section": "§MI.3 [Example 3]", "md_verbatim": "| 4 | ABC | MI | ABC-1001 | 4 | 1 | NKX2_1 | NK2 Homeobox 1 | H SCORE STAINING INTENSITY 3+ | 0 | % | 0 | 0 | % | TISSUE | LUNG | IHC | | SCREENING | 2001-06-15 |", "score": 1.0, "match_basis": "verbatim_token+domain_route:MI"}, {"md_atom_id": "md_dmMI_ex_a045", "md_file": "knowledge_base/domains/MI/examples.md", "md_atom_type": "TABLE_ROW", "md_parent_section": "§MI.3 [Example 3]", "md_verbatim": "| 5 | ABC | MI | ABC-1001 | 5 | 1 | NKX2_1 | NK2 Homeobox 1 | H SCORE TOTAL SCORE | | | 110 | 110 | | TISSUE | LUNG | IHC | Y | SCREENING | 2001-06-15 |", "score": 0.8, "match_basis": "verbatim_token+domain_route:MI"}], "candidate_count": 5, "zero_candidate": false}
{"pdf_atom_id": "ig34_p0267_a011", "pdf_atom_type": "TABLE_ROW", "pdf_source": "SDTMIG_v3.4", "pdf_page": 267, "pdf_parent_section": "§6.3.5.8 Microscopic Findings (MI)", "pdf_verbatim": "5 | ABC | MI | ABC-1001 | 5 | 1 | NKX2_1 | NK2 Homeobox 1 | H SCORE TOTAL SCORE | | | 110 | 110 | | TISSUE | LUNG | IHC | Y | SCREENING | 2001-06-15", "figure_ref": null, "candidates": [{"md_atom_id": "md_dmMI_ex_a045", "md_file": "knowledge_base/domains/MI/examples.md", "md_atom_type": "TABLE_ROW", "md_parent_section": "§MI.3 [Example 3]", "md_verbatim": "| 5 | ABC | MI | ABC-1001 | 5 | 1 | NKX2_1 | NK2 Homeobox 1 | H SCORE TOTAL SCORE | | | 110 | 110 | | TISSUE | LUNG | IHC | Y | SCREENING | 2001-06-15 |", "score": 1.0, "match_basis": "verbatim_token+domain_route:MI"}, {"md_atom_id": "md_dmMI_ex_a041", "md_file": "knowledge_base/domains/MI/examples.md", "md_atom_type": "TABLE_ROW", "md_parent_section": "§MI.3 [Example 3]", "md_verbatim": "| 1 | ABC | MI | ABC-1001 | 1 | 1 | NKX2_1 | NK2 Homeobox 1 | H SCORE STAINING INTENSITY 0 | 25 | % | 25 | 25 | % | TISSUE | LUNG | IHC | | SCREENING | 2001-06-15 |", "score": 0.8, "match_basis": "verbatim_token+domain_route:MI"}, {"md_atom_id": "md_dmMI_ex_a042", "md_file": "knowledge_base/domains/MI/examples.md", "md_atom_type": "TABLE_ROW", "md_parent_section": "§MI.3 [Example 3]", "md_verbatim": "| 2 | ABC | MI | ABC-1001 | 2 | 1 | NKX2_1 | NK2 Homeobox 1 | H SCORE STAINING INTENSITY 1+ | 40 | % | 40 | 40 | % | TISSUE | LUNG | IHC | | SCREENING | 2001-06-15 |", "score": 0.8, "match_basis": "verbatim_token+domain_route:MI"}, {"md_atom_id": "md_dmMI_ex_a043", "md_file": "knowledge_base/domains/MI/examples.md", "md_atom_type": "TABLE_ROW", "md_parent_section": "§MI.3 [Example 3]", "md_verbatim": "| 3 | ABC | MI | ABC-1001 | 3 | 1 | NKX2_1 | NK2 Homeobox 1 | H SCORE STAINING INTENSITY 2+ | 35 | % | 35 | 35 | % | TISSUE | LUNG | IHC | | SCREENING | 2001-06-15 |", "score": 0.8, "match_basis": "verbatim_token+domain_route:MI"}, {"md_atom_id": "md_dmMI_ex_a044", "md_file": "knowledge_base/domains/MI/examples.md", "md_atom_type": "TABLE_ROW", "md_parent_section": "§MI.3 [Example 3]", "md_verbatim": "| 4 | ABC | MI | ABC-1001 | 4 | 1 | NKX2_1 | NK2 Homeobox 1 | H SCORE STAINING INTENSITY 3+ | 0 | % | 0 | 0 | % | TISSUE | LUNG | IHC | | SCREENING | 2001-06-15 |", "score": 0.8, "match_basis": "verbatim_token+domain_route:MI"}], "candidate_count": 5, "zero_candidate": false}
{"pdf_atom_id": "ig34_p0267_a012", "pdf_atom_type": "SENTENCE", "pdf_source": "SDTMIG_v3.4", "pdf_page": 267, "pdf_parent_section": "§6.3.5.8 Microscopic Findings (MI)", "pdf_verbatim": "These IHC staining results were all for the cell cytoplasm, represented using a supplemental qualifier for subcellular location.", "figure_ref": null, "candidates": [{"md_atom_id": "md_dmMI_ex_a046", "md_file": "knowledge_base/domains/MI/examples.md", "md_atom_type": "SENTENCE", "md_parent_section": "§MI.3 [Example 3]", "md_verbatim": "These IHC staining results were all for the cell cytoplasm, represented using a supplemental qualifier for subcellular location.", "score": 1.0, "match_basis": "verbatim_token+domain_route:MI"}, {"md_atom_id": "md_dmMI_ex_a028", "md_file": "knowledge_base/domains/MI/examples.md", "md_atom_type": "SENTENCE", "md_parent_section": "§MI.2 [Example 2]", "md_verbatim": "These IHC staining results were all for the cell nucleus, represented using a supplemental qualifier for subcellular location.", "score": 0.8986, "match_basis": "verbatim_token+domain_route:MI"}, {"md_atom_id": "md_dmMI_ex_a034", "md_file": "knowledge_base/domains/MI/examples.md", "md_atom_type": "SENTENCE", "md_parent_section": "§MI.3 [Example 3]", "md_verbatim": "Staining intensity of individual cells was assessed on a semi-quantitative scale ranging from 0 to 3+, and the percentage of tumor cells at each staining intensity level was reported.", "score": 0.4823, "match_basis": "verbatim_token+domain_route:MI"}, {"md_atom_id": "md_dmMI_ex_a036", "md_file": "knowledge_base/domains/MI/examples.md", "md_atom_type": "SENTENCE", "md_parent_section": "§MI.3 [Example 3]", "md_verbatim": "**Rows 1-4:** Show the percentage of cells at each H-Score staining intensity.", "score": 0.4818, "match_basis": "verbatim_token+domain_route:MI"}, {"md_atom_id": "md_dmMI_ex_a022", "md_file": "knowledge_base/domains/MI/examples.md", "md_atom_type": "SENTENCE", "md_parent_section": "§MI.2 [Example 2]", "md_verbatim": "**Row 3:** The total score is a represented in a derived record, so MIORRES is null.", "score": 0.4767, "match_basis": "verbatim_token+domain_route:MI"}], "candidate_count": 5, "zero_candidate": false}
{"pdf_atom_id": "ig34_p0267_a013", "pdf_atom_type": "CODE_LITERAL", "pdf_source": "SDTMIG_v3.4", "pdf_page": 267, "pdf_parent_section": "§6.3.5.8 Microscopic Findings (MI)", "pdf_verbatim": "suppmi.xpt", "figure_ref": null, "candidates": [{"md_atom_id": "md_dmMI_ex_a029", "md_file": "knowledge_base/domains/MI/examples.md", "md_atom_type": "SENTENCE", "md_parent_section": "§MI.2 [Example 2]", "md_verbatim": "**suppmi.xpt**", "score": 0.79, "match_basis": "verbatim_token+domain_route:MI"}, {"md_atom_id": "md_dmMI_ex_a047", "md_file": "knowledge_base/domains/MI/examples.md", "md_atom_type": "SENTENCE", "md_parent_section": "§MI.3 [Example 3]", "md_verbatim": "**suppmi.xpt**", "score": 0.79, "match_basis": "verbatim_token+domain_route:MI"}, {"md_atom_id": "md_dmMI_ex_a010", "md_file": "knowledge_base/domains/MI/examples.md", "md_atom_type": "SENTENCE", "md_parent_section": "§MI.1 [Example 1]", "md_verbatim": "**mi.xpt**", "score": 0.31, "match_basis": "verbatim_token+domain_route:MI"}, {"md_atom_id": "md_dmMI_ex_a023", "md_file": "knowledge_base/domains/MI/examples.md", "md_atom_type": "SENTENCE", "md_parent_section": "§MI.2 [Example 2]", "md_verbatim": "**mi.xpt**", "score": 0.31, "match_basis": "verbatim_token+domain_route:MI"}, {"md_atom_id": "md_dmMI_ex_a039", "md_file": "knowledge_base/domains/MI/examples.md", "md_atom_type": "SENTENCE", "md_parent_section": "§MI.3 [Example 3]", "md_verbatim": "**mi.xpt**", "score": 0.31, "match_basis": "verbatim_token+domain_route:MI"}, {"md_atom_id": "md_dmMI_ex_a028", "md_file": "knowledge_base/domains/MI/examples.md", "md_atom_type": "SENTENCE", "md_parent_section": "§MI.2 [Example 2]", "md_verbatim": "These IHC staining results were all for the cell nucleus, represented using a supplemental qualifier for subcellular location.", "score": 0.2079, "match_basis": "verbatim_token+domain_route:MI"}, {"md_atom_id": "md_dmMI_ex_a046", "md_file": "knowledge_base/domains/MI/examples.md", "md_atom_type": "SENTENCE", "md_parent_section": "§MI.3 [Example 3]", "md_verbatim": "These IHC staining results were all for the cell cytoplasm, represented using a supplemental qualifier for subcellular location.", "score": 0.2074, "match_basis": "verbatim_token+domain_route:MI"}, {"md_atom_id": "md_dmMI_assn_a001", "md_file": "knowledge_base/domains/MI/assumptions.md", "md_atom_type": "HEADING", "md_parent_section": "§MI [MI — Assumptions]", "md_verbatim": "# MI — Assumptions", "score": 0.19, "match_basis": "verbatim_token+domain_route:MI"}, {"md_atom_id": "md_dmMI_assn_a002", "md_file": "knowledge_base/domains/MI/assumptions.md", "md_atom_type": "LIST_ITEM", "md_parent_section": "§MI [MI — Assumptions]", "md_verbatim": "1. This domain holds findings resulting from the microscopic examination of tissue samples. These examinations are performed on a specimen, usually one that has been prepared with some type of stain. Some examinations of cells in fluid specimens (e.g., blood, urine) are classified as lab tests and should be stored in the Laboratory Test Results (LB) domain. Biomarkers assessed by histologic or histopathological examination (by employing cytochemical/immunocytochemical stains) are stored in the MI domain.", "score": 0.19, "match_basis": "verbatim_token+domain_route:MI"}, {"md_atom_id": "md_dmMI_assn_a003", "md_file": "knowledge_base/domains/MI/assumptions.md", "md_atom_type": "LIST_ITEM", "md_parent_section": "§MI [MI — Assumptions]", "md_verbatim": "2. When biomarker results are represented in MI, MITESTCD reflects the biomarker of interest (e.g., \"BRCA1\", \"HER2\", \"TTF1\"), and MITSTDTL further qualifies the record. MITSTDTL is used to represent details descriptive of staining results (e.g., \"H SCORE TOTAL SCORE\", \"STAINING INTENSITY\", \"PERCENT POSITIVE CELL\").", "score": 0.19, "match_basis": "verbatim_token+domain_route:MI"}], "candidate_count": 10, "zero_candidate": false}
{"pdf_atom_id": "ig34_p0267_a014", "pdf_atom_type": "TABLE_HEADER", "pdf_source": "SDTMIG_v3.4", "pdf_page": 267, "pdf_parent_section": "§6.3.5.8 Microscopic Findings (MI)", "pdf_verbatim": "Row | STUDYID | RDOMAIN | USUBJID | IDVAR | IDVARVAL | QNAM | QLABEL | QVAL | QORIG | QEVAL", "figure_ref": null, "candidates": [{"md_atom_id": "md_dmMI_ex_a030", "md_file": "knowledge_base/domains/MI/examples.md", "md_atom_type": "TABLE_HEADER", "md_parent_section": "§MI.2 [Example 2]", "md_verbatim": "| Row | STUDYID | RDOMAIN | USUBJID | IDVAR | IDVARVAL | QNAM | QLABEL | QVAL | QORIG | QEVAL |\n|-----|---------|---------|---------|-------|----------|------|--------|------|-------|-------|", "score": 1.0, "match_basis": "verbatim_token+domain_route:MI"}, {"md_atom_id": "md_dmMI_ex_a048", "md_file": "knowledge_base/domains/MI/examples.md", "md_atom_type": "TABLE_HEADER", "md_parent_section": "§MI.3 [Example 3]", "md_verbatim": "| Row | STUDYID | RDOMAIN | USUBJID | IDVAR | IDVARVAL | QNAM | QLABEL | QVAL | QORIG | QEVAL |\n|-----|---------|---------|---------|-------|----------|------|--------|------|-------|-------|", "score": 1.0, "match_basis": "verbatim_token+domain_route:MI"}, {"md_atom_id": "md_dmMI_ex_a011", "md_file": "knowledge_base/domains/MI/examples.md", "md_atom_type": "TABLE_HEADER", "md_parent_section": "§MI.1 [Example 1]", "md_verbatim": "| Row | STUDYID | DOMAIN | USUBJID | MISEQ | MITESTCD | MITEST | MITSTDTL | MIORRES | MISTRESC | MIRESCAT | MISPEC | MILOC | MIMETHOD | VISIT | MIDTC |\n|-----|---------|--------|---------|-------|----------|--------|----------|---------|----------|----------|--------|-------|----------|-------|-------|", "score": 0.5139, "match_basis": "verbatim_token+domain_route:MI"}, {"md_atom_id": "md_dmMI_ex_a024", "md_file": "knowledge_base/domains/MI/examples.md", "md_atom_type": "TABLE_HEADER", "md_parent_section": "§MI.2 [Example 2]", "md_verbatim": "| Row | STUDYID | DOMAIN | USUBJID | MISEQ | MIGRPID | MITESTCD | MITEST | MITSTDTL | MIORRES | MISTRESC | MISTRESN | MISPEC | MILOC | MIMETHOD | MIDRVFL | VISIT | MIDTC |\n|-----|---------|--------|---------|-------|---------|----------|--------|----------|---------|----------|----------|--------|-------|----------|---------|-------|-------|", "score": 0.5059, "match_basis": "verbatim_token+domain_route:MI"}, {"md_atom_id": "md_dmMI_ex_a040", "md_file": "knowledge_base/domains/MI/examples.md", "md_atom_type": "TABLE_HEADER", "md_parent_section": "§MI.3 [Example 3]", "md_verbatim": "| Row | STUDYID | DOMAIN | USUBJID | MISEQ | MIGRPID | MITESTCD | MITEST | MITSTDTL | MIORRES | MIORRESU | MISTRESC | MISTRESN | MISTRESU | MISPEC | MILOC | MIMETHOD | MIDRVFL | VISIT | MIDTC |\n|-----|---------|--------|---------|-------|---------|----------|--------|----------|---------|----------|----------|----------|----------|--------|-------|----------|---------|-------|-------|", "score": 0.5047, "match_basis": "verbatim_token+domain_route:MI"}], "candidate_count": 5, "zero_candidate": false}
{"pdf_atom_id": "ig34_p0267_a015", "pdf_atom_type": "TABLE_ROW", "pdf_source": "SDTMIG_v3.4", "pdf_page": 267, "pdf_parent_section": "§6.3.5.8 Microscopic Findings (MI)", "pdf_verbatim": "1 | ABC | MI | ABC-1001 | MIGRPID | 1 | MISCELOC | Subcellular Location | CYTOPLASM | CRF | ", "figure_ref": null, "candidates": [{"md_atom_id": "md_dmMI_ex_a049", "md_file": "knowledge_base/domains/MI/examples.md", "md_atom_type": "TABLE_ROW", "md_parent_section": "§MI.3 [Example 3]", "md_verbatim": "| 1 | ABC | MI | ABC-1001 | MIGRPID | 1 | MISCELOC | Subcellular Location | CYTOPLASM | CRF | |", "score": 1.0, "match_basis": "verbatim_token+domain_route:MI"}, {"md_atom_id": "md_dmMI_ex_a031", "md_file": "knowledge_base/domains/MI/examples.md", "md_atom_type": "TABLE_ROW", "md_parent_section": "§MI.2 [Example 2]", "md_verbatim": "| 1 | ABC | MI | ABC-1001 | MIGRPID | 1 | MISCELOC | Subcellular Location | NUCLEUS | CRF | |", "score": 0.82, "match_basis": "verbatim_token+domain_route:MI"}, {"md_atom_id": "md_dmMI_ex_a025", "md_file": "knowledge_base/domains/MI/examples.md", "md_atom_type": "TABLE_ROW", "md_parent_section": "§MI.2 [Example 2]", "md_verbatim": "| 1 | ABC | MI | ABC-1001 | 1 | 1 | ESTRCPT | Estrogen Receptor | ALLRED PROPORTION POSITIVE SCORE | 3 | 3 | 3 | TISSUE | BREAST | IHC | | SCREENING | 2001-06-15 |", "score": 0.4349, "match_basis": "verbatim_token+domain_route:MI"}, {"md_atom_id": "md_dmMI_ex_a012", "md_file": "knowledge_base/domains/MI/examples.md", "md_atom_type": "TABLE_ROW", "md_parent_section": "§MI.1 [Example 1]", "md_verbatim": "| 1 | ABC | MI | ABC-1001 | 1 | HER2 | Human Epidermal Growth Factor Receptor 2 | STAINING INTENSITY | 0 | 0 | NEGATIVE | TISSUE | BREAST | IHC | SCREENING | 2001-06-15 |", "score": 0.4326, "match_basis": "verbatim_token+domain_route:MI"}, {"md_atom_id": "md_dmMI_ex_a045", "md_file": "knowledge_base/domains/MI/examples.md", "md_atom_type": "TABLE_ROW", "md_parent_section": "§MI.3 [Example 3]", "md_verbatim": "| 5 | ABC | MI | ABC-1001 | 5 | 1 | NKX2_1 | NK2 Homeobox 1 | H SCORE TOTAL SCORE | | | 110 | 110 | | TISSUE | LUNG | IHC | Y | SCREENING | 2001-06-15 |", "score": 0.4273, "match_basis": "verbatim_token+domain_route:MI"}], "candidate_count": 5, "zero_candidate": false}
{"pdf_atom_id": "ig34_p0267_a016", "pdf_atom_type": "HEADING", "pdf_source": "SDTMIG_v3.4", "pdf_page": 267, "pdf_parent_section": "§6.3.5 Specimen-based Findings Domains", "pdf_verbatim": "6.3.5.9 Pharmacokinetics Domains", "figure_ref": null, "candidates": [{"md_atom_id": "md_varindex_a1150", "md_file": "knowledge_base/VARIABLE_INDEX.md", "md_atom_type": "HEADING", "md_parent_section": "§ 二、领域专属变量（仅 1 个域，共 1499 个），按域分组", "md_verbatim": "### PP — Pharmacokinetics Parameters (Findings)", "score": 0.5545, "match_basis": "verbatim_token+global_search"}, {"md_atom_id": "md_varindex_a1091", "md_file": "knowledge_base/VARIABLE_INDEX.md", "md_atom_type": "HEADING", "md_parent_section": "§ 二、领域专属变量（仅 1 个域，共 1499 个），按域分组", "md_verbatim": "### PC — Pharmacokinetics Concentrations (Findings)", "score": 0.527, "match_basis": "verbatim_token+global_search"}, {"md_atom_id": "md_index_a023", "md_file": "knowledge_base/INDEX.md", "md_atom_type": "HEADING", "md_parent_section": "§ SDTM Knowledge Base — Index", "md_verbatim": "## Domains (63 domains)", "score": 0.4579, "match_basis": "verbatim_token+global_search"}, {"md_atom_id": "md_index_a044", "md_file": "knowledge_base/INDEX.md", "md_atom_type": "HEADING", "md_parent_section": "§ Domains (63 domains)", "md_verbatim": "### Events Domains", "score": 0.4304, "match_basis": "verbatim_token+global_search"}, {"md_atom_id": "md_ch10_a152", "md_file": "knowledge_base/chapters/ch10_appendices.md", "md_atom_type": "HEADING", "md_parent_section": "§10.E [Revision History]", "md_verbatim": "### New Domains for SDTMIG v3.4", "score": 0.42, "match_basis": "verbatim_token+global_search"}], "candidate_count": 5, "zero_candidate": false}
{"pdf_atom_id": "ig34_p0267_a017", "pdf_atom_type": "HEADING", "pdf_source": "SDTMIG_v3.4", "pdf_page": 267, "pdf_parent_section": "§6.3.5.9 Pharmacokinetics Domains", "pdf_verbatim": "6.3.5.9.1 Pharmacokinetics Concentrations (PC)", "figure_ref": null, "candidates": [{"md_atom_id": "md_varindex_a1091", "md_file": "knowledge_base/VARIABLE_INDEX.md", "md_atom_type": "HEADING", "md_parent_section": "§ 二、领域专属变量（仅 1 个域，共 1499 个），按域分组", "md_verbatim": "### PC — Pharmacokinetics Concentrations (Findings)", "score": 0.7875, "match_basis": "verbatim_token+global_search"}, {"md_atom_id": "md_varindex_a1150", "md_file": "knowledge_base/VARIABLE_INDEX.md", "md_atom_type": "HEADING", "md_parent_section": "§ 二、领域专属变量（仅 1 个域，共 1499 个），按域分组", "md_verbatim": "### PP — Pharmacokinetics Parameters (Findings)", "score": 0.51, "match_basis": "verbatim_token+global_search"}, {"md_atom_id": "md_ch04_a189", "md_file": "knowledge_base/chapters/ch04_general_assumptions.md", "md_atom_type": "HEADING", "md_parent_section": "§4.2.1 [Variable-Naming Conventions]", "md_verbatim": "#### 4.2.1.3 --TERM Conventions (Events)", "score": 0.3882, "match_basis": "verbatim_token+global_search"}, {"md_atom_id": "md_model01_a012", "md_file": "knowledge_base/model/01_concepts_and_terms.md", "md_atom_type": "HEADING", "md_parent_section": "§2.1 [Model Concepts and Terms — Variables]", "md_verbatim": "### Concept Map: Relationships Between SDTM Domains", "score": 0.3875, "match_basis": "verbatim_token+global_search"}, {"md_atom_id": "md_varindex_a207", "md_file": "knowledge_base/VARIABLE_INDEX.md", "md_atom_type": "HEADING", "md_parent_section": "§ 二、领域专属变量（仅 1 个域，共 1499 个），按域分组", "md_verbatim": "### CM — Concomitant/Prior Medications (Interventions)", "score": 0.3875, "match_basis": "verbatim_token+global_search"}], "candidate_count": 5, "zero_candidate": false}
{"pdf_atom_id": "ig34_p0267_a018", "pdf_atom_type": "HEADING", "pdf_source": "SDTMIG_v3.4", "pdf_page": 267, "pdf_parent_section": "§6.3.5.9.1 Pharmacokinetics Concentrations (PC)", "pdf_verbatim": "PC – Description/Overview", "figure_ref": null, "candidates": [{"md_atom_id": "md_dmPC_ex_a048", "md_file": "knowledge_base/domains/PC/examples.md", "md_atom_type": "HEADING", "md_parent_section": "§PC [PC — Examples]", "md_verbatim": "## Relating PC and PP — Overview", "score": 0.5636, "match_basis": "verbatim_token+domain_route:PC"}, {"md_atom_id": "md_dmPC_assn_a001", "md_file": "knowledge_base/domains/PC/assumptions.md", "md_atom_type": "HEADING", "md_parent_section": "§PC [PC — Assumptions]", "md_verbatim": "# PC — Assumptions", "score": 0.4857, "match_basis": "verbatim_token+domain_route:PC"}, {"md_atom_id": "md_dmPC_ex_a441", "md_file": "knowledge_base/domains/PC/examples.md", "md_atom_type": "HEADING", "md_parent_section": "§PC [PC — Examples]", "md_verbatim": "## PC-PP Conclusions", "score": 0.4261, "match_basis": "verbatim_token+domain_route:PC"}, {"md_atom_id": "md_dmPC_ex_a444", "md_file": "knowledge_base/domains/PC/examples.md", "md_atom_type": "HEADING", "md_parent_section": "§PC [PC — Examples]", "md_verbatim": "## PC-PP — Suggestions for Implementing RELREC in the Submission of PK Data", "score": 0.4255, "match_basis": "verbatim_token+domain_route:PC"}, {"md_atom_id": "md_dmPC_ex_a350", "md_file": "knowledge_base/domains/PC/examples.md", "md_atom_type": "HEADING", "md_parent_section": "§PC.2 [Relating PC and PP — Overview]", "md_verbatim": "### Example 4 (Complex exclusions)", "score": 0.42, "match_basis": "verbatim_token+domain_route:PC"}], "candidate_count": 5, "zero_candidate": false}
{"pdf_atom_id": "ig34_p0267_a019", "pdf_atom_type": "SENTENCE", "pdf_source": "SDTMIG_v3.4", "pdf_page": 267, "pdf_parent_section": "§6.3.5.9.1 Pharmacokinetics Concentrations (PC)", "pdf_verbatim": "A findings domain that contains concentrations of drugs or metabolites in fluids or tissues as a function of time.", "figure_ref": null, "candidates": [{"md_atom_id": "md_dmPC_ex_a011", "md_file": "knowledge_base/domains/PC/examples.md", "md_atom_type": "SENTENCE", "md_parent_section": "§PC.1 [Example 1]", "md_verbatim": "**Rows 13-16:** Show day 11 drug and metabolite concentrations in plasma.", "score": 0.6031, "match_basis": "verbatim_token+domain_route:PC"}, {"md_atom_id": "md_dmPC_ex_a010", "md_file": "knowledge_base/domains/PC/examples.md", "md_atom_type": "SENTENCE", "md_parent_section": "§PC.1 [Example 1]", "md_verbatim": "**Rows 7-12:** Show day 1 post-dose drug and metabolite concentrations in plasma.", "score": 0.5913, "match_basis": "verbatim_token+domain_route:PC"}, {"md_atom_id": "md_dmPC_ex_a007", "md_file": "knowledge_base/domains/PC/examples.md", "md_atom_type": "SENTENCE", "md_parent_section": "§PC.1 [Example 1]", "md_verbatim": "**Rows 1-2:** Show day 1 pre-dose drug and metabolite concentrations in plasma and urine.", "score": 0.5859, "match_basis": "verbatim_token+domain_route:PC"}, {"md_atom_id": "md_dmPC_ex_a013", "md_file": "knowledge_base/domains/PC/examples.md", "md_atom_type": "SENTENCE", "md_parent_section": "§PC.1 [Example 1]", "md_verbatim": "**Rows 21-30:** Show additional drug and metabolite concentrations and specimen properties related to the day 11 dose.", "score": 0.5568, "match_basis": "verbatim_token+domain_route:PC"}, {"md_atom_id": "md_dmPC_ex_a008", "md_file": "knowledge_base/domains/PC/examples.md", "md_atom_type": "SENTENCE", "md_parent_section": "§PC.1 [Example 1]", "md_verbatim": "**Rows 3-4:** Show day 1 pre-dose drug and metabolite concentrations in urine. Urine specimens may be collected over an interval; both PCDTC and PCENDTC have been populated with the same value to indicate that these specimens were collected at a point in time rather than over an interval.", "score": 0.5333, "match_basis": "verbatim_token+domain_route:PC"}], "candidate_count": 5, "zero_candidate": false}
{"pdf_atom_id": "ig34_p0267_a020", "pdf_atom_type": "HEADING", "pdf_source": "SDTMIG_v3.4", "pdf_page": 267, "pdf_parent_section": "§6.3.5.9.1 Pharmacokinetics Concentrations (PC)", "pdf_verbatim": "PC – Specification", "figure_ref": null, "candidates": [{"md_atom_id": "md_dmPC_assn_a001", "md_file": "knowledge_base/domains/PC/assumptions.md", "md_atom_type": "HEADING", "md_parent_section": "§PC [PC — Assumptions]", "md_verbatim": "# PC — Assumptions", "score": 0.4667, "match_basis": "verbatim_token+domain_route:PC"}, {"md_atom_id": "md_dmPC_ex_a441", "md_file": "knowledge_base/domains/PC/examples.md", "md_atom_type": "HEADING", "md_parent_section": "§PC [PC — Examples]", "md_verbatim": "## PC-PP Conclusions", "score": 0.4316, "match_basis": "verbatim_token+domain_route:PC"}, {"md_atom_id": "md_dmPC_ex_a057", "md_file": "knowledge_base/domains/PC/examples.md", "md_atom_type": "HEADING", "md_parent_section": "§PC.2 [Relating PC and PP — Overview]", "md_verbatim": "### PC-PP Relating Records", "score": 0.4286, "match_basis": "verbatim_token+domain_route:PC"}, {"md_atom_id": "md_dmPC_ex_a444", "md_file": "knowledge_base/domains/PC/examples.md", "md_atom_type": "HEADING", "md_parent_section": "§PC [PC — Examples]", "md_verbatim": "## PC-PP — Suggestions for Implementing RELREC in the Submission of PK Data", "score": 0.4279, "match_basis": "verbatim_token+domain_route:PC"}, {"md_atom_id": "md_dmPC_ex_a050", "md_file": "knowledge_base/domains/PC/examples.md", "md_atom_type": "HEADING", "md_parent_section": "§PC.2 [Relating PC and PP — Overview]", "md_verbatim": "### PC-PP Relating Datasets", "score": 0.4273, "match_basis": "verbatim_token+domain_route:PC"}], "candidate_count": 5, "zero_candidate": false}
{"pdf_atom_id": "ig34_p0267_a021", "pdf_atom_type": "SENTENCE", "pdf_source": "SDTMIG_v3.4", "pdf_page": 267, "pdf_parent_section": "§6.3.5.9.1 Pharmacokinetics Concentrations (PC)", "pdf_verbatim": "pc.xpt, Pharmacokinetics Concentrations — Findings. One record per sample characteristic or time-point concentration per reference time point or per analyte per subject, Tabulation.", "figure_ref": null, "candidates": [{"md_atom_id": "md_dmPC_ex_a203", "md_file": "knowledge_base/domains/PC/examples.md", "md_atom_type": "SENTENCE", "md_parent_section": "§PC.2.5 [Example 2 (Some PC records excluded)]", "md_verbatim": "All pharmacokinetic concentrations for day 8 were used to calculate all pharmacokinetic parameters. Because day 8 relationships are the same as in Example 1, they are not included here.", "score": 0.5714, "match_basis": "verbatim_token+domain_route:PC"}, {"md_atom_id": "md_dmPC_ex_a261", "md_file": "knowledge_base/domains/PC/examples.md", "md_atom_type": "SENTENCE", "md_parent_section": "§PC.2.6 [Example 3 (Inconsistent PC usage across parameters)]", "md_verbatim": "All pharmacokinetic concentrations for day 8 were used to calculate all pharmacokinetic parameters. Because day 8 relationships are the same as in Example 1, they are not included here.", "score": 0.5714, "match_basis": "verbatim_token+domain_route:PC"}, {"md_atom_id": "md_dmPC_ex_a049", "md_file": "knowledge_base/domains/PC/examples.md", "md_atom_type": "SENTENCE", "md_parent_section": "§PC.2 [Relating PC and PP — Overview]", "md_verbatim": "Sponsors must document the concentrations used to calculate each parameter. This may be done in analysis dataset metadata or by documenting relationships between records in the Pharmacokinetics Parameters (PP) and Pharmacokinetics Concentrations (PC) datasets in a RELREC dataset (see Section 8.2, Relating Peer Records, and Section 8.3, Relating Datasets).", "score": 0.5655, "match_basis": "verbatim_token+domain_route:PC"}, {"md_atom_id": "md_dmPC_ex_a201", "md_file": "knowledge_base/domains/PC/examples.md", "md_atom_type": "SENTENCE", "md_parent_section": "§PC.2.5 [Example 2 (Some PC records excluded)]", "md_verbatim": "Only some records in PC were used to calculate all pharmacokinetic parameters; time points 8 and 9 on day 1 were not used for any pharmacokinetic parameters.", "score": 0.5543, "match_basis": "verbatim_token+domain_route:PC"}, {"md_atom_id": "md_dmPC_ex_a442", "md_file": "knowledge_base/domains/PC/examples.md", "md_atom_type": "SENTENCE", "md_parent_section": "§PC [PC — Examples]", "md_verbatim": "Relating the datasets (as described in Section 8, Representing Relationships and Data) is the simplest method; however, all time-point concentrations in PC must be used to calculate all parameters for all subjects. If datasets cannot be related, then individual subject records must be related. In either case, the values of PCGRPID and PPGRPID must take into account multiple analytes and multiple reference time points, if they exist.", "score": 0.5516, "match_basis": "verbatim_token+domain_route:PC"}], "candidate_count": 5, "zero_candidate": false}
{"pdf_atom_id": "ig34_p0267_a022", "pdf_atom_type": "TABLE_HEADER", "pdf_source": "SDTMIG_v3.4", "pdf_page": 267, "pdf_parent_section": "§6.3.5.9.1 Pharmacokinetics Concentrations (PC)", "pdf_verbatim": "Variable Name | Variable Label | Type | Controlled Terms, Codelist or Format1 | Role | CDISC Notes | Core", "figure_ref": null, "candidates": [{"md_atom_id": "md_dmPC_ex_a053", "md_file": "knowledge_base/domains/PC/examples.md", "md_atom_type": "TABLE_HEADER", "md_parent_section": "§PC.2.1 [PC-PP Relating Datasets]", "md_verbatim": "| Row | STUDYID | RDOMAIN | USUBJID | IDVAR | IDVARVAL | RELTYPE | RELID |\n|-----|---------|---------|---------|-------|----------|---------|-------|", "score": 0.4348, "match_basis": "verbatim_token+domain_route:PC"}, {"md_atom_id": "md_dmPC_ex_a100", "md_file": "knowledge_base/domains/PC/examples.md", "md_atom_type": "TABLE_HEADER", "md_parent_section": "§PC.2.4 [Example 1 (All PC records used)]", "md_verbatim": "| Row | STUDYID | RDOMAIN | USUBJID | IDVAR | IDVARVAL | RELTYPE | RELID |\n|-----|---------|---------|---------|-------|----------|---------|-------|", "score": 0.4348, "match_basis": "verbatim_token+domain_route:PC"}, {"md_atom_id": "md_dmPC_ex_a109", "md_file": "knowledge_base/domains/PC/examples.md", "md_atom_type": "TABLE_HEADER", "md_parent_section": "§PC.2.4 [Example 1 (All PC records used)]", "md_verbatim": "| Row | STUDYID | RDOMAIN | USUBJID | IDVAR | IDVARVAL | RELTYPE | RELID |\n|-----|---------|---------|---------|-------|----------|---------|-------|", "score": 0.4348, "match_basis": "verbatim_token+domain_route:PC"}, {"md_atom_id": "md_dmPC_ex_a140", "md_file": "knowledge_base/domains/PC/examples.md", "md_atom_type": "TABLE_HEADER", "md_parent_section": "§PC.2.4 [Example 1 (All PC records used)]", "md_verbatim": "| Row | STUDYID | RDOMAIN | USUBJID | IDVAR | IDVARVAL | RELTYPE | RELID |\n|-----|---------|---------|---------|-------|----------|---------|-------|", "score": 0.4348, "match_basis": "verbatim_token+domain_route:PC"}, {"md_atom_id": "md_dmPC_ex_a161", "md_file": "knowledge_base/domains/PC/examples.md", "md_atom_type": "TABLE_HEADER", "md_parent_section": "§PC.2.4 [Example 1 (All PC records used)]", "md_verbatim": "| Row | STUDYID | RDOMAIN | USUBJID | IDVAR | IDVARVAL | RELTYPE | RELID |\n|-----|---------|---------|---------|-------|----------|---------|-------|", "score": 0.4348, "match_basis": "verbatim_token+domain_route:PC"}], "candidate_count": 5, "zero_candidate": false}
{"pdf_atom_id": "ig34_p0267_a023", "pdf_atom_type": "TABLE_ROW", "pdf_source": "SDTMIG_v3.4", "pdf_page": 267, "pdf_parent_section": "§6.3.5.9.1 Pharmacokinetics Concentrations (PC)", "pdf_verbatim": "STUDYID | Study Identifier | Char | | Identifier | Unique identifier for a study. | Req", "figure_ref": null, "candidates": [{"md_atom_id": "md_dmPC_ex_a069", "md_file": "knowledge_base/domains/PC/examples.md", "md_atom_type": "TABLE_ROW", "md_parent_section": "§PC.2.3 [Shared PC Dataset for All Examples]", "md_verbatim": "| 1 | ABC-123 | PC | ABC-123-0001 | 1 | DY1_DRGX | DY1_DRGX | DY1_DRGX_A | DY1DRGX_A | STUDYDRUG | STUDYDRUG | ANALYTE | q | | | | | PLASMA | | 0.10 | | 1 | Day 1 | 1 | 2001-02-01 | | 1 | Pre-dose | -1 | Day 1 Dose | 2001-02-01T08:35 | PT0M | |", "score": 0.434, "match_basis": "verbatim_token+domain_route:PC"}, {"md_atom_id": "md_dmPC_ex_a081", "md_file": "knowledge_base/domains/PC/examples.md", "md_atom_type": "TABLE_ROW", "md_parent_section": "§PC.2.3 [Shared PC Dataset for All Examples]", "md_verbatim": "| 13 | ABC-123 | PC | ABC-123-0001 | 13 | DY8_DRGX | DY8_DRGX | DY8_DRGX | DY8DRGX | STUDYDRUG | STUDYDRUG | ANALYTE | q | | | | | PLASMA | | 0.10 | | 8 | Day 8 | 8 | 2001-02-08 | | 8 | Pre-dose | -1 | Day 8 Dose | 2001-02-08T08:35 | PT0M | |", "score": 0.434, "match_basis": "verbatim_token+domain_route:PC"}, {"md_atom_id": "md_dmPC_ex_a072", "md_file": "knowledge_base/domains/PC/examples.md", "md_atom_type": "TABLE_ROW", "md_parent_section": "§PC.2.3 [Shared PC Dataset for All Examples]", "md_verbatim": "| 4 | ABC-123 | PC | ABC-123-0001 | 4 | DY1_DRGX | DY1_DRGX | DY1_DRGX_A | DY1DRGX_A | STUDYDRUG | STUDYDRUG | ANALYTE | 38 | ng/mL | 38 | 38 | ng/mL | PLASMA | | 0.10 | | 1 | Day 1 | 1 | 2001-02-01 | | 1 | 1h post | 1 | Day 1 Dose | 2001-02-01T08:35 | PT1H | |", "score": 0.4333, "match_basis": "verbatim_token+domain_route:PC"}, {"md_atom_id": "md_dmPC_ex_a073", "md_file": "knowledge_base/domains/PC/examples.md", "md_atom_type": "TABLE_ROW", "md_parent_section": "§PC.2.3 [Shared PC Dataset for All Examples]", "md_verbatim": "| 5 | ABC-123 | PC | ABC-123-0001 | 5 | DY1_DRGX | DY1_DRGX | DY1_DRGX_A | DY1DRGX_C | STUDYDRUG | STUDYDRUG | ANALYTE | 30 | ng/mL | 30 | 30 | ng/mL | PLASMA | | 0.10 | | 1 | Day 1 | 1 | 2001-02-01 | | 1 | 2h post | 2 | Day 1 Dose | 2001-02-01T08:35 | PT2H | |", "score": 0.4333, "match_basis": "verbatim_token+domain_route:PC"}, {"md_atom_id": "md_dmPC_ex_a074", "md_file": "knowledge_base/domains/PC/examples.md", "md_atom_type": "TABLE_ROW", "md_parent_section": "§PC.2.3 [Shared PC Dataset for All Examples]", "md_verbatim": "| 6 | ABC-123 | PC | ABC-123-0001 | 6 | DY1_DRGX | DY1_DRGX | DY1_DRGX_A | DY1DRGX_B | STUDYDRUG | STUDYDRUG | ANALYTE | 22 | ng/mL | 22 | 22 | ng/mL | PLASMA | | 0.10 | | 1 | Day 1 | 1 | 2001-02-01 | | 1 | 3h post | 3 | Day 1 Dose | 2001-02-01T08:35 | PT3H | |", "score": 0.4333, "match_basis": "verbatim_token+domain_route:PC"}], "candidate_count": 5, "zero_candidate": false}
{"pdf_atom_id": "ig34_p0267_a024", "pdf_atom_type": "TABLE_ROW", "pdf_source": "SDTMIG_v3.4", "pdf_page": 267, "pdf_parent_section": "§6.3.5.9.1 Pharmacokinetics Concentrations (PC)", "pdf_verbatim": "DOMAIN | Domain Abbreviation | Char | PC | Identifier | Two-character abbreviation for the domain. | Req", "figure_ref": null, "candidates": [{"md_atom_id": "md_dmPC_ex_a373", "md_file": "knowledge_base/domains/PC/examples.md", "md_atom_type": "TABLE_ROW", "md_parent_section": "§PC.2.7 [Example 4 (Complex exclusions)]", "md_verbatim": "| 13 | ABC-123 | PP | ABC-123-0001 | PPGRPID | OTHER | | 4 |", "score": 0.4136, "match_basis": "verbatim_token+domain_route:PC"}, {"md_atom_id": "md_dmPC_ex_a016", "md_file": "knowledge_base/domains/PC/examples.md", "md_atom_type": "TABLE_ROW", "md_parent_section": "§PC.1 [Example 1]", "md_verbatim": "| 1 | ABC-123 | PC | 1235154 | 1 | DRUGA_DAY1 | 625154 | DRUGX | Drug A | ANALYTE | 0.10 | ng/mL | 0.10 | 0.10 | ng/mL | PLASMA | Y | 0.10 | | 2001-02-25 | | 1 | Pre-dose | -1 | Day 1 Dose | 2001-02-25T08:00 | PT0M | |", "score": 0.4, "match_basis": "verbatim_token+domain_route:PC"}, {"md_atom_id": "md_dmPC_ex_a017", "md_file": "knowledge_base/domains/PC/examples.md", "md_atom_type": "TABLE_ROW", "md_parent_section": "§PC.1 [Example 1]", "md_verbatim": "| 2 | ABC-123 | PC | 1235154 | 2 | DRUGA_DAY1 | 625154 | DRUGXM | Drug A Metabolite | ANALYTE | BLQ | ng/mL | BLQ | | ng/mL | PLASMA | Y | 0.10 | | 2001-02-25 | | 1 | Pre-dose | -1 | Day 1 Dose | 2001-02-25T08:00 | PT0M | |", "score": 0.4, "match_basis": "verbatim_token+domain_route:PC"}, {"md_atom_id": "md_dmPC_ex_a018", "md_file": "knowledge_base/domains/PC/examples.md", "md_atom_type": "TABLE_ROW", "md_parent_section": "§PC.1 [Example 1]", "md_verbatim": "| 3 | ABC-123 | PC | 1235154 | 3 | DRUGA_DAY1 | 625154 | DRUGX | Drug A | ANALYTE | 0.10 | ng/mL | 0.10 | 0.10 | ng/mL | URINE | Y | 0.10 | | 2001-02-25 | 2001-02-25 | 1 | Pre-dose | -1 | Day 1 Dose | 2001-02-25T08:00 | PT0M | |", "score": 0.4, "match_basis": "verbatim_token+domain_route:PC"}, {"md_atom_id": "md_dmPC_ex_a019", "md_file": "knowledge_base/domains/PC/examples.md", "md_atom_type": "TABLE_ROW", "md_parent_section": "§PC.1 [Example 1]", "md_verbatim": "| 4 | ABC-123 | PC | 1235154 | 4 | DRUGA_DAY1 | 625154 | DRUGXM | Drug A Metabolite | ANALYTE | BLQ | ng/mL | BLQ | | ng/mL | URINE | Y | 0.10 | | 2001-02-25 | 2001-02-25 | 1 | Pre-dose | -1 | Day 1 Dose | 2001-02-25T08:00 | PT0M | |", "score": 0.4, "match_basis": "verbatim_token+domain_route:PC"}], "candidate_count": 5, "zero_candidate": false}
{"pdf_atom_id": "ig34_p0267_a025", "pdf_atom_type": "TABLE_ROW", "pdf_source": "SDTMIG_v3.4", "pdf_page": 267, "pdf_parent_section": "§6.3.5.9.1 Pharmacokinetics Concentrations (PC)", "pdf_verbatim": "USUBJID | Unique Subject Identifier | Char | | Identifier | Identifier used to uniquely identify a subject across all studies for all applications or submissions involving the product. | Req", "figure_ref": null, "candidates": [{"md_atom_id": "md_dmPC_ex_a069", "md_file": "knowledge_base/domains/PC/examples.md", "md_atom_type": "TABLE_ROW", "md_parent_section": "§PC.2.3 [Shared PC Dataset for All Examples]", "md_verbatim": "| 1 | ABC-123 | PC | ABC-123-0001 | 1 | DY1_DRGX | DY1_DRGX | DY1_DRGX_A | DY1DRGX_A | STUDYDRUG | STUDYDRUG | ANALYTE | q | | | | | PLASMA | | 0.10 | | 1 | Day 1 | 1 | 2001-02-01 | | 1 | Pre-dose | -1 | Day 1 Dose | 2001-02-01T08:35 | PT0M | |", "score": 0.4119, "match_basis": "verbatim_token+domain_route:PC"}, {"md_atom_id": "md_dmPC_ex_a081", "md_file": "knowledge_base/domains/PC/examples.md", "md_atom_type": "TABLE_ROW", "md_parent_section": "§PC.2.3 [Shared PC Dataset for All Examples]", "md_verbatim": "| 13 | ABC-123 | PC | ABC-123-0001 | 13 | DY8_DRGX | DY8_DRGX | DY8_DRGX | DY8DRGX | STUDYDRUG | STUDYDRUG | ANALYTE | q | | | | | PLASMA | | 0.10 | | 8 | Day 8 | 8 | 2001-02-08 | | 8 | Pre-dose | -1 | Day 8 Dose | 2001-02-08T08:35 | PT0M | |", "score": 0.4119, "match_basis": "verbatim_token+domain_route:PC"}, {"md_atom_id": "md_dmPC_ex_a072", "md_file": "knowledge_base/domains/PC/examples.md", "md_atom_type": "TABLE_ROW", "md_parent_section": "§PC.2.3 [Shared PC Dataset for All Examples]", "md_verbatim": "| 4 | ABC-123 | PC | ABC-123-0001 | 4 | DY1_DRGX | DY1_DRGX | DY1_DRGX_A | DY1DRGX_A | STUDYDRUG | STUDYDRUG | ANALYTE | 38 | ng/mL | 38 | 38 | ng/mL | PLASMA | | 0.10 | | 1 | Day 1 | 1 | 2001-02-01 | | 1 | 1h post | 1 | Day 1 Dose | 2001-02-01T08:35 | PT1H | |", "score": 0.4118, "match_basis": "verbatim_token+domain_route:PC"}, {"md_atom_id": "md_dmPC_ex_a073", "md_file": "knowledge_base/domains/PC/examples.md", "md_atom_type": "TABLE_ROW", "md_parent_section": "§PC.2.3 [Shared PC Dataset for All Examples]", "md_verbatim": "| 5 | ABC-123 | PC | ABC-123-0001 | 5 | DY1_DRGX | DY1_DRGX | DY1_DRGX_A | DY1DRGX_C | STUDYDRUG | STUDYDRUG | ANALYTE | 30 | ng/mL | 30 | 30 | ng/mL | PLASMA | | 0.10 | | 1 | Day 1 | 1 | 2001-02-01 | | 1 | 2h post | 2 | Day 1 Dose | 2001-02-01T08:35 | PT2H | |", "score": 0.4118, "match_basis": "verbatim_token+domain_route:PC"}, {"md_atom_id": "md_dmPC_ex_a074", "md_file": "knowledge_base/domains/PC/examples.md", "md_atom_type": "TABLE_ROW", "md_parent_section": "§PC.2.3 [Shared PC Dataset for All Examples]", "md_verbatim": "| 6 | ABC-123 | PC | ABC-123-0001 | 6 | DY1_DRGX | DY1_DRGX | DY1_DRGX_A | DY1DRGX_B | STUDYDRUG | STUDYDRUG | ANALYTE | 22 | ng/mL | 22 | 22 | ng/mL | PLASMA | | 0.10 | | 1 | Day 1 | 1 | 2001-02-01 | | 1 | 3h post | 3 | Day 1 Dose | 2001-02-01T08:35 | PT3H | |", "score": 0.4118, "match_basis": "verbatim_token+domain_route:PC"}], "candidate_count": 5, "zero_candidate": false}
{"pdf_atom_id": "ig34_p0267_a026", "pdf_atom_type": "TABLE_ROW", "pdf_source": "SDTMIG_v3.4", "pdf_page": 267, "pdf_parent_section": "§6.3.5.9.1 Pharmacokinetics Concentrations (PC)", "pdf_verbatim": "PCSEQ | Sequence Number | Num | | Identifier | Sequence number given to ensure uniqueness of subject records within a domain. May be any valid number. | Req", "figure_ref": null, "candidates": [{"md_atom_id": "md_dmPC_ex_a110", "md_file": "knowledge_base/domains/PC/examples.md", "md_atom_type": "TABLE_ROW", "md_parent_section": "§PC.2.4 [Example 1 (All PC records used)]", "md_verbatim": "| 1 | ABC-123 | PC | ABC-123-0001 | PCSEQ | 1 | | 1 |", "score": 0.4295, "match_basis": "verbatim_token+domain_route:PC"}, {"md_atom_id": "md_dmPC_ex_a111", "md_file": "knowledge_base/domains/PC/examples.md", "md_atom_type": "TABLE_ROW", "md_parent_section": "§PC.2.4 [Example 1 (All PC records used)]", "md_verbatim": "| 2 | ABC-123 | PC | ABC-123-0001 | PCSEQ | 2 | | 1 |", "score": 0.4295, "match_basis": "verbatim_token+domain_route:PC"}, {"md_atom_id": "md_dmPC_ex_a112", "md_file": "knowledge_base/domains/PC/examples.md", "md_atom_type": "TABLE_ROW", "md_parent_section": "§PC.2.4 [Example 1 (All PC records used)]", "md_verbatim": "| 3 | ABC-123 | PC | ABC-123-0001 | PCSEQ | 3 | | 1 |", "score": 0.4295, "match_basis": "verbatim_token+domain_route:PC"}, {"md_atom_id": "md_dmPC_ex_a113", "md_file": "knowledge_base/domains/PC/examples.md", "md_atom_type": "TABLE_ROW", "md_parent_section": "§PC.2.4 [Example 1 (All PC records used)]", "md_verbatim": "| 4 | ABC-123 | PC | ABC-123-0001 | PCSEQ | 4 | | 1 |", "score": 0.4295, "match_basis": "verbatim_token+domain_route:PC"}, {"md_atom_id": "md_dmPC_ex_a114", "md_file": "knowledge_base/domains/PC/examples.md", "md_atom_type": "TABLE_ROW", "md_parent_section": "§PC.2.4 [Example 1 (All PC records used)]", "md_verbatim": "| 5 | ABC-123 | PC | ABC-123-0001 | PCSEQ | 5 | | 1 |", "score": 0.4295, "match_basis": "verbatim_token+domain_route:PC"}], "candidate_count": 5, "zero_candidate": false}
{"pdf_atom_id": "ig34_p0267_a027", "pdf_atom_type": "TABLE_ROW", "pdf_source": "SDTMIG_v3.4", "pdf_page": 267, "pdf_parent_section": "§6.3.5.9.1 Pharmacokinetics Concentrations (PC)", "pdf_verbatim": "PCGRPID | Group ID | Char | | Identifier | Used to tie together a block of related records in a single domain to support relationships within the domain and between domains. | Perm", "figure_ref": null, "candidates": [{"md_atom_id": "md_dmPC_ex_a054", "md_file": "knowledge_base/domains/PC/examples.md", "md_atom_type": "TABLE_ROW", "md_parent_section": "§PC.2.1 [PC-PP Relating Datasets]", "md_verbatim": "| 1 | ABC-123 | PC | | PCGRPID | | MANY | A |", "score": 0.4385, "match_basis": "verbatim_token+domain_route:PC"}, {"md_atom_id": "md_dmPC_ex_a101", "md_file": "knowledge_base/domains/PC/examples.md", "md_atom_type": "TABLE_ROW", "md_parent_section": "§PC.2.4 [Example 1 (All PC records used)]", "md_verbatim": "| 1 | ABC-123 | PC | ABC-123-0001 | PCGRPID | DY1_DRGX | | 1 |", "score": 0.437, "match_basis": "verbatim_token+domain_route:PC"}, {"md_atom_id": "md_dmPC_ex_a141", "md_file": "knowledge_base/domains/PC/examples.md", "md_atom_type": "TABLE_ROW", "md_parent_section": "§PC.2.4 [Example 1 (All PC records used)]", "md_verbatim": "| 1 | ABC-123 | PC | ABC-123-0001 | PCGRPID | DY1_DRGX | | 1 |", "score": 0.437, "match_basis": "verbatim_token+domain_route:PC"}, {"md_atom_id": "md_dmPC_ex_a149", "md_file": "knowledge_base/domains/PC/examples.md", "md_atom_type": "TABLE_ROW", "md_parent_section": "§PC.2.4 [Example 1 (All PC records used)]", "md_verbatim": "| 9 | ABC-123 | PC | ABC-123-0001 | PCGRPID | DY8_DRGX | | 2 |", "score": 0.437, "match_basis": "verbatim_token+domain_route:PC"}, {"md_atom_id": "md_dmPC_ex_a208", "md_file": "knowledge_base/domains/PC/examples.md", "md_atom_type": "TABLE_ROW", "md_parent_section": "§PC.2.5 [Example 2 (Some PC records excluded)]", "md_verbatim": "| 1 | ABC-123 | PC | ABC-123-0001 | PCGRPID | DY1_DRGX | | 1 |", "score": 0.437, "match_basis": "verbatim_token+domain_route:PC"}], "candidate_count": 5, "zero_candidate": false}
{"pdf_atom_id": "ig34_p0267_a028", "pdf_atom_type": "TABLE_ROW", "pdf_source": "SDTMIG_v3.4", "pdf_page": 267, "pdf_parent_section": "§6.3.5.9.1 Pharmacokinetics Concentrations (PC)", "pdf_verbatim": "PCREFID | Reference ID | Char | | Identifier | Internal or external specimen identifier. | Perm", "figure_ref": null, "candidates": [{"md_atom_id": "md_dmPC_ex_a021", "md_file": "knowledge_base/domains/PC/examples.md", "md_atom_type": "TABLE_ROW", "md_parent_section": "§PC.1 [Example 1]", "md_verbatim": "| 6 | ABC-123 | PC | 1235154 | 6 | DRUGA_DAY1 | 625154 | PH | PH | SPECIMEN PROPERTY | | | | | | URINE | | | | 2001-02-25 | 2001-02-25 | 1 | Pre-dose | -1 | Day 1 Dose | 2001-02-25T08:00 | PT0M | |", "score": 0.4618, "match_basis": "verbatim_token+domain_route:PC"}, {"md_atom_id": "md_dmPC_ex_a035", "md_file": "knowledge_base/domains/PC/examples.md", "md_atom_type": "TABLE_ROW", "md_parent_section": "§PC.1 [Example 1]", "md_verbatim": "| 20 | ABC-123 | PC | 1235154 | 20 | DRUGA_DAY11 | 625154 | PH | PH | SPECIMEN PROPERTY | 6.1 | | 6.1 | 6.1 | | URINE | | | | 2001-03-07 | 2001-03-07 | 11 | 12h post | 12 | Day 11 Dose | 2001-03-07T08:00 | PT12H | -PT12H |", "score": 0.4592, "match_basis": "verbatim_token+domain_route:PC"}, {"md_atom_id": "md_dmPC_ex_a020", "md_file": "knowledge_base/domains/PC/examples.md", "md_atom_type": "TABLE_ROW", "md_parent_section": "§PC.1 [Example 1]", "md_verbatim": "| 5 | ABC-123 | PC | 1235154 | 5 | DRUGA_DAY1 | 625154 | VOLUME | Volume | SPECIMEN PROPERTY | 363 | mL | 363 | 363 | mL | URINE | | | | 2001-02-25 | 2001-02-25 | 1 | Pre-dose | -1 | Day 1 Dose | 2001-02-25T08:00 | PT0M | |", "score": 0.4575, "match_basis": "verbatim_token+domain_route:PC"}, {"md_atom_id": "md_dmPC_ex_a039", "md_file": "knowledge_base/domains/PC/examples.md", "md_atom_type": "TABLE_ROW", "md_parent_section": "§PC.1 [Example 1]", "md_verbatim": "| 24 | ABC-123 | PC | 1235154 | 24 | DRUGA_DAY11 | 625154 | PH | PH | SPECIMEN PROPERTY | | | | | | URINE | | | | 2001-03-07 | 2001-03-18 | 11 | 24h post | 24 | Day 11 Dose | 2001-03-07T08:00 | PT24H | -PT12H |", "score": 0.4568, "match_basis": "verbatim_token+domain_route:PC"}, {"md_atom_id": "md_dmPC_ex_a034", "md_file": "knowledge_base/domains/PC/examples.md", "md_atom_type": "TABLE_ROW", "md_parent_section": "§PC.1 [Example 1]", "md_verbatim": "| 19 | ABC-123 | PC | 1235154 | 19 | DRUGA_DAY11 | 625154 | VOLUME | Volume | SPECIMEN PROPERTY | 606 | mL | 606 | 606 | mL | URINE | | | | 2001-03-07 | 2001-03-07 | 11 | 12h post | 12 | Day 11 Dose | 2001-03-07T08:00 | PT12H | -PT12H |", "score": 0.4553, "match_basis": "verbatim_token+domain_route:PC"}], "candidate_count": 5, "zero_candidate": false}
{"pdf_atom_id": "ig34_p0268_a001", "pdf_atom_type": "TABLE_ROW", "pdf_source": "SDTMIG_v3.4", "pdf_page": 268, "pdf_parent_section": "§6.3.5.9.1 Pharmacokinetics Concentrations (PC)", "pdf_verbatim": "PCSPID | Sponsor-Defined Identifier | Char | | Identifier | Sponsor-defined reference number. | Perm", "figure_ref": null, "candidates": [{"md_atom_id": "md_dmPC_ex_a021", "md_file": "knowledge_base/domains/PC/examples.md", "md_atom_type": "TABLE_ROW", "md_parent_section": "§PC.1 [Example 1]", "md_verbatim": "| 6 | ABC-123 | PC | 1235154 | 6 | DRUGA_DAY1 | 625154 | PH | PH | SPECIMEN PROPERTY | | | | | | URINE | | | | 2001-02-25 | 2001-02-25 | 1 | Pre-dose | -1 | Day 1 Dose | 2001-02-25T08:00 | PT0M | |", "score": 0.4164, "match_basis": "verbatim_token+domain_route:PC"}, {"md_atom_id": "md_dmPC_ex_a035", "md_file": "knowledge_base/domains/PC/examples.md", "md_atom_type": "TABLE_ROW", "md_parent_section": "§PC.1 [Example 1]", "md_verbatim": "| 20 | ABC-123 | PC | 1235154 | 20 | DRUGA_DAY11 | 625154 | PH | PH | SPECIMEN PROPERTY | 6.1 | | 6.1 | 6.1 | | URINE | | | | 2001-03-07 | 2001-03-07 | 11 | 12h post | 12 | Day 11 Dose | 2001-03-07T08:00 | PT12H | -PT12H |", "score": 0.4158, "match_basis": "verbatim_token+domain_route:PC"}, {"md_atom_id": "md_dmPC_ex_a020", "md_file": "knowledge_base/domains/PC/examples.md", "md_atom_type": "TABLE_ROW", "md_parent_section": "§PC.1 [Example 1]", "md_verbatim": "| 5 | ABC-123 | PC | 1235154 | 5 | DRUGA_DAY1 | 625154 | VOLUME | Volume | SPECIMEN PROPERTY | 363 | mL | 363 | 363 | mL | URINE | | | | 2001-02-25 | 2001-02-25 | 1 | Pre-dose | -1 | Day 1 Dose | 2001-02-25T08:00 | PT0M | |", "score": 0.4154, "match_basis": "verbatim_token+domain_route:PC"}, {"md_atom_id": "md_dmPC_ex_a039", "md_file": "knowledge_base/domains/PC/examples.md", "md_atom_type": "TABLE_ROW", "md_parent_section": "§PC.1 [Example 1]", "md_verbatim": "| 24 | ABC-123 | PC | 1235154 | 24 | DRUGA_DAY11 | 625154 | PH | PH | SPECIMEN PROPERTY | | | | | | URINE | | | | 2001-03-07 | 2001-03-18 | 11 | 24h post | 24 | Day 11 Dose | 2001-03-07T08:00 | PT24H | -PT12H |", "score": 0.4152, "match_basis": "verbatim_token+domain_route:PC"}, {"md_atom_id": "md_dmPC_ex_a034", "md_file": "knowledge_base/domains/PC/examples.md", "md_atom_type": "TABLE_ROW", "md_parent_section": "§PC.1 [Example 1]", "md_verbatim": "| 19 | ABC-123 | PC | 1235154 | 19 | DRUGA_DAY11 | 625154 | VOLUME | Volume | SPECIMEN PROPERTY | 606 | mL | 606 | 606 | mL | URINE | | | | 2001-03-07 | 2001-03-07 | 11 | 12h post | 12 | Day 11 Dose | 2001-03-07T08:00 | PT12H | -PT12H |", "score": 0.4148, "match_basis": "verbatim_token+domain_route:PC"}], "candidate_count": 5, "zero_candidate": false}
{"pdf_atom_id": "ig34_p0268_a002", "pdf_atom_type": "TABLE_ROW", "pdf_source": "SDTMIG_v3.4", "pdf_page": 268, "pdf_parent_section": "§6.3.5.9.1 Pharmacokinetics Concentrations (PC)", "pdf_verbatim": "PCTESTCD | Pharmacokinetic Test Short Name | Char | | Topic | Short name of the analyte or specimen characteristic. It can be used as a column name when converting a dataset from a vertical to a horizontal format. The value in PCTESTCD cannot be longer than 8 characters, nor can it start with a number (e.g., \"1TEST\" is not valid). PCTESTCD cannot contain characters other than letters, numbers, or underscores. Examples: \"ASA\", \"VOL\", \"SPG\". | Req", "figure_ref": null, "candidates": [{"md_atom_id": "md_dmPC_ex_a020", "md_file": "knowledge_base/domains/PC/examples.md", "md_atom_type": "TABLE_ROW", "md_parent_section": "§PC.1 [Example 1]", "md_verbatim": "| 5 | ABC-123 | PC | 1235154 | 5 | DRUGA_DAY1 | 625154 | VOLUME | Volume | SPECIMEN PROPERTY | 363 | mL | 363 | 363 | mL | URINE | | | | 2001-02-25 | 2001-02-25 | 1 | Pre-dose | -1 | Day 1 Dose | 2001-02-25T08:00 | PT0M | |", "score": 0.4395, "match_basis": "verbatim_token+domain_route:PC"}, {"md_atom_id": "md_dmPC_ex_a034", "md_file": "knowledge_base/domains/PC/examples.md", "md_atom_type": "TABLE_ROW", "md_parent_section": "§PC.1 [Example 1]", "md_verbatim": "| 19 | ABC-123 | PC | 1235154 | 19 | DRUGA_DAY11 | 625154 | VOLUME | Volume | SPECIMEN PROPERTY | 606 | mL | 606 | 606 | mL | URINE | | | | 2001-03-07 | 2001-03-07 | 11 | 12h post | 12 | Day 11 Dose | 2001-03-07T08:00 | PT12H | -PT12H |", "score": 0.4388, "match_basis": "verbatim_token+domain_route:PC"}, {"md_atom_id": "md_dmPC_ex_a038", "md_file": "knowledge_base/domains/PC/examples.md", "md_atom_type": "TABLE_ROW", "md_parent_section": "§PC.1 [Example 1]", "md_verbatim": "| 23 | ABC-123 | PC | 1235154 | 23 | DRUGA_DAY11 | 625154 | VOLUME | Volume | SPECIMEN PROPERTY | 406 | mL | 406 | 406 | mL | URINE | | | | 2001-03-07 | 2001-03-18 | 11 | 24h post | 24 | Day 11 Dose | 2001-03-07T08:00 | PT24H | -PT12H |", "score": 0.4382, "match_basis": "verbatim_token+domain_route:PC"}, {"md_atom_id": "md_dmPC_ex_a021", "md_file": "knowledge_base/domains/PC/examples.md", "md_atom_type": "TABLE_ROW", "md_parent_section": "§PC.1 [Example 1]", "md_verbatim": "| 6 | ABC-123 | PC | 1235154 | 6 | DRUGA_DAY1 | 625154 | PH | PH | SPECIMEN PROPERTY | | | | | | URINE | | | | 2001-02-25 | 2001-02-25 | 1 | Pre-dose | -1 | Day 1 Dose | 2001-02-25T08:00 | PT0M | |", "score": 0.4291, "match_basis": "verbatim_token+domain_route:PC"}, {"md_atom_id": "md_dmPC_ex_a035", "md_file": "knowledge_base/domains/PC/examples.md", "md_atom_type": "TABLE_ROW", "md_parent_section": "§PC.1 [Example 1]", "md_verbatim": "| 20 | ABC-123 | PC | 1235154 | 20 | DRUGA_DAY11 | 625154 | PH | PH | SPECIMEN PROPERTY | 6.1 | | 6.1 | 6.1 | | URINE | | | | 2001-03-07 | 2001-03-07 | 11 | 12h post | 12 | Day 11 Dose | 2001-03-07T08:00 | PT12H | -PT12H |", "score": 0.4286, "match_basis": "verbatim_token+domain_route:PC"}], "candidate_count": 5, "zero_candidate": false}
{"pdf_atom_id": "ig34_p0268_a003", "pdf_atom_type": "TABLE_ROW", "pdf_source": "SDTMIG_v3.4", "pdf_page": 268, "pdf_parent_section": "§6.3.5.9.1 Pharmacokinetics Concentrations (PC)", "pdf_verbatim": "PCTEST | Pharmacokinetic Test Name | Char | | Synonym Qualifier | Name of the analyte or specimen characteristic normally performed by a clinical laboratory is considered a lab test. The value in PCTEST cannot be longer than 40 characters. Examples: \"Acetylsalicylic Acid\", \"Volume\", \"Specific Gravity\". | Req", "figure_ref": null, "candidates": [{"md_atom_id": "md_dmPC_ex_a020", "md_file": "knowledge_base/domains/PC/examples.md", "md_atom_type": "TABLE_ROW", "md_parent_section": "§PC.1 [Example 1]", "md_verbatim": "| 5 | ABC-123 | PC | 1235154 | 5 | DRUGA_DAY1 | 625154 | VOLUME | Volume | SPECIMEN PROPERTY | 363 | mL | 363 | 363 | mL | URINE | | | | 2001-02-25 | 2001-02-25 | 1 | Pre-dose | -1 | Day 1 Dose | 2001-02-25T08:00 | PT0M | |", "score": 0.4447, "match_basis": "verbatim_token+domain_route:PC"}, {"md_atom_id": "md_dmPC_ex_a034", "md_file": "knowledge_base/domains/PC/examples.md", "md_atom_type": "TABLE_ROW", "md_parent_section": "§PC.1 [Example 1]", "md_verbatim": "| 19 | ABC-123 | PC | 1235154 | 19 | DRUGA_DAY11 | 625154 | VOLUME | Volume | SPECIMEN PROPERTY | 606 | mL | 606 | 606 | mL | URINE | | | | 2001-03-07 | 2001-03-07 | 11 | 12h post | 12 | Day 11 Dose | 2001-03-07T08:00 | PT12H | -PT12H |", "score": 0.4439, "match_basis": "verbatim_token+domain_route:PC"}, {"md_atom_id": "md_dmPC_ex_a038", "md_file": "knowledge_base/domains/PC/examples.md", "md_atom_type": "TABLE_ROW", "md_parent_section": "§PC.1 [Example 1]", "md_verbatim": "| 23 | ABC-123 | PC | 1235154 | 23 | DRUGA_DAY11 | 625154 | VOLUME | Volume | SPECIMEN PROPERTY | 406 | mL | 406 | 406 | mL | URINE | | | | 2001-03-07 | 2001-03-18 | 11 | 24h post | 24 | Day 11 Dose | 2001-03-07T08:00 | PT24H | -PT12H |", "score": 0.4431, "match_basis": "verbatim_token+domain_route:PC"}, {"md_atom_id": "md_dmPC_ex_a021", "md_file": "knowledge_base/domains/PC/examples.md", "md_atom_type": "TABLE_ROW", "md_parent_section": "§PC.1 [Example 1]", "md_verbatim": "| 6 | ABC-123 | PC | 1235154 | 6 | DRUGA_DAY1 | 625154 | PH | PH | SPECIMEN PROPERTY | | | | | | URINE | | | | 2001-02-25 | 2001-02-25 | 1 | Pre-dose | -1 | Day 1 Dose | 2001-02-25T08:00 | PT0M | |", "score": 0.43, "match_basis": "verbatim_token+domain_route:PC"}, {"md_atom_id": "md_dmPC_ex_a035", "md_file": "knowledge_base/domains/PC/examples.md", "md_atom_type": "TABLE_ROW", "md_parent_section": "§PC.1 [Example 1]", "md_verbatim": "| 20 | ABC-123 | PC | 1235154 | 20 | DRUGA_DAY11 | 625154 | PH | PH | SPECIMEN PROPERTY | 6.1 | | 6.1 | 6.1 | | URINE | | | | 2001-03-07 | 2001-03-07 | 11 | 12h post | 12 | Day 11 Dose | 2001-03-07T08:00 | PT12H | -PT12H |", "score": 0.4294, "match_basis": "verbatim_token+domain_route:PC"}], "candidate_count": 5, "zero_candidate": false}
{"pdf_atom_id": "ig34_p0268_a004", "pdf_atom_type": "TABLE_ROW", "pdf_source": "SDTMIG_v3.4", "pdf_page": 268, "pdf_parent_section": "§6.3.5.9.1 Pharmacokinetics Concentrations (PC)", "pdf_verbatim": "PCCAT | Test Category | Char | * | Grouping Qualifier | Used to define a category of related records. Examples: \"ANALYTE\", \"SPECIMEN PROPERTY\". | Perm", "figure_ref": null, "candidates": [{"md_atom_id": "md_dmPC_ex_a021", "md_file": "knowledge_base/domains/PC/examples.md", "md_atom_type": "TABLE_ROW", "md_parent_section": "§PC.1 [Example 1]", "md_verbatim": "| 6 | ABC-123 | PC | 1235154 | 6 | DRUGA_DAY1 | 625154 | PH | PH | SPECIMEN PROPERTY | | | | | | URINE | | | | 2001-02-25 | 2001-02-25 | 1 | Pre-dose | -1 | Day 1 Dose | 2001-02-25T08:00 | PT0M | |", "score": 0.4876, "match_basis": "verbatim_token+domain_route:PC"}, {"md_atom_id": "md_dmPC_ex_a035", "md_file": "knowledge_base/domains/PC/examples.md", "md_atom_type": "TABLE_ROW", "md_parent_section": "§PC.1 [Example 1]", "md_verbatim": "| 20 | ABC-123 | PC | 1235154 | 20 | DRUGA_DAY11 | 625154 | PH | PH | SPECIMEN PROPERTY | 6.1 | | 6.1 | 6.1 | | URINE | | | | 2001-03-07 | 2001-03-07 | 11 | 12h post | 12 | Day 11 Dose | 2001-03-07T08:00 | PT12H | -PT12H |", "score": 0.4848, "match_basis": "verbatim_token+domain_route:PC"}, {"md_atom_id": "md_dmPC_ex_a020", "md_file": "knowledge_base/domains/PC/examples.md", "md_atom_type": "TABLE_ROW", "md_parent_section": "§PC.1 [Example 1]", "md_verbatim": "| 5 | ABC-123 | PC | 1235154 | 5 | DRUGA_DAY1 | 625154 | VOLUME | Volume | SPECIMEN PROPERTY | 363 | mL | 363 | 363 | mL | URINE | | | | 2001-02-25 | 2001-02-25 | 1 | Pre-dose | -1 | Day 1 Dose | 2001-02-25T08:00 | PT0M | |", "score": 0.483, "match_basis": "verbatim_token+domain_route:PC"}, {"md_atom_id": "md_dmPC_ex_a039", "md_file": "knowledge_base/domains/PC/examples.md", "md_atom_type": "TABLE_ROW", "md_parent_section": "§PC.1 [Example 1]", "md_verbatim": "| 24 | ABC-123 | PC | 1235154 | 24 | DRUGA_DAY11 | 625154 | PH | PH | SPECIMEN PROPERTY | | | | | | URINE | | | | 2001-03-07 | 2001-03-18 | 11 | 24h post | 24 | Day 11 Dose | 2001-03-07T08:00 | PT24H | -PT12H |", "score": 0.4821, "match_basis": "verbatim_token+domain_route:PC"}, {"md_atom_id": "md_dmPC_ex_a034", "md_file": "knowledge_base/domains/PC/examples.md", "md_atom_type": "TABLE_ROW", "md_parent_section": "§PC.1 [Example 1]", "md_verbatim": "| 19 | ABC-123 | PC | 1235154 | 19 | DRUGA_DAY11 | 625154 | VOLUME | Volume | SPECIMEN PROPERTY | 606 | mL | 606 | 606 | mL | URINE | | | | 2001-03-07 | 2001-03-07 | 11 | 12h post | 12 | Day 11 Dose | 2001-03-07T08:00 | PT12H | -PT12H |", "score": 0.4804, "match_basis": "verbatim_token+domain_route:PC"}], "candidate_count": 5, "zero_candidate": false}
{"pdf_atom_id": "ig34_p0268_a005", "pdf_atom_type": "TABLE_ROW", "pdf_source": "SDTMIG_v3.4", "pdf_page": 268, "pdf_parent_section": "§6.3.5.9.1 Pharmacokinetics Concentrations (PC)", "pdf_verbatim": "PCSCAT | Test Subcategory | Char | * | Grouping Qualifier | A further categorization of a test category. | Perm", "figure_ref": null, "candidates": [{"md_atom_id": "md_dmPC_ex_a373", "md_file": "knowledge_base/domains/PC/examples.md", "md_atom_type": "TABLE_ROW", "md_parent_section": "§PC.2.7 [Example 4 (Complex exclusions)]", "md_verbatim": "| 13 | ABC-123 | PP | ABC-123-0001 | PPGRPID | OTHER | | 4 |", "score": 0.4226, "match_basis": "verbatim_token+domain_route:PC"}, {"md_atom_id": "md_dmPC_ex_a110", "md_file": "knowledge_base/domains/PC/examples.md", "md_atom_type": "TABLE_ROW", "md_parent_section": "§PC.2.4 [Example 1 (All PC records used)]", "md_verbatim": "| 1 | ABC-123 | PC | ABC-123-0001 | PCSEQ | 1 | | 1 |", "score": 0.4122, "match_basis": "verbatim_token+domain_route:PC"}, {"md_atom_id": "md_dmPC_ex_a111", "md_file": "knowledge_base/domains/PC/examples.md", "md_atom_type": "TABLE_ROW", "md_parent_section": "§PC.2.4 [Example 1 (All PC records used)]", "md_verbatim": "| 2 | ABC-123 | PC | ABC-123-0001 | PCSEQ | 2 | | 1 |", "score": 0.4122, "match_basis": "verbatim_token+domain_route:PC"}, {"md_atom_id": "md_dmPC_ex_a112", "md_file": "knowledge_base/domains/PC/examples.md", "md_atom_type": "TABLE_ROW", "md_parent_section": "§PC.2.4 [Example 1 (All PC records used)]", "md_verbatim": "| 3 | ABC-123 | PC | ABC-123-0001 | PCSEQ | 3 | | 1 |", "score": 0.4122, "match_basis": "verbatim_token+domain_route:PC"}, {"md_atom_id": "md_dmPC_ex_a113", "md_file": "knowledge_base/domains/PC/examples.md", "md_atom_type": "TABLE_ROW", "md_parent_section": "§PC.2.4 [Example 1 (All PC records used)]", "md_verbatim": "| 4 | ABC-123 | PC | ABC-123-0001 | PCSEQ | 4 | | 1 |", "score": 0.4122, "match_basis": "verbatim_token+domain_route:PC"}], "candidate_count": 5, "zero_candidate": false}
{"pdf_atom_id": "ig34_p0268_a006", "pdf_atom_type": "TABLE_ROW", "pdf_source": "SDTMIG_v3.4", "pdf_page": 268, "pdf_parent_section": "§6.3.5.9.1 Pharmacokinetics Concentrations (PC)", "pdf_verbatim": "PCORRES | Result or Finding in Original Units | Char | | Result Qualifier | Result of the measurement or finding as originally received or collected. | Exp", "figure_ref": null, "candidates": [{"md_atom_id": "md_dmPC_ex_a373", "md_file": "knowledge_base/domains/PC/examples.md", "md_atom_type": "TABLE_ROW", "md_parent_section": "§PC.2.7 [Example 4 (Complex exclusions)]", "md_verbatim": "| 13 | ABC-123 | PP | ABC-123-0001 | PPGRPID | OTHER | | 4 |", "score": 0.4088, "match_basis": "verbatim_token+domain_route:PC"}, {"md_atom_id": "md_dmPC_ex_a018", "md_file": "knowledge_base/domains/PC/examples.md", "md_atom_type": "TABLE_ROW", "md_parent_section": "§PC.1 [Example 1]", "md_verbatim": "| 3 | ABC-123 | PC | 1235154 | 3 | DRUGA_DAY1 | 625154 | DRUGX | Drug A | ANALYTE | 0.10 | ng/mL | 0.10 | 0.10 | ng/mL | URINE | Y | 0.10 | | 2001-02-25 | 2001-02-25 | 1 | Pre-dose | -1 | Day 1 Dose | 2001-02-25T08:00 | PT0M | |", "score": 0.4068, "match_basis": "verbatim_token+domain_route:PC"}, {"md_atom_id": "md_dmPC_ex_a016", "md_file": "knowledge_base/domains/PC/examples.md", "md_atom_type": "TABLE_ROW", "md_parent_section": "§PC.1 [Example 1]", "md_verbatim": "| 1 | ABC-123 | PC | 1235154 | 1 | DRUGA_DAY1 | 625154 | DRUGX | Drug A | ANALYTE | 0.10 | ng/mL | 0.10 | 0.10 | ng/mL | PLASMA | Y | 0.10 | | 2001-02-25 | | 1 | Pre-dose | -1 | Day 1 Dose | 2001-02-25T08:00 | PT0M | |", "score": 0.4067, "match_basis": "verbatim_token+domain_route:PC"}, {"md_atom_id": "md_dmPC_ex_a044", "md_file": "knowledge_base/domains/PC/examples.md", "md_atom_type": "TABLE_ROW", "md_parent_section": "§PC.1 [Example 1]", "md_verbatim": "| 29 | ABC-123 | PC | 1235154 | 29 | DRUGA_DAY11 | 625154 | DRUGX | Drug A | ANALYTE | 5.1 | | | | | PLASMA | | | | 2001-03-07 | | 11 | Pre-dose | -1 | Day 11 Dose | 2001-03-07T08:00 | PT0M | |", "score": 0.4067, "match_basis": "verbatim_token+domain_route:PC"}, {"md_atom_id": "md_dmPC_ex_a069", "md_file": "knowledge_base/domains/PC/examples.md", "md_atom_type": "TABLE_ROW", "md_parent_section": "§PC.2.3 [Shared PC Dataset for All Examples]", "md_verbatim": "| 1 | ABC-123 | PC | ABC-123-0001 | 1 | DY1_DRGX | DY1_DRGX | DY1_DRGX_A | DY1DRGX_A | STUDYDRUG | STUDYDRUG | ANALYTE | q | | | | | PLASMA | | 0.10 | | 1 | Day 1 | 1 | 2001-02-01 | | 1 | Pre-dose | -1 | Day 1 Dose | 2001-02-01T08:35 | PT0M | |", "score": 0.4066, "match_basis": "verbatim_token+domain_route:PC"}], "candidate_count": 5, "zero_candidate": false}
{"pdf_atom_id": "ig34_p0268_a007", "pdf_atom_type": "TABLE_ROW", "pdf_source": "SDTMIG_v3.4", "pdf_page": 268, "pdf_parent_section": "§6.3.5.9.1 Pharmacokinetics Concentrations (PC)", "pdf_verbatim": "PCORRESU | Original Units | Char | (PKUNIT) | Variable Qualifier | Original units in which the data were collected. The unit for PCORRES. Example: \"mg/L\". | Exp", "figure_ref": null, "candidates": [{"md_atom_id": "md_dmPC_ex_a373", "md_file": "knowledge_base/domains/PC/examples.md", "md_atom_type": "TABLE_ROW", "md_parent_section": "§PC.2.7 [Example 4 (Complex exclusions)]", "md_verbatim": "| 13 | ABC-123 | PP | ABC-123-0001 | PPGRPID | OTHER | | 4 |", "score": 0.4092, "match_basis": "verbatim_token+domain_route:PC"}, {"md_atom_id": "md_dmPC_ex_a018", "md_file": "knowledge_base/domains/PC/examples.md", "md_atom_type": "TABLE_ROW", "md_parent_section": "§PC.1 [Example 1]", "md_verbatim": "| 3 | ABC-123 | PC | 1235154 | 3 | DRUGA_DAY1 | 625154 | DRUGX | Drug A | ANALYTE | 0.10 | ng/mL | 0.10 | 0.10 | ng/mL | URINE | Y | 0.10 | | 2001-02-25 | 2001-02-25 | 1 | Pre-dose | -1 | Day 1 Dose | 2001-02-25T08:00 | PT0M | |", "score": 0.4071, "match_basis": "verbatim_token+domain_route:PC"}, {"md_atom_id": "md_dmPC_ex_a016", "md_file": "knowledge_base/domains/PC/examples.md", "md_atom_type": "TABLE_ROW", "md_parent_section": "§PC.1 [Example 1]", "md_verbatim": "| 1 | ABC-123 | PC | 1235154 | 1 | DRUGA_DAY1 | 625154 | DRUGX | Drug A | ANALYTE | 0.10 | ng/mL | 0.10 | 0.10 | ng/mL | PLASMA | Y | 0.10 | | 2001-02-25 | | 1 | Pre-dose | -1 | Day 1 Dose | 2001-02-25T08:00 | PT0M | |", "score": 0.407, "match_basis": "verbatim_token+domain_route:PC"}, {"md_atom_id": "md_dmPC_ex_a044", "md_file": "knowledge_base/domains/PC/examples.md", "md_atom_type": "TABLE_ROW", "md_parent_section": "§PC.1 [Example 1]", "md_verbatim": "| 29 | ABC-123 | PC | 1235154 | 29 | DRUGA_DAY11 | 625154 | DRUGX | Drug A | ANALYTE | 5.1 | | | | | PLASMA | | | | 2001-03-07 | | 11 | Pre-dose | -1 | Day 11 Dose | 2001-03-07T08:00 | PT0M | |", "score": 0.4069, "match_basis": "verbatim_token+domain_route:PC"}, {"md_atom_id": "md_dmPC_ex_a069", "md_file": "knowledge_base/domains/PC/examples.md", "md_atom_type": "TABLE_ROW", "md_parent_section": "§PC.2.3 [Shared PC Dataset for All Examples]", "md_verbatim": "| 1 | ABC-123 | PC | ABC-123-0001 | 1 | DY1_DRGX | DY1_DRGX | DY1_DRGX_A | DY1DRGX_A | STUDYDRUG | STUDYDRUG | ANALYTE | q | | | | | PLASMA | | 0.10 | | 1 | Day 1 | 1 | 2001-02-01 | | 1 | Pre-dose | -1 | Day 1 Dose | 2001-02-01T08:35 | PT0M | |", "score": 0.4068, "match_basis": "verbatim_token+domain_route:PC"}], "candidate_count": 5, "zero_candidate": false}
{"pdf_atom_id": "ig34_p0268_a008", "pdf_atom_type": "TABLE_ROW", "pdf_source": "SDTMIG_v3.4", "pdf_page": 268, "pdf_parent_section": "§6.3.5.9.1 Pharmacokinetics Concentrations (PC)", "pdf_verbatim": "PCSTRESC | Character Result/Finding in Std Format | Char | | Result Qualifier | Contains the result value for all findings, copied or derived from PCORRES in a standard format or standard units. PCSTRESC should store all results or findings in character format; if results are numeric, they should also be stored in numeric format in PCSTRESN. For example, if a test has results \"NONE\", \"NEG\", and \"NEGATIVE\" in PCORRES, and these results effectively have the same meaning, they could be represented in standard format in PCSTRESC as \"NEGATIVE\". For other examples, see general assumptions. | Exp", "figure_ref": null, "candidates": [{"md_atom_id": "md_dmPC_ex_a373", "md_file": "knowledge_base/domains/PC/examples.md", "md_atom_type": "TABLE_ROW", "md_parent_section": "§PC.2.7 [Example 4 (Complex exclusions)]", "md_verbatim": "| 13 | ABC-123 | PP | ABC-123-0001 | PPGRPID | OTHER | | 4 |", "score": 0.4116, "match_basis": "verbatim_token+domain_route:PC"}, {"md_atom_id": "md_dmPC_ex_a020", "md_file": "knowledge_base/domains/PC/examples.md", "md_atom_type": "TABLE_ROW", "md_parent_section": "§PC.1 [Example 1]", "md_verbatim": "| 5 | ABC-123 | PC | 1235154 | 5 | DRUGA_DAY1 | 625154 | VOLUME | Volume | SPECIMEN PROPERTY | 363 | mL | 363 | 363 | mL | URINE | | | | 2001-02-25 | 2001-02-25 | 1 | Pre-dose | -1 | Day 1 Dose | 2001-02-25T08:00 | PT0M | |", "score": 0.4064, "match_basis": "verbatim_token+domain_route:PC"}, {"md_atom_id": "md_dmPC_ex_a110", "md_file": "knowledge_base/domains/PC/examples.md", "md_atom_type": "TABLE_ROW", "md_parent_section": "§PC.2.4 [Example 1 (All PC records used)]", "md_verbatim": "| 1 | ABC-123 | PC | ABC-123-0001 | PCSEQ | 1 | | 1 |", "score": 0.4039, "match_basis": "verbatim_token+domain_route:PC"}, {"md_atom_id": "md_dmPC_ex_a111", "md_file": "knowledge_base/domains/PC/examples.md", "md_atom_type": "TABLE_ROW", "md_parent_section": "§PC.2.4 [Example 1 (All PC records used)]", "md_verbatim": "| 2 | ABC-123 | PC | ABC-123-0001 | PCSEQ | 2 | | 1 |", "score": 0.4039, "match_basis": "verbatim_token+domain_route:PC"}, {"md_atom_id": "md_dmPC_ex_a112", "md_file": "knowledge_base/domains/PC/examples.md", "md_atom_type": "TABLE_ROW", "md_parent_section": "§PC.2.4 [Example 1 (All PC records used)]", "md_verbatim": "| 3 | ABC-123 | PC | ABC-123-0001 | PCSEQ | 3 | | 1 |", "score": 0.4039, "match_basis": "verbatim_token+domain_route:PC"}], "candidate_count": 5, "zero_candidate": false}
{"pdf_atom_id": "ig34_p0268_a009", "pdf_atom_type": "TABLE_ROW", "pdf_source": "SDTMIG_v3.4", "pdf_page": 268, "pdf_parent_section": "§6.3.5.9.1 Pharmacokinetics Concentrations (PC)", "pdf_verbatim": "PCSTRESN | Numeric Result/Finding in Standard Units | Num | | Result Qualifier | Used for continuous or numeric results or findings in standard format; copied in numeric format from PCSTRESC. PCSTRESN should store all numeric test results or findings. | Exp", "figure_ref": null, "candidates": [{"md_atom_id": "md_dmPC_ex_a110", "md_file": "knowledge_base/domains/PC/examples.md", "md_atom_type": "TABLE_ROW", "md_parent_section": "§PC.2.4 [Example 1 (All PC records used)]", "md_verbatim": "| 1 | ABC-123 | PC | ABC-123-0001 | PCSEQ | 1 | | 1 |", "score": 0.408, "match_basis": "verbatim_token+domain_route:PC"}, {"md_atom_id": "md_dmPC_ex_a111", "md_file": "knowledge_base/domains/PC/examples.md", "md_atom_type": "TABLE_ROW", "md_parent_section": "§PC.2.4 [Example 1 (All PC records used)]", "md_verbatim": "| 2 | ABC-123 | PC | ABC-123-0001 | PCSEQ | 2 | | 1 |", "score": 0.408, "match_basis": "verbatim_token+domain_route:PC"}, {"md_atom_id": "md_dmPC_ex_a112", "md_file": "knowledge_base/domains/PC/examples.md", "md_atom_type": "TABLE_ROW", "md_parent_section": "§PC.2.4 [Example 1 (All PC records used)]", "md_verbatim": "| 3 | ABC-123 | PC | ABC-123-0001 | PCSEQ | 3 | | 1 |", "score": 0.408, "match_basis": "verbatim_token+domain_route:PC"}, {"md_atom_id": "md_dmPC_ex_a113", "md_file": "knowledge_base/domains/PC/examples.md", "md_atom_type": "TABLE_ROW", "md_parent_section": "§PC.2.4 [Example 1 (All PC records used)]", "md_verbatim": "| 4 | ABC-123 | PC | ABC-123-0001 | PCSEQ | 4 | | 1 |", "score": 0.408, "match_basis": "verbatim_token+domain_route:PC"}, {"md_atom_id": "md_dmPC_ex_a114", "md_file": "knowledge_base/domains/PC/examples.md", "md_atom_type": "TABLE_ROW", "md_parent_section": "§PC.2.4 [Example 1 (All PC records used)]", "md_verbatim": "| 5 | ABC-123 | PC | ABC-123-0001 | PCSEQ | 5 | | 1 |", "score": 0.408, "match_basis": "verbatim_token+domain_route:PC"}], "candidate_count": 5, "zero_candidate": false}
{"pdf_atom_id": "ig34_p0268_a010", "pdf_atom_type": "TABLE_ROW", "pdf_source": "SDTMIG_v3.4", "pdf_page": 268, "pdf_parent_section": "§6.3.5.9.1 Pharmacokinetics Concentrations (PC)", "pdf_verbatim": "PCSTRESU | Standard Units | Char | (PKUNIT) | Variable Qualifier | Standardized unit used for PCSTRESC and PCSTRESN. | Exp", "figure_ref": null, "candidates": [{"md_atom_id": "md_dmPC_ex_a110", "md_file": "knowledge_base/domains/PC/examples.md", "md_atom_type": "TABLE_ROW", "md_parent_section": "§PC.2.4 [Example 1 (All PC records used)]", "md_verbatim": "| 1 | ABC-123 | PC | ABC-123-0001 | PCSEQ | 1 | | 1 |", "score": 0.4125, "match_basis": "verbatim_token+domain_route:PC"}, {"md_atom_id": "md_dmPC_ex_a111", "md_file": "knowledge_base/domains/PC/examples.md", "md_atom_type": "TABLE_ROW", "md_parent_section": "§PC.2.4 [Example 1 (All PC records used)]", "md_verbatim": "| 2 | ABC-123 | PC | ABC-123-0001 | PCSEQ | 2 | | 1 |", "score": 0.4125, "match_basis": "verbatim_token+domain_route:PC"}, {"md_atom_id": "md_dmPC_ex_a112", "md_file": "knowledge_base/domains/PC/examples.md", "md_atom_type": "TABLE_ROW", "md_parent_section": "§PC.2.4 [Example 1 (All PC records used)]", "md_verbatim": "| 3 | ABC-123 | PC | ABC-123-0001 | PCSEQ | 3 | | 1 |", "score": 0.4125, "match_basis": "verbatim_token+domain_route:PC"}, {"md_atom_id": "md_dmPC_ex_a113", "md_file": "knowledge_base/domains/PC/examples.md", "md_atom_type": "TABLE_ROW", "md_parent_section": "§PC.2.4 [Example 1 (All PC records used)]", "md_verbatim": "| 4 | ABC-123 | PC | ABC-123-0001 | PCSEQ | 4 | | 1 |", "score": 0.4125, "match_basis": "verbatim_token+domain_route:PC"}, {"md_atom_id": "md_dmPC_ex_a114", "md_file": "knowledge_base/domains/PC/examples.md", "md_atom_type": "TABLE_ROW", "md_parent_section": "§PC.2.4 [Example 1 (All PC records used)]", "md_verbatim": "| 5 | ABC-123 | PC | ABC-123-0001 | PCSEQ | 5 | | 1 |", "score": 0.4125, "match_basis": "verbatim_token+domain_route:PC"}], "candidate_count": 5, "zero_candidate": false}
{"pdf_atom_id": "ig34_p0268_a011", "pdf_atom_type": "TABLE_ROW", "pdf_source": "SDTMIG_v3.4", "pdf_page": 268, "pdf_parent_section": "§6.3.5.9.1 Pharmacokinetics Concentrations (PC)", "pdf_verbatim": "PCSTAT | Completion Status | Char | (ND) | Record Qualifier | Used to indicate a result was not obtained. Should be null if a result exists in PCORRES. | Perm", "figure_ref": null, "candidates": [{"md_atom_id": "md_dmPC_ex_a021", "md_file": "knowledge_base/domains/PC/examples.md", "md_atom_type": "TABLE_ROW", "md_parent_section": "§PC.1 [Example 1]", "md_verbatim": "| 6 | ABC-123 | PC | 1235154 | 6 | DRUGA_DAY1 | 625154 | PH | PH | SPECIMEN PROPERTY | | | | | | URINE | | | | 2001-02-25 | 2001-02-25 | 1 | Pre-dose | -1 | Day 1 Dose | 2001-02-25T08:00 | PT0M | |", "score": 0.4122, "match_basis": "verbatim_token+domain_route:PC"}, {"md_atom_id": "md_dmPC_ex_a035", "md_file": "knowledge_base/domains/PC/examples.md", "md_atom_type": "TABLE_ROW", "md_parent_section": "§PC.1 [Example 1]", "md_verbatim": "| 20 | ABC-123 | PC | 1235154 | 20 | DRUGA_DAY11 | 625154 | PH | PH | SPECIMEN PROPERTY | 6.1 | | 6.1 | 6.1 | | URINE | | | | 2001-03-07 | 2001-03-07 | 11 | 12h post | 12 | Day 11 Dose | 2001-03-07T08:00 | PT12H | -PT12H |", "score": 0.4119, "match_basis": "verbatim_token+domain_route:PC"}, {"md_atom_id": "md_dmPC_ex_a020", "md_file": "knowledge_base/domains/PC/examples.md", "md_atom_type": "TABLE_ROW", "md_parent_section": "§PC.1 [Example 1]", "md_verbatim": "| 5 | ABC-123 | PC | 1235154 | 5 | DRUGA_DAY1 | 625154 | VOLUME | Volume | SPECIMEN PROPERTY | 363 | mL | 363 | 363 | mL | URINE | | | | 2001-02-25 | 2001-02-25 | 1 | Pre-dose | -1 | Day 1 Dose | 2001-02-25T08:00 | PT0M | |", "score": 0.4117, "match_basis": "verbatim_token+domain_route:PC"}, {"md_atom_id": "md_dmPC_ex_a039", "md_file": "knowledge_base/domains/PC/examples.md", "md_atom_type": "TABLE_ROW", "md_parent_section": "§PC.1 [Example 1]", "md_verbatim": "| 24 | ABC-123 | PC | 1235154 | 24 | DRUGA_DAY11 | 625154 | PH | PH | SPECIMEN PROPERTY | | | | | | URINE | | | | 2001-03-07 | 2001-03-18 | 11 | 24h post | 24 | Day 11 Dose | 2001-03-07T08:00 | PT24H | -PT12H |", "score": 0.4115, "match_basis": "verbatim_token+domain_route:PC"}, {"md_atom_id": "md_dmPC_ex_a034", "md_file": "knowledge_base/domains/PC/examples.md", "md_atom_type": "TABLE_ROW", "md_parent_section": "§PC.1 [Example 1]", "md_verbatim": "| 19 | ABC-123 | PC | 1235154 | 19 | DRUGA_DAY11 | 625154 | VOLUME | Volume | SPECIMEN PROPERTY | 606 | mL | 606 | 606 | mL | URINE | | | | 2001-03-07 | 2001-03-07 | 11 | 12h post | 12 | Day 11 Dose | 2001-03-07T08:00 | PT12H | -PT12H |", "score": 0.4113, "match_basis": "verbatim_token+domain_route:PC"}], "candidate_count": 5, "zero_candidate": false}
{"pdf_atom_id": "ig34_p0268_a012", "pdf_atom_type": "TABLE_ROW", "pdf_source": "SDTMIG_v3.4", "pdf_page": 268, "pdf_parent_section": "§6.3.5.9.1 Pharmacokinetics Concentrations (PC)", "pdf_verbatim": "PCREASND | Reason Test Not Done | Char | | Record Qualifier | Describes why a result was not obtained, such as \"SPECIMEN LOST\". Used in conjunction with PCSTAT when value is \"NOT DONE\". | Perm", "figure_ref": null, "candidates": [{"md_atom_id": "md_dmPC_ex_a035", "md_file": "knowledge_base/domains/PC/examples.md", "md_atom_type": "TABLE_ROW", "md_parent_section": "§PC.1 [Example 1]", "md_verbatim": "| 20 | ABC-123 | PC | 1235154 | 20 | DRUGA_DAY11 | 625154 | PH | PH | SPECIMEN PROPERTY | 6.1 | | 6.1 | 6.1 | | URINE | | | | 2001-03-07 | 2001-03-07 | 11 | 12h post | 12 | Day 11 Dose | 2001-03-07T08:00 | PT12H | -PT12H |", "score": 0.4486, "match_basis": "verbatim_token+domain_route:PC"}, {"md_atom_id": "md_dmPC_ex_a039", "md_file": "knowledge_base/domains/PC/examples.md", "md_atom_type": "TABLE_ROW", "md_parent_section": "§PC.1 [Example 1]", "md_verbatim": "| 24 | ABC-123 | PC | 1235154 | 24 | DRUGA_DAY11 | 625154 | PH | PH | SPECIMEN PROPERTY | | | | | | URINE | | | | 2001-03-07 | 2001-03-18 | 11 | 24h post | 24 | Day 11 Dose | 2001-03-07T08:00 | PT24H | -PT12H |", "score": 0.4474, "match_basis": "verbatim_token+domain_route:PC"}, {"md_atom_id": "md_dmPC_ex_a034", "md_file": "knowledge_base/domains/PC/examples.md", "md_atom_type": "TABLE_ROW", "md_parent_section": "§PC.1 [Example 1]", "md_verbatim": "| 19 | ABC-123 | PC | 1235154 | 19 | DRUGA_DAY11 | 625154 | VOLUME | Volume | SPECIMEN PROPERTY | 606 | mL | 606 | 606 | mL | URINE | | | | 2001-03-07 | 2001-03-07 | 11 | 12h post | 12 | Day 11 Dose | 2001-03-07T08:00 | PT12H | -PT12H |", "score": 0.4466, "match_basis": "verbatim_token+domain_route:PC"}, {"md_atom_id": "md_dmPC_ex_a038", "md_file": "knowledge_base/domains/PC/examples.md", "md_atom_type": "TABLE_ROW", "md_parent_section": "§PC.1 [Example 1]", "md_verbatim": "| 23 | ABC-123 | PC | 1235154 | 23 | DRUGA_DAY11 | 625154 | VOLUME | Volume | SPECIMEN PROPERTY | 406 | mL | 406 | 406 | mL | URINE | | | | 2001-03-07 | 2001-03-18 | 11 | 24h post | 24 | Day 11 Dose | 2001-03-07T08:00 | PT24H | -PT12H |", "score": 0.4454, "match_basis": "verbatim_token+domain_route:PC"}, {"md_atom_id": "md_dmPC_ex_a021", "md_file": "knowledge_base/domains/PC/examples.md", "md_atom_type": "TABLE_ROW", "md_parent_section": "§PC.1 [Example 1]", "md_verbatim": "| 6 | ABC-123 | PC | 1235154 | 6 | DRUGA_DAY1 | 625154 | PH | PH | SPECIMEN PROPERTY | | | | | | URINE | | | | 2001-02-25 | 2001-02-25 | 1 | Pre-dose | -1 | Day 1 Dose | 2001-02-25T08:00 | PT0M | |", "score": 0.444, "match_basis": "verbatim_token+domain_route:PC"}], "candidate_count": 5, "zero_candidate": false}
{"pdf_atom_id": "ig34_p0268_a013", "pdf_atom_type": "TABLE_ROW", "pdf_source": "SDTMIG_v3.4", "pdf_page": 268, "pdf_parent_section": "§6.3.5.9.1 Pharmacokinetics Concentrations (PC)", "pdf_verbatim": "PCNAM | Vendor Name | Char | | Record Qualifier | Name or identifier of the laboratory or vendor who provides the test results. | Exp", "figure_ref": null, "candidates": [{"md_atom_id": "md_dmPC_ex_a373", "md_file": "knowledge_base/domains/PC/examples.md", "md_atom_type": "TABLE_ROW", "md_parent_section": "§PC.2.7 [Example 4 (Complex exclusions)]", "md_verbatim": "| 13 | ABC-123 | PP | ABC-123-0001 | PPGRPID | OTHER | | 4 |", "score": 0.41, "match_basis": "verbatim_token+domain_route:PC"}, {"md_atom_id": "md_dmPC_ex_a021", "md_file": "knowledge_base/domains/PC/examples.md", "md_atom_type": "TABLE_ROW", "md_parent_section": "§PC.1 [Example 1]", "md_verbatim": "| 6 | ABC-123 | PC | 1235154 | 6 | DRUGA_DAY1 | 625154 | PH | PH | SPECIMEN PROPERTY | | | | | | URINE | | | | 2001-02-25 | 2001-02-25 | 1 | Pre-dose | -1 | Day 1 Dose | 2001-02-25T08:00 | PT0M | |", "score": 0.407, "match_basis": "verbatim_token+domain_route:PC"}, {"md_atom_id": "md_dmPC_ex_a035", "md_file": "knowledge_base/domains/PC/examples.md", "md_atom_type": "TABLE_ROW", "md_parent_section": "§PC.1 [Example 1]", "md_verbatim": "| 20 | ABC-123 | PC | 1235154 | 20 | DRUGA_DAY11 | 625154 | PH | PH | SPECIMEN PROPERTY | 6.1 | | 6.1 | 6.1 | | URINE | | | | 2001-03-07 | 2001-03-07 | 11 | 12h post | 12 | Day 11 Dose | 2001-03-07T08:00 | PT12H | -PT12H |", "score": 0.4067, "match_basis": "verbatim_token+domain_route:PC"}, {"md_atom_id": "md_dmPC_ex_a019", "md_file": "knowledge_base/domains/PC/examples.md", "md_atom_type": "TABLE_ROW", "md_parent_section": "§PC.1 [Example 1]", "md_verbatim": "| 4 | ABC-123 | PC | 1235154 | 4 | DRUGA_DAY1 | 625154 | DRUGXM | Drug A Metabolite | ANALYTE | BLQ | ng/mL | BLQ | | ng/mL | URINE | Y | 0.10 | | 2001-02-25 | 2001-02-25 | 1 | Pre-dose | -1 | Day 1 Dose | 2001-02-25T08:00 | PT0M | |", "score": 0.4067, "match_basis": "verbatim_token+domain_route:PC"}, {"md_atom_id": "md_dmPC_ex_a017", "md_file": "knowledge_base/domains/PC/examples.md", "md_atom_type": "TABLE_ROW", "md_parent_section": "§PC.1 [Example 1]", "md_verbatim": "| 2 | ABC-123 | PC | 1235154 | 2 | DRUGA_DAY1 | 625154 | DRUGXM | Drug A Metabolite | ANALYTE | BLQ | ng/mL | BLQ | | ng/mL | PLASMA | Y | 0.10 | | 2001-02-25 | | 1 | Pre-dose | -1 | Day 1 Dose | 2001-02-25T08:00 | PT0M | |", "score": 0.4066, "match_basis": "verbatim_token+domain_route:PC"}], "candidate_count": 5, "zero_candidate": false}
{"pdf_atom_id": "ig34_p0268_a014", "pdf_atom_type": "TABLE_ROW", "pdf_source": "SDTMIG_v3.4", "pdf_page": 268, "pdf_parent_section": "§6.3.5.9.1 Pharmacokinetics Concentrations (PC)", "pdf_verbatim": "PCSPEC | Specimen Material Type | Char | (SPECTYPE) | Record Qualifier | Defines the type of specimen used for a measurement. Examples: \"SERUM\", \"PLASMA\", \"URINE\". | Exp", "figure_ref": null, "candidates": [{"md_atom_id": "md_dmPC_ex_a021", "md_file": "knowledge_base/domains/PC/examples.md", "md_atom_type": "TABLE_ROW", "md_parent_section": "§PC.1 [Example 1]", "md_verbatim": "| 6 | ABC-123 | PC | 1235154 | 6 | DRUGA_DAY1 | 625154 | PH | PH | SPECIMEN PROPERTY | | | | | | URINE | | | | 2001-02-25 | 2001-02-25 | 1 | Pre-dose | -1 | Day 1 Dose | 2001-02-25T08:00 | PT0M | |", "score": 0.4581, "match_basis": "verbatim_token+domain_route:PC"}, {"md_atom_id": "md_dmPC_ex_a035", "md_file": "knowledge_base/domains/PC/examples.md", "md_atom_type": "TABLE_ROW", "md_parent_section": "§PC.1 [Example 1]", "md_verbatim": "| 20 | ABC-123 | PC | 1235154 | 20 | DRUGA_DAY11 | 625154 | PH | PH | SPECIMEN PROPERTY | 6.1 | | 6.1 | 6.1 | | URINE | | | | 2001-03-07 | 2001-03-07 | 11 | 12h post | 12 | Day 11 Dose | 2001-03-07T08:00 | PT12H | -PT12H |", "score": 0.4562, "match_basis": "verbatim_token+domain_route:PC"}, {"md_atom_id": "md_dmPC_ex_a020", "md_file": "knowledge_base/domains/PC/examples.md", "md_atom_type": "TABLE_ROW", "md_parent_section": "§PC.1 [Example 1]", "md_verbatim": "| 5 | ABC-123 | PC | 1235154 | 5 | DRUGA_DAY1 | 625154 | VOLUME | Volume | SPECIMEN PROPERTY | 363 | mL | 363 | 363 | mL | URINE | | | | 2001-02-25 | 2001-02-25 | 1 | Pre-dose | -1 | Day 1 Dose | 2001-02-25T08:00 | PT0M | |", "score": 0.4551, "match_basis": "verbatim_token+domain_route:PC"}, {"md_atom_id": "md_dmPC_ex_a039", "md_file": "knowledge_base/domains/PC/examples.md", "md_atom_type": "TABLE_ROW", "md_parent_section": "§PC.1 [Example 1]", "md_verbatim": "| 24 | ABC-123 | PC | 1235154 | 24 | DRUGA_DAY11 | 625154 | PH | PH | SPECIMEN PROPERTY | | | | | | URINE | | | | 2001-03-07 | 2001-03-18 | 11 | 24h post | 24 | Day 11 Dose | 2001-03-07T08:00 | PT24H | -PT12H |", "score": 0.4545, "match_basis": "verbatim_token+domain_route:PC"}, {"md_atom_id": "md_dmPC_ex_a034", "md_file": "knowledge_base/domains/PC/examples.md", "md_atom_type": "TABLE_ROW", "md_parent_section": "§PC.1 [Example 1]", "md_verbatim": "| 19 | ABC-123 | PC | 1235154 | 19 | DRUGA_DAY11 | 625154 | VOLUME | Volume | SPECIMEN PROPERTY | 606 | mL | 606 | 606 | mL | URINE | | | | 2001-03-07 | 2001-03-07 | 11 | 12h post | 12 | Day 11 Dose | 2001-03-07T08:00 | PT12H | -PT12H |", "score": 0.4535, "match_basis": "verbatim_token+domain_route:PC"}], "candidate_count": 5, "zero_candidate": false}
{"pdf_atom_id": "ig34_p0268_a015", "pdf_atom_type": "TABLE_ROW", "pdf_source": "SDTMIG_v3.4", "pdf_page": 268, "pdf_parent_section": "§6.3.5.9.1 Pharmacokinetics Concentrations (PC)", "pdf_verbatim": "PCSPCCND | Specimen Condition | Char | (SPECCOND) | Record Qualifier | Free or standardized text describing the condition of the specimen. Examples: \"HEMOLYZED\", \"ICTERIC\", \"LIPEMIC\". | Perm", "figure_ref": null, "candidates": [{"md_atom_id": "md_dmPC_ex_a021", "md_file": "knowledge_base/domains/PC/examples.md", "md_atom_type": "TABLE_ROW", "md_parent_section": "§PC.1 [Example 1]", "md_verbatim": "| 6 | ABC-123 | PC | 1235154 | 6 | DRUGA_DAY1 | 625154 | PH | PH | SPECIMEN PROPERTY | | | | | | URINE | | | | 2001-02-25 | 2001-02-25 | 1 | Pre-dose | -1 | Day 1 Dose | 2001-02-25T08:00 | PT0M | |", "score": 0.4375, "match_basis": "verbatim_token+domain_route:PC"}, {"md_atom_id": "md_dmPC_ex_a035", "md_file": "knowledge_base/domains/PC/examples.md", "md_atom_type": "TABLE_ROW", "md_parent_section": "§PC.1 [Example 1]", "md_verbatim": "| 20 | ABC-123 | PC | 1235154 | 20 | DRUGA_DAY11 | 625154 | PH | PH | SPECIMEN PROPERTY | 6.1 | | 6.1 | 6.1 | | URINE | | | | 2001-03-07 | 2001-03-07 | 11 | 12h post | 12 | Day 11 Dose | 2001-03-07T08:00 | PT12H | -PT12H |", "score": 0.4365, "match_basis": "verbatim_token+domain_route:PC"}, {"md_atom_id": "md_dmPC_ex_a020", "md_file": "knowledge_base/domains/PC/examples.md", "md_atom_type": "TABLE_ROW", "md_parent_section": "§PC.1 [Example 1]", "md_verbatim": "| 5 | ABC-123 | PC | 1235154 | 5 | DRUGA_DAY1 | 625154 | VOLUME | Volume | SPECIMEN PROPERTY | 363 | mL | 363 | 363 | mL | URINE | | | | 2001-02-25 | 2001-02-25 | 1 | Pre-dose | -1 | Day 1 Dose | 2001-02-25T08:00 | PT0M | |", "score": 0.4359, "match_basis": "verbatim_token+domain_route:PC"}, {"md_atom_id": "md_dmPC_ex_a039", "md_file": "knowledge_base/domains/PC/examples.md", "md_atom_type": "TABLE_ROW", "md_parent_section": "§PC.1 [Example 1]", "md_verbatim": "| 24 | ABC-123 | PC | 1235154 | 24 | DRUGA_DAY11 | 625154 | PH | PH | SPECIMEN PROPERTY | | | | | | URINE | | | | 2001-03-07 | 2001-03-18 | 11 | 24h post | 24 | Day 11 Dose | 2001-03-07T08:00 | PT24H | -PT12H |", "score": 0.4356, "match_basis": "verbatim_token+domain_route:PC"}, {"md_atom_id": "md_dmPC_ex_a034", "md_file": "knowledge_base/domains/PC/examples.md", "md_atom_type": "TABLE_ROW", "md_parent_section": "§PC.1 [Example 1]", "md_verbatim": "| 19 | ABC-123 | PC | 1235154 | 19 | DRUGA_DAY11 | 625154 | VOLUME | Volume | SPECIMEN PROPERTY | 606 | mL | 606 | 606 | mL | URINE | | | | 2001-03-07 | 2001-03-07 | 11 | 12h post | 12 | Day 11 Dose | 2001-03-07T08:00 | PT12H | -PT12H |", "score": 0.435, "match_basis": "verbatim_token+domain_route:PC"}], "candidate_count": 5, "zero_candidate": false}
{"pdf_atom_id": "ig34_p0268_a016", "pdf_atom_type": "TABLE_ROW", "pdf_source": "SDTMIG_v3.4", "pdf_page": 268, "pdf_parent_section": "§6.3.5.9.1 Pharmacokinetics Concentrations (PC)", "pdf_verbatim": "PCMETHOD | Method of Test or Examination | Char | (METHOD) | Record Qualifier | Method of the test or examination. Examples: \"HPLC/MS\", \"ELISA\". This should contain sufficient information and granularity to allow differentiation of various methods that might have been used within a study. | Perm", "figure_ref": null, "candidates": [{"md_atom_id": "md_dmPC_ex_a070", "md_file": "knowledge_base/domains/PC/examples.md", "md_atom_type": "TABLE_ROW", "md_parent_section": "§PC.2.3 [Shared PC Dataset for All Examples]", "md_verbatim": "| 2 | ABC-123 | PC | ABC-123-0001 | 2 | DY1_DRGX | DY1_DRGX | DY1_DRGX_A | DY1DRGX_A | STUDYDRUG | STUDYDRUG | ANALYTE | 5 | ng/mL | 5 | 5 | ng/mL | PLASMA | | 0.10 | | 1 | Day 1 | 1 | 2001-02-01 | | 1 | 5 min post | 0.083 | Day 1 Dose | 2001-02-01T08:35 | PT5M | |", "score": 0.4166, "match_basis": "verbatim_token+domain_route:PC"}, {"md_atom_id": "md_dmPC_ex_a071", "md_file": "knowledge_base/domains/PC/examples.md", "md_atom_type": "TABLE_ROW", "md_parent_section": "§PC.2.3 [Shared PC Dataset for All Examples]", "md_verbatim": "| 3 | ABC-123 | PC | ABC-123-0001 | 3 | DY1_DRGX | DY1_DRGX | DY1_DRGX_A | DY1DRGX_A | STUDYDRUG | STUDYDRUG | ANALYTE | 38 | ng/mL | 38 | 38 | ng/mL | PLASMA | | 0.10 | | 1 | Day 1 | 1 | 2001-02-01 | | 1 | 30 min post | 0.5 | Day 1 Dose | 2001-02-01T08:35 | PT30M | |", "score": 0.4166, "match_basis": "verbatim_token+domain_route:PC"}, {"md_atom_id": "md_dmPC_ex_a082", "md_file": "knowledge_base/domains/PC/examples.md", "md_atom_type": "TABLE_ROW", "md_parent_section": "§PC.2.3 [Shared PC Dataset for All Examples]", "md_verbatim": "| 14 | ABC-123 | PC | ABC-123-0001 | 14 | DY8_DRGX | DY8_DRGX | DY8_DRGX | DY8DRGX | STUDYDRUG | STUDYDRUG | ANALYTE | 6 | ng/mL | 6 | 6 | ng/mL | PLASMA | | 0.10 | | 8 | Day 8 | 8 | 2001-02-08 | | 8 | 5 min post | 0.083 | Day 8 Dose | 2001-02-08T08:35 | PT5M | |", "score": 0.4166, "match_basis": "verbatim_token+domain_route:PC"}, {"md_atom_id": "md_dmPC_ex_a083", "md_file": "knowledge_base/domains/PC/examples.md", "md_atom_type": "TABLE_ROW", "md_parent_section": "§PC.2.3 [Shared PC Dataset for All Examples]", "md_verbatim": "| 15 | ABC-123 | PC | ABC-123-0001 | 15 | DY8_DRGX | DY8_DRGX | DY8_DRGX | DY8DRGX | STUDYDRUG | STUDYDRUG | ANALYTE | 40 | ng/mL | 40 | 40 | ng/mL | PLASMA | | 0.10 | | 8 | Day 8 | 8 | 2001-02-08 | | 8 | 30 min post | 0.5 | Day 8 Dose | 2001-02-08T08:35 | PT30M | |", "score": 0.4166, "match_basis": "verbatim_token+domain_route:PC"}, {"md_atom_id": "md_dmPC_ex_a069", "md_file": "knowledge_base/domains/PC/examples.md", "md_atom_type": "TABLE_ROW", "md_parent_section": "§PC.2.3 [Shared PC Dataset for All Examples]", "md_verbatim": "| 1 | ABC-123 | PC | ABC-123-0001 | 1 | DY1_DRGX | DY1_DRGX | DY1_DRGX_A | DY1DRGX_A | STUDYDRUG | STUDYDRUG | ANALYTE | q | | | | | PLASMA | | 0.10 | | 1 | Day 1 | 1 | 2001-02-01 | | 1 | Pre-dose | -1 | Day 1 Dose | 2001-02-01T08:35 | PT0M | |", "score": 0.4126, "match_basis": "verbatim_token+domain_route:PC"}], "candidate_count": 5, "zero_candidate": false}
{"pdf_atom_id": "ig34_p0268_a017", "pdf_atom_type": "TABLE_ROW", "pdf_source": "SDTMIG_v3.4", "pdf_page": 268, "pdf_parent_section": "§6.3.5.9.1 Pharmacokinetics Concentrations (PC)", "pdf_verbatim": "PCFAST | Fasting Status | Char | (NY) | Record Qualifier | Indicator used to identify fasting status. | Perm", "figure_ref": null, "candidates": [{"md_atom_id": "md_dmPC_ex_a021", "md_file": "knowledge_base/domains/PC/examples.md", "md_atom_type": "TABLE_ROW", "md_parent_section": "§PC.1 [Example 1]", "md_verbatim": "| 6 | ABC-123 | PC | 1235154 | 6 | DRUGA_DAY1 | 625154 | PH | PH | SPECIMEN PROPERTY | | | | | | URINE | | | | 2001-02-25 | 2001-02-25 | 1 | Pre-dose | -1 | Day 1 Dose | 2001-02-25T08:00 | PT0M | |", "score": 0.4077, "match_basis": "verbatim_token+domain_route:PC"}, {"md_atom_id": "md_dmPC_ex_a035", "md_file": "knowledge_base/domains/PC/examples.md", "md_atom_type": "TABLE_ROW", "md_parent_section": "§PC.1 [Example 1]", "md_verbatim": "| 20 | ABC-123 | PC | 1235154 | 20 | DRUGA_DAY11 | 625154 | PH | PH | SPECIMEN PROPERTY | 6.1 | | 6.1 | 6.1 | | URINE | | | | 2001-03-07 | 2001-03-07 | 11 | 12h post | 12 | Day 11 Dose | 2001-03-07T08:00 | PT12H | -PT12H |", "score": 0.4074, "match_basis": "verbatim_token+domain_route:PC"}, {"md_atom_id": "md_dmPC_ex_a020", "md_file": "knowledge_base/domains/PC/examples.md", "md_atom_type": "TABLE_ROW", "md_parent_section": "§PC.1 [Example 1]", "md_verbatim": "| 5 | ABC-123 | PC | 1235154 | 5 | DRUGA_DAY1 | 625154 | VOLUME | Volume | SPECIMEN PROPERTY | 363 | mL | 363 | 363 | mL | URINE | | | | 2001-02-25 | 2001-02-25 | 1 | Pre-dose | -1 | Day 1 Dose | 2001-02-25T08:00 | PT0M | |", "score": 0.4072, "match_basis": "verbatim_token+domain_route:PC"}, {"md_atom_id": "md_dmPC_ex_a039", "md_file": "knowledge_base/domains/PC/examples.md", "md_atom_type": "TABLE_ROW", "md_parent_section": "§PC.1 [Example 1]", "md_verbatim": "| 24 | ABC-123 | PC | 1235154 | 24 | DRUGA_DAY11 | 625154 | PH | PH | SPECIMEN PROPERTY | | | | | | URINE | | | | 2001-03-07 | 2001-03-18 | 11 | 24h post | 24 | Day 11 Dose | 2001-03-07T08:00 | PT24H | -PT12H |", "score": 0.4071, "match_basis": "verbatim_token+domain_route:PC"}, {"md_atom_id": "md_dmPC_ex_a034", "md_file": "knowledge_base/domains/PC/examples.md", "md_atom_type": "TABLE_ROW", "md_parent_section": "§PC.1 [Example 1]", "md_verbatim": "| 19 | ABC-123 | PC | 1235154 | 19 | DRUGA_DAY11 | 625154 | VOLUME | Volume | SPECIMEN PROPERTY | 606 | mL | 606 | 606 | mL | URINE | | | | 2001-03-07 | 2001-03-07 | 11 | 12h post | 12 | Day 11 Dose | 2001-03-07T08:00 | PT12H | -PT12H |", "score": 0.407, "match_basis": "verbatim_token+domain_route:PC"}], "candidate_count": 5, "zero_candidate": false}
{"pdf_atom_id": "ig34_p0268_a018", "pdf_atom_type": "TABLE_ROW", "pdf_source": "SDTMIG_v3.4", "pdf_page": 268, "pdf_parent_section": "§6.3.5.9.1 Pharmacokinetics Concentrations (PC)", "pdf_verbatim": "PCDRVFL | Derived Flag | Char | (NY) | Record Qualifier | Used to indicate a derived record. The value should be \"Y\" or null. Records that represent the average of other records, which do not come from the CRF, are examples of records that would be derived for the submission datasets. If PCDRVFL = \"Y\", then PCORRES may be null with PCSTRESC, and PCSTRESN (if the result is numeric) having the derived value. | Perm", "figure_ref": null, "candidates": [{"md_atom_id": "md_dmPC_ex_a373", "md_file": "knowledge_base/domains/PC/examples.md", "md_atom_type": "TABLE_ROW", "md_parent_section": "§PC.2.7 [Example 4 (Complex exclusions)]", "md_verbatim": "| 13 | ABC-123 | PP | ABC-123-0001 | PPGRPID | OTHER | | 4 |", "score": 0.4141, "match_basis": "verbatim_token+domain_route:PC"}, {"md_atom_id": "md_dmPC_ex_a020", "md_file": "knowledge_base/domains/PC/examples.md", "md_atom_type": "TABLE_ROW", "md_parent_section": "§PC.1 [Example 1]", "md_verbatim": "| 5 | ABC-123 | PC | 1235154 | 5 | DRUGA_DAY1 | 625154 | VOLUME | Volume | SPECIMEN PROPERTY | 363 | mL | 363 | 363 | mL | URINE | | | | 2001-02-25 | 2001-02-25 | 1 | Pre-dose | -1 | Day 1 Dose | 2001-02-25T08:00 | PT0M | |", "score": 0.4113, "match_basis": "verbatim_token+domain_route:PC"}, {"md_atom_id": "md_dmPC_ex_a068", "md_file": "knowledge_base/domains/PC/examples.md", "md_atom_type": "TABLE_HEADER", "md_parent_section": "§PC.2.3 [Shared PC Dataset for All Examples]", "md_verbatim": "| Row | STUDYID | DOMAIN | USUBJID | PCSEQ | PCGRPID (Example 1) | PCGRPID (Example 2) | PCGRPID (Example 3) | PCGRPID (Example 4) | PCTESTCD | PCTEST | PCCAT | PCORRES | PCORRESU | PCSTRESC | PCSTRESN | PCSTRESU | PCSPEC | PCBLFL | PCLLOQ | PCSTAT | VISITNUM | VISIT | VISITDY | PCDTC | PCENDTC | PCDY | PCTPT | PCTPTNUM | PCTPTREF | PCRFDTC | PCELTM | PCEVLINT |\n|-----|---------|--------|---------|-------|---------------------|---------------------|---------------------|---------------------|----------|--------|-------|---------|----------|----------|----------|----------|--------|--------|--------|--------|----------|-------|---------|-------|---------|------|-------|----------|----------|---------|--------|---------|", "score": 0.4091, "match_basis": "verbatim_token+domain_route:PC"}, {"md_atom_id": "md_dmPC_ex_a021", "md_file": "knowledge_base/domains/PC/examples.md", "md_atom_type": "TABLE_ROW", "md_parent_section": "§PC.1 [Example 1]", "md_verbatim": "| 6 | ABC-123 | PC | 1235154 | 6 | DRUGA_DAY1 | 625154 | PH | PH | SPECIMEN PROPERTY | | | | | | URINE | | | | 2001-02-25 | 2001-02-25 | 1 | Pre-dose | -1 | Day 1 Dose | 2001-02-25T08:00 | PT0M | |", "score": 0.4077, "match_basis": "verbatim_token+domain_route:PC"}, {"md_atom_id": "md_dmPC_ex_a034", "md_file": "knowledge_base/domains/PC/examples.md", "md_atom_type": "TABLE_ROW", "md_parent_section": "§PC.1 [Example 1]", "md_verbatim": "| 19 | ABC-123 | PC | 1235154 | 19 | DRUGA_DAY11 | 625154 | VOLUME | Volume | SPECIMEN PROPERTY | 606 | mL | 606 | 606 | mL | URINE | | | | 2001-03-07 | 2001-03-07 | 11 | 12h post | 12 | Day 11 Dose | 2001-03-07T08:00 | PT12H | -PT12H |", "score": 0.4074, "match_basis": "verbatim_token+domain_route:PC"}], "candidate_count": 5, "zero_candidate": false}
{"pdf_atom_id": "ig34_p0268_a019", "pdf_atom_type": "TABLE_ROW", "pdf_source": "SDTMIG_v3.4", "pdf_page": 268, "pdf_parent_section": "§6.3.5.9.1 Pharmacokinetics Concentrations (PC)", "pdf_verbatim": "PCLLOQ | Lower Limit of Quantitation | Num | | Variable Qualifier | Indicates the lower limit of quantitation for an assay. Units should be those used in PCSTRESU. | Exp", "figure_ref": null, "candidates": [{"md_atom_id": "md_dmPC_ex_a110", "md_file": "knowledge_base/domains/PC/examples.md", "md_atom_type": "TABLE_ROW", "md_parent_section": "§PC.2.4 [Example 1 (All PC records used)]", "md_verbatim": "| 1 | ABC-123 | PC | ABC-123-0001 | PCSEQ | 1 | | 1 |", "score": 0.4086, "match_basis": "verbatim_token+domain_route:PC"}, {"md_atom_id": "md_dmPC_ex_a111", "md_file": "knowledge_base/domains/PC/examples.md", "md_atom_type": "TABLE_ROW", "md_parent_section": "§PC.2.4 [Example 1 (All PC records used)]", "md_verbatim": "| 2 | ABC-123 | PC | ABC-123-0001 | PCSEQ | 2 | | 1 |", "score": 0.4086, "match_basis": "verbatim_token+domain_route:PC"}, {"md_atom_id": "md_dmPC_ex_a112", "md_file": "knowledge_base/domains/PC/examples.md", "md_atom_type": "TABLE_ROW", "md_parent_section": "§PC.2.4 [Example 1 (All PC records used)]", "md_verbatim": "| 3 | ABC-123 | PC | ABC-123-0001 | PCSEQ | 3 | | 1 |", "score": 0.4086, "match_basis": "verbatim_token+domain_route:PC"}, {"md_atom_id": "md_dmPC_ex_a113", "md_file": "knowledge_base/domains/PC/examples.md", "md_atom_type": "TABLE_ROW", "md_parent_section": "§PC.2.4 [Example 1 (All PC records used)]", "md_verbatim": "| 4 | ABC-123 | PC | ABC-123-0001 | PCSEQ | 4 | | 1 |", "score": 0.4086, "match_basis": "verbatim_token+domain_route:PC"}, {"md_atom_id": "md_dmPC_ex_a114", "md_file": "knowledge_base/domains/PC/examples.md", "md_atom_type": "TABLE_ROW", "md_parent_section": "§PC.2.4 [Example 1 (All PC records used)]", "md_verbatim": "| 5 | ABC-123 | PC | ABC-123-0001 | PCSEQ | 5 | | 1 |", "score": 0.4086, "match_basis": "verbatim_token+domain_route:PC"}], "candidate_count": 5, "zero_candidate": false}
{"pdf_atom_id": "ig34_p0269_a001", "pdf_atom_type": "TABLE_ROW", "pdf_source": "SDTMIG_v3.4", "pdf_page": 269, "pdf_parent_section": "§6.3.5.9.1 Pharmacokinetics Concentrations (PC)", "pdf_verbatim": "PCULOQ | Upper Limit of Quantitation | Num | | Variable Qualifier | Indicates the upper limit of quantitation for an assay. Units should be those used in PCSTRESU. | Perm", "figure_ref": null, "candidates": [{"md_atom_id": "md_dmPC_ex_a021", "md_file": "knowledge_base/domains/PC/examples.md", "md_atom_type": "TABLE_ROW", "md_parent_section": "§PC.1 [Example 1]", "md_verbatim": "| 6 | ABC-123 | PC | 1235154 | 6 | DRUGA_DAY1 | 625154 | PH | PH | SPECIMEN PROPERTY | | | | | | URINE | | | | 2001-02-25 | 2001-02-25 | 1 | Pre-dose | -1 | Day 1 Dose | 2001-02-25T08:00 | PT0M | |", "score": 0.412, "match_basis": "verbatim_token+domain_route:PC"}, {"md_atom_id": "md_dmPC_ex_a035", "md_file": "knowledge_base/domains/PC/examples.md", "md_atom_type": "TABLE_ROW", "md_parent_section": "§PC.1 [Example 1]", "md_verbatim": "| 20 | ABC-123 | PC | 1235154 | 20 | DRUGA_DAY11 | 625154 | PH | PH | SPECIMEN PROPERTY | 6.1 | | 6.1 | 6.1 | | URINE | | | | 2001-03-07 | 2001-03-07 | 11 | 12h post | 12 | Day 11 Dose | 2001-03-07T08:00 | PT12H | -PT12H |", "score": 0.4117, "match_basis": "verbatim_token+domain_route:PC"}, {"md_atom_id": "md_dmPC_ex_a020", "md_file": "knowledge_base/domains/PC/examples.md", "md_atom_type": "TABLE_ROW", "md_parent_section": "§PC.1 [Example 1]", "md_verbatim": "| 5 | ABC-123 | PC | 1235154 | 5 | DRUGA_DAY1 | 625154 | VOLUME | Volume | SPECIMEN PROPERTY | 363 | mL | 363 | 363 | mL | URINE | | | | 2001-02-25 | 2001-02-25 | 1 | Pre-dose | -1 | Day 1 Dose | 2001-02-25T08:00 | PT0M | |", "score": 0.4114, "match_basis": "verbatim_token+domain_route:PC"}, {"md_atom_id": "md_dmPC_ex_a039", "md_file": "knowledge_base/domains/PC/examples.md", "md_atom_type": "TABLE_ROW", "md_parent_section": "§PC.1 [Example 1]", "md_verbatim": "| 24 | ABC-123 | PC | 1235154 | 24 | DRUGA_DAY11 | 625154 | PH | PH | SPECIMEN PROPERTY | | | | | | URINE | | | | 2001-03-07 | 2001-03-18 | 11 | 24h post | 24 | Day 11 Dose | 2001-03-07T08:00 | PT24H | -PT12H |", "score": 0.4113, "match_basis": "verbatim_token+domain_route:PC"}, {"md_atom_id": "md_dmPC_ex_a034", "md_file": "knowledge_base/domains/PC/examples.md", "md_atom_type": "TABLE_ROW", "md_parent_section": "§PC.1 [Example 1]", "md_verbatim": "| 19 | ABC-123 | PC | 1235154 | 19 | DRUGA_DAY11 | 625154 | VOLUME | Volume | SPECIMEN PROPERTY | 606 | mL | 606 | 606 | mL | URINE | | | | 2001-03-07 | 2001-03-07 | 11 | 12h post | 12 | Day 11 Dose | 2001-03-07T08:00 | PT12H | -PT12H |", "score": 0.4111, "match_basis": "verbatim_token+domain_route:PC"}], "candidate_count": 5, "zero_candidate": false}
{"pdf_atom_id": "ig34_p0269_a002", "pdf_atom_type": "TABLE_ROW", "pdf_source": "SDTMIG_v3.4", "pdf_page": 269, "pdf_parent_section": "§6.3.5.9.1 Pharmacokinetics Concentrations (PC)", "pdf_verbatim": "VISITNUM | Visit Number | Num | | Timing | Clinical encounter number. Numeric version of VISIT, used for sorting. | Exp", "figure_ref": null, "candidates": [{"md_atom_id": "md_dmPC_ex_a022", "md_file": "knowledge_base/domains/PC/examples.md", "md_atom_type": "TABLE_ROW", "md_parent_section": "§PC.1 [Example 1]", "md_verbatim": "| 7 | ABC-123 | PC | 1235154 | 7 | DRUGA_DAY1 | 625154 | DRUGX | Drug A | ANALYTE | 0.74 | ng/mL | 0.74 | 0.74 | ng/mL | PLASMA | | 0.10 | | 2001-02-25 | | 1 | 5 min post | 0.083 | Day 1 Dose | 2001-02-25T08:00 | PT5M | |", "score": 0.4077, "match_basis": "verbatim_token+domain_route:PC"}, {"md_atom_id": "md_dmPC_ex_a026", "md_file": "knowledge_base/domains/PC/examples.md", "md_atom_type": "TABLE_ROW", "md_parent_section": "§PC.1 [Example 1]", "md_verbatim": "| 11 | ABC-123 | PC | 1235154 | 11 | DRUGA_DAY1 | 625154 | DRUGX | Drug A | ANALYTE | 5.19 | ng/mL | 5.19 | 5.19 | ng/mL | PLASMA | | 0.10 | | 2001-02-25 | | 1 | 75 min post | 1.25 | Day 1 Dose | 2001-02-25T08:00 | PT75M | |", "score": 0.4077, "match_basis": "verbatim_token+domain_route:PC"}, {"md_atom_id": "md_dmPC_ex_a024", "md_file": "knowledge_base/domains/PC/examples.md", "md_atom_type": "TABLE_ROW", "md_parent_section": "§PC.1 [Example 1]", "md_verbatim": "| 9 | ABC-123 | PC | 1235154 | 9 | DRUGA_DAY1 | 625154 | DRUGX | Drug A | ANALYTE | 6.92 | ng/mL | 6.92 | 6.92 | ng/mL | PLASMA | | 0.10 | | 2001-02-25 | | 1 | 25 min post | 0.417 | Day 1 Dose | 2001-02-25T08:00 | PT25M | |", "score": 0.4076, "match_basis": "verbatim_token+domain_route:PC"}, {"md_atom_id": "md_dmPC_ex_a046", "md_file": "knowledge_base/domains/PC/examples.md", "md_atom_type": "TABLE_ROW", "md_parent_section": "§PC.1 [Example 1]", "md_verbatim": "| 31 | ABC-123 | PC | 1235154 | 31 | DRUGA_DAY11 | 625154 | DRUGX | Drug A | ANALYTE | 6.28 | ng/mL | 6.28 | 6.28 | ng/mL | PLASMA | | 0.10 | | 2001-03-07 | | 11 | 5 min post | 0.083 | Day 11 Dose | 2001-03-07T08:00 | PT5M | |", "score": 0.4076, "match_basis": "verbatim_token+domain_route:PC"}, {"md_atom_id": "md_dmPC_ex_a070", "md_file": "knowledge_base/domains/PC/examples.md", "md_atom_type": "TABLE_ROW", "md_parent_section": "§PC.2.3 [Shared PC Dataset for All Examples]", "md_verbatim": "| 2 | ABC-123 | PC | ABC-123-0001 | 2 | DY1_DRGX | DY1_DRGX | DY1_DRGX_A | DY1DRGX_A | STUDYDRUG | STUDYDRUG | ANALYTE | 5 | ng/mL | 5 | 5 | ng/mL | PLASMA | | 0.10 | | 1 | Day 1 | 1 | 2001-02-01 | | 1 | 5 min post | 0.083 | Day 1 Dose | 2001-02-01T08:35 | PT5M | |", "score": 0.4075, "match_basis": "verbatim_token+domain_route:PC"}], "candidate_count": 5, "zero_candidate": false}
{"pdf_atom_id": "ig34_p0269_a003", "pdf_atom_type": "TABLE_ROW", "pdf_source": "SDTMIG_v3.4", "pdf_page": 269, "pdf_parent_section": "§6.3.5.9.1 Pharmacokinetics Concentrations (PC)", "pdf_verbatim": "VISIT | Visit Name | Char | | Timing | Protocol-defined description of clinical encounter. May be used in addition to VISITNUM and/or VISITDY. | Perm", "figure_ref": null, "candidates": [{"md_atom_id": "md_dmPC_ex_a021", "md_file": "knowledge_base/domains/PC/examples.md", "md_atom_type": "TABLE_ROW", "md_parent_section": "§PC.1 [Example 1]", "md_verbatim": "| 6 | ABC-123 | PC | 1235154 | 6 | DRUGA_DAY1 | 625154 | PH | PH | SPECIMEN PROPERTY | | | | | | URINE | | | | 2001-02-25 | 2001-02-25 | 1 | Pre-dose | -1 | Day 1 Dose | 2001-02-25T08:00 | PT0M | |", "score": 0.4191, "match_basis": "verbatim_token+domain_route:PC"}, {"md_atom_id": "md_dmPC_ex_a035", "md_file": "knowledge_base/domains/PC/examples.md", "md_atom_type": "TABLE_ROW", "md_parent_section": "§PC.1 [Example 1]", "md_verbatim": "| 20 | ABC-123 | PC | 1235154 | 20 | DRUGA_DAY11 | 625154 | PH | PH | SPECIMEN PROPERTY | 6.1 | | 6.1 | 6.1 | | URINE | | | | 2001-03-07 | 2001-03-07 | 11 | 12h post | 12 | Day 11 Dose | 2001-03-07T08:00 | PT12H | -PT12H |", "score": 0.4186, "match_basis": "verbatim_token+domain_route:PC"}, {"md_atom_id": "md_dmPC_ex_a020", "md_file": "knowledge_base/domains/PC/examples.md", "md_atom_type": "TABLE_ROW", "md_parent_section": "§PC.1 [Example 1]", "md_verbatim": "| 5 | ABC-123 | PC | 1235154 | 5 | DRUGA_DAY1 | 625154 | VOLUME | Volume | SPECIMEN PROPERTY | 363 | mL | 363 | 363 | mL | URINE | | | | 2001-02-25 | 2001-02-25 | 1 | Pre-dose | -1 | Day 1 Dose | 2001-02-25T08:00 | PT0M | |", "score": 0.4182, "match_basis": "verbatim_token+domain_route:PC"}, {"md_atom_id": "md_dmPC_ex_a039", "md_file": "knowledge_base/domains/PC/examples.md", "md_atom_type": "TABLE_ROW", "md_parent_section": "§PC.1 [Example 1]", "md_verbatim": "| 24 | ABC-123 | PC | 1235154 | 24 | DRUGA_DAY11 | 625154 | PH | PH | SPECIMEN PROPERTY | | | | | | URINE | | | | 2001-03-07 | 2001-03-18 | 11 | 24h post | 24 | Day 11 Dose | 2001-03-07T08:00 | PT24H | -PT12H |", "score": 0.418, "match_basis": "verbatim_token+domain_route:PC"}, {"md_atom_id": "md_dmPC_ex_a034", "md_file": "knowledge_base/domains/PC/examples.md", "md_atom_type": "TABLE_ROW", "md_parent_section": "§PC.1 [Example 1]", "md_verbatim": "| 19 | ABC-123 | PC | 1235154 | 19 | DRUGA_DAY11 | 625154 | VOLUME | Volume | SPECIMEN PROPERTY | 606 | mL | 606 | 606 | mL | URINE | | | | 2001-03-07 | 2001-03-07 | 11 | 12h post | 12 | Day 11 Dose | 2001-03-07T08:00 | PT12H | -PT12H |", "score": 0.4176, "match_basis": "verbatim_token+domain_route:PC"}], "candidate_count": 5, "zero_candidate": false}
{"pdf_atom_id": "ig34_p0269_a004", "pdf_atom_type": "TABLE_ROW", "pdf_source": "SDTMIG_v3.4", "pdf_page": 269, "pdf_parent_section": "§6.3.5.9.1 Pharmacokinetics Concentrations (PC)", "pdf_verbatim": "VISITDY | Planned Study Day of Visit | Num | | Timing | Planned study day of the visit based upon RFSTDTC in Demographics. | Perm", "figure_ref": null, "candidates": [{"md_atom_id": "md_dmPC_ex_a070", "md_file": "knowledge_base/domains/PC/examples.md", "md_atom_type": "TABLE_ROW", "md_parent_section": "§PC.2.3 [Shared PC Dataset for All Examples]", "md_verbatim": "| 2 | ABC-123 | PC | ABC-123-0001 | 2 | DY1_DRGX | DY1_DRGX | DY1_DRGX_A | DY1DRGX_A | STUDYDRUG | STUDYDRUG | ANALYTE | 5 | ng/mL | 5 | 5 | ng/mL | PLASMA | | 0.10 | | 1 | Day 1 | 1 | 2001-02-01 | | 1 | 5 min post | 0.083 | Day 1 Dose | 2001-02-01T08:35 | PT5M | |", "score": 0.4486, "match_basis": "verbatim_token+domain_route:PC"}, {"md_atom_id": "md_dmPC_ex_a071", "md_file": "knowledge_base/domains/PC/examples.md", "md_atom_type": "TABLE_ROW", "md_parent_section": "§PC.2.3 [Shared PC Dataset for All Examples]", "md_verbatim": "| 3 | ABC-123 | PC | ABC-123-0001 | 3 | DY1_DRGX | DY1_DRGX | DY1_DRGX_A | DY1DRGX_A | STUDYDRUG | STUDYDRUG | ANALYTE | 38 | ng/mL | 38 | 38 | ng/mL | PLASMA | | 0.10 | | 1 | Day 1 | 1 | 2001-02-01 | | 1 | 30 min post | 0.5 | Day 1 Dose | 2001-02-01T08:35 | PT30M | |", "score": 0.4486, "match_basis": "verbatim_token+domain_route:PC"}, {"md_atom_id": "md_dmPC_ex_a082", "md_file": "knowledge_base/domains/PC/examples.md", "md_atom_type": "TABLE_ROW", "md_parent_section": "§PC.2.3 [Shared PC Dataset for All Examples]", "md_verbatim": "| 14 | ABC-123 | PC | ABC-123-0001 | 14 | DY8_DRGX | DY8_DRGX | DY8_DRGX | DY8DRGX | STUDYDRUG | STUDYDRUG | ANALYTE | 6 | ng/mL | 6 | 6 | ng/mL | PLASMA | | 0.10 | | 8 | Day 8 | 8 | 2001-02-08 | | 8 | 5 min post | 0.083 | Day 8 Dose | 2001-02-08T08:35 | PT5M | |", "score": 0.4486, "match_basis": "verbatim_token+domain_route:PC"}, {"md_atom_id": "md_dmPC_ex_a083", "md_file": "knowledge_base/domains/PC/examples.md", "md_atom_type": "TABLE_ROW", "md_parent_section": "§PC.2.3 [Shared PC Dataset for All Examples]", "md_verbatim": "| 15 | ABC-123 | PC | ABC-123-0001 | 15 | DY8_DRGX | DY8_DRGX | DY8_DRGX | DY8DRGX | STUDYDRUG | STUDYDRUG | ANALYTE | 40 | ng/mL | 40 | 40 | ng/mL | PLASMA | | 0.10 | | 8 | Day 8 | 8 | 2001-02-08 | | 8 | 30 min post | 0.5 | Day 8 Dose | 2001-02-08T08:35 | PT30M | |", "score": 0.4486, "match_basis": "verbatim_token+domain_route:PC"}, {"md_atom_id": "md_dmPC_ex_a069", "md_file": "knowledge_base/domains/PC/examples.md", "md_atom_type": "TABLE_ROW", "md_parent_section": "§PC.2.3 [Shared PC Dataset for All Examples]", "md_verbatim": "| 1 | ABC-123 | PC | ABC-123-0001 | 1 | DY1_DRGX | DY1_DRGX | DY1_DRGX_A | DY1DRGX_A | STUDYDRUG | STUDYDRUG | ANALYTE | q | | | | | PLASMA | | 0.10 | | 1 | Day 1 | 1 | 2001-02-01 | | 1 | Pre-dose | -1 | Day 1 Dose | 2001-02-01T08:35 | PT0M | |", "score": 0.4417, "match_basis": "verbatim_token+domain_route:PC"}], "candidate_count": 5, "zero_candidate": false}
{"pdf_atom_id": "ig34_p0269_a005", "pdf_atom_type": "TABLE_ROW", "pdf_source": "SDTMIG_v3.4", "pdf_page": 269, "pdf_parent_section": "§6.3.5.9.1 Pharmacokinetics Concentrations (PC)", "pdf_verbatim": "TAETORD | Planned Order of Element within Arm | Num | | Timing | Number that gives the planned order of the element within the arm. | Perm", "figure_ref": null, "candidates": [{"md_atom_id": "md_dmPC_ex_a022", "md_file": "knowledge_base/domains/PC/examples.md", "md_atom_type": "TABLE_ROW", "md_parent_section": "§PC.1 [Example 1]", "md_verbatim": "| 7 | ABC-123 | PC | 1235154 | 7 | DRUGA_DAY1 | 625154 | DRUGX | Drug A | ANALYTE | 0.74 | ng/mL | 0.74 | 0.74 | ng/mL | PLASMA | | 0.10 | | 2001-02-25 | | 1 | 5 min post | 0.083 | Day 1 Dose | 2001-02-25T08:00 | PT5M | |", "score": 0.4167, "match_basis": "verbatim_token+domain_route:PC"}, {"md_atom_id": "md_dmPC_ex_a026", "md_file": "knowledge_base/domains/PC/examples.md", "md_atom_type": "TABLE_ROW", "md_parent_section": "§PC.1 [Example 1]", "md_verbatim": "| 11 | ABC-123 | PC | 1235154 | 11 | DRUGA_DAY1 | 625154 | DRUGX | Drug A | ANALYTE | 5.19 | ng/mL | 5.19 | 5.19 | ng/mL | PLASMA | | 0.10 | | 2001-02-25 | | 1 | 75 min post | 1.25 | Day 1 Dose | 2001-02-25T08:00 | PT75M | |", "score": 0.4167, "match_basis": "verbatim_token+domain_route:PC"}, {"md_atom_id": "md_dmPC_ex_a024", "md_file": "knowledge_base/domains/PC/examples.md", "md_atom_type": "TABLE_ROW", "md_parent_section": "§PC.1 [Example 1]", "md_verbatim": "| 9 | ABC-123 | PC | 1235154 | 9 | DRUGA_DAY1 | 625154 | DRUGX | Drug A | ANALYTE | 6.92 | ng/mL | 6.92 | 6.92 | ng/mL | PLASMA | | 0.10 | | 2001-02-25 | | 1 | 25 min post | 0.417 | Day 1 Dose | 2001-02-25T08:00 | PT25M | |", "score": 0.4164, "match_basis": "verbatim_token+domain_route:PC"}, {"md_atom_id": "md_dmPC_ex_a046", "md_file": "knowledge_base/domains/PC/examples.md", "md_atom_type": "TABLE_ROW", "md_parent_section": "§PC.1 [Example 1]", "md_verbatim": "| 31 | ABC-123 | PC | 1235154 | 31 | DRUGA_DAY11 | 625154 | DRUGX | Drug A | ANALYTE | 6.28 | ng/mL | 6.28 | 6.28 | ng/mL | PLASMA | | 0.10 | | 2001-03-07 | | 11 | 5 min post | 0.083 | Day 11 Dose | 2001-03-07T08:00 | PT5M | |", "score": 0.4164, "match_basis": "verbatim_token+domain_route:PC"}, {"md_atom_id": "md_dmPC_ex_a021", "md_file": "knowledge_base/domains/PC/examples.md", "md_atom_type": "TABLE_ROW", "md_parent_section": "§PC.1 [Example 1]", "md_verbatim": "| 6 | ABC-123 | PC | 1235154 | 6 | DRUGA_DAY1 | 625154 | PH | PH | SPECIMEN PROPERTY | | | | | | URINE | | | | 2001-02-25 | 2001-02-25 | 1 | Pre-dose | -1 | Day 1 Dose | 2001-02-25T08:00 | PT0M | |", "score": 0.4162, "match_basis": "verbatim_token+domain_route:PC"}], "candidate_count": 5, "zero_candidate": false}
{"pdf_atom_id": "ig34_p0269_a006", "pdf_atom_type": "TABLE_ROW", "pdf_source": "SDTMIG_v3.4", "pdf_page": 269, "pdf_parent_section": "§6.3.5.9.1 Pharmacokinetics Concentrations (PC)", "pdf_verbatim": "EPOCH | Epoch | Char | (EPOCH) | Timing | Epoch associated with the start date/time of the observation, or the date/time of collection if start date/time is not collected. | Perm", "figure_ref": null, "candidates": [{"md_atom_id": "md_dmPC_ex_a021", "md_file": "knowledge_base/domains/PC/examples.md", "md_atom_type": "TABLE_ROW", "md_parent_section": "§PC.1 [Example 1]", "md_verbatim": "| 6 | ABC-123 | PC | 1235154 | 6 | DRUGA_DAY1 | 625154 | PH | PH | SPECIMEN PROPERTY | | | | | | URINE | | | | 2001-02-25 | 2001-02-25 | 1 | Pre-dose | -1 | Day 1 Dose | 2001-02-25T08:00 | PT0M | |", "score": 0.415, "match_basis": "verbatim_token+domain_route:PC"}, {"md_atom_id": "md_dmPC_ex_a035", "md_file": "knowledge_base/domains/PC/examples.md", "md_atom_type": "TABLE_ROW", "md_parent_section": "§PC.1 [Example 1]", "md_verbatim": "| 20 | ABC-123 | PC | 1235154 | 20 | DRUGA_DAY11 | 625154 | PH | PH | SPECIMEN PROPERTY | 6.1 | | 6.1 | 6.1 | | URINE | | | | 2001-03-07 | 2001-03-07 | 11 | 12h post | 12 | Day 11 Dose | 2001-03-07T08:00 | PT12H | -PT12H |", "score": 0.4145, "match_basis": "verbatim_token+domain_route:PC"}, {"md_atom_id": "md_dmPC_ex_a020", "md_file": "knowledge_base/domains/PC/examples.md", "md_atom_type": "TABLE_ROW", "md_parent_section": "§PC.1 [Example 1]", "md_verbatim": "| 5 | ABC-123 | PC | 1235154 | 5 | DRUGA_DAY1 | 625154 | VOLUME | Volume | SPECIMEN PROPERTY | 363 | mL | 363 | 363 | mL | URINE | | | | 2001-02-25 | 2001-02-25 | 1 | Pre-dose | -1 | Day 1 Dose | 2001-02-25T08:00 | PT0M | |", "score": 0.4141, "match_basis": "verbatim_token+domain_route:PC"}, {"md_atom_id": "md_dmPC_ex_a039", "md_file": "knowledge_base/domains/PC/examples.md", "md_atom_type": "TABLE_ROW", "md_parent_section": "§PC.1 [Example 1]", "md_verbatim": "| 24 | ABC-123 | PC | 1235154 | 24 | DRUGA_DAY11 | 625154 | PH | PH | SPECIMEN PROPERTY | | | | | | URINE | | | | 2001-03-07 | 2001-03-18 | 11 | 24h post | 24 | Day 11 Dose | 2001-03-07T08:00 | PT24H | -PT12H |", "score": 0.414, "match_basis": "verbatim_token+domain_route:PC"}, {"md_atom_id": "md_dmPC_ex_a034", "md_file": "knowledge_base/domains/PC/examples.md", "md_atom_type": "TABLE_ROW", "md_parent_section": "§PC.1 [Example 1]", "md_verbatim": "| 19 | ABC-123 | PC | 1235154 | 19 | DRUGA_DAY11 | 625154 | VOLUME | Volume | SPECIMEN PROPERTY | 606 | mL | 606 | 606 | mL | URINE | | | | 2001-03-07 | 2001-03-07 | 11 | 12h post | 12 | Day 11 Dose | 2001-03-07T08:00 | PT12H | -PT12H |", "score": 0.4136, "match_basis": "verbatim_token+domain_route:PC"}], "candidate_count": 5, "zero_candidate": false}
{"pdf_atom_id": "ig34_p0269_a007", "pdf_atom_type": "TABLE_ROW", "pdf_source": "SDTMIG_v3.4", "pdf_page": 269, "pdf_parent_section": "§6.3.5.9.1 Pharmacokinetics Concentrations (PC)", "pdf_verbatim": "PCDTC | Date/Time of Specimen Collection | Char | ISO 8601 datetime or interval | Timing | Date/time of specimen collection represented in ISO 8601 character format. If there is no end time, then this will be the collection time. | Exp", "figure_ref": null, "candidates": [{"md_atom_id": "md_dmPC_ex_a021", "md_file": "knowledge_base/domains/PC/examples.md", "md_atom_type": "TABLE_ROW", "md_parent_section": "§PC.1 [Example 1]", "md_verbatim": "| 6 | ABC-123 | PC | 1235154 | 6 | DRUGA_DAY1 | 625154 | PH | PH | SPECIMEN PROPERTY | | | | | | URINE | | | | 2001-02-25 | 2001-02-25 | 1 | Pre-dose | -1 | Day 1 Dose | 2001-02-25T08:00 | PT0M | |", "score": 0.4452, "match_basis": "verbatim_token+domain_route:PC"}, {"md_atom_id": "md_dmPC_ex_a020", "md_file": "knowledge_base/domains/PC/examples.md", "md_atom_type": "TABLE_ROW", "md_parent_section": "§PC.1 [Example 1]", "md_verbatim": "| 5 | ABC-123 | PC | 1235154 | 5 | DRUGA_DAY1 | 625154 | VOLUME | Volume | SPECIMEN PROPERTY | 363 | mL | 363 | 363 | mL | URINE | | | | 2001-02-25 | 2001-02-25 | 1 | Pre-dose | -1 | Day 1 Dose | 2001-02-25T08:00 | PT0M | |", "score": 0.4429, "match_basis": "verbatim_token+domain_route:PC"}, {"md_atom_id": "md_dmPC_ex_a035", "md_file": "knowledge_base/domains/PC/examples.md", "md_atom_type": "TABLE_ROW", "md_parent_section": "§PC.1 [Example 1]", "md_verbatim": "| 20 | ABC-123 | PC | 1235154 | 20 | DRUGA_DAY11 | 625154 | PH | PH | SPECIMEN PROPERTY | 6.1 | | 6.1 | 6.1 | | URINE | | | | 2001-03-07 | 2001-03-07 | 11 | 12h post | 12 | Day 11 Dose | 2001-03-07T08:00 | PT12H | -PT12H |", "score": 0.4371, "match_basis": "verbatim_token+domain_route:PC"}, {"md_atom_id": "md_dmPC_ex_a039", "md_file": "knowledge_base/domains/PC/examples.md", "md_atom_type": "TABLE_ROW", "md_parent_section": "§PC.1 [Example 1]", "md_verbatim": "| 24 | ABC-123 | PC | 1235154 | 24 | DRUGA_DAY11 | 625154 | PH | PH | SPECIMEN PROPERTY | | | | | | URINE | | | | 2001-03-07 | 2001-03-18 | 11 | 24h post | 24 | Day 11 Dose | 2001-03-07T08:00 | PT24H | -PT12H |", "score": 0.436, "match_basis": "verbatim_token+domain_route:PC"}, {"md_atom_id": "md_dmPC_ex_a034", "md_file": "knowledge_base/domains/PC/examples.md", "md_atom_type": "TABLE_ROW", "md_parent_section": "§PC.1 [Example 1]", "md_verbatim": "| 19 | ABC-123 | PC | 1235154 | 19 | DRUGA_DAY11 | 625154 | VOLUME | Volume | SPECIMEN PROPERTY | 606 | mL | 606 | 606 | mL | URINE | | | | 2001-03-07 | 2001-03-07 | 11 | 12h post | 12 | Day 11 Dose | 2001-03-07T08:00 | PT12H | -PT12H |", "score": 0.4353, "match_basis": "verbatim_token+domain_route:PC"}], "candidate_count": 5, "zero_candidate": false}
{"pdf_atom_id": "ig34_p0269_a008", "pdf_atom_type": "TABLE_ROW", "pdf_source": "SDTMIG_v3.4", "pdf_page": 269, "pdf_parent_section": "§6.3.5.9.1 Pharmacokinetics Concentrations (PC)", "pdf_verbatim": "PCENDTC | End Date/Time of Specimen Collection | Char | ISO 8601 datetime or interval | Timing | End date/time of specimen collection represented in ISO 8601 character format. If there is no end time, the collection time should be stored in PCDTC, and PCENDTC should be null. | Perm", "figure_ref": null, "candidates": [{"md_atom_id": "md_dmPC_ex_a021", "md_file": "knowledge_base/domains/PC/examples.md", "md_atom_type": "TABLE_ROW", "md_parent_section": "§PC.1 [Example 1]", "md_verbatim": "| 6 | ABC-123 | PC | 1235154 | 6 | DRUGA_DAY1 | 625154 | PH | PH | SPECIMEN PROPERTY | | | | | | URINE | | | | 2001-02-25 | 2001-02-25 | 1 | Pre-dose | -1 | Day 1 Dose | 2001-02-25T08:00 | PT0M | |", "score": 0.4471, "match_basis": "verbatim_token+domain_route:PC"}, {"md_atom_id": "md_dmPC_ex_a020", "md_file": "knowledge_base/domains/PC/examples.md", "md_atom_type": "TABLE_ROW", "md_parent_section": "§PC.1 [Example 1]", "md_verbatim": "| 5 | ABC-123 | PC | 1235154 | 5 | DRUGA_DAY1 | 625154 | VOLUME | Volume | SPECIMEN PROPERTY | 363 | mL | 363 | 363 | mL | URINE | | | | 2001-02-25 | 2001-02-25 | 1 | Pre-dose | -1 | Day 1 Dose | 2001-02-25T08:00 | PT0M | |", "score": 0.4449, "match_basis": "verbatim_token+domain_route:PC"}, {"md_atom_id": "md_dmPC_ex_a035", "md_file": "knowledge_base/domains/PC/examples.md", "md_atom_type": "TABLE_ROW", "md_parent_section": "§PC.1 [Example 1]", "md_verbatim": "| 20 | ABC-123 | PC | 1235154 | 20 | DRUGA_DAY11 | 625154 | PH | PH | SPECIMEN PROPERTY | 6.1 | | 6.1 | 6.1 | | URINE | | | | 2001-03-07 | 2001-03-07 | 11 | 12h post | 12 | Day 11 Dose | 2001-03-07T08:00 | PT12H | -PT12H |", "score": 0.4396, "match_basis": "verbatim_token+domain_route:PC"}, {"md_atom_id": "md_dmPC_ex_a039", "md_file": "knowledge_base/domains/PC/examples.md", "md_atom_type": "TABLE_ROW", "md_parent_section": "§PC.1 [Example 1]", "md_verbatim": "| 24 | ABC-123 | PC | 1235154 | 24 | DRUGA_DAY11 | 625154 | PH | PH | SPECIMEN PROPERTY | | | | | | URINE | | | | 2001-03-07 | 2001-03-18 | 11 | 24h post | 24 | Day 11 Dose | 2001-03-07T08:00 | PT24H | -PT12H |", "score": 0.4385, "match_basis": "verbatim_token+domain_route:PC"}, {"md_atom_id": "md_dmPC_ex_a034", "md_file": "knowledge_base/domains/PC/examples.md", "md_atom_type": "TABLE_ROW", "md_parent_section": "§PC.1 [Example 1]", "md_verbatim": "| 19 | ABC-123 | PC | 1235154 | 19 | DRUGA_DAY11 | 625154 | VOLUME | Volume | SPECIMEN PROPERTY | 606 | mL | 606 | 606 | mL | URINE | | | | 2001-03-07 | 2001-03-07 | 11 | 12h post | 12 | Day 11 Dose | 2001-03-07T08:00 | PT12H | -PT12H |", "score": 0.4378, "match_basis": "verbatim_token+domain_route:PC"}], "candidate_count": 5, "zero_candidate": false}
{"pdf_atom_id": "ig34_p0269_a009", "pdf_atom_type": "TABLE_ROW", "pdf_source": "SDTMIG_v3.4", "pdf_page": 269, "pdf_parent_section": "§6.3.5.9.1 Pharmacokinetics Concentrations (PC)", "pdf_verbatim": "PCDY | Actual Study Day of Specimen Collection | Num | | Timing | Study day of specimen collection, measured as integer days. Algorithm for calculations must be relative to the sponsor-defined RFSTDTC variable in Demographics. | Perm", "figure_ref": null, "candidates": [{"md_atom_id": "md_dmPC_ex_a021", "md_file": "knowledge_base/domains/PC/examples.md", "md_atom_type": "TABLE_ROW", "md_parent_section": "§PC.1 [Example 1]", "md_verbatim": "| 6 | ABC-123 | PC | 1235154 | 6 | DRUGA_DAY1 | 625154 | PH | PH | SPECIMEN PROPERTY | | | | | | URINE | | | | 2001-02-25 | 2001-02-25 | 1 | Pre-dose | -1 | Day 1 Dose | 2001-02-25T08:00 | PT0M | |", "score": 0.4432, "match_basis": "verbatim_token+domain_route:PC"}, {"md_atom_id": "md_dmPC_ex_a035", "md_file": "knowledge_base/domains/PC/examples.md", "md_atom_type": "TABLE_ROW", "md_parent_section": "§PC.1 [Example 1]", "md_verbatim": "| 20 | ABC-123 | PC | 1235154 | 20 | DRUGA_DAY11 | 625154 | PH | PH | SPECIMEN PROPERTY | 6.1 | | 6.1 | 6.1 | | URINE | | | | 2001-03-07 | 2001-03-07 | 11 | 12h post | 12 | Day 11 Dose | 2001-03-07T08:00 | PT12H | -PT12H |", "score": 0.4422, "match_basis": "verbatim_token+domain_route:PC"}, {"md_atom_id": "md_dmPC_ex_a020", "md_file": "knowledge_base/domains/PC/examples.md", "md_atom_type": "TABLE_ROW", "md_parent_section": "§PC.1 [Example 1]", "md_verbatim": "| 5 | ABC-123 | PC | 1235154 | 5 | DRUGA_DAY1 | 625154 | VOLUME | Volume | SPECIMEN PROPERTY | 363 | mL | 363 | 363 | mL | URINE | | | | 2001-02-25 | 2001-02-25 | 1 | Pre-dose | -1 | Day 1 Dose | 2001-02-25T08:00 | PT0M | |", "score": 0.4415, "match_basis": "verbatim_token+domain_route:PC"}, {"md_atom_id": "md_dmPC_ex_a039", "md_file": "knowledge_base/domains/PC/examples.md", "md_atom_type": "TABLE_ROW", "md_parent_section": "§PC.1 [Example 1]", "md_verbatim": "| 24 | ABC-123 | PC | 1235154 | 24 | DRUGA_DAY11 | 625154 | PH | PH | SPECIMEN PROPERTY | | | | | | URINE | | | | 2001-03-07 | 2001-03-18 | 11 | 24h post | 24 | Day 11 Dose | 2001-03-07T08:00 | PT24H | -PT12H |", "score": 0.4412, "match_basis": "verbatim_token+domain_route:PC"}, {"md_atom_id": "md_dmPC_ex_a034", "md_file": "knowledge_base/domains/PC/examples.md", "md_atom_type": "TABLE_ROW", "md_parent_section": "§PC.1 [Example 1]", "md_verbatim": "| 19 | ABC-123 | PC | 1235154 | 19 | DRUGA_DAY11 | 625154 | VOLUME | Volume | SPECIMEN PROPERTY | 606 | mL | 606 | 606 | mL | URINE | | | | 2001-03-07 | 2001-03-07 | 11 | 12h post | 12 | Day 11 Dose | 2001-03-07T08:00 | PT12H | -PT12H |", "score": 0.4406, "match_basis": "verbatim_token+domain_route:PC"}], "candidate_count": 5, "zero_candidate": false}
{"pdf_atom_id": "ig34_p0269_a010", "pdf_atom_type": "TABLE_ROW", "pdf_source": "SDTMIG_v3.4", "pdf_page": 269, "pdf_parent_section": "§6.3.5.9.1 Pharmacokinetics Concentrations (PC)", "pdf_verbatim": "PCENDY | Study Day of End of Observation | Num | | Timing | Actual study day of end of observation expressed in integer days relative to the sponsor-defined RFSTDTC in Demographics. | Perm", "figure_ref": null, "candidates": [{"md_atom_id": "md_dmPC_ex_a069", "md_file": "knowledge_base/domains/PC/examples.md", "md_atom_type": "TABLE_ROW", "md_parent_section": "§PC.2.3 [Shared PC Dataset for All Examples]", "md_verbatim": "| 1 | ABC-123 | PC | ABC-123-0001 | 1 | DY1_DRGX | DY1_DRGX | DY1_DRGX_A | DY1DRGX_A | STUDYDRUG | STUDYDRUG | ANALYTE | q | | | | | PLASMA | | 0.10 | | 1 | Day 1 | 1 | 2001-02-01 | | 1 | Pre-dose | -1 | Day 1 Dose | 2001-02-01T08:35 | PT0M | |", "score": 0.4294, "match_basis": "verbatim_token+domain_route:PC"}, {"md_atom_id": "md_dmPC_ex_a081", "md_file": "knowledge_base/domains/PC/examples.md", "md_atom_type": "TABLE_ROW", "md_parent_section": "§PC.2.3 [Shared PC Dataset for All Examples]", "md_verbatim": "| 13 | ABC-123 | PC | ABC-123-0001 | 13 | DY8_DRGX | DY8_DRGX | DY8_DRGX | DY8DRGX | STUDYDRUG | STUDYDRUG | ANALYTE | q | | | | | PLASMA | | 0.10 | | 8 | Day 8 | 8 | 2001-02-08 | | 8 | Pre-dose | -1 | Day 8 Dose | 2001-02-08T08:35 | PT0M | |", "score": 0.4294, "match_basis": "verbatim_token+domain_route:PC"}, {"md_atom_id": "md_dmPC_ex_a070", "md_file": "knowledge_base/domains/PC/examples.md", "md_atom_type": "TABLE_ROW", "md_parent_section": "§PC.2.3 [Shared PC Dataset for All Examples]", "md_verbatim": "| 2 | ABC-123 | PC | ABC-123-0001 | 2 | DY1_DRGX | DY1_DRGX | DY1_DRGX_A | DY1DRGX_A | STUDYDRUG | STUDYDRUG | ANALYTE | 5 | ng/mL | 5 | 5 | ng/mL | PLASMA | | 0.10 | | 1 | Day 1 | 1 | 2001-02-01 | | 1 | 5 min post | 0.083 | Day 1 Dose | 2001-02-01T08:35 | PT5M | |", "score": 0.4286, "match_basis": "verbatim_token+domain_route:PC"}, {"md_atom_id": "md_dmPC_ex_a071", "md_file": "knowledge_base/domains/PC/examples.md", "md_atom_type": "TABLE_ROW", "md_parent_section": "§PC.2.3 [Shared PC Dataset for All Examples]", "md_verbatim": "| 3 | ABC-123 | PC | ABC-123-0001 | 3 | DY1_DRGX | DY1_DRGX | DY1_DRGX_A | DY1DRGX_A | STUDYDRUG | STUDYDRUG | ANALYTE | 38 | ng/mL | 38 | 38 | ng/mL | PLASMA | | 0.10 | | 1 | Day 1 | 1 | 2001-02-01 | | 1 | 30 min post | 0.5 | Day 1 Dose | 2001-02-01T08:35 | PT30M | |", "score": 0.4286, "match_basis": "verbatim_token+domain_route:PC"}, {"md_atom_id": "md_dmPC_ex_a082", "md_file": "knowledge_base/domains/PC/examples.md", "md_atom_type": "TABLE_ROW", "md_parent_section": "§PC.2.3 [Shared PC Dataset for All Examples]", "md_verbatim": "| 14 | ABC-123 | PC | ABC-123-0001 | 14 | DY8_DRGX | DY8_DRGX | DY8_DRGX | DY8DRGX | STUDYDRUG | STUDYDRUG | ANALYTE | 6 | ng/mL | 6 | 6 | ng/mL | PLASMA | | 0.10 | | 8 | Day 8 | 8 | 2001-02-08 | | 8 | 5 min post | 0.083 | Day 8 Dose | 2001-02-08T08:35 | PT5M | |", "score": 0.4286, "match_basis": "verbatim_token+domain_route:PC"}], "candidate_count": 5, "zero_candidate": false}
