{"pdf_atom_id": "ig34_p0262_a012", "pdf_atom_type": "TABLE_ROW", "pdf_source": "SDTMIG_v3.4", "pdf_page": 262, "pdf_parent_section": "§6.3.5.7 Microbiology Domains", "pdf_verbatim": "1 | ABC | MB | ABC-01-101 | MBSEQ | 2 | MBQSCAL | Quantification Scale | Smear Quantification: Centers for Disease Control Method for Carbol Fuchsin Staining (1000X) | Collected", "figure_ref": null, "candidates": [{"md_atom_id": "md_dmMB_ex_a143", "md_file": "knowledge_base/domains/MB/examples.md", "md_atom_type": "TABLE_ROW", "md_parent_section": "§MB.3 [Example 3]", "md_verbatim": "| 1 | ABC | MB | ABC-01-101 | MBSEQ | 2 | MBQSCAL | Quantification Scale | Smear Quantitation: Centers for Disease Control Method for Carbol Fuchsin Staining (1000X) | Collected |", "score": 0.8757, "match_basis": "verbatim_token+global_search"}, {"md_atom_id": "md_dmMB_ex_a148", "md_file": "knowledge_base/domains/MB/examples.md", "md_atom_type": "TABLE_ROW", "md_parent_section": "§MB.3 [Example 3]", "md_verbatim": "| 6 | ABC | MB | ABC-01-101 | MBSEQ | 6 | MBQSCAL | Quantification Scale | Solid Media Result: Centers for Disease Control (CDC) Quantification Scale | Collected |", "score": 0.6366, "match_basis": "verbatim_token+global_search"}, {"md_atom_id": "md_dmMB_ex_a065", "md_file": "knowledge_base/domains/MB/examples.md", "md_atom_type": "TABLE_ROW", "md_parent_section": "§MB.2 [Example 2]", "md_verbatim": "| 1 | ABC | MB | ABC-01-101 | MBSEQ | 2 | MBQSCAL | Quantification Scale | CDC semi-quantitative score for gram staining | CRF |", "score": 0.5118, "match_basis": "verbatim_token+global_search"}, {"md_atom_id": "md_dmMB_ex_a144", "md_file": "knowledge_base/domains/MB/examples.md", "md_atom_type": "TABLE_ROW", "md_parent_section": "§MB.3 [Example 3]", "md_verbatim": "| 2 | ABC | MB | ABC-01-101 | MBSEQ | 3 | MBMICERT | Microbial Identification Certainty | DEFINITIVE | Collected |", "score": 0.4579, "match_basis": "verbatim_token+global_search"}, {"md_atom_id": "md_dmMB_ex_a145", "md_file": "knowledge_base/domains/MB/examples.md", "md_atom_type": "TABLE_ROW", "md_parent_section": "§MB.3 [Example 3]", "md_verbatim": "| 3 | ABC | MB | ABC-01-101 | MBSEQ | 4 | MBMICERT | Microbial Identification Certainty | PRESUMPTIVE | Collected |", "score": 0.4485, "match_basis": "verbatim_token+global_search"}], "candidate_count": 5, "zero_candidate": false}
{"pdf_atom_id": "ig34_p0262_a013", "pdf_atom_type": "TABLE_ROW", "pdf_source": "SDTMIG_v3.4", "pdf_page": 262, "pdf_parent_section": "§6.3.5.7 Microbiology Domains", "pdf_verbatim": "2 | ABC | MB | ABC-01-101 | MBSEQ | 3 | MBMICERT | Microbial Identification Certainty | DEFINITIVE | Collected", "figure_ref": null, "candidates": [{"md_atom_id": "md_dmMB_ex_a144", "md_file": "knowledge_base/domains/MB/examples.md", "md_atom_type": "TABLE_ROW", "md_parent_section": "§MB.3 [Example 3]", "md_verbatim": "| 2 | ABC | MB | ABC-01-101 | MBSEQ | 3 | MBMICERT | Microbial Identification Certainty | DEFINITIVE | Collected |", "score": 0.9, "match_basis": "verbatim_token+global_search"}, {"md_atom_id": "md_dmMB_ex_a145", "md_file": "knowledge_base/domains/MB/examples.md", "md_atom_type": "TABLE_ROW", "md_parent_section": "§MB.3 [Example 3]", "md_verbatim": "| 3 | ABC | MB | ABC-01-101 | MBSEQ | 4 | MBMICERT | Microbial Identification Certainty | PRESUMPTIVE | Collected |", "score": 0.7607, "match_basis": "verbatim_token+global_search"}, {"md_atom_id": "md_dmMB_ex_a148", "md_file": "knowledge_base/domains/MB/examples.md", "md_atom_type": "TABLE_ROW", "md_parent_section": "§MB.3 [Example 3]", "md_verbatim": "| 6 | ABC | MB | ABC-01-101 | MBSEQ | 6 | MBQSCAL | Quantification Scale | Solid Media Result: Centers for Disease Control (CDC) Quantification Scale | Collected |", "score": 0.4571, "match_basis": "verbatim_token+global_search"}, {"md_atom_id": "md_dmMB_ex_a065", "md_file": "knowledge_base/domains/MB/examples.md", "md_atom_type": "TABLE_ROW", "md_parent_section": "§MB.2 [Example 2]", "md_verbatim": "| 1 | ABC | MB | ABC-01-101 | MBSEQ | 2 | MBQSCAL | Quantification Scale | CDC semi-quantitative score for gram staining | CRF |", "score": 0.4541, "match_basis": "verbatim_token+global_search"}, {"md_atom_id": "md_dmMB_ex_a143", "md_file": "knowledge_base/domains/MB/examples.md", "md_atom_type": "TABLE_ROW", "md_parent_section": "§MB.3 [Example 3]", "md_verbatim": "| 1 | ABC | MB | ABC-01-101 | MBSEQ | 2 | MBQSCAL | Quantification Scale | Smear Quantitation: Centers for Disease Control Method for Carbol Fuchsin Staining (1000X) | Collected |", "score": 0.4531, "match_basis": "verbatim_token+global_search"}], "candidate_count": 5, "zero_candidate": false}
{"pdf_atom_id": "ig34_p0262_a014", "pdf_atom_type": "TABLE_ROW", "pdf_source": "SDTMIG_v3.4", "pdf_page": 262, "pdf_parent_section": "§6.3.5.7 Microbiology Domains", "pdf_verbatim": "3 | ABC | MB | ABC-01-101 | MBREFID | 4 | MBMICERT | Microbial Identification Certainty | PRESUMPTIVE | Collected", "figure_ref": null, "candidates": [{"md_atom_id": "md_dmMB_ex_a145", "md_file": "knowledge_base/domains/MB/examples.md", "md_atom_type": "TABLE_ROW", "md_parent_section": "§MB.3 [Example 3]", "md_verbatim": "| 3 | ABC | MB | ABC-01-101 | MBSEQ | 4 | MBMICERT | Microbial Identification Certainty | PRESUMPTIVE | Collected |", "score": 0.8127, "match_basis": "verbatim_token+global_search"}, {"md_atom_id": "md_dmMB_ex_a144", "md_file": "knowledge_base/domains/MB/examples.md", "md_atom_type": "TABLE_ROW", "md_parent_section": "§MB.3 [Example 3]", "md_verbatim": "| 2 | ABC | MB | ABC-01-101 | MBSEQ | 3 | MBMICERT | Microbial Identification Certainty | DEFINITIVE | Collected |", "score": 0.71, "match_basis": "verbatim_token+global_search"}, {"md_atom_id": "md_dmMB_ex_a148", "md_file": "knowledge_base/domains/MB/examples.md", "md_atom_type": "TABLE_ROW", "md_parent_section": "§MB.3 [Example 3]", "md_verbatim": "| 6 | ABC | MB | ABC-01-101 | MBSEQ | 6 | MBQSCAL | Quantification Scale | Solid Media Result: Centers for Disease Control (CDC) Quantification Scale | Collected |", "score": 0.4432, "match_basis": "verbatim_token+global_search"}, {"md_atom_id": "md_index_a084", "md_file": "knowledge_base/INDEX.md", "md_atom_type": "TABLE_ROW", "md_parent_section": "§ Domains (63 domains)", "md_verbatim": "| [TU](domains/TU/) | Tumor/Lesion Identification | [spec](domains/TU/spec.md) · [assumptions](domains/TU/assumptions.md) · [examples](domains/TU/examples.md) |", "score": 0.4417, "match_basis": "verbatim_token+global_search"}, {"md_atom_id": "md_dmMB_ex_a020", "md_file": "knowledge_base/domains/MB/examples.md", "md_atom_type": "TABLE_ROW", "md_parent_section": "§MB.1 [Example 1]", "md_verbatim": "| 1 | ABC | MB | ABC-001-002 | 1 | SPEC01 | | MCORGIDN | Microbial Organism Identification | DETECTION | PRESENT | PRESENT | FLUID | SKIN | MICROBIAL CULTURE, SOLID | CENTRAL LAB ABC | 1 | VISIT 1 | 2005-06-19T08:00 |", "score": 0.4366, "match_basis": "verbatim_token+global_search"}], "candidate_count": 5, "zero_candidate": false}
{"pdf_atom_id": "ig34_p0262_a015", "pdf_atom_type": "TABLE_ROW", "pdf_source": "SDTMIG_v3.4", "pdf_page": 262, "pdf_parent_section": "§6.3.5.7 Microbiology Domains", "pdf_verbatim": "4 | ABC | MB | ABC-01-101 | MBREFID | 4 | MBMEDTYP | Medium Type | MIDDLEBROOK 7H10 AGAR | Collected", "figure_ref": null, "candidates": [{"md_atom_id": "md_dmMB_ex_a146", "md_file": "knowledge_base/domains/MB/examples.md", "md_atom_type": "TABLE_ROW", "md_parent_section": "§MB.3 [Example 3]", "md_verbatim": "| 4 | ABC | MB | ABC-01-101 | MBREFID | 100.3 | MBMEDTYP | Medium Type | MIDDLEBROOK 7H10 AGAR | Collected |", "score": 0.8842, "match_basis": "verbatim_token+global_search"}, {"md_atom_id": "md_dmMS_ex_a050", "md_file": "knowledge_base/domains/MS/examples.md", "md_atom_type": "TABLE_ROW", "md_parent_section": "§MS.3 [Example 3]", "md_verbatim": "| 1 | ABC | MS | ABC-01-101 | MBREFID | 100.4 | MSMEDTYPE | Medium Type | LOWENSTEIN-JENSEN | Collected |", "score": 0.5588, "match_basis": "verbatim_token+global_search"}, {"md_atom_id": "md_dmMS_ex_a051", "md_file": "knowledge_base/domains/MS/examples.md", "md_atom_type": "TABLE_ROW", "md_parent_section": "§MS.3 [Example 3]", "md_verbatim": "| 2 | ABC | MS | ABC-01-101 | MBREFID | 100.5 | MSMEDTYPE | Medium Type | LOWENSTEIN-JENSEN | Collected |", "score": 0.5588, "match_basis": "verbatim_token+global_search"}, {"md_atom_id": "md_dmBE_ex_a082", "md_file": "knowledge_base/domains/BE/examples.md", "md_atom_type": "TABLE_ROW", "md_parent_section": "§BE.2 [Example 2]", "md_verbatim": "| 3 | 3441271 | BE | MU-298 | BEREFID | 298R1-1R0 | BESPEC | Specimen Type | RNA | Collected | |", "score": 0.4263, "match_basis": "verbatim_token+global_search"}, {"md_atom_id": "md_dmBE_ex_a083", "md_file": "knowledge_base/domains/BE/examples.md", "md_atom_type": "TABLE_ROW", "md_parent_section": "§BE.2 [Example 2]", "md_verbatim": "| 4 | 3441271 | BE | MU-298 | BEREFID | 298R1-1R1 | BESPEC | Specimen Type | RNA | Collected | |", "score": 0.4263, "match_basis": "verbatim_token+global_search"}], "candidate_count": 5, "zero_candidate": false}
{"pdf_atom_id": "ig34_p0262_a016", "pdf_atom_type": "TABLE_ROW", "pdf_source": "SDTMIG_v3.4", "pdf_page": 262, "pdf_parent_section": "§6.3.5.7 Microbiology Domains", "pdf_verbatim": "7 | ABC | MB | ABC-01-101 | MBSEQ | 6 | MBQSCAL | Quantification Scale | Solid Media Result: Centers for Disease Control (CDC) Quantification Scale | Collected", "figure_ref": null, "candidates": [{"md_atom_id": "md_dmMB_ex_a148", "md_file": "knowledge_base/domains/MB/examples.md", "md_atom_type": "TABLE_ROW", "md_parent_section": "§MB.3 [Example 3]", "md_verbatim": "| 6 | ABC | MB | ABC-01-101 | MBSEQ | 6 | MBQSCAL | Quantification Scale | Solid Media Result: Centers for Disease Control (CDC) Quantification Scale | Collected |", "score": 0.9, "match_basis": "verbatim_token+global_search"}, {"md_atom_id": "md_dmMB_ex_a143", "md_file": "knowledge_base/domains/MB/examples.md", "md_atom_type": "TABLE_ROW", "md_parent_section": "§MB.3 [Example 3]", "md_verbatim": "| 1 | ABC | MB | ABC-01-101 | MBSEQ | 2 | MBQSCAL | Quantification Scale | Smear Quantitation: Centers for Disease Control Method for Carbol Fuchsin Staining (1000X) | Collected |", "score": 0.6247, "match_basis": "verbatim_token+global_search"}, {"md_atom_id": "md_dmMB_ex_a065", "md_file": "knowledge_base/domains/MB/examples.md", "md_atom_type": "TABLE_ROW", "md_parent_section": "§MB.2 [Example 2]", "md_verbatim": "| 1 | ABC | MB | ABC-01-101 | MBSEQ | 2 | MBQSCAL | Quantification Scale | CDC semi-quantitative score for gram staining | CRF |", "score": 0.4974, "match_basis": "verbatim_token+global_search"}, {"md_atom_id": "md_dmMB_ex_a145", "md_file": "knowledge_base/domains/MB/examples.md", "md_atom_type": "TABLE_ROW", "md_parent_section": "§MB.3 [Example 3]", "md_verbatim": "| 3 | ABC | MB | ABC-01-101 | MBSEQ | 4 | MBMICERT | Microbial Identification Certainty | PRESUMPTIVE | Collected |", "score": 0.4735, "match_basis": "verbatim_token+global_search"}, {"md_atom_id": "md_dmMB_ex_a144", "md_file": "knowledge_base/domains/MB/examples.md", "md_atom_type": "TABLE_ROW", "md_parent_section": "§MB.3 [Example 3]", "md_verbatim": "| 2 | ABC | MB | ABC-01-101 | MBSEQ | 3 | MBMICERT | Microbial Identification Certainty | DEFINITIVE | Collected |", "score": 0.4571, "match_basis": "verbatim_token+global_search"}], "candidate_count": 5, "zero_candidate": false}
{"pdf_atom_id": "ig34_p0262_a017", "pdf_atom_type": "TABLE_ROW", "pdf_source": "SDTMIG_v3.4", "pdf_page": 262, "pdf_parent_section": "§6.3.5.7 Microbiology Domains", "pdf_verbatim": "8 | ABC | MB | ABC-01-101 | MBSEQ | 5 | MBDILFCT | Dilution Factor | 10^-2 | Collected", "figure_ref": null, "candidates": [{"md_atom_id": "md_dmMB_ex_a147", "md_file": "knowledge_base/domains/MB/examples.md", "md_atom_type": "TABLE_ROW", "md_parent_section": "§MB.3 [Example 3]", "md_verbatim": "| 5 | ABC | MB | ABC-01-101 | MBSEQ | 5 | MBDILFCT | Dilution Factor | 10^-2 | Collected |", "score": 0.9, "match_basis": "verbatim_token+global_search"}, {"md_atom_id": "md_model02_a215", "md_file": "knowledge_base/model/02_observation_classes.md", "md_atom_type": "TABLE_ROW", "md_parent_section": "§3.1.5 > Study Day Variables", "md_verbatim": "| 27 | --DUR | Collected Duration | Char | ISO 8601 duration |", "score": 0.45, "match_basis": "verbatim_token+global_search"}, {"md_atom_id": "md_dmMB_ex_a087", "md_file": "knowledge_base/domains/MB/examples.md", "md_atom_type": "TABLE_ROW", "md_parent_section": "§MB.3 [Example 3]", "md_verbatim": "| 1 | ABC | BE | ABC-01-101 | 1 | 100 | | Collecting | COLLECTION | 2011-01-17T06:00 | 2011-01-17T05:00 | |", "score": 0.4459, "match_basis": "verbatim_token+global_search"}, {"md_atom_id": "md_dmCE_ex_a059", "md_file": "knowledge_base/domains/CE/examples.md", "md_atom_type": "TABLE_ROW", "md_parent_section": "§CE.3 [Example 3]", "md_verbatim": "| Date of collection | -- / --- / -- |", "score": 0.44, "match_basis": "verbatim_token+global_search"}, {"md_atom_id": "md_dmMB_ex_a144", "md_file": "knowledge_base/domains/MB/examples.md", "md_atom_type": "TABLE_ROW", "md_parent_section": "§MB.3 [Example 3]", "md_verbatim": "| 2 | ABC | MB | ABC-01-101 | MBSEQ | 3 | MBMICERT | Microbial Identification Certainty | DEFINITIVE | Collected |", "score": 0.4355, "match_basis": "verbatim_token+global_search"}], "candidate_count": 5, "zero_candidate": false}
{"pdf_atom_id": "ig34_p0262_a018", "pdf_atom_type": "SENTENCE", "pdf_source": "SDTMIG_v3.4", "pdf_page": 262, "pdf_parent_section": "§6.3.5.7 Microbiology Domains", "pdf_verbatim": "Results from drug susceptibility tests performed on samples are represented in the MS domain. This includes all phenotypic tests (where the drug is added directly to the culture medium) and genotypic tests (when the result is given as susceptible or resistant). Genotypic tests that give results of specific genetic polymorphisms should be represented in the Pharmacogenomics/Genetics Findings (PF) domain, even though such results may be categorized as susceptible or resistant. In this example, the variable NHOID (Non-host Organism Identifier) is populated with the name of the organism that is the subject of the test.", "figure_ref": null, "candidates": [{"md_atom_id": "md_dmMS_ex_a039", "md_file": "knowledge_base/domains/MS/examples.md", "md_atom_type": "SENTENCE", "md_parent_section": "§MS.3 [Example 3]", "md_verbatim": "Results from drug susceptibility tests performed on samples from the gastric TB study (see MB Example 3) are represented in the MS domain. This includes all phenotypic tests (where the drug is added directly to a culture medium) and genotypic tests (when the result is given as susceptible or resistant). In this example, the variable NHOID (Non-host Organism Identifier) is populated with the name of the organism that is the subject of the test.", "score": 0.7127, "match_basis": "verbatim_token+global_search"}, {"md_atom_id": "md_dmGF_ex_a089", "md_file": "knowledge_base/domains/GF/examples.md", "md_atom_type": "SENTENCE", "md_parent_section": "§GF.5 [Example 5]", "md_verbatim": "Next, a series of virus samples extracted from the subject underwent targeted single nucleotide polymorphism (SNP) testing to determine the feasibility of using the neuraminidase inhibitor oseltamivir to treat the infection (i.e., drug susceptibility testing). Findings from this testing provide both genetic data in the form of the genotype identified and the susceptibility/resistance data as inferred phenotype. Genotypic findings are represented in the GF domain, and inferred susceptibility/resistance in MS.", "score": 0.4782, "match_basis": "verbatim_token+global_search"}, {"md_atom_id": "md_dmMS_ex_a041", "md_file": "knowledge_base/domains/MS/examples.md", "md_atom_type": "SENTENCE", "md_parent_section": "§MS.3 [Example 3]", "md_verbatim": "**Rows 3-4:** Show genotypic susceptibility testing results on the same aliquot from a NAAT that looks for mutations that confer resistance to 2 drugs. MSAGENT should be populated with the name of the drug whose action is affected by the mutation being tested for. However, because the drug is not used in the test, MSCONC and MSCONCU should be null. These results are represented in MS because the only result given is in terms of resistant/susceptible; no genetic results are reported.", "score": 0.4773, "match_basis": "verbatim_token+global_search"}, {"md_atom_id": "md_dmMS_ex_a040", "md_file": "knowledge_base/domains/MS/examples.md", "md_atom_type": "SENTENCE", "md_parent_section": "§MS.3 [Example 3]", "md_verbatim": "**Rows 1-2:** Show phenotypic testing results on 2 separate culture plates: 1 with medium containing rifampicin (row 1) and 1 with medium containing isoniazid (row 2). MSAGENT is populated with the name of the drug being used in the susceptibility test. The variables MSCONC and MSCONCU represent the concentration and units of the drug being used. The culture start and stop dates are represented in BE and can be linked to MS by BELNKID and MSLNKID.", "score": 0.4614, "match_basis": "verbatim_token+global_search"}, {"md_atom_id": "md_dmMB_ex_a081", "md_file": "knowledge_base/domains/MB/examples.md", "md_atom_type": "SENTENCE", "md_parent_section": "§MB.3 [Example 3]", "md_verbatim": "**Row 1:** Shows the event of specimen collection. This is the genesis of the sample identified by BEREFID=\"100\"; therefore, BEDTC and BESTDTC are the same. The specimen collection setting, collection method, and specimen type are represented using supplemental qualifiers. Even though the variable Specimen Type is available for use in Findings domains, it is not available for use in Events domains and thus it is represented as supplemental qualifier.", "score": 0.4477, "match_basis": "verbatim_token+global_search"}], "candidate_count": 5, "zero_candidate": false}
{"pdf_atom_id": "ig34_p0262_a019", "pdf_atom_type": "LIST_ITEM", "pdf_source": "SDTMIG_v3.4", "pdf_page": 262, "pdf_parent_section": "§6.3.5.7 Microbiology Domains", "pdf_verbatim": "Rows 1-2: Show phenotypic testing results on 2 separate culture plates: 1 with medium containing rifampicin (row 1) and 1 with medium containing isoniazid (row 2). MSAGENT is populated with the name of the drug being used in the susceptibility test. The variables MSCONC and MSCONCU represent the concentration and units of the drug being used. The culture start and stop dates are represented in BE and can be linked to MS by BELNKID and MSLNKID.", "figure_ref": null, "candidates": [{"md_atom_id": "md_dmMS_ex_a040", "md_file": "knowledge_base/domains/MS/examples.md", "md_atom_type": "SENTENCE", "md_parent_section": "§MS.3 [Example 3]", "md_verbatim": "**Rows 1-2:** Show phenotypic testing results on 2 separate culture plates: 1 with medium containing rifampicin (row 1) and 1 with medium containing isoniazid (row 2). MSAGENT is populated with the name of the drug being used in the susceptibility test. The variables MSCONC and MSCONCU represent the concentration and units of the drug being used. The culture start and stop dates are represented in BE and can be linked to MS by BELNKID and MSLNKID.", "score": 0.81, "match_basis": "verbatim_token+global_search"}, {"md_atom_id": "md_dmMS_assn_a004", "md_file": "knowledge_base/domains/MS/assumptions.md", "md_atom_type": "LIST_ITEM", "md_parent_section": "§MS [MS — Assumptions]", "md_verbatim": "      i. For studies using qualitative testing methods, MSAGENT, MSCONC, and MSCONCU are used to represent the predefined drug, concentration, and units, respectively. Results are represented with values such as \"SUSCEPTIBLE\" or \"RESISTANT\".", "score": 0.4849, "match_basis": "verbatim_token+global_search"}, {"md_atom_id": "md_dmMS_assn_a005", "md_file": "knowledge_base/domains/MS/assumptions.md", "md_atom_type": "LIST_ITEM", "md_parent_section": "§MS [MS — Assumptions]", "md_verbatim": "      ii. For studies using quantitative testing methods, MSAGENT is used to represent the drug being tested; MSCONC and MSCONCU are not used. The concentration at which growth is inhibited is the result in these cases (MSORRES, MSSTRESC/MSSTRESN), with units being represented in MSORRESU/MSSTRESU.", "score": 0.4636, "match_basis": "verbatim_token+global_search"}, {"md_atom_id": "md_dmMS_assn_a007", "md_file": "knowledge_base/domains/MS/assumptions.md", "md_atom_type": "LIST_ITEM", "md_parent_section": "§MS [MS — Assumptions]", "md_verbatim": "   b. Genetic tests that provide results in terms of susceptible/resistant only (e.g., nucleic acid amplification tests (NAAT)). Genotypic tests that provide results in terms of specific changes to nucleotides, codons, or amino acids of genes/gene products associated with resistance should be represented in the Genomic Findings (GF) domain, as that domain structure contains the variables necessary to accommodate data of this type. If a test provides both mutation data and susceptibility data, the mutation results should be represented in GF and the susceptibility information should be represented in MS. In these cases, the GF records should be linked via RELREC to susceptibility records in MS.", "score": 0.4445, "match_basis": "verbatim_token+global_search"}, {"md_atom_id": "md_dmMS_assn_a006", "md_file": "knowledge_base/domains/MS/assumptions.md", "md_atom_type": "LIST_ITEM", "md_parent_section": "§MS [MS — Assumptions]", "md_verbatim": "      iii. As in 1.a.ii, MSAGENT should be populated with the drug whose action would be affected by the genetic marker being assessed via the genotypic test. MSCONC and MSCONCU are null in these records.", "score": 0.4371, "match_basis": "verbatim_token+global_search"}], "candidate_count": 5, "zero_candidate": false}
{"pdf_atom_id": "ig34_p0262_a020", "pdf_atom_type": "LIST_ITEM", "pdf_source": "SDTMIG_v3.4", "pdf_page": 262, "pdf_parent_section": "§6.3.5.7 Microbiology Domains", "pdf_verbatim": "Rows 3-4: Show genotypic susceptibility testing results on the same aliquot from a NAAT that looks for mutations that confer resistance to 2 drugs. MSAGENT should be populated with the name of the drug whose action is affected by the mutation being tested for. However, because the drug is not used in the test, MSCONC and MSCONCU should be null. These results are represented in MS because the only result given is in terms of resistant/susceptible; no genetic results are reported.", "figure_ref": null, "candidates": [{"md_atom_id": "md_dmMS_ex_a041", "md_file": "knowledge_base/domains/MS/examples.md", "md_atom_type": "SENTENCE", "md_parent_section": "§MS.3 [Example 3]", "md_verbatim": "**Rows 3-4:** Show genotypic susceptibility testing results on the same aliquot from a NAAT that looks for mutations that confer resistance to 2 drugs. MSAGENT should be populated with the name of the drug whose action is affected by the mutation being tested for. However, because the drug is not used in the test, MSCONC and MSCONCU should be null. These results are represented in MS because the only result given is in terms of resistant/susceptible; no genetic results are reported.", "score": 0.81, "match_basis": "verbatim_token+global_search"}, {"md_atom_id": "md_dmMS_assn_a006", "md_file": "knowledge_base/domains/MS/assumptions.md", "md_atom_type": "LIST_ITEM", "md_parent_section": "§MS [MS — Assumptions]", "md_verbatim": "      iii. As in 1.a.ii, MSAGENT should be populated with the drug whose action would be affected by the genetic marker being assessed via the genotypic test. MSCONC and MSCONCU are null in these records.", "score": 0.5222, "match_basis": "verbatim_token+global_search"}, {"md_atom_id": "md_dmMS_assn_a004", "md_file": "knowledge_base/domains/MS/assumptions.md", "md_atom_type": "LIST_ITEM", "md_parent_section": "§MS [MS — Assumptions]", "md_verbatim": "      i. For studies using qualitative testing methods, MSAGENT, MSCONC, and MSCONCU are used to represent the predefined drug, concentration, and units, respectively. Results are represented with values such as \"SUSCEPTIBLE\" or \"RESISTANT\".", "score": 0.4989, "match_basis": "verbatim_token+global_search"}, {"md_atom_id": "md_dmMS_assn_a007", "md_file": "knowledge_base/domains/MS/assumptions.md", "md_atom_type": "LIST_ITEM", "md_parent_section": "§MS [MS — Assumptions]", "md_verbatim": "   b. Genetic tests that provide results in terms of susceptible/resistant only (e.g., nucleic acid amplification tests (NAAT)). Genotypic tests that provide results in terms of specific changes to nucleotides, codons, or amino acids of genes/gene products associated with resistance should be represented in the Genomic Findings (GF) domain, as that domain structure contains the variables necessary to accommodate data of this type. If a test provides both mutation data and susceptibility data, the mutation results should be represented in GF and the susceptibility information should be represented in MS. In these cases, the GF records should be linked via RELREC to susceptibility records in MS.", "score": 0.4711, "match_basis": "verbatim_token+global_search"}, {"md_atom_id": "md_dmGF_assn_a006", "md_file": "knowledge_base/domains/GF/assumptions.md", "md_atom_type": "LIST_ITEM", "md_parent_section": "§GF [GF — Assumptions]", "md_verbatim": "   c. Tests that are used to determine the resistance/susceptibility of a non-host organism to a drug on a genetic basis should be represented in the Microbiology Susceptibility (MS) domain.", "score": 0.4705, "match_basis": "verbatim_token+global_search"}], "candidate_count": 5, "zero_candidate": false}
{"pdf_atom_id": "ig34_p0262_a021", "pdf_atom_type": "CODE_LITERAL", "pdf_source": "SDTMIG_v3.4", "pdf_page": 262, "pdf_parent_section": "§6.3.5.7 Microbiology Domains", "pdf_verbatim": "ms.xpt", "figure_ref": null, "candidates": [{"md_atom_id": "md_ch04_a207", "md_file": "knowledge_base/chapters/ch04_general_assumptions.md", "md_atom_type": "CODE_LITERAL", "md_parent_section": "§4.2.3 [Use of \"Subject\" and USUBJID]", "md_verbatim": "dm.xpt:", "score": 0.69, "match_basis": "verbatim_token+global_search"}, {"md_atom_id": "md_ch04_a210", "md_file": "knowledge_base/chapters/ch04_general_assumptions.md", "md_atom_type": "CODE_LITERAL", "md_parent_section": "§4.2.3 [Use of \"Subject\" and USUBJID]", "md_verbatim": "dm.xpt:", "score": 0.69, "match_basis": "verbatim_token+global_search"}, {"md_atom_id": "md_dmCM_ex_a010", "md_file": "knowledge_base/domains/CM/examples.md", "md_atom_type": "NOTE", "md_parent_section": "§CM.1 [Example 1]", "md_verbatim": "**cm.xpt**", "score": 0.69, "match_basis": "verbatim_token+global_search"}, {"md_atom_id": "md_dmCM_ex_a025", "md_file": "knowledge_base/domains/CM/examples.md", "md_atom_type": "NOTE", "md_parent_section": "§CM.2 [Example 2]", "md_verbatim": "**cm.xpt**", "score": 0.69, "match_basis": "verbatim_token+global_search"}, {"md_atom_id": "md_dmCM_ex_a042", "md_file": "knowledge_base/domains/CM/examples.md", "md_atom_type": "NOTE", "md_parent_section": "§CM.3 [Example 3]", "md_verbatim": "**cm.xpt**", "score": 0.69, "match_basis": "verbatim_token+global_search"}, {"md_atom_id": "md_dmCM_ex_a052", "md_file": "knowledge_base/domains/CM/examples.md", "md_atom_type": "NOTE", "md_parent_section": "§CM.4 [Example 4]", "md_verbatim": "**cm.xpt**", "score": 0.69, "match_basis": "verbatim_token+global_search"}, {"md_atom_id": "md_dmCM_ex_a070", "md_file": "knowledge_base/domains/CM/examples.md", "md_atom_type": "NOTE", "md_parent_section": "§CM.5 [Example 5]", "md_verbatim": "**cm.xpt**", "score": 0.69, "match_basis": "verbatim_token+global_search"}, {"md_atom_id": "md_ch04_a368", "md_file": "knowledge_base/chapters/ch04_general_assumptions.md", "md_atom_type": "CODE_LITERAL", "md_parent_section": "§4.2.8.3 [Multiple Values for a Non-result Qualifier Variable]", "md_verbatim": "ae.xpt:", "score": 0.69, "match_basis": "verbatim_token+global_search"}, {"md_atom_id": "md_ch04_a378", "md_file": "knowledge_base/chapters/ch04_general_assumptions.md", "md_atom_type": "CODE_LITERAL", "md_parent_section": "§4.2.8.3 [Multiple Values for a Non-result Qualifier Variable]", "md_verbatim": "ae.xpt:", "score": 0.69, "match_basis": "verbatim_token+global_search"}, {"md_atom_id": "md_ch04_a391", "md_file": "knowledge_base/chapters/ch04_general_assumptions.md", "md_atom_type": "CODE_LITERAL", "md_parent_section": "§4.2.8.3 [Multiple Values for a Non-result Qualifier Variable]", "md_verbatim": "ae.xpt:", "score": 0.69, "match_basis": "verbatim_token+global_search"}], "candidate_count": 10, "zero_candidate": false}
{"pdf_atom_id": "ig34_p0262_a022", "pdf_atom_type": "TABLE_HEADER", "pdf_source": "SDTMIG_v3.4", "pdf_page": 262, "pdf_parent_section": "§6.3.5.7 Microbiology Domains", "pdf_verbatim": "Row | STUDYID | DOMAIN | USUBJID | SPDEVID | NHOID | MSSEQ | MSREFID | MSLNKID | MSTESTCD | MSTEST | MSAGENT | MSCONC | MSCONCU | MSORRES | MSSTRESC | MSSPEC | MSLOC | MSMETHOD | MSDTC", "figure_ref": null, "candidates": [{"md_atom_id": "md_dmMS_ex_a043", "md_file": "knowledge_base/domains/MS/examples.md", "md_atom_type": "TABLE_HEADER", "md_parent_section": "§MS.3 [Example 3]", "md_verbatim": "| Row | STUDYID | DOMAIN | USUBJID | SPDEVID | NHOID | MSSEQ | MSREFID | MSLNKID | MSTESTCD | MSTEST | MSAGENT | MSCONC | MSCONCU | MSORRES | MSSTRESC | MSSPEC | MSLOC | MSMETHOD | MSDTC |\n|-----|---------|--------|---------|---------|-------|-------|---------|---------|----------|--------|---------|--------|---------|---------|----------|--------|-------|----------|-------|", "score": 0.9, "match_basis": "verbatim_token+global_search"}, {"md_atom_id": "md_dmGF_ex_a102", "md_file": "knowledge_base/domains/GF/examples.md", "md_atom_type": "TABLE_HEADER", "md_parent_section": "§GF.5 [Example 5]", "md_verbatim": "| Row | STUDYID | DOMAIN | USUBJID | MSSEQ | MSREFID | NHOID | MSLNKID | MSTESTCD | MSTEST | MSAGENT | MSORRES | MSSTRESC | MSMETHOD | VISITNUM | VISIT | MSDTC |\n|-----|---------|--------|---------|-------|---------|-------|---------|----------|--------|---------|---------|----------|----------|----------|-------|-------|", "score": 0.7444, "match_basis": "verbatim_token+global_search"}, {"md_atom_id": "md_dmMS_ex_a009", "md_file": "knowledge_base/domains/MS/examples.md", "md_atom_type": "TABLE_HEADER", "md_parent_section": "§MS.1 [Example 1]", "md_verbatim": "| Row | STUDYID | DOMAIN | USUBJID | NHOID | MSGRPID | MSSEQ | MSREFID | MSLNKGRP | MSTESTCD | MSTEST | MSAGENT | MSCONC | MSCONCU | MSORRES | MSORRESU | MSSTRESC | MSSTRESN | MSSTRESU | MSNAM | MSMETHOD | MSDTC |\n|-----|---------|--------|---------|-------|---------|-------|---------|----------|----------|--------|---------|--------|---------|---------|----------|----------|----------|----------|-------|----------|-------|", "score": 0.7345, "match_basis": "verbatim_token+global_search"}, {"md_atom_id": "md_dmMS_ex_a027", "md_file": "knowledge_base/domains/MS/examples.md", "md_atom_type": "TABLE_HEADER", "md_parent_section": "§MS.2 [Example 2]", "md_verbatim": "| Row | STUDYID | DOMAIN | USUBJID | NHOID | MSGRPID | MSSEQ | MSREFID | MSTESTCD | MSTEST | MSAGENT | MSORRES | MSORRESU | MSSTRESC | MSSTRESN | MSSTRESU | MSNAM | MSMETHOD | VISITNUM | VISIT | MSDTC |\n|-----|---------|--------|---------|-------|---------|-------|---------|----------|--------|---------|---------|----------|----------|----------|----------|-------|----------|----------|-------|-------|", "score": 0.6626, "match_basis": "verbatim_token+global_search"}, {"md_atom_id": "md_dmIS_ex_a091", "md_file": "knowledge_base/domains/IS/examples.md", "md_atom_type": "TABLE_HEADER", "md_parent_section": "§IS.6 [Example 6]", "md_verbatim": "| Row | STUDYID | DOMAIN | USUBJID | ISSEQ | ISREFID | ISTESTCD | ISTEST | ISMSCBCE | ISCAT | ISSCAT | ISORRES | ISORRESU | ISSTRESC | ISSTRESN | ISSTRESU | ISSPEC | ISMETHOD | ISDTC |\n|-----|---------|--------|---------|-------|---------|----------|--------|----------|-------|--------|---------|----------|----------|----------|----------|--------|----------|-------|", "score": 0.5967, "match_basis": "verbatim_token+global_search"}], "candidate_count": 5, "zero_candidate": false}
{"pdf_atom_id": "ig34_p0262_a023", "pdf_atom_type": "TABLE_ROW", "pdf_source": "SDTMIG_v3.4", "pdf_page": 262, "pdf_parent_section": "§6.3.5.7 Microbiology Domains", "pdf_verbatim": "1 | ABC | MS | ABC-01-101 | | MYCOBACTERIUM TUBERCULOSIS | 1 | | 100.4 | 2 | MICROSUS | Microbial Susceptibility | Rifampicin | 1 | | ug/mL | RESISTANT | RESISTANT | LAVAGE FLUID | STOMACH | ANTIBIOTIC AGAR SCREEN | 2011-01-17T06:00", "figure_ref": null, "candidates": [{"md_atom_id": "md_dmMS_ex_a044", "md_file": "knowledge_base/domains/MS/examples.md", "md_atom_type": "TABLE_ROW", "md_parent_section": "§MS.3 [Example 3]", "md_verbatim": "| 1 | ABC | MS | ABC-01-101 | | MYCOBACTERIUM TUBERCULOSIS | 1 | 100.4 | 2 | MICROSUS | Microbial Susceptibility | Rifampicin | 1 | ug/mL | RESISTANT | RESISTANT | LAVAGE FLUID | STOMACH | ANTIBIOTIC AGAR SCREEN | 2011-01-17T06:00 |", "score": 0.9, "match_basis": "verbatim_token+global_search"}, {"md_atom_id": "md_dmMS_ex_a045", "md_file": "knowledge_base/domains/MS/examples.md", "md_atom_type": "TABLE_ROW", "md_parent_section": "§MS.3 [Example 3]", "md_verbatim": "| 2 | ABC | MS | ABC-01-101 | | MYCOBACTERIUM TUBERCULOSIS | 2 | 100.5 | 3 | MICROSUS | Microbial Susceptibility | Isoniazid | 0.2 | ug/mL | SUSCEPTIBLE | SUSCEPTIBLE | LAVAGE FLUID | STOMACH | ANTIBIOTIC AGAR SCREEN | 2011-01-17T06:00 |", "score": 0.7625, "match_basis": "verbatim_token+global_search"}, {"md_atom_id": "md_dmMS_ex_a046", "md_file": "knowledge_base/domains/MS/examples.md", "md_atom_type": "TABLE_ROW", "md_parent_section": "§MS.3 [Example 3]", "md_verbatim": "| 3 | ABC | MS | ABC-01-101 | ABC765 | MYCOBACTERIUM TUBERCULOSIS | 3 | 100.2 | | MICROSUS | Microbial Susceptibility | Rifampicin | | | RESISTANT | RESISTANT | LAVAGE FLUID | STOMACH | NUCLEIC ACID AMPLIFICATION TEST | 2011-01-17T06:00 |", "score": 0.7183, "match_basis": "verbatim_token+global_search"}, {"md_atom_id": "md_dmMS_ex_a047", "md_file": "knowledge_base/domains/MS/examples.md", "md_atom_type": "TABLE_ROW", "md_parent_section": "§MS.3 [Example 3]", "md_verbatim": "| 4 | ABC | MS | ABC-01-101 | ABC765 | MYCOBACTERIUM TUBERCULOSIS | 4 | 100.2 | | MICROSUS | Microbial Susceptibility | Isoniazid | | | SUSCEPTIBLE | SUSCEPTIBLE | LAVAGE FLUID | STOMACH | NUCLEIC ACID AMPLIFICATION TEST | 2011-01-17T06:00 |", "score": 0.6203, "match_basis": "verbatim_token+global_search"}, {"md_atom_id": "md_dmMB_ex_a140", "md_file": "knowledge_base/domains/MB/examples.md", "md_atom_type": "TABLE_ROW", "md_parent_section": "§MB.3 [Example 3]", "md_verbatim": "| 6 | ABC | MB | ABC-01-101 | | 6 | 2 | 100.3 | 1 | MTB | Mycobacterium Tuberculosis | COLONY COUNT | 2+ | Ord | 2+ | | | | LAVAGE FLUID | STOMACH | MICROBIAL CULTURE, SOLID | 1 | WEEK 1 | 2011-01-17T06:00 |", "score": 0.5743, "match_basis": "verbatim_token+global_search"}], "candidate_count": 5, "zero_candidate": false}
{"pdf_atom_id": "ig34_p0262_a024", "pdf_atom_type": "TABLE_ROW", "pdf_source": "SDTMIG_v3.4", "pdf_page": 262, "pdf_parent_section": "§6.3.5.7 Microbiology Domains", "pdf_verbatim": "2 | ABC | MS | ABC-01-101 | | MYCOBACTERIUM TUBERCULOSIS | 2 | | 100.5 | 3 | MICROSUS | Microbial Susceptibility | Isoniazid | 0.2 | | ug/mL | SUSCEPTIBLE | SUSCEPTIBLE | LAVAGE FLUID | STOMACH | ANTIBIOTIC AGAR SCREEN | 2011-01-17T06:00", "figure_ref": null, "candidates": [{"md_atom_id": "md_dmMS_ex_a045", "md_file": "knowledge_base/domains/MS/examples.md", "md_atom_type": "TABLE_ROW", "md_parent_section": "§MS.3 [Example 3]", "md_verbatim": "| 2 | ABC | MS | ABC-01-101 | | MYCOBACTERIUM TUBERCULOSIS | 2 | 100.5 | 3 | MICROSUS | Microbial Susceptibility | Isoniazid | 0.2 | ug/mL | SUSCEPTIBLE | SUSCEPTIBLE | LAVAGE FLUID | STOMACH | ANTIBIOTIC AGAR SCREEN | 2011-01-17T06:00 |", "score": 0.9, "match_basis": "verbatim_token+global_search"}, {"md_atom_id": "md_dmMS_ex_a044", "md_file": "knowledge_base/domains/MS/examples.md", "md_atom_type": "TABLE_ROW", "md_parent_section": "§MS.3 [Example 3]", "md_verbatim": "| 1 | ABC | MS | ABC-01-101 | | MYCOBACTERIUM TUBERCULOSIS | 1 | 100.4 | 2 | MICROSUS | Microbial Susceptibility | Rifampicin | 1 | ug/mL | RESISTANT | RESISTANT | LAVAGE FLUID | STOMACH | ANTIBIOTIC AGAR SCREEN | 2011-01-17T06:00 |", "score": 0.7625, "match_basis": "verbatim_token+global_search"}, {"md_atom_id": "md_dmMS_ex_a047", "md_file": "knowledge_base/domains/MS/examples.md", "md_atom_type": "TABLE_ROW", "md_parent_section": "§MS.3 [Example 3]", "md_verbatim": "| 4 | ABC | MS | ABC-01-101 | ABC765 | MYCOBACTERIUM TUBERCULOSIS | 4 | 100.2 | | MICROSUS | Microbial Susceptibility | Isoniazid | | | SUSCEPTIBLE | SUSCEPTIBLE | LAVAGE FLUID | STOMACH | NUCLEIC ACID AMPLIFICATION TEST | 2011-01-17T06:00 |", "score": 0.7019, "match_basis": "verbatim_token+global_search"}, {"md_atom_id": "md_dmMS_ex_a046", "md_file": "knowledge_base/domains/MS/examples.md", "md_atom_type": "TABLE_ROW", "md_parent_section": "§MS.3 [Example 3]", "md_verbatim": "| 3 | ABC | MS | ABC-01-101 | ABC765 | MYCOBACTERIUM TUBERCULOSIS | 3 | 100.2 | | MICROSUS | Microbial Susceptibility | Rifampicin | | | RESISTANT | RESISTANT | LAVAGE FLUID | STOMACH | NUCLEIC ACID AMPLIFICATION TEST | 2011-01-17T06:00 |", "score": 0.6203, "match_basis": "verbatim_token+global_search"}, {"md_atom_id": "md_dmMB_ex_a140", "md_file": "knowledge_base/domains/MB/examples.md", "md_atom_type": "TABLE_ROW", "md_parent_section": "§MB.3 [Example 3]", "md_verbatim": "| 6 | ABC | MB | ABC-01-101 | | 6 | 2 | 100.3 | 1 | MTB | Mycobacterium Tuberculosis | COLONY COUNT | 2+ | Ord | 2+ | | | | LAVAGE FLUID | STOMACH | MICROBIAL CULTURE, SOLID | 1 | WEEK 1 | 2011-01-17T06:00 |", "score": 0.5851, "match_basis": "verbatim_token+global_search"}], "candidate_count": 5, "zero_candidate": false}
{"pdf_atom_id": "ig34_p0262_a025", "pdf_atom_type": "TABLE_ROW", "pdf_source": "SDTMIG_v3.4", "pdf_page": 262, "pdf_parent_section": "§6.3.5.7 Microbiology Domains", "pdf_verbatim": "3 | ABC | MS | ABC-01-101 | ABC765 | MYCOBACTERIUM TUBERCULOSIS | 3 | | 100.2 | 4 | MICROSUS | Microbial Susceptibility | Rifampicin | | | | RESISTANT | RESISTANT | LAVAGE FLUID | STOMACH | NUCLEIC ACID AMPLIFICATION TEST | 2011-01-17T06:00", "figure_ref": null, "candidates": [{"md_atom_id": "md_dmMS_ex_a046", "md_file": "knowledge_base/domains/MS/examples.md", "md_atom_type": "TABLE_ROW", "md_parent_section": "§MS.3 [Example 3]", "md_verbatim": "| 3 | ABC | MS | ABC-01-101 | ABC765 | MYCOBACTERIUM TUBERCULOSIS | 3 | 100.2 | | MICROSUS | Microbial Susceptibility | Rifampicin | | | RESISTANT | RESISTANT | LAVAGE FLUID | STOMACH | NUCLEIC ACID AMPLIFICATION TEST | 2011-01-17T06:00 |", "score": 0.9, "match_basis": "verbatim_token+global_search"}, {"md_atom_id": "md_dmMS_ex_a047", "md_file": "knowledge_base/domains/MS/examples.md", "md_atom_type": "TABLE_ROW", "md_parent_section": "§MS.3 [Example 3]", "md_verbatim": "| 4 | ABC | MS | ABC-01-101 | ABC765 | MYCOBACTERIUM TUBERCULOSIS | 4 | 100.2 | | MICROSUS | Microbial Susceptibility | Isoniazid | | | SUSCEPTIBLE | SUSCEPTIBLE | LAVAGE FLUID | STOMACH | NUCLEIC ACID AMPLIFICATION TEST | 2011-01-17T06:00 |", "score": 0.7766, "match_basis": "verbatim_token+global_search"}, {"md_atom_id": "md_dmMS_ex_a044", "md_file": "knowledge_base/domains/MS/examples.md", "md_atom_type": "TABLE_ROW", "md_parent_section": "§MS.3 [Example 3]", "md_verbatim": "| 1 | ABC | MS | ABC-01-101 | | MYCOBACTERIUM TUBERCULOSIS | 1 | 100.4 | 2 | MICROSUS | Microbial Susceptibility | Rifampicin | 1 | ug/mL | RESISTANT | RESISTANT | LAVAGE FLUID | STOMACH | ANTIBIOTIC AGAR SCREEN | 2011-01-17T06:00 |", "score": 0.7183, "match_basis": "verbatim_token+global_search"}, {"md_atom_id": "md_dmMB_ex_a137", "md_file": "knowledge_base/domains/MB/examples.md", "md_atom_type": "TABLE_ROW", "md_parent_section": "§MB.3 [Example 3]", "md_verbatim": "| 3 | ABC | MB | ABC-01-101 | ABC765 | 3 | | 100.2 | | MTBCMPLX | Mycobacterium Tuberculosis Complex | DETECTION | PRESENT | Ord | PRESENT | | | | LAVAGE FLUID | STOMACH | NUCLEIC ACID AMPLIFICATION TEST | 1 | WEEK 1 | 2011-01-17T06:00 |", "score": 0.6277, "match_basis": "verbatim_token+global_search"}, {"md_atom_id": "md_dmMS_ex_a045", "md_file": "knowledge_base/domains/MS/examples.md", "md_atom_type": "TABLE_ROW", "md_parent_section": "§MS.3 [Example 3]", "md_verbatim": "| 2 | ABC | MS | ABC-01-101 | | MYCOBACTERIUM TUBERCULOSIS | 2 | 100.5 | 3 | MICROSUS | Microbial Susceptibility | Isoniazid | 0.2 | ug/mL | SUSCEPTIBLE | SUSCEPTIBLE | LAVAGE FLUID | STOMACH | ANTIBIOTIC AGAR SCREEN | 2011-01-17T06:00 |", "score": 0.6203, "match_basis": "verbatim_token+global_search"}], "candidate_count": 5, "zero_candidate": false}
{"pdf_atom_id": "ig34_p0262_a026", "pdf_atom_type": "TABLE_ROW", "pdf_source": "SDTMIG_v3.4", "pdf_page": 262, "pdf_parent_section": "§6.3.5.7 Microbiology Domains", "pdf_verbatim": "4 | ABC | MS | ABC-01-101 | ABC765 | MYCOBACTERIUM TUBERCULOSIS | 4 | | 100.2 | 4 | MICROSUS | Microbial Susceptibility | Isoniazid | | | | SUSCEPTIBLE | SUSCEPTIBLE | LAVAGE FLUID | STOMACH | NUCLEIC ACID AMPLIFICATION TEST | 2011-01-17T06:00", "figure_ref": null, "candidates": [{"md_atom_id": "md_dmMS_ex_a047", "md_file": "knowledge_base/domains/MS/examples.md", "md_atom_type": "TABLE_ROW", "md_parent_section": "§MS.3 [Example 3]", "md_verbatim": "| 4 | ABC | MS | ABC-01-101 | ABC765 | MYCOBACTERIUM TUBERCULOSIS | 4 | 100.2 | | MICROSUS | Microbial Susceptibility | Isoniazid | | | SUSCEPTIBLE | SUSCEPTIBLE | LAVAGE FLUID | STOMACH | NUCLEIC ACID AMPLIFICATION TEST | 2011-01-17T06:00 |", "score": 0.9, "match_basis": "verbatim_token+global_search"}, {"md_atom_id": "md_dmMS_ex_a046", "md_file": "knowledge_base/domains/MS/examples.md", "md_atom_type": "TABLE_ROW", "md_parent_section": "§MS.3 [Example 3]", "md_verbatim": "| 3 | ABC | MS | ABC-01-101 | ABC765 | MYCOBACTERIUM TUBERCULOSIS | 3 | 100.2 | | MICROSUS | Microbial Susceptibility | Rifampicin | | | RESISTANT | RESISTANT | LAVAGE FLUID | STOMACH | NUCLEIC ACID AMPLIFICATION TEST | 2011-01-17T06:00 |", "score": 0.7766, "match_basis": "verbatim_token+global_search"}, {"md_atom_id": "md_dmMS_ex_a045", "md_file": "knowledge_base/domains/MS/examples.md", "md_atom_type": "TABLE_ROW", "md_parent_section": "§MS.3 [Example 3]", "md_verbatim": "| 2 | ABC | MS | ABC-01-101 | | MYCOBACTERIUM TUBERCULOSIS | 2 | 100.5 | 3 | MICROSUS | Microbial Susceptibility | Isoniazid | 0.2 | ug/mL | SUSCEPTIBLE | SUSCEPTIBLE | LAVAGE FLUID | STOMACH | ANTIBIOTIC AGAR SCREEN | 2011-01-17T06:00 |", "score": 0.7019, "match_basis": "verbatim_token+global_search"}, {"md_atom_id": "md_dmMB_ex_a137", "md_file": "knowledge_base/domains/MB/examples.md", "md_atom_type": "TABLE_ROW", "md_parent_section": "§MB.3 [Example 3]", "md_verbatim": "| 3 | ABC | MB | ABC-01-101 | ABC765 | 3 | | 100.2 | | MTBCMPLX | Mycobacterium Tuberculosis Complex | DETECTION | PRESENT | Ord | PRESENT | | | | LAVAGE FLUID | STOMACH | NUCLEIC ACID AMPLIFICATION TEST | 1 | WEEK 1 | 2011-01-17T06:00 |", "score": 0.631, "match_basis": "verbatim_token+global_search"}, {"md_atom_id": "md_dmMS_ex_a044", "md_file": "knowledge_base/domains/MS/examples.md", "md_atom_type": "TABLE_ROW", "md_parent_section": "§MS.3 [Example 3]", "md_verbatim": "| 1 | ABC | MS | ABC-01-101 | | MYCOBACTERIUM TUBERCULOSIS | 1 | 100.4 | 2 | MICROSUS | Microbial Susceptibility | Rifampicin | 1 | ug/mL | RESISTANT | RESISTANT | LAVAGE FLUID | STOMACH | ANTIBIOTIC AGAR SCREEN | 2011-01-17T06:00 |", "score": 0.6203, "match_basis": "verbatim_token+global_search"}], "candidate_count": 5, "zero_candidate": false}
{"pdf_atom_id": "ig34_p0262_a027", "pdf_atom_type": "CODE_LITERAL", "pdf_source": "SDTMIG_v3.4", "pdf_page": 262, "pdf_parent_section": "§6.3.5.7 Microbiology Domains", "pdf_verbatim": "suppms.xpt", "figure_ref": null, "candidates": [{"md_atom_id": "md_dmMS_ex_a048", "md_file": "knowledge_base/domains/MS/examples.md", "md_atom_type": "SENTENCE", "md_parent_section": "§MS.3 [Example 3]", "md_verbatim": "**suppms.xpt**", "score": 0.69, "match_basis": "verbatim_token+global_search"}, {"md_atom_id": "md_ch04_a918", "md_file": "knowledge_base/chapters/ch04_general_assumptions.md", "md_atom_type": "CODE_LITERAL", "md_parent_section": "§4.5.3.2 [Text Strings Greater than 200 Characters in Other Variables]", "md_verbatim": "suppmh.xpt", "score": 0.49, "match_basis": "verbatim_token+global_search"}, {"md_atom_id": "md_ch04_a922", "md_file": "knowledge_base/chapters/ch04_general_assumptions.md", "md_atom_type": "SENTENCE", "md_parent_section": "§4.5.3.2 [Text Strings Greater than 200 Characters in Other Variables]", "md_verbatim": "suppmh.xpt:", "score": 0.49, "match_basis": "verbatim_token+global_search"}, {"md_atom_id": "md_dmCE_ex_a083", "md_file": "knowledge_base/domains/CE/examples.md", "md_atom_type": "SENTENCE", "md_parent_section": "§CE.3 [Example 3]", "md_verbatim": "**suppmh.xpt**", "score": 0.49, "match_basis": "verbatim_token+global_search"}, {"md_atom_id": "md_dmFA_ex_a079", "md_file": "knowledge_base/domains/FA/examples.md", "md_atom_type": "SENTENCE", "md_parent_section": "§FA.3 [Example 3]", "md_verbatim": "**suppmh.xpt**", "score": 0.49, "match_basis": "verbatim_token+global_search"}, {"md_atom_id": "md_dmMB_ex_a063", "md_file": "knowledge_base/domains/MB/examples.md", "md_atom_type": "SENTENCE", "md_parent_section": "§MB.2 [Example 2]", "md_verbatim": "**suppmb.xpt**", "score": 0.49, "match_basis": "verbatim_token+global_search"}, {"md_atom_id": "md_dmMB_ex_a141", "md_file": "knowledge_base/domains/MB/examples.md", "md_atom_type": "SENTENCE", "md_parent_section": "§MB.3 [Example 3]", "md_verbatim": "**suppmb.xpt**", "score": 0.49, "match_basis": "verbatim_token+global_search"}, {"md_atom_id": "md_dmMI_ex_a029", "md_file": "knowledge_base/domains/MI/examples.md", "md_atom_type": "SENTENCE", "md_parent_section": "§MI.2 [Example 2]", "md_verbatim": "**suppmi.xpt**", "score": 0.49, "match_basis": "verbatim_token+global_search"}, {"md_atom_id": "md_dmMI_ex_a047", "md_file": "knowledge_base/domains/MI/examples.md", "md_atom_type": "SENTENCE", "md_parent_section": "§MI.3 [Example 3]", "md_verbatim": "**suppmi.xpt**", "score": 0.49, "match_basis": "verbatim_token+global_search"}, {"md_atom_id": "md_dmPP_ex_a035", "md_file": "knowledge_base/domains/PP/examples.md", "md_atom_type": "SENTENCE", "md_parent_section": "§PP.1 [Example 1]", "md_verbatim": "**supppp.xpt**", "score": 0.39, "match_basis": "verbatim_token+global_search"}], "candidate_count": 10, "zero_candidate": false}
{"pdf_atom_id": "ig34_p0262_a028", "pdf_atom_type": "TABLE_HEADER", "pdf_source": "SDTMIG_v3.4", "pdf_page": 262, "pdf_parent_section": "§6.3.5.7 Microbiology Domains", "pdf_verbatim": "Row | STUDYID | RDOMAIN | USUBJID | IDVAR | IDVARVAL | QNAM | QLABEL | QVAL | QORIG", "figure_ref": null, "candidates": [{"md_atom_id": "md_ch04_a923", "md_file": "knowledge_base/chapters/ch04_general_assumptions.md", "md_atom_type": "TABLE_HEADER", "md_parent_section": "§4.5.3.2 [Text Strings Greater than 200 Characters in Other Variables]", "md_verbatim": "| Row | STUDYID | RDOMAIN | USUBJID | IDVAR | IDVARVAL | QNAM | QLABEL | QVAL | QORIG |\n|-----|---------|---------|---------|-------|----------|------|--------|------|-------|", "score": 0.9, "match_basis": "verbatim_token+global_search"}, {"md_atom_id": "md_ch04_a933", "md_file": "knowledge_base/chapters/ch04_general_assumptions.md", "md_atom_type": "TABLE_HEADER", "md_parent_section": "§4.5.3.2 [Text Strings Greater than 200 Characters in Other Variables]", "md_verbatim": "| Row | STUDYID | RDOMAIN | USUBJID | IDVAR | IDVARVAL | QNAM | QLABEL | QVAL | QORIG |\n|-----|---------|---------|---------|-------|----------|------|--------|------|-------|", "score": 0.9, "match_basis": "verbatim_token+global_search"}, {"md_atom_id": "md_ch04_a942", "md_file": "knowledge_base/chapters/ch04_general_assumptions.md", "md_atom_type": "TABLE_HEADER", "md_parent_section": "§4.5.3.2 [Text Strings Greater than 200 Characters in Other Variables]", "md_verbatim": "| Row | STUDYID | RDOMAIN | USUBJID | IDVAR | IDVARVAL | QNAM | QLABEL | QVAL | QORIG |\n|-----|---------|---------|---------|-------|----------|------|--------|------|-------|", "score": 0.9, "match_basis": "verbatim_token+global_search"}, {"md_atom_id": "md_ch04_a985", "md_file": "knowledge_base/chapters/ch04_general_assumptions.md", "md_atom_type": "TABLE_HEADER", "md_parent_section": "§4.5.6 [Supplemental Reason Variables]", "md_verbatim": "| Row | STUDYID | RDOMAIN | USUBJID | IDVAR | IDVARVAL | QNAM | QLABEL | QVAL | QORIG |\n|-----|---------|---------|---------|-------|----------|------|--------|------|-------|", "score": 0.9, "match_basis": "verbatim_token+global_search"}, {"md_atom_id": "md_dmMB_ex_a041", "md_file": "knowledge_base/domains/MB/examples.md", "md_atom_type": "TABLE_HEADER", "md_parent_section": "§MB.2 [Example 2]", "md_verbatim": "| Row | STUDYID | RDOMAIN | USUBJID | IDVAR | IDVARVAL | QNAM | QLABEL | QVAL | QORIG |\n|-----|---------|---------|---------|-------|----------|------|--------|------|-------|", "score": 0.9, "match_basis": "verbatim_token+global_search"}], "candidate_count": 5, "zero_candidate": false}
{"pdf_atom_id": "ig34_p0262_a029", "pdf_atom_type": "TABLE_ROW", "pdf_source": "SDTMIG_v3.4", "pdf_page": 262, "pdf_parent_section": "§6.3.5.7 Microbiology Domains", "pdf_verbatim": "1 | ABC | MS | ABC-01-101 | MBREFID | 100.4 | MSMEDTYPE | Medium Type | LOWENSTEIN-JENSEN | Collected", "figure_ref": null, "candidates": [{"md_atom_id": "md_dmMS_ex_a050", "md_file": "knowledge_base/domains/MS/examples.md", "md_atom_type": "TABLE_ROW", "md_parent_section": "§MS.3 [Example 3]", "md_verbatim": "| 1 | ABC | MS | ABC-01-101 | MBREFID | 100.4 | MSMEDTYPE | Medium Type | LOWENSTEIN-JENSEN | Collected |", "score": 0.9, "match_basis": "verbatim_token+global_search"}, {"md_atom_id": "md_dmMS_ex_a051", "md_file": "knowledge_base/domains/MS/examples.md", "md_atom_type": "TABLE_ROW", "md_parent_section": "§MS.3 [Example 3]", "md_verbatim": "| 2 | ABC | MS | ABC-01-101 | MBREFID | 100.5 | MSMEDTYPE | Medium Type | LOWENSTEIN-JENSEN | Collected |", "score": 0.9, "match_basis": "verbatim_token+global_search"}, {"md_atom_id": "md_dmMB_ex_a146", "md_file": "knowledge_base/domains/MB/examples.md", "md_atom_type": "TABLE_ROW", "md_parent_section": "§MB.3 [Example 3]", "md_verbatim": "| 4 | ABC | MB | ABC-01-101 | MBREFID | 100.3 | MBMEDTYP | Medium Type | MIDDLEBROOK 7H10 AGAR | Collected |", "score": 0.5706, "match_basis": "verbatim_token+global_search"}, {"md_atom_id": "md_dmBE_ex_a082", "md_file": "knowledge_base/domains/BE/examples.md", "md_atom_type": "TABLE_ROW", "md_parent_section": "§BE.2 [Example 2]", "md_verbatim": "| 3 | 3441271 | BE | MU-298 | BEREFID | 298R1-1R0 | BESPEC | Specimen Type | RNA | Collected | |", "score": 0.4286, "match_basis": "verbatim_token+global_search"}, {"md_atom_id": "md_dmBE_ex_a083", "md_file": "knowledge_base/domains/BE/examples.md", "md_atom_type": "TABLE_ROW", "md_parent_section": "§BE.2 [Example 2]", "md_verbatim": "| 4 | 3441271 | BE | MU-298 | BEREFID | 298R1-1R1 | BESPEC | Specimen Type | RNA | Collected | |", "score": 0.4286, "match_basis": "verbatim_token+global_search"}], "candidate_count": 5, "zero_candidate": false}
{"pdf_atom_id": "ig34_p0262_a030", "pdf_atom_type": "TABLE_ROW", "pdf_source": "SDTMIG_v3.4", "pdf_page": 262, "pdf_parent_section": "§6.3.5.7 Microbiology Domains", "pdf_verbatim": "2 | ABC | MS | ABC-01-101 | MBREFID | 100.5 | MSMEDTYPE | Medium Type | LOWENSTEIN-JENSEN | Collected", "figure_ref": null, "candidates": [{"md_atom_id": "md_dmMS_ex_a050", "md_file": "knowledge_base/domains/MS/examples.md", "md_atom_type": "TABLE_ROW", "md_parent_section": "§MS.3 [Example 3]", "md_verbatim": "| 1 | ABC | MS | ABC-01-101 | MBREFID | 100.4 | MSMEDTYPE | Medium Type | LOWENSTEIN-JENSEN | Collected |", "score": 0.9, "match_basis": "verbatim_token+global_search"}, {"md_atom_id": "md_dmMS_ex_a051", "md_file": "knowledge_base/domains/MS/examples.md", "md_atom_type": "TABLE_ROW", "md_parent_section": "§MS.3 [Example 3]", "md_verbatim": "| 2 | ABC | MS | ABC-01-101 | MBREFID | 100.5 | MSMEDTYPE | Medium Type | LOWENSTEIN-JENSEN | Collected |", "score": 0.9, "match_basis": "verbatim_token+global_search"}, {"md_atom_id": "md_dmMB_ex_a146", "md_file": "knowledge_base/domains/MB/examples.md", "md_atom_type": "TABLE_ROW", "md_parent_section": "§MB.3 [Example 3]", "md_verbatim": "| 4 | ABC | MB | ABC-01-101 | MBREFID | 100.3 | MBMEDTYP | Medium Type | MIDDLEBROOK 7H10 AGAR | Collected |", "score": 0.5706, "match_basis": "verbatim_token+global_search"}, {"md_atom_id": "md_dmBE_ex_a082", "md_file": "knowledge_base/domains/BE/examples.md", "md_atom_type": "TABLE_ROW", "md_parent_section": "§BE.2 [Example 2]", "md_verbatim": "| 3 | 3441271 | BE | MU-298 | BEREFID | 298R1-1R0 | BESPEC | Specimen Type | RNA | Collected | |", "score": 0.4286, "match_basis": "verbatim_token+global_search"}, {"md_atom_id": "md_dmBE_ex_a083", "md_file": "knowledge_base/domains/BE/examples.md", "md_atom_type": "TABLE_ROW", "md_parent_section": "§BE.2 [Example 2]", "md_verbatim": "| 4 | 3441271 | BE | MU-298 | BEREFID | 298R1-1R1 | BESPEC | Specimen Type | RNA | Collected | |", "score": 0.4286, "match_basis": "verbatim_token+global_search"}], "candidate_count": 5, "zero_candidate": false}
{"pdf_atom_id": "ig34_p0263_a001", "pdf_atom_type": "SENTENCE", "pdf_source": "SDTMIG_v3.4", "pdf_page": 263, "pdf_parent_section": "§6.3.5.7 Microbiology Domains", "pdf_verbatim": "Data about the device used (row 3 of the MB dataset example and rows 3-4 of the MS dataset example) can be represented in the DI domain if needed.", "figure_ref": null, "candidates": [{"md_atom_id": "md_dmCE_ex_a025", "md_file": "knowledge_base/domains/CE/examples.md", "md_atom_type": "SENTENCE", "md_parent_section": "§CE.2 [Example 2]", "md_verbatim": "These data are about the event as a whole, so they are represented in the CE domain.", "score": 0.5327, "match_basis": "verbatim_token+global_search"}, {"md_atom_id": "md_ch02_a028", "md_file": "knowledge_base/chapters/ch02_fundamentals.md", "md_atom_type": "SENTENCE", "md_parent_section": "§2.2 [Datasets and Domains]", "md_verbatim": "Each domain is represented by a single dataset.", "score": 0.5298, "match_basis": "verbatim_token+global_search"}, {"md_atom_id": "md_dmMK_ex_a009", "md_file": "knowledge_base/domains/MK/examples.md", "md_atom_type": "SENTENCE", "md_parent_section": "§MK.1 [Example 1]", "md_verbatim": "The data collected are represented in the MK domain.", "score": 0.5, "match_basis": "verbatim_token+global_search"}, {"md_atom_id": "md_dmMK_ex_a038", "md_file": "knowledge_base/domains/MK/examples.md", "md_atom_type": "SENTENCE", "md_parent_section": "§MK.2 [Example 2]", "md_verbatim": "The data collected are represented in the MK domain.", "score": 0.5, "match_basis": "verbatim_token+global_search"}, {"md_atom_id": "md_ch04_a072", "md_file": "knowledge_base/chapters/ch04_general_assumptions.md", "md_atom_type": "SENTENCE", "md_parent_section": "§4.1.7.1 [Example of Splitting Questionnaires]", "md_verbatim": "Each dataset represents a subset of the QS domain data and has only 1 value of QSCAT.", "score": 0.4929, "match_basis": "verbatim_token+global_search"}], "candidate_count": 5, "zero_candidate": false}
{"pdf_atom_id": "ig34_p0263_a002", "pdf_atom_type": "CODE_LITERAL", "pdf_source": "SDTMIG_v3.4", "pdf_page": 263, "pdf_parent_section": "§6.3.5.7 Microbiology Domains", "pdf_verbatim": "di.xpt", "figure_ref": null, "candidates": [{"md_atom_id": "md_ch04_a207", "md_file": "knowledge_base/chapters/ch04_general_assumptions.md", "md_atom_type": "CODE_LITERAL", "md_parent_section": "§4.2.3 [Use of \"Subject\" and USUBJID]", "md_verbatim": "dm.xpt:", "score": 0.69, "match_basis": "verbatim_token+global_search"}, {"md_atom_id": "md_ch04_a210", "md_file": "knowledge_base/chapters/ch04_general_assumptions.md", "md_atom_type": "CODE_LITERAL", "md_parent_section": "§4.2.3 [Use of \"Subject\" and USUBJID]", "md_verbatim": "dm.xpt:", "score": 0.69, "match_basis": "verbatim_token+global_search"}, {"md_atom_id": "md_dmCM_ex_a010", "md_file": "knowledge_base/domains/CM/examples.md", "md_atom_type": "NOTE", "md_parent_section": "§CM.1 [Example 1]", "md_verbatim": "**cm.xpt**", "score": 0.69, "match_basis": "verbatim_token+global_search"}, {"md_atom_id": "md_dmCM_ex_a025", "md_file": "knowledge_base/domains/CM/examples.md", "md_atom_type": "NOTE", "md_parent_section": "§CM.2 [Example 2]", "md_verbatim": "**cm.xpt**", "score": 0.69, "match_basis": "verbatim_token+global_search"}, {"md_atom_id": "md_dmCM_ex_a042", "md_file": "knowledge_base/domains/CM/examples.md", "md_atom_type": "NOTE", "md_parent_section": "§CM.3 [Example 3]", "md_verbatim": "**cm.xpt**", "score": 0.69, "match_basis": "verbatim_token+global_search"}, {"md_atom_id": "md_dmCM_ex_a052", "md_file": "knowledge_base/domains/CM/examples.md", "md_atom_type": "NOTE", "md_parent_section": "§CM.4 [Example 4]", "md_verbatim": "**cm.xpt**", "score": 0.69, "match_basis": "verbatim_token+global_search"}, {"md_atom_id": "md_dmCM_ex_a070", "md_file": "knowledge_base/domains/CM/examples.md", "md_atom_type": "NOTE", "md_parent_section": "§CM.5 [Example 5]", "md_verbatim": "**cm.xpt**", "score": 0.69, "match_basis": "verbatim_token+global_search"}, {"md_atom_id": "md_ch04_a368", "md_file": "knowledge_base/chapters/ch04_general_assumptions.md", "md_atom_type": "CODE_LITERAL", "md_parent_section": "§4.2.8.3 [Multiple Values for a Non-result Qualifier Variable]", "md_verbatim": "ae.xpt:", "score": 0.69, "match_basis": "verbatim_token+global_search"}, {"md_atom_id": "md_ch04_a378", "md_file": "knowledge_base/chapters/ch04_general_assumptions.md", "md_atom_type": "CODE_LITERAL", "md_parent_section": "§4.2.8.3 [Multiple Values for a Non-result Qualifier Variable]", "md_verbatim": "ae.xpt:", "score": 0.69, "match_basis": "verbatim_token+global_search"}, {"md_atom_id": "md_ch04_a391", "md_file": "knowledge_base/chapters/ch04_general_assumptions.md", "md_atom_type": "CODE_LITERAL", "md_parent_section": "§4.2.8.3 [Multiple Values for a Non-result Qualifier Variable]", "md_verbatim": "ae.xpt:", "score": 0.69, "match_basis": "verbatim_token+global_search"}], "candidate_count": 10, "zero_candidate": false}
{"pdf_atom_id": "ig34_p0263_a003", "pdf_atom_type": "TABLE_HEADER", "pdf_source": "SDTMIG_v3.4", "pdf_page": 263, "pdf_parent_section": "§6.3.5.7 Microbiology Domains", "pdf_verbatim": "Row | STUDYID | DOMAIN | SPDEVID | DISEQ | DIPARMCD | DIPARM | DIVAL", "figure_ref": null, "candidates": [{"md_atom_id": "md_dmAG_ex_a047", "md_file": "knowledge_base/domains/AG/examples.md", "md_atom_type": "TABLE_HEADER", "md_parent_section": "§AG.2 [Example 2]", "md_verbatim": "| Row | STUDYID | DOMAIN | SPDEVID | DISEQ | DIPARMCD | DIPARM | DIVAL |\n|-----|---------|--------|---------|-------|----------|--------|-------|", "score": 0.9, "match_basis": "verbatim_token+global_search"}, {"md_atom_id": "md_dmGF_ex_a026", "md_file": "knowledge_base/domains/GF/examples.md", "md_atom_type": "TABLE_HEADER", "md_parent_section": "§GF.1 [Example 1]", "md_verbatim": "| Row | STUDYID | DOMAIN | SPDEVID | DISEQ | DIPARMCD | DIPARM | DIVAL |\n|-----|---------|--------|---------|-------|----------|--------|-------|", "score": 0.9, "match_basis": "verbatim_token+global_search"}, {"md_atom_id": "md_dmGF_ex_a068", "md_file": "knowledge_base/domains/GF/examples.md", "md_atom_type": "TABLE_HEADER", "md_parent_section": "§GF.3 [Example 3]", "md_verbatim": "| Row | STUDYID | DOMAIN | SPDEVID | DISEQ | DIPARMCD | DIPARM | DIVAL |\n|-----|---------|--------|---------|-------|----------|--------|-------|", "score": 0.9, "match_basis": "verbatim_token+global_search"}, {"md_atom_id": "md_dmOE_ex_a072", "md_file": "knowledge_base/domains/OE/examples.md", "md_atom_type": "TABLE_HEADER", "md_parent_section": "§OE.3 [Example 3]", "md_verbatim": "| Row | STUDYID | DOMAIN | SPDEVID | DISEQ | DIPARMCD | DIPARM | DIVAL |\n|-----|---------|--------|---------|-------|----------|--------|-------|", "score": 0.9, "match_basis": "verbatim_token+global_search"}, {"md_atom_id": "md_dmRE_ex_a017", "md_file": "knowledge_base/domains/RE/examples.md", "md_atom_type": "TABLE_HEADER", "md_parent_section": "§RE.1 [Example 1]", "md_verbatim": "| Row | STUDYID | DOMAIN | SPDEVID | DISEQ | DIPARMCD | DIPARM | DIVAL |\n|-----|---------|--------|---------|-------|----------|--------|-------|", "score": 0.9, "match_basis": "verbatim_token+global_search"}], "candidate_count": 5, "zero_candidate": false}
{"pdf_atom_id": "ig34_p0263_a004", "pdf_atom_type": "TABLE_ROW", "pdf_source": "SDTMIG_v3.4", "pdf_page": 263, "pdf_parent_section": "§6.3.5.7 Microbiology Domains", "pdf_verbatim": "1 | ABC | DI | ABC765 | 1 | DEVTYPE | Device Type | NUCLEIC ACID AMPLIFICATION TEST", "figure_ref": null, "candidates": [{"md_atom_id": "md_dmMB_ex_a137", "md_file": "knowledge_base/domains/MB/examples.md", "md_atom_type": "TABLE_ROW", "md_parent_section": "§MB.3 [Example 3]", "md_verbatim": "| 3 | ABC | MB | ABC-01-101 | ABC765 | 3 | | 100.2 | | MTBCMPLX | Mycobacterium Tuberculosis Complex | DETECTION | PRESENT | Ord | PRESENT | | | | LAVAGE FLUID | STOMACH | NUCLEIC ACID AMPLIFICATION TEST | 1 | WEEK 1 | 2011-01-17T06:00 |", "score": 0.4532, "match_basis": "verbatim_token+global_search"}, {"md_atom_id": "md_dmMS_ex_a047", "md_file": "knowledge_base/domains/MS/examples.md", "md_atom_type": "TABLE_ROW", "md_parent_section": "§MS.3 [Example 3]", "md_verbatim": "| 4 | ABC | MS | ABC-01-101 | ABC765 | MYCOBACTERIUM TUBERCULOSIS | 4 | 100.2 | | MICROSUS | Microbial Susceptibility | Isoniazid | | | SUSCEPTIBLE | SUSCEPTIBLE | LAVAGE FLUID | STOMACH | NUCLEIC ACID AMPLIFICATION TEST | 2011-01-17T06:00 |", "score": 0.4412, "match_basis": "verbatim_token+global_search"}, {"md_atom_id": "md_dmGF_ex_a088", "md_file": "knowledge_base/domains/GF/examples.md", "md_atom_type": "TABLE_ROW", "md_parent_section": "§GF.5 [Example 5]", "md_verbatim": "| 1 | INFLU122 | MB | INF01-01 | 1 | INFLU0101.1 | MCORGIDN | Microbial Organism Identification | INFLUENZA A VIRUS SUBTYPE | INFLUENZA A VIRUS SUBTYPE H3N2 | MUCUS | NOSTRIL | NUCLEIC ACID AMPLIFICATION TEST | 1 | BASELINE | 2020-06-11 |", "score": 0.4389, "match_basis": "verbatim_token+global_search"}, {"md_atom_id": "md_dmMS_ex_a046", "md_file": "knowledge_base/domains/MS/examples.md", "md_atom_type": "TABLE_ROW", "md_parent_section": "§MS.3 [Example 3]", "md_verbatim": "| 3 | ABC | MS | ABC-01-101 | ABC765 | MYCOBACTERIUM TUBERCULOSIS | 3 | 100.2 | | MICROSUS | Microbial Susceptibility | Rifampicin | | | RESISTANT | RESISTANT | LAVAGE FLUID | STOMACH | NUCLEIC ACID AMPLIFICATION TEST | 2011-01-17T06:00 |", "score": 0.4358, "match_basis": "verbatim_token+global_search"}, {"md_atom_id": "md_dmGF_ex_a027", "md_file": "knowledge_base/domains/GF/examples.md", "md_atom_type": "TABLE_ROW", "md_parent_section": "§GF.1 [Example 1]", "md_verbatim": "| 1 | ABC-123 | DI | ACME GenePanel 500 | 1 | DEVTYPE | Device Type | Gene Panel |", "score": 0.4256, "match_basis": "verbatim_token+global_search"}], "candidate_count": 5, "zero_candidate": false}
{"pdf_atom_id": "ig34_p0263_a005", "pdf_atom_type": "TABLE_ROW", "pdf_source": "SDTMIG_v3.4", "pdf_page": 263, "pdf_parent_section": "§6.3.5.7 Microbiology Domains", "pdf_verbatim": "2 | ABC | DI | ABC765 | 2 | TRADENAM | Trade Name | HAIN GENOTYPE MTBDRplus", "figure_ref": null, "candidates": [{"md_atom_id": "md_dmOI_ex_a022", "md_file": "knowledge_base/domains/OI/examples.md", "md_atom_type": "TABLE_ROW", "md_parent_section": "§OI.1 [Example 1]", "md_verbatim": "| 13 | STUDY123 | OI | H77 | 2 | GENTYP | Genotype | 1 |", "score": 0.4029, "match_basis": "verbatim_token+global_search"}, {"md_atom_id": "md_dmOI_ex_a019", "md_file": "knowledge_base/domains/OI/examples.md", "md_atom_type": "TABLE_ROW", "md_parent_section": "§OI.1 [Example 1]", "md_verbatim": "| 10 | STUDY123 | OI | HCV2C | 2 | GENTYP | Genotype | 2 |", "score": 0.3973, "match_basis": "verbatim_token+global_search"}, {"md_atom_id": "md_ch10_a214", "md_file": "knowledge_base/chapters/ch10_appendices.md", "md_atom_type": "TABLE_ROW", "md_parent_section": "§10.E [Revision History]", "md_verbatim": "| 6.3.5.3 | Cell Phenotype Findings (CP) | This is a new domain |", "score": 0.3857, "match_basis": "verbatim_token+global_search"}, {"md_atom_id": "md_ch10_a156", "md_file": "knowledge_base/chapters/ch10_appendices.md", "md_atom_type": "TABLE_ROW", "md_parent_section": "§10.E [Revision History]", "md_verbatim": "| CP | Cell Phenotyping Findings |", "score": 0.3632, "match_basis": "verbatim_token+global_search"}, {"md_atom_id": "md_index_a056", "md_file": "knowledge_base/INDEX.md", "md_atom_type": "TABLE_ROW", "md_parent_section": "§ Domains (63 domains)", "md_verbatim": "| [CP](domains/CP/) | Cell Phenotype Findings | [spec](domains/CP/spec.md) · [assumptions](domains/CP/assumptions.md) · [examples](domains/CP/examples.md) |", "score": 0.3632, "match_basis": "verbatim_token+global_search"}], "candidate_count": 5, "zero_candidate": false}
{"pdf_atom_id": "ig34_p0263_a006", "pdf_atom_type": "SENTENCE", "pdf_source": "SDTMIG_v3.4", "pdf_page": 263, "pdf_parent_section": "§6.3.5.7 Microbiology Domains", "pdf_verbatim": "The RELREC table shows how culture start and end dates from BE were linked to the culture results in MB and MS using --LNKID and --LNKGRP. It also shows how the detection record (MB) was linked to the susceptibility results (MS) from the NAAT, using --REFID.", "figure_ref": null, "candidates": [{"md_atom_id": "md_dmMB_ex_a083", "md_file": "knowledge_base/domains/MB/examples.md", "md_atom_type": "SENTENCE", "md_parent_section": "§MB.3 [Example 3]", "md_verbatim": "**Rows 7-9:** Show that 3 of the aliquots (100.3, 100.4, and 100.5) were cultured for detection (row 7) and tested for drug susceptibility (rows 8 and 9). The inoculation and read dates of a culture should be represented in BESTDTC and BEENDTC, respectively. These dates can be linked to the culture results in MB and MS using BELNKID, MBLNKGRP, and MSLNKID.", "score": 0.5364, "match_basis": "verbatim_token+global_search"}, {"md_atom_id": "md_dmMB_ex_a079", "md_file": "knowledge_base/domains/MB/examples.md", "md_atom_type": "SENTENCE", "md_parent_section": "§MB.3 [Example 3]", "md_verbatim": "--LNKID and --LNKGRP are used to link culture start and stop dates (BE) with culture results in MB and MS.", "score": 0.4756, "match_basis": "verbatim_token+global_search"}, {"md_atom_id": "md_dmMB_ex_a071", "md_file": "knowledge_base/domains/MB/examples.md", "md_atom_type": "SENTENCE", "md_parent_section": "§MB.3 [Example 3]", "md_verbatim": "The susceptibility results from both the nucleic acid amplification test (NAAT) and the solid culture are represented in the MS domain.", "score": 0.4636, "match_basis": "verbatim_token+global_search"}, {"md_atom_id": "md_dmMS_ex_a040", "md_file": "knowledge_base/domains/MS/examples.md", "md_atom_type": "SENTENCE", "md_parent_section": "§MS.3 [Example 3]", "md_verbatim": "**Rows 1-2:** Show phenotypic testing results on 2 separate culture plates: 1 with medium containing rifampicin (row 1) and 1 with medium containing isoniazid (row 2). MSAGENT is populated with the name of the drug being used in the susceptibility test. The variables MSCONC and MSCONCU represent the concentration and units of the drug being used. The culture start and stop dates are represented in BE and can be linked to MS by BELNKID and MSLNKID.", "score": 0.4553, "match_basis": "verbatim_token+global_search"}, {"md_atom_id": "md_dmMB_ex_a003", "md_file": "knowledge_base/domains/MB/examples.md", "md_atom_type": "SENTENCE", "md_parent_section": "§MB [MB — Examples]", "md_verbatim": "MB-specific data tables are shown here; see also MS examples for susceptibility data from the same studies.*", "score": 0.444, "match_basis": "verbatim_token+global_search"}], "candidate_count": 5, "zero_candidate": false}
{"pdf_atom_id": "ig34_p0263_a007", "pdf_atom_type": "CODE_LITERAL", "pdf_source": "SDTMIG_v3.4", "pdf_page": 263, "pdf_parent_section": "§6.3.5.7 Microbiology Domains", "pdf_verbatim": "relrec.xpt", "figure_ref": null, "candidates": [{"md_atom_id": "md_ch04_a062", "md_file": "knowledge_base/chapters/ch04_general_assumptions.md", "md_atom_type": "SENTENCE", "md_parent_section": "§4.1.7 [Splitting Domains]", "md_verbatim": "**relrec.xpt**", "score": 0.69, "match_basis": "verbatim_token+global_search"}, {"md_atom_id": "md_ch08_a085", "md_file": "knowledge_base/chapters/ch08_relationships.md", "md_atom_type": "SENTENCE", "md_parent_section": "§8.2.2 [RELREC Dataset Examples]", "md_verbatim": "relrec.xpt:", "score": 0.69, "match_basis": "verbatim_token+global_search"}, {"md_atom_id": "md_ch08_a094", "md_file": "knowledge_base/chapters/ch08_relationships.md", "md_atom_type": "SENTENCE", "md_parent_section": "§8.2.2 [RELREC Dataset Examples]", "md_verbatim": "relrec.xpt:", "score": 0.69, "match_basis": "verbatim_token+global_search"}, {"md_atom_id": "md_ch08_a102", "md_file": "knowledge_base/chapters/ch08_relationships.md", "md_atom_type": "SENTENCE", "md_parent_section": "§8.2.2 [RELREC Dataset Examples]", "md_verbatim": "relrec.xpt:", "score": 0.69, "match_basis": "verbatim_token+global_search"}, {"md_atom_id": "md_ch08_a116", "md_file": "knowledge_base/chapters/ch08_relationships.md", "md_atom_type": "SENTENCE", "md_parent_section": "§8.3.1 [RELREC Dataset Relationship Example]", "md_verbatim": "relrec.xpt:", "score": 0.69, "match_basis": "verbatim_token+global_search"}, {"md_atom_id": "md_dmAG_ex_a050", "md_file": "knowledge_base/domains/AG/examples.md", "md_atom_type": "SENTENCE", "md_parent_section": "§AG.2 [Example 2]", "md_verbatim": "**relrec.xpt**", "score": 0.69, "match_basis": "verbatim_token+global_search"}, {"md_atom_id": "md_dmBE_ex_a040", "md_file": "knowledge_base/domains/BE/examples.md", "md_atom_type": "SENTENCE", "md_parent_section": "§BE.1 [Example 1]", "md_verbatim": "**relrec.xpt**", "score": 0.69, "match_basis": "verbatim_token+global_search"}, {"md_atom_id": "md_dmBE_ex_a111", "md_file": "knowledge_base/domains/BE/examples.md", "md_atom_type": "SENTENCE", "md_parent_section": "§BE.2 [Example 2]", "md_verbatim": "**relrec.xpt**", "score": 0.69, "match_basis": "verbatim_token+global_search"}, {"md_atom_id": "md_dmCE_ex_a121", "md_file": "knowledge_base/domains/CE/examples.md", "md_atom_type": "SENTENCE", "md_parent_section": "§CE.3 [Example 3]", "md_verbatim": "**relrec.xpt**", "score": 0.69, "match_basis": "verbatim_token+global_search"}, {"md_atom_id": "md_dmDD_ex_a034", "md_file": "knowledge_base/domains/DD/examples.md", "md_atom_type": "SENTENCE", "md_parent_section": "§DD.2 [Example 2]", "md_verbatim": "**relrec.xpt**", "score": 0.69, "match_basis": "verbatim_token+global_search"}], "candidate_count": 10, "zero_candidate": false}
{"pdf_atom_id": "ig34_p0263_a008", "pdf_atom_type": "TABLE_HEADER", "pdf_source": "SDTMIG_v3.4", "pdf_page": 263, "pdf_parent_section": "§6.3.5.7 Microbiology Domains", "pdf_verbatim": "Row | STUDYID | RDOMAIN | USUBJID | IDVAR | IDVARVAL | RELTYPE | RELID", "figure_ref": null, "candidates": [{"md_atom_id": "md_ch04_a063", "md_file": "knowledge_base/chapters/ch04_general_assumptions.md", "md_atom_type": "TABLE_HEADER", "md_parent_section": "§4.1.7 [Splitting Domains]", "md_verbatim": "| Row | STUDYID | RDOMAIN | USUBJID | IDVAR | IDVARVAL | RELTYPE | RELID |\n|-----|---------|---------|---------|-------|----------|---------|-------|", "score": 0.9, "match_basis": "verbatim_token+global_search"}, {"md_atom_id": "md_ch08_a086", "md_file": "knowledge_base/chapters/ch08_relationships.md", "md_atom_type": "TABLE_HEADER", "md_parent_section": "§8.2.2 [RELREC Dataset Examples]", "md_verbatim": "| Row | STUDYID | RDOMAIN | USUBJID | IDVAR | IDVARVAL | RELTYPE | RELID |\n|-----|---------|---------|---------|-------|----------|---------|-------|", "score": 0.9, "match_basis": "verbatim_token+global_search"}, {"md_atom_id": "md_ch08_a095", "md_file": "knowledge_base/chapters/ch08_relationships.md", "md_atom_type": "TABLE_HEADER", "md_parent_section": "§8.2.2 [RELREC Dataset Examples]", "md_verbatim": "| Row | STUDYID | RDOMAIN | USUBJID | IDVAR | IDVARVAL | RELTYPE | RELID |\n|-----|---------|---------|---------|-------|----------|---------|-------|", "score": 0.9, "match_basis": "verbatim_token+global_search"}, {"md_atom_id": "md_ch08_a103", "md_file": "knowledge_base/chapters/ch08_relationships.md", "md_atom_type": "TABLE_HEADER", "md_parent_section": "§8.2.2 [RELREC Dataset Examples]", "md_verbatim": "| Row | STUDYID | RDOMAIN | USUBJID | IDVAR | IDVARVAL | RELTYPE | RELID |\n|-----|---------|---------|---------|-------|----------|---------|-------|", "score": 0.9, "match_basis": "verbatim_token+global_search"}, {"md_atom_id": "md_ch08_a117", "md_file": "knowledge_base/chapters/ch08_relationships.md", "md_atom_type": "TABLE_HEADER", "md_parent_section": "§8.3.1 [RELREC Dataset Relationship Example]", "md_verbatim": "| Row | STUDYID | RDOMAIN | USUBJID | IDVAR | IDVARVAL | RELTYPE | RELID |\n|-----|---------|---------|---------|-------|----------|---------|-------|", "score": 0.9, "match_basis": "verbatim_token+global_search"}], "candidate_count": 5, "zero_candidate": false}
{"pdf_atom_id": "ig34_p0263_a009", "pdf_atom_type": "TABLE_ROW", "pdf_source": "SDTMIG_v3.4", "pdf_page": 263, "pdf_parent_section": "§6.3.5.7 Microbiology Domains", "pdf_verbatim": "1 | ABC | BE | | BELNKID | | ONE | A", "figure_ref": null, "candidates": [{"md_atom_id": "md_dmEX_ex_a032", "md_file": "knowledge_base/domains/EX/examples.md", "md_atom_type": "TABLE_ROW", "md_parent_section": "§EX.1 [Example 1]", "md_verbatim": "| 1 | ABC | EC | | ECLNKID | | ONE | 1 |", "score": 0.6333, "match_basis": "verbatim_token+global_search"}, {"md_atom_id": "md_dmEX_ex_a033", "md_file": "knowledge_base/domains/EX/examples.md", "md_atom_type": "TABLE_ROW", "md_parent_section": "§EX.1 [Example 1]", "md_verbatim": "| 2 | ABC | EX | | EXLNKID | | ONE | 1 |", "score": 0.6333, "match_basis": "verbatim_token+global_search"}, {"md_atom_id": "md_dmEX_ex_a066", "md_file": "knowledge_base/domains/EX/examples.md", "md_atom_type": "TABLE_ROW", "md_parent_section": "§EX.2 [Example 2]", "md_verbatim": "| 2 | ABC | EX | | EXLNKID | | ONE | 1 |", "score": 0.6333, "match_basis": "verbatim_token+global_search"}, {"md_atom_id": "md_dmEX_ex_a143", "md_file": "knowledge_base/domains/EX/examples.md", "md_atom_type": "TABLE_ROW", "md_parent_section": "§EX.5 [Example 5]", "md_verbatim": "| 1 | ABC | EC | | ECLNKID | | ONE | 1 |", "score": 0.6333, "match_basis": "verbatim_token+global_search"}, {"md_atom_id": "md_dmEX_ex_a144", "md_file": "knowledge_base/domains/EX/examples.md", "md_atom_type": "TABLE_ROW", "md_parent_section": "§EX.5 [Example 5]", "md_verbatim": "| 2 | ABC | EX | | EXLNKID | | ONE | 1 |", "score": 0.6333, "match_basis": "verbatim_token+global_search"}], "candidate_count": 5, "zero_candidate": false}
{"pdf_atom_id": "ig34_p0263_a010", "pdf_atom_type": "TABLE_ROW", "pdf_source": "SDTMIG_v3.4", "pdf_page": 263, "pdf_parent_section": "§6.3.5.7 Microbiology Domains", "pdf_verbatim": "2 | ABC | MB | | MBLNKGRP | | MANY | A", "figure_ref": null, "candidates": [{"md_atom_id": "md_dmMB_ex_a026", "md_file": "knowledge_base/domains/MB/examples.md", "md_atom_type": "TABLE_ROW", "md_parent_section": "§MB.1 [Example 1]", "md_verbatim": "| 2 | ABC | MS | | MSLNKGRP | | MANY | A |", "score": 0.6818, "match_basis": "verbatim_token+global_search"}, {"md_atom_id": "md_dmEX_ex_a249", "md_file": "knowledge_base/domains/EX/examples.md", "md_atom_type": "TABLE_ROW", "md_parent_section": "§EX.7 [Example 7]", "md_verbatim": "| 4 | ABC123 | EC | | ECLNKGRP | | MANY | 2 |", "score": 0.6, "match_basis": "verbatim_token+global_search"}, {"md_atom_id": "md_dmEX_ex_a250", "md_file": "knowledge_base/domains/EX/examples.md", "md_atom_type": "TABLE_ROW", "md_parent_section": "§EX.7 [Example 7]", "md_verbatim": "| 5 | ABC123 | EX | | EXLNKGRP | | ONE | 2 |", "score": 0.5, "match_basis": "verbatim_token+global_search"}, {"md_atom_id": "md_dmEX_ex_a251", "md_file": "knowledge_base/domains/EX/examples.md", "md_atom_type": "TABLE_ROW", "md_parent_section": "§EX.7 [Example 7]", "md_verbatim": "| 6 | ABC123 | VS | | VSLNKGRP | | ONE | 2 |", "score": 0.5, "match_basis": "verbatim_token+global_search"}, {"md_atom_id": "md_dmMB_ex_a025", "md_file": "knowledge_base/domains/MB/examples.md", "md_atom_type": "TABLE_ROW", "md_parent_section": "§MB.1 [Example 1]", "md_verbatim": "| 1 | ABC | MB | | MBLNKID | | ONE | A |", "score": 0.5, "match_basis": "verbatim_token+global_search"}], "candidate_count": 5, "zero_candidate": false}
{"pdf_atom_id": "ig34_p0263_a011", "pdf_atom_type": "TABLE_ROW", "pdf_source": "SDTMIG_v3.4", "pdf_page": 263, "pdf_parent_section": "§6.3.5.7 Microbiology Domains", "pdf_verbatim": "3 | ABC | BE | | BELNKID | | ONE | B", "figure_ref": null, "candidates": [{"md_atom_id": "md_dmEX_ex_a032", "md_file": "knowledge_base/domains/EX/examples.md", "md_atom_type": "TABLE_ROW", "md_parent_section": "§EX.1 [Example 1]", "md_verbatim": "| 1 | ABC | EC | | ECLNKID | | ONE | 1 |", "score": 0.6333, "match_basis": "verbatim_token+global_search"}, {"md_atom_id": "md_dmEX_ex_a033", "md_file": "knowledge_base/domains/EX/examples.md", "md_atom_type": "TABLE_ROW", "md_parent_section": "§EX.1 [Example 1]", "md_verbatim": "| 2 | ABC | EX | | EXLNKID | | ONE | 1 |", "score": 0.6333, "match_basis": "verbatim_token+global_search"}, {"md_atom_id": "md_dmEX_ex_a066", "md_file": "knowledge_base/domains/EX/examples.md", "md_atom_type": "TABLE_ROW", "md_parent_section": "§EX.2 [Example 2]", "md_verbatim": "| 2 | ABC | EX | | EXLNKID | | ONE | 1 |", "score": 0.6333, "match_basis": "verbatim_token+global_search"}, {"md_atom_id": "md_dmEX_ex_a143", "md_file": "knowledge_base/domains/EX/examples.md", "md_atom_type": "TABLE_ROW", "md_parent_section": "§EX.5 [Example 5]", "md_verbatim": "| 1 | ABC | EC | | ECLNKID | | ONE | 1 |", "score": 0.6333, "match_basis": "verbatim_token+global_search"}, {"md_atom_id": "md_dmEX_ex_a144", "md_file": "knowledge_base/domains/EX/examples.md", "md_atom_type": "TABLE_ROW", "md_parent_section": "§EX.5 [Example 5]", "md_verbatim": "| 2 | ABC | EX | | EXLNKID | | ONE | 1 |", "score": 0.6333, "match_basis": "verbatim_token+global_search"}], "candidate_count": 5, "zero_candidate": false}
{"pdf_atom_id": "ig34_p0263_a012", "pdf_atom_type": "TABLE_ROW", "pdf_source": "SDTMIG_v3.4", "pdf_page": 263, "pdf_parent_section": "§6.3.5.7 Microbiology Domains", "pdf_verbatim": "4 | ABC | MS | | MSLNKID | | ONE | B", "figure_ref": null, "candidates": [{"md_atom_id": "md_dmGF_ex_a110", "md_file": "knowledge_base/domains/GF/examples.md", "md_atom_type": "TABLE_ROW", "md_parent_section": "§GF.5 [Example 5]", "md_verbatim": "| 2 | PS001 | MS | | MSLNKID | | ONE | 1 |", "score": 0.66, "match_basis": "verbatim_token+global_search"}, {"md_atom_id": "md_dmEX_ex_a032", "md_file": "knowledge_base/domains/EX/examples.md", "md_atom_type": "TABLE_ROW", "md_parent_section": "§EX.1 [Example 1]", "md_verbatim": "| 1 | ABC | EC | | ECLNKID | | ONE | 1 |", "score": 0.6333, "match_basis": "verbatim_token+global_search"}, {"md_atom_id": "md_dmEX_ex_a033", "md_file": "knowledge_base/domains/EX/examples.md", "md_atom_type": "TABLE_ROW", "md_parent_section": "§EX.1 [Example 1]", "md_verbatim": "| 2 | ABC | EX | | EXLNKID | | ONE | 1 |", "score": 0.6333, "match_basis": "verbatim_token+global_search"}, {"md_atom_id": "md_dmEX_ex_a066", "md_file": "knowledge_base/domains/EX/examples.md", "md_atom_type": "TABLE_ROW", "md_parent_section": "§EX.2 [Example 2]", "md_verbatim": "| 2 | ABC | EX | | EXLNKID | | ONE | 1 |", "score": 0.6333, "match_basis": "verbatim_token+global_search"}, {"md_atom_id": "md_dmEX_ex_a143", "md_file": "knowledge_base/domains/EX/examples.md", "md_atom_type": "TABLE_ROW", "md_parent_section": "§EX.5 [Example 5]", "md_verbatim": "| 1 | ABC | EC | | ECLNKID | | ONE | 1 |", "score": 0.6333, "match_basis": "verbatim_token+global_search"}], "candidate_count": 5, "zero_candidate": false}
{"pdf_atom_id": "ig34_p0263_a013", "pdf_atom_type": "TABLE_ROW", "pdf_source": "SDTMIG_v3.4", "pdf_page": 263, "pdf_parent_section": "§6.3.5.7 Microbiology Domains", "pdf_verbatim": "5 | ABC | MB | | MBREFID | | ONE | C", "figure_ref": null, "candidates": [{"md_atom_id": "md_varindex_a794", "md_file": "knowledge_base/VARIABLE_INDEX.md", "md_atom_type": "TABLE_ROW", "md_parent_section": "§ 二、领域专属变量（仅 1 个域，共 1499 个），按域分组", "md_verbatim": "| MBREFID | Reference ID | Char | Identifier | Perm | — |", "score": 0.42, "match_basis": "verbatim_token+global_search"}, {"md_atom_id": "md_dmBE_ex_a113", "md_file": "knowledge_base/domains/BE/examples.md", "md_atom_type": "TABLE_ROW", "md_parent_section": "§BE.2 [Example 2]", "md_verbatim": "| 1 | 3441271 | BE | | BEREFID | | MANY | 1 |", "score": 0.4125, "match_basis": "verbatim_token+global_search"}, {"md_atom_id": "md_dmBE_ex_a114", "md_file": "knowledge_base/domains/BE/examples.md", "md_atom_type": "TABLE_ROW", "md_parent_section": "§BE.2 [Example 2]", "md_verbatim": "| 2 | 3441271 | BS | | BSREFID | | MANY | 1 |", "score": 0.4125, "match_basis": "verbatim_token+global_search"}, {"md_atom_id": "md_ch04_a064", "md_file": "knowledge_base/chapters/ch04_general_assumptions.md", "md_atom_type": "TABLE_ROW", "md_parent_section": "§4.1.7 [Splitting Domains]", "md_verbatim": "| 1 | ABC | CM | | CMSPID | | ONE | 1 |", "score": 0.4091, "match_basis": "verbatim_token+global_search"}, {"md_atom_id": "md_dmCE_ex_a123", "md_file": "knowledge_base/domains/CE/examples.md", "md_atom_type": "TABLE_ROW", "md_parent_section": "§CE.3 [Example 3]", "md_verbatim": "| 1 | ABC | MH | | MHSPID | | ONE | 1 |", "score": 0.4091, "match_basis": "verbatim_token+global_search"}], "candidate_count": 5, "zero_candidate": false}
{"pdf_atom_id": "ig34_p0263_a014", "pdf_atom_type": "TABLE_ROW", "pdf_source": "SDTMIG_v3.4", "pdf_page": 263, "pdf_parent_section": "§6.3.5.7 Microbiology Domains", "pdf_verbatim": "6 | ABC | MS | | MSREFID | | MANY | C", "figure_ref": null, "candidates": [{"md_atom_id": "md_dmBE_ex_a114", "md_file": "knowledge_base/domains/BE/examples.md", "md_atom_type": "TABLE_ROW", "md_parent_section": "§BE.2 [Example 2]", "md_verbatim": "| 2 | 3441271 | BS | | BSREFID | | MANY | 1 |", "score": 0.5571, "match_basis": "verbatim_token+global_search"}, {"md_atom_id": "md_dmBE_ex_a113", "md_file": "knowledge_base/domains/BE/examples.md", "md_atom_type": "TABLE_ROW", "md_parent_section": "§BE.2 [Example 2]", "md_verbatim": "| 1 | 3441271 | BE | | BEREFID | | MANY | 1 |", "score": 0.5, "match_basis": "verbatim_token+global_search"}, {"md_atom_id": "md_dmCE_ex_a124", "md_file": "knowledge_base/domains/CE/examples.md", "md_atom_type": "TABLE_ROW", "md_parent_section": "§CE.3 [Example 3]", "md_verbatim": "| 2 | ABC | PR | | PRSPID | | MANY | 1 |", "score": 0.45, "match_basis": "verbatim_token+global_search"}, {"md_atom_id": "md_dmCE_ex_a126", "md_file": "knowledge_base/domains/CE/examples.md", "md_atom_type": "TABLE_ROW", "md_parent_section": "§CE.3 [Example 3]", "md_verbatim": "| 4 | ABC | PR | | PRSPID | | MANY | 2 |", "score": 0.45, "match_basis": "verbatim_token+global_search"}, {"md_atom_id": "md_dmFA_ex_a036", "md_file": "knowledge_base/domains/FA/examples.md", "md_atom_type": "TABLE_ROW", "md_parent_section": "§FA.1 [Example 1]", "md_verbatim": "| 2 | ABC | FA | | FASPID | | MANY | 1 |", "score": 0.45, "match_basis": "verbatim_token+global_search"}], "candidate_count": 5, "zero_candidate": false}
{"pdf_atom_id": "ig34_p0263_a015", "pdf_atom_type": "HEADING", "pdf_source": "SDTMIG_v3.4", "pdf_page": 263, "pdf_parent_section": "§6.3.5.7.3 Microbiology Specimen/Microbiology Susceptibility", "pdf_verbatim": "Example 4", "figure_ref": null, "candidates": [{"md_atom_id": "md_dmCM_ex_a002", "md_file": "knowledge_base/domains/CM/examples.md", "md_atom_type": "HEADING", "md_parent_section": "§CM.1 [Example 1]", "md_verbatim": "## Example 1", "score": 0.9, "match_basis": "verbatim_token+global_search"}, {"md_atom_id": "md_dmCM_ex_a022", "md_file": "knowledge_base/domains/CM/examples.md", "md_atom_type": "HEADING", "md_parent_section": "§CM.2 [Example 2]", "md_verbatim": "## Example 2", "score": 0.9, "match_basis": "verbatim_token+global_search"}, {"md_atom_id": "md_dmCM_ex_a029", "md_file": "knowledge_base/domains/CM/examples.md", "md_atom_type": "HEADING", "md_parent_section": "§CM.3 [Example 3]", "md_verbatim": "## Example 3", "score": 0.9, "match_basis": "verbatim_token+global_search"}, {"md_atom_id": "md_dmCM_ex_a047", "md_file": "knowledge_base/domains/CM/examples.md", "md_atom_type": "HEADING", "md_parent_section": "§CM.4 [Example 4]", "md_verbatim": "## Example 4", "score": 0.9, "match_basis": "verbatim_token+global_search"}, {"md_atom_id": "md_dmCM_ex_a060", "md_file": "knowledge_base/domains/CM/examples.md", "md_atom_type": "HEADING", "md_parent_section": "§CM.5 [Example 5]", "md_verbatim": "## Example 5", "score": 0.9, "match_basis": "verbatim_token+global_search"}, {"md_atom_id": "md_ch08_a292", "md_file": "knowledge_base/chapters/ch08_relationships.md", "md_atom_type": "HEADING", "md_parent_section": "§8.7 [Related Subjects (RELSUB)]", "md_verbatim": "### Example", "score": 0.9, "match_basis": "verbatim_token+global_search"}, {"md_atom_id": "md_ch08_a331", "md_file": "knowledge_base/chapters/ch08_relationships.md", "md_atom_type": "HEADING", "md_parent_section": "§8.8 [Related Specimens (RELSPEC)]", "md_verbatim": "### Example", "score": 0.9, "match_basis": "verbatim_token+global_search"}, {"md_atom_id": "md_dmAE_ex_a002", "md_file": "knowledge_base/domains/AE/examples.md", "md_atom_type": "HEADING", "md_parent_section": "§AE.1 [Example 1]", "md_verbatim": "## Example 1", "score": 0.9, "match_basis": "verbatim_token+global_search"}, {"md_atom_id": "md_dmAE_ex_a020", "md_file": "knowledge_base/domains/AE/examples.md", "md_atom_type": "HEADING", "md_parent_section": "§AE.2 [Example 2]", "md_verbatim": "## Example 2", "score": 0.9, "match_basis": "verbatim_token+global_search"}, {"md_atom_id": "md_dmAE_ex_a035", "md_file": "knowledge_base/domains/AE/examples.md", "md_atom_type": "HEADING", "md_parent_section": "§AE.3 [Example 3]", "md_verbatim": "## Example 3", "score": 0.9, "match_basis": "verbatim_token+global_search"}], "candidate_count": 10, "zero_candidate": false}
{"pdf_atom_id": "ig34_p0263_a016", "pdf_atom_type": "SENTENCE", "pdf_source": "SDTMIG_v3.4", "pdf_page": 263, "pdf_parent_section": "§6.3.5.7.3 Microbiology Specimen/Microbiology Susceptibility Examples", "pdf_verbatim": "When a culture has become contaminated, the sponsor may choose to report results despite the contamination. This example below how to flag results using a supplemental qualifier to indicate that the results are coming from a contaminated culture. This example also illustrates how to use Timing variables to represent an 8-hour pooled overnight sputum sample collection when the start and end times are collected. MBDTC is used to represent the start date/time of the overnight sputum collection and MBENDTC is used to represent the end date/time.", "figure_ref": null, "candidates": [{"md_atom_id": "md_ch04_a138", "md_file": "knowledge_base/chapters/ch04_general_assumptions.md", "md_atom_type": "SENTENCE", "md_parent_section": "§4.1.9 [Assigning Natural Keys in the Metadata]", "md_verbatim": "The following example illustrates how to do this, and include a case where a Supplemental Qualifier variable is referenced because it forms part of the natural key.", "score": 0.4613, "match_basis": "verbatim_token+global_search"}, {"md_atom_id": "md_dmMB_ex_a131", "md_file": "knowledge_base/domains/MB/examples.md", "md_atom_type": "SENTENCE", "md_parent_section": "§MB.3 [Example 3]", "md_verbatim": "**Row 5:** Shows a colony-forming unit (CFU) count from a solid culture. The MBORRES value represents the actual colony count from this plate. However, the sample that was spread on this plate represented a 100-fold dilution from the original subject sample. This information is represented in the Dilution Factor supplemental qualifier (MBDILFCT), whose value = 10^-2 (1/100th). In order to enable more straightforward pooling of CFU data, a simple integer result (14700) is used in MBSTRESC/N, and MBSTRESU=\"CFU/mL\". The medium type for the solid culture is also represented as a supplemental qualifier.", "score": 0.4563, "match_basis": "verbatim_token+global_search"}, {"md_atom_id": "md_dmLB_ex_a019", "md_file": "knowledge_base/domains/LB/examples.md", "md_atom_type": "SENTENCE", "md_parent_section": "§LB.2 [Example 2]", "md_verbatim": "This example illustrates the use of timing variables for pre- and post-dose timed urine collections.", "score": 0.4546, "match_basis": "verbatim_token+global_search"}, {"md_atom_id": "md_dmMB_ex_a081", "md_file": "knowledge_base/domains/MB/examples.md", "md_atom_type": "SENTENCE", "md_parent_section": "§MB.3 [Example 3]", "md_verbatim": "**Row 1:** Shows the event of specimen collection. This is the genesis of the sample identified by BEREFID=\"100\"; therefore, BEDTC and BESTDTC are the same. The specimen collection setting, collection method, and specimen type are represented using supplemental qualifiers. Even though the variable Specimen Type is available for use in Findings domains, it is not available for use in Events domains and thus it is represented as supplemental qualifier.", "score": 0.4514, "match_basis": "verbatim_token+global_search"}, {"md_atom_id": "md_dmMB_ex_a048", "md_file": "knowledge_base/domains/MB/examples.md", "md_atom_type": "SENTENCE", "md_parent_section": "§MB.2 [Example 2]", "md_verbatim": "**Rows 1-2:** Show that a gram stain was used on a subject sputum sample to identify the presence of gram negative cocci (row 1) and to quantify the bacteria (row 2). MBORRES in row 2 represents an ordinal result (MBRSLSCL = \"Ord\"), such as from a published quantification scale. This value decodes to \"FEW\" as shown in MBSTRESC. The quantification scale used is represented as Supplemental Qualifiers of MB.", "score": 0.4513, "match_basis": "verbatim_token+global_search"}], "candidate_count": 5, "zero_candidate": false}
{"pdf_atom_id": "ig34_p0263_a017", "pdf_atom_type": "LIST_ITEM", "pdf_source": "SDTMIG_v3.4", "pdf_page": 263, "pdf_parent_section": "§6.3.5.7.3 Microbiology Specimen/Microbiology Susceptibility Examples", "pdf_verbatim": "Row 1: Shows a test targeting the presence or absence of M. tuberculosis from a solid culture that has been contaminated (see SUPPMB).", "figure_ref": null, "candidates": [{"md_atom_id": "md_dmMB_assn_a014", "md_file": "knowledge_base/domains/MB/assumptions.md", "md_atom_type": "LIST_ITEM", "md_parent_section": "§MB [MB — Assumptions]", "md_verbatim": "   a. Culture dates can be connected to the MB record via MBREFID and BEREFID.", "score": 0.3825, "match_basis": "verbatim_token+global_search"}, {"md_atom_id": "md_dmMS_assn_a011", "md_file": "knowledge_base/domains/MS/assumptions.md", "md_atom_type": "LIST_ITEM", "md_parent_section": "§MS [MS — Assumptions]", "md_verbatim": "   a. Culture dates can be connected to the MS record via MSREFID and BEREFID.", "score": 0.3825, "match_basis": "verbatim_token+global_search"}, {"md_atom_id": "md_dmCP_assn_a010", "md_file": "knowledge_base/domains/CP/assumptions.md", "md_atom_type": "LIST_ITEM", "md_parent_section": "§CP [CP — Assumptions]", "md_verbatim": "      ii. It is expected that CPMRKSTR is populated, and that it contains the entire set of markers used to define the test, including those that are also present in CPSBMRKS and/or CPCSMRKS.", "score": 0.3769, "match_basis": "verbatim_token+global_search"}, {"md_atom_id": "md_dmAG_assn_a005", "md_file": "knowledge_base/domains/AG/assumptions.md", "md_atom_type": "LIST_ITEM", "md_parent_section": "§AG [AG — Assumptions]", "md_verbatim": "   c. The AG domain has advantages over the Procedures (PR) domain for this purpose. It allows recording of multiple substance administrations for a single testing procedure. It also separates data about substance administrations from data about procedures that do not involve substance administration.", "score": 0.3766, "match_basis": "verbatim_token+global_search"}, {"md_atom_id": "md_dmMB_assn_a007", "md_file": "knowledge_base/domains/MB/assumptions.md", "md_atom_type": "LIST_ITEM", "md_parent_section": "§MB [MB — Assumptions]", "md_verbatim": "   c. Culture characteristics covers concepts such as growth/no growth, colony quantification measures, colony color, colony morphology, and so on. **Note that this does not include drug susceptibility testing, which is represented in the Microbiology Susceptibility (MS) domain.**", "score": 0.3764, "match_basis": "verbatim_token+global_search"}], "candidate_count": 5, "zero_candidate": false}
{"pdf_atom_id": "ig34_p0263_a018", "pdf_atom_type": "LIST_ITEM", "pdf_source": "SDTMIG_v3.4", "pdf_page": 263, "pdf_parent_section": "§6.3.5.7.3 Microbiology Specimen/Microbiology Susceptibility Examples", "pdf_verbatim": "Row 2: Shows the number of colony-forming units from the contaminated solid culture (see SUPPMB).", "figure_ref": null, "candidates": [{"md_atom_id": "md_dmMB_assn_a014", "md_file": "knowledge_base/domains/MB/assumptions.md", "md_atom_type": "LIST_ITEM", "md_parent_section": "§MB [MB — Assumptions]", "md_verbatim": "   a. Culture dates can be connected to the MB record via MBREFID and BEREFID.", "score": 0.3923, "match_basis": "verbatim_token+global_search"}, {"md_atom_id": "md_dmMS_assn_a011", "md_file": "knowledge_base/domains/MS/assumptions.md", "md_atom_type": "LIST_ITEM", "md_parent_section": "§MS [MS — Assumptions]", "md_verbatim": "   a. Culture dates can be connected to the MS record via MSREFID and BEREFID.", "score": 0.3923, "match_basis": "verbatim_token+global_search"}, {"md_atom_id": "md_ch04_a863", "md_file": "knowledge_base/chapters/ch04_general_assumptions.md", "md_atom_type": "LIST_ITEM", "md_parent_section": "§4.5.1.3 [Examples of Original and Standard Units and Test Not Done]", "md_verbatim": "- **Rows 2-3:** Numeric results were converted to standard units.", "score": 0.3818, "match_basis": "verbatim_token+global_search"}, {"md_atom_id": "md_ch04_a498", "md_file": "knowledge_base/chapters/ch04_general_assumptions.md", "md_atom_type": "LIST_ITEM", "md_parent_section": "§4.4.1 [Formats for Date/Time Variables]", "md_verbatim": "- [:] (colon): to separate the time elements \"hour\" from \"minute\" and \"minute\" from \"second\"", "score": 0.3806, "match_basis": "verbatim_token+global_search"}, {"md_atom_id": "md_ch04_a845", "md_file": "knowledge_base/chapters/ch04_general_assumptions.md", "md_atom_type": "LIST_ITEM", "md_parent_section": "§4.5.1.3 [Examples of Original and Standard Units and Test Not Done]", "md_verbatim": "- **Row 11:** Shows a result collected as an inequality. The unit collected was the standard unit, so the result required no conversion and was copied to LBSTRESC.", "score": 0.3742, "match_basis": "verbatim_token+global_search"}], "candidate_count": 5, "zero_candidate": false}
{"pdf_atom_id": "ig34_p0263_a019", "pdf_atom_type": "CODE_LITERAL", "pdf_source": "SDTMIG_v3.4", "pdf_page": 263, "pdf_parent_section": "§6.3.5.7.3 Microbiology Specimen/Microbiology Susceptibility Examples", "pdf_verbatim": "mb.xpt", "figure_ref": null, "candidates": [{"md_atom_id": "md_ch04_a207", "md_file": "knowledge_base/chapters/ch04_general_assumptions.md", "md_atom_type": "CODE_LITERAL", "md_parent_section": "§4.2.3 [Use of \"Subject\" and USUBJID]", "md_verbatim": "dm.xpt:", "score": 0.69, "match_basis": "verbatim_token+global_search"}, {"md_atom_id": "md_ch04_a210", "md_file": "knowledge_base/chapters/ch04_general_assumptions.md", "md_atom_type": "CODE_LITERAL", "md_parent_section": "§4.2.3 [Use of \"Subject\" and USUBJID]", "md_verbatim": "dm.xpt:", "score": 0.69, "match_basis": "verbatim_token+global_search"}, {"md_atom_id": "md_dmCM_ex_a010", "md_file": "knowledge_base/domains/CM/examples.md", "md_atom_type": "NOTE", "md_parent_section": "§CM.1 [Example 1]", "md_verbatim": "**cm.xpt**", "score": 0.69, "match_basis": "verbatim_token+global_search"}, {"md_atom_id": "md_dmCM_ex_a025", "md_file": "knowledge_base/domains/CM/examples.md", "md_atom_type": "NOTE", "md_parent_section": "§CM.2 [Example 2]", "md_verbatim": "**cm.xpt**", "score": 0.69, "match_basis": "verbatim_token+global_search"}, {"md_atom_id": "md_dmCM_ex_a042", "md_file": "knowledge_base/domains/CM/examples.md", "md_atom_type": "NOTE", "md_parent_section": "§CM.3 [Example 3]", "md_verbatim": "**cm.xpt**", "score": 0.69, "match_basis": "verbatim_token+global_search"}, {"md_atom_id": "md_dmCM_ex_a052", "md_file": "knowledge_base/domains/CM/examples.md", "md_atom_type": "NOTE", "md_parent_section": "§CM.4 [Example 4]", "md_verbatim": "**cm.xpt**", "score": 0.69, "match_basis": "verbatim_token+global_search"}, {"md_atom_id": "md_dmCM_ex_a070", "md_file": "knowledge_base/domains/CM/examples.md", "md_atom_type": "NOTE", "md_parent_section": "§CM.5 [Example 5]", "md_verbatim": "**cm.xpt**", "score": 0.69, "match_basis": "verbatim_token+global_search"}, {"md_atom_id": "md_ch04_a368", "md_file": "knowledge_base/chapters/ch04_general_assumptions.md", "md_atom_type": "CODE_LITERAL", "md_parent_section": "§4.2.8.3 [Multiple Values for a Non-result Qualifier Variable]", "md_verbatim": "ae.xpt:", "score": 0.69, "match_basis": "verbatim_token+global_search"}, {"md_atom_id": "md_ch04_a378", "md_file": "knowledge_base/chapters/ch04_general_assumptions.md", "md_atom_type": "CODE_LITERAL", "md_parent_section": "§4.2.8.3 [Multiple Values for a Non-result Qualifier Variable]", "md_verbatim": "ae.xpt:", "score": 0.69, "match_basis": "verbatim_token+global_search"}, {"md_atom_id": "md_ch04_a391", "md_file": "knowledge_base/chapters/ch04_general_assumptions.md", "md_atom_type": "CODE_LITERAL", "md_parent_section": "§4.2.8.3 [Multiple Values for a Non-result Qualifier Variable]", "md_verbatim": "ae.xpt:", "score": 0.69, "match_basis": "verbatim_token+global_search"}], "candidate_count": 10, "zero_candidate": false}
{"pdf_atom_id": "ig34_p0263_a020", "pdf_atom_type": "TABLE_HEADER", "pdf_source": "SDTMIG_v3.4", "pdf_page": 263, "pdf_parent_section": "§6.3.5.7.3 Microbiology Specimen/Microbiology Susceptibility Examples", "pdf_verbatim": "Row | STUDYID | DOMAIN | USUBJID | MBSEQ | MBREFID | MBGRPID | MBTESTCD | MBTEST | MBTSTDTL | MBORRES | MBORRESU | MBRSLSCL | MBSTRESC | MBTRESN | MBSTRESU | MBSPEC | MBLOC | MBMETHOD | VISITNUM | VISIT | MBDTC | MBENDTC", "figure_ref": null, "candidates": [{"md_atom_id": "md_dmMB_ex_a054", "md_file": "knowledge_base/domains/MB/examples.md", "md_atom_type": "TABLE_HEADER", "md_parent_section": "§MB.2 [Example 2]", "md_verbatim": "| Row | STUDYID | DOMAIN | USUBJID | MBSEQ | MBREFID | MBTESTCD | MBTEST | MBTSTDTL | MBORRES | MBRSLSCL | MBSTRESC | MBSPEC | MBLOC | MBMETHOD | VISITNUM | VISIT | MBDTC |\n|-----|---------|--------|---------|-------|---------|----------|--------|----------|---------|----------|----------|--------|-------|----------|----------|-------|-------|", "score": 0.8111, "match_basis": "verbatim_token+global_search"}, {"md_atom_id": "md_dmMB_ex_a134", "md_file": "knowledge_base/domains/MB/examples.md", "md_atom_type": "TABLE_HEADER", "md_parent_section": "§MB.3 [Example 3]", "md_verbatim": "| Row | STUDYID | DOMAIN | USUBJID | SPDEVID | MBSEQ | MBGRPID | MBREFID | MBLNKGRP | MBTESTCD | MBTEST | MBTSTDTL | MBORRES | MBRSLSCL | MBSTRESC | MBSTRESN | MBSTRESU | MBSPCND | MBSPEC | MBLOC | MBMETHOD | VISITNUM | VISIT | MBDTC |\n|-----|---------|--------|---------|---------|-------|---------|---------|----------|----------|--------|----------|---------|----------|----------|----------|----------|---------|--------|-------|----------|----------|-------|-------|", "score": 0.7903, "match_basis": "verbatim_token+global_search"}, {"md_atom_id": "md_dmGF_ex_a087", "md_file": "knowledge_base/domains/GF/examples.md", "md_atom_type": "TABLE_HEADER", "md_parent_section": "§GF.5 [Example 5]", "md_verbatim": "| Row | STUDYID | DOMAIN | USUBJID | MBSEQ | MBREFID | MBTESTCD | MBTEST | MBORRES | MBSTRESC | MBSPEC | MBLOC | MBMETHOD | VISITNUM | VISIT | MBDTC |\n|-----|---------|--------|---------|-------|---------|----------|--------|---------|----------|--------|-------|----------|----------|-------|-------|", "score": 0.737, "match_basis": "verbatim_token+global_search"}, {"md_atom_id": "md_dmMB_ex_a019", "md_file": "knowledge_base/domains/MB/examples.md", "md_atom_type": "TABLE_HEADER", "md_parent_section": "§MB.1 [Example 1]", "md_verbatim": "| Row | STUDYID | DOMAIN | USUBJID | MBSEQ | MBREFID | MBLNKID | MBTESTCD | MBTEST | MBTSTDTL | MBORRES | MBSTRESC | MBSPEC | MBLOC | MBMETHOD | MBNAM | VISITNUM | VISIT | MBDTC |\n|-----|---------|--------|---------|-------|---------|---------|----------|--------|----------|---------|----------|--------|-------|----------|-------|----------|-------|-------|", "score": 0.7364, "match_basis": "verbatim_token+global_search"}, {"md_atom_id": "md_dmLB_ex_a041", "md_file": "knowledge_base/domains/LB/examples.md", "md_atom_type": "TABLE_HEADER", "md_parent_section": "§LB.4 [Example 4]", "md_verbatim": "| Row | STUDYID | DOMAIN | USUBJID | LBGRPID | LBSEQ | LBTESTCD | LBTEST | LBTSTOPO | LBCAT | LBORRES | LBORRESU | LBSTRESC | LBSTRESN | LBSTRESU | LBLOINC | LBSPEC | LBMETHOD | LBLOBXFL | LBDTC | VISITNUM | VISIT |\n|-----|---------|--------|---------|---------|-------|----------|--------|----------|-------|---------|----------|----------|----------|----------|---------|--------|----------|----------|-------|----------|-------|", "score": 0.6267, "match_basis": "verbatim_token+global_search"}], "candidate_count": 5, "zero_candidate": false}
{"pdf_atom_id": "ig34_p0263_a021", "pdf_atom_type": "TABLE_ROW", "pdf_source": "SDTMIG_v3.4", "pdf_page": 263, "pdf_parent_section": "§6.3.5.7.3 Microbiology Specimen/Microbiology Susceptibility Examples", "pdf_verbatim": "1 | ABC | MB | ABC-01-601 | 1 | 600 | 1 | MTB | Mycobacterium tuberculosis | DETECTION | PRESENT | | Ord | PRESENT | | | SPUTUM | LUNG | MICROBIAL CULTURE, SOLID | 5 | WEEK 1 | 2011-03-01T22:00 | 2011-03-02T06:00", "figure_ref": null, "candidates": [{"md_atom_id": "md_dmMB_ex_a138", "md_file": "knowledge_base/domains/MB/examples.md", "md_atom_type": "TABLE_ROW", "md_parent_section": "§MB.3 [Example 3]", "md_verbatim": "| 4 | ABC | MB | ABC-01-101 | | 4 | 2 | 100.3 | 1 | MTB | Mycobacterium Tuberculosis | DETECTION | PRESENT | Ord | PRESENT | | | | LAVAGE FLUID | STOMACH | MICROBIAL CULTURE, SOLID | 1 | WEEK 1 | 2011-01-17T06:00 |", "score": 0.6929, "match_basis": "verbatim_token+global_search"}, {"md_atom_id": "md_dmMB_ex_a140", "md_file": "knowledge_base/domains/MB/examples.md", "md_atom_type": "TABLE_ROW", "md_parent_section": "§MB.3 [Example 3]", "md_verbatim": "| 6 | ABC | MB | ABC-01-101 | | 6 | 2 | 100.3 | 1 | MTB | Mycobacterium Tuberculosis | COLONY COUNT | 2+ | Ord | 2+ | | | | LAVAGE FLUID | STOMACH | MICROBIAL CULTURE, SOLID | 1 | WEEK 1 | 2011-01-17T06:00 |", "score": 0.5835, "match_basis": "verbatim_token+global_search"}, {"md_atom_id": "md_dmMB_ex_a139", "md_file": "knowledge_base/domains/MB/examples.md", "md_atom_type": "TABLE_ROW", "md_parent_section": "§MB.3 [Example 3]", "md_verbatim": "| 5 | ABC | MB | ABC-01-101 | | 5 | 2 | 100.3 | 1 | MTB | Mycobacterium Tuberculosis | COLONY COUNT | 147 | | CFU | 14700 | CFU/mL | | LAVAGE FLUID | STOMACH | MICROBIAL CULTURE, SOLID | 1 | WEEK 1 | 2011-01-17T06:00 |", "score": 0.5653, "match_basis": "verbatim_token+global_search"}, {"md_atom_id": "md_dmMB_ex_a137", "md_file": "knowledge_base/domains/MB/examples.md", "md_atom_type": "TABLE_ROW", "md_parent_section": "§MB.3 [Example 3]", "md_verbatim": "| 3 | ABC | MB | ABC-01-101 | ABC765 | 3 | | 100.2 | | MTBCMPLX | Mycobacterium Tuberculosis Complex | DETECTION | PRESENT | Ord | PRESENT | | | | LAVAGE FLUID | STOMACH | NUCLEIC ACID AMPLIFICATION TEST | 1 | WEEK 1 | 2011-01-17T06:00 |", "score": 0.5177, "match_basis": "verbatim_token+global_search"}, {"md_atom_id": "md_dmMS_ex_a044", "md_file": "knowledge_base/domains/MS/examples.md", "md_atom_type": "TABLE_ROW", "md_parent_section": "§MS.3 [Example 3]", "md_verbatim": "| 1 | ABC | MS | ABC-01-101 | | MYCOBACTERIUM TUBERCULOSIS | 1 | 100.4 | 2 | MICROSUS | Microbial Susceptibility | Rifampicin | 1 | ug/mL | RESISTANT | RESISTANT | LAVAGE FLUID | STOMACH | ANTIBIOTIC AGAR SCREEN | 2011-01-17T06:00 |", "score": 0.4623, "match_basis": "verbatim_token+global_search"}], "candidate_count": 5, "zero_candidate": false}
{"pdf_atom_id": "ig34_p0263_a022", "pdf_atom_type": "TABLE_ROW", "pdf_source": "SDTMIG_v3.4", "pdf_page": 263, "pdf_parent_section": "§6.3.5.7.3 Microbiology Specimen/Microbiology Susceptibility Examples", "pdf_verbatim": "2 | ABC | MB | ABC-01-601 | 2 | 600 | 1 | MTB | Mycobacterium tuberculosis | COLONY COUNT | 87 | CFU/mL | Qn | 87 | 87 | CFU/mL | SPUTUM | LUNG | MICROBIAL CULTURE, SOLID | 5 | WEEK 1 | 2011-03-01T22:00 | 2011-03-02T06:00", "figure_ref": null, "candidates": [{"md_atom_id": "md_dmMB_ex_a140", "md_file": "knowledge_base/domains/MB/examples.md", "md_atom_type": "TABLE_ROW", "md_parent_section": "§MB.3 [Example 3]", "md_verbatim": "| 6 | ABC | MB | ABC-01-101 | | 6 | 2 | 100.3 | 1 | MTB | Mycobacterium Tuberculosis | COLONY COUNT | 2+ | Ord | 2+ | | | | LAVAGE FLUID | STOMACH | MICROBIAL CULTURE, SOLID | 1 | WEEK 1 | 2011-01-17T06:00 |", "score": 0.6675, "match_basis": "verbatim_token+global_search"}, {"md_atom_id": "md_dmMB_ex_a139", "md_file": "knowledge_base/domains/MB/examples.md", "md_atom_type": "TABLE_ROW", "md_parent_section": "§MB.3 [Example 3]", "md_verbatim": "| 5 | ABC | MB | ABC-01-101 | | 5 | 2 | 100.3 | 1 | MTB | Mycobacterium Tuberculosis | COLONY COUNT | 147 | | CFU | 14700 | CFU/mL | | LAVAGE FLUID | STOMACH | MICROBIAL CULTURE, SOLID | 1 | WEEK 1 | 2011-01-17T06:00 |", "score": 0.6659, "match_basis": "verbatim_token+global_search"}, {"md_atom_id": "md_dmMB_ex_a138", "md_file": "knowledge_base/domains/MB/examples.md", "md_atom_type": "TABLE_ROW", "md_parent_section": "§MB.3 [Example 3]", "md_verbatim": "| 4 | ABC | MB | ABC-01-101 | | 4 | 2 | 100.3 | 1 | MTB | Mycobacterium Tuberculosis | DETECTION | PRESENT | Ord | PRESENT | | | | LAVAGE FLUID | STOMACH | MICROBIAL CULTURE, SOLID | 1 | WEEK 1 | 2011-01-17T06:00 |", "score": 0.5739, "match_basis": "verbatim_token+global_search"}, {"md_atom_id": "md_dmMS_ex_a045", "md_file": "knowledge_base/domains/MS/examples.md", "md_atom_type": "TABLE_ROW", "md_parent_section": "§MS.3 [Example 3]", "md_verbatim": "| 2 | ABC | MS | ABC-01-101 | | MYCOBACTERIUM TUBERCULOSIS | 2 | 100.5 | 3 | MICROSUS | Microbial Susceptibility | Isoniazid | 0.2 | ug/mL | SUSCEPTIBLE | SUSCEPTIBLE | LAVAGE FLUID | STOMACH | ANTIBIOTIC AGAR SCREEN | 2011-01-17T06:00 |", "score": 0.4684, "match_basis": "verbatim_token+global_search"}, {"md_atom_id": "md_dmMS_ex_a044", "md_file": "knowledge_base/domains/MS/examples.md", "md_atom_type": "TABLE_ROW", "md_parent_section": "§MS.3 [Example 3]", "md_verbatim": "| 1 | ABC | MS | ABC-01-101 | | MYCOBACTERIUM TUBERCULOSIS | 1 | 100.4 | 2 | MICROSUS | Microbial Susceptibility | Rifampicin | 1 | ug/mL | RESISTANT | RESISTANT | LAVAGE FLUID | STOMACH | ANTIBIOTIC AGAR SCREEN | 2011-01-17T06:00 |", "score": 0.4627, "match_basis": "verbatim_token+global_search"}], "candidate_count": 5, "zero_candidate": false}
{"pdf_atom_id": "ig34_p0263_a023", "pdf_atom_type": "SENTENCE", "pdf_source": "SDTMIG_v3.4", "pdf_page": 263, "pdf_parent_section": "§6.3.5.7.3 Microbiology Specimen/Microbiology Susceptibility Examples", "pdf_verbatim": "The culture-contamination indicator flag is shown in SUPPMB.", "figure_ref": null, "candidates": [{"md_atom_id": "md_dmBS_ex_a007", "md_file": "knowledge_base/domains/BS/examples.md", "md_atom_type": "SENTENCE", "md_parent_section": "§BS.1 [Example 1]", "md_verbatim": "Any ratios outside of the accepted values may indicate contamination with protein or reagents used during the extraction process.", "score": 0.4244, "match_basis": "verbatim_token+global_search"}, {"md_atom_id": "md_dmTU_assn_a053", "md_file": "knowledge_base/domains/TU/assumptions.md", "md_atom_type": "SENTENCE", "md_parent_section": "§TU [TU — Assumptions]", "md_verbatim": "This example shows indicator TUTESTs for the identification of the sites of metastatic disease sites at baseline.", "score": 0.4068, "match_basis": "verbatim_token+global_search"}, {"md_atom_id": "md_dmCE_ex_a090", "md_file": "knowledge_base/domains/CE/examples.md", "md_atom_type": "SENTENCE", "md_parent_section": "§CE.3 [Example 3]", "md_verbatim": "**Rows 2-3:** Show the subject's second fracture and its associated complication.", "score": 0.4065, "match_basis": "verbatim_token+global_search"}, {"md_atom_id": "md_dmMB_ex_a052", "md_file": "knowledge_base/domains/MB/examples.md", "md_atom_type": "SENTENCE", "md_parent_section": "§MB.2 [Example 2]", "md_verbatim": "**Row 8:** Shows that microbial culture of a third subject sample at the third visit indicated \"NO GROWTH\" (MBORRES) of any organisms.", "score": 0.4013, "match_basis": "verbatim_token+global_search"}, {"md_atom_id": "md_dmMB_ex_a080", "md_file": "knowledge_base/domains/MB/examples.md", "md_atom_type": "SENTENCE", "md_parent_section": "§MB.3 [Example 3]", "md_verbatim": "MBGRPID is used to connect the detection record in MB with the corresponding culture characteristics shown in rows 5-7.", "score": 0.4, "match_basis": "verbatim_token+global_search"}], "candidate_count": 5, "zero_candidate": false}
{"pdf_atom_id": "ig34_p0263_a024", "pdf_atom_type": "CODE_LITERAL", "pdf_source": "SDTMIG_v3.4", "pdf_page": 263, "pdf_parent_section": "§6.3.5.7.3 Microbiology Specimen/Microbiology Susceptibility Examples", "pdf_verbatim": "suppmb.xpt", "figure_ref": null, "candidates": [{"md_atom_id": "md_dmMB_ex_a063", "md_file": "knowledge_base/domains/MB/examples.md", "md_atom_type": "SENTENCE", "md_parent_section": "§MB.2 [Example 2]", "md_verbatim": "**suppmb.xpt**", "score": 0.69, "match_basis": "verbatim_token+global_search"}, {"md_atom_id": "md_dmMB_ex_a141", "md_file": "knowledge_base/domains/MB/examples.md", "md_atom_type": "SENTENCE", "md_parent_section": "§MB.3 [Example 3]", "md_verbatim": "**suppmb.xpt**", "score": 0.69, "match_basis": "verbatim_token+global_search"}, {"md_atom_id": "md_ch04_a918", "md_file": "knowledge_base/chapters/ch04_general_assumptions.md", "md_atom_type": "CODE_LITERAL", "md_parent_section": "§4.5.3.2 [Text Strings Greater than 200 Characters in Other Variables]", "md_verbatim": "suppmh.xpt", "score": 0.49, "match_basis": "verbatim_token+global_search"}, {"md_atom_id": "md_ch04_a922", "md_file": "knowledge_base/chapters/ch04_general_assumptions.md", "md_atom_type": "SENTENCE", "md_parent_section": "§4.5.3.2 [Text Strings Greater than 200 Characters in Other Variables]", "md_verbatim": "suppmh.xpt:", "score": 0.49, "match_basis": "verbatim_token+global_search"}, {"md_atom_id": "md_dmCE_ex_a083", "md_file": "knowledge_base/domains/CE/examples.md", "md_atom_type": "SENTENCE", "md_parent_section": "§CE.3 [Example 3]", "md_verbatim": "**suppmh.xpt**", "score": 0.49, "match_basis": "verbatim_token+global_search"}, {"md_atom_id": "md_dmFA_ex_a079", "md_file": "knowledge_base/domains/FA/examples.md", "md_atom_type": "SENTENCE", "md_parent_section": "§FA.3 [Example 3]", "md_verbatim": "**suppmh.xpt**", "score": 0.49, "match_basis": "verbatim_token+global_search"}, {"md_atom_id": "md_dmMI_ex_a029", "md_file": "knowledge_base/domains/MI/examples.md", "md_atom_type": "SENTENCE", "md_parent_section": "§MI.2 [Example 2]", "md_verbatim": "**suppmi.xpt**", "score": 0.49, "match_basis": "verbatim_token+global_search"}, {"md_atom_id": "md_dmMI_ex_a047", "md_file": "knowledge_base/domains/MI/examples.md", "md_atom_type": "SENTENCE", "md_parent_section": "§MI.3 [Example 3]", "md_verbatim": "**suppmi.xpt**", "score": 0.49, "match_basis": "verbatim_token+global_search"}, {"md_atom_id": "md_dmMS_ex_a048", "md_file": "knowledge_base/domains/MS/examples.md", "md_atom_type": "SENTENCE", "md_parent_section": "§MS.3 [Example 3]", "md_verbatim": "**suppms.xpt**", "score": 0.49, "match_basis": "verbatim_token+global_search"}, {"md_atom_id": "md_dmPP_ex_a035", "md_file": "knowledge_base/domains/PP/examples.md", "md_atom_type": "SENTENCE", "md_parent_section": "§PP.1 [Example 1]", "md_verbatim": "**supppp.xpt**", "score": 0.39, "match_basis": "verbatim_token+global_search"}], "candidate_count": 10, "zero_candidate": false}
{"pdf_atom_id": "ig34_p0263_a025", "pdf_atom_type": "TABLE_HEADER", "pdf_source": "SDTMIG_v3.4", "pdf_page": 263, "pdf_parent_section": "§6.3.5.7.3 Microbiology Specimen/Microbiology Susceptibility Examples", "pdf_verbatim": "Row | STUDYID | RDOMAIN | USUBJID | IDVAR | IDVARVAL | QNAM | QLABEL | QVAL | QORIG", "figure_ref": null, "candidates": [{"md_atom_id": "md_ch04_a923", "md_file": "knowledge_base/chapters/ch04_general_assumptions.md", "md_atom_type": "TABLE_HEADER", "md_parent_section": "§4.5.3.2 [Text Strings Greater than 200 Characters in Other Variables]", "md_verbatim": "| Row | STUDYID | RDOMAIN | USUBJID | IDVAR | IDVARVAL | QNAM | QLABEL | QVAL | QORIG |\n|-----|---------|---------|---------|-------|----------|------|--------|------|-------|", "score": 0.9, "match_basis": "verbatim_token+global_search"}, {"md_atom_id": "md_ch04_a933", "md_file": "knowledge_base/chapters/ch04_general_assumptions.md", "md_atom_type": "TABLE_HEADER", "md_parent_section": "§4.5.3.2 [Text Strings Greater than 200 Characters in Other Variables]", "md_verbatim": "| Row | STUDYID | RDOMAIN | USUBJID | IDVAR | IDVARVAL | QNAM | QLABEL | QVAL | QORIG |\n|-----|---------|---------|---------|-------|----------|------|--------|------|-------|", "score": 0.9, "match_basis": "verbatim_token+global_search"}, {"md_atom_id": "md_ch04_a942", "md_file": "knowledge_base/chapters/ch04_general_assumptions.md", "md_atom_type": "TABLE_HEADER", "md_parent_section": "§4.5.3.2 [Text Strings Greater than 200 Characters in Other Variables]", "md_verbatim": "| Row | STUDYID | RDOMAIN | USUBJID | IDVAR | IDVARVAL | QNAM | QLABEL | QVAL | QORIG |\n|-----|---------|---------|---------|-------|----------|------|--------|------|-------|", "score": 0.9, "match_basis": "verbatim_token+global_search"}, {"md_atom_id": "md_ch04_a985", "md_file": "knowledge_base/chapters/ch04_general_assumptions.md", "md_atom_type": "TABLE_HEADER", "md_parent_section": "§4.5.6 [Supplemental Reason Variables]", "md_verbatim": "| Row | STUDYID | RDOMAIN | USUBJID | IDVAR | IDVARVAL | QNAM | QLABEL | QVAL | QORIG |\n|-----|---------|---------|---------|-------|----------|------|--------|------|-------|", "score": 0.9, "match_basis": "verbatim_token+global_search"}, {"md_atom_id": "md_dmMB_ex_a041", "md_file": "knowledge_base/domains/MB/examples.md", "md_atom_type": "TABLE_HEADER", "md_parent_section": "§MB.2 [Example 2]", "md_verbatim": "| Row | STUDYID | RDOMAIN | USUBJID | IDVAR | IDVARVAL | QNAM | QLABEL | QVAL | QORIG |\n|-----|---------|---------|---------|-------|----------|------|--------|------|-------|", "score": 0.9, "match_basis": "verbatim_token+global_search"}], "candidate_count": 5, "zero_candidate": false}
{"pdf_atom_id": "ig34_p0263_a026", "pdf_atom_type": "TABLE_ROW", "pdf_source": "SDTMIG_v3.4", "pdf_page": 263, "pdf_parent_section": "§6.3.5.7.3 Microbiology Specimen/Microbiology Susceptibility Examples", "pdf_verbatim": "1 | ABC | MB | ABC-01-601 | MBSEQ | 1 | MBCNMIND | Culture Contamination Indicator | Y | Collected", "figure_ref": null, "candidates": [{"md_atom_id": "md_dmMB_ex_a147", "md_file": "knowledge_base/domains/MB/examples.md", "md_atom_type": "TABLE_ROW", "md_parent_section": "§MB.3 [Example 3]", "md_verbatim": "| 5 | ABC | MB | ABC-01-101 | MBSEQ | 5 | MBDILFCT | Dilution Factor | 10^-2 | Collected |", "score": 0.4615, "match_basis": "verbatim_token+global_search"}, {"md_atom_id": "md_dmMB_ex_a148", "md_file": "knowledge_base/domains/MB/examples.md", "md_atom_type": "TABLE_ROW", "md_parent_section": "§MB.3 [Example 3]", "md_verbatim": "| 6 | ABC | MB | ABC-01-101 | MBSEQ | 6 | MBQSCAL | Quantification Scale | Solid Media Result: Centers for Disease Control (CDC) Quantification Scale | Collected |", "score": 0.4481, "match_basis": "verbatim_token+global_search"}, {"md_atom_id": "md_model02_a215", "md_file": "knowledge_base/model/02_observation_classes.md", "md_atom_type": "TABLE_ROW", "md_parent_section": "§3.1.5 > Study Day Variables", "md_verbatim": "| 27 | --DUR | Collected Duration | Char | ISO 8601 duration |", "score": 0.4435, "match_basis": "verbatim_token+global_search"}, {"md_atom_id": "md_dmMK_ex_a032", "md_file": "knowledge_base/domains/MK/examples.md", "md_atom_type": "TABLE_ROW", "md_parent_section": "§MK.1 [Example 1]", "md_verbatim": "| 16 | DEF | MK | DEF-138 | 16 | SWLLIND | Swollen Indicator | Y | Y | | | | SHOULDER JOINT | LEFT | PHYSICAL EXAMINATION | 2 | WEEK 4 | 2012-09-30 |", "score": 0.4371, "match_basis": "verbatim_token+global_search"}, {"md_atom_id": "md_dmCE_ex_a086", "md_file": "knowledge_base/domains/CE/examples.md", "md_atom_type": "TABLE_ROW", "md_parent_section": "§CE.3 [Example 3]", "md_verbatim": "| 2 | ABC | MH | 001-001 | MHSEQ | 1 | MHCPLIND | Complications Indicator | Y | CRF | |", "score": 0.4358, "match_basis": "verbatim_token+global_search"}], "candidate_count": 5, "zero_candidate": false}
{"pdf_atom_id": "ig34_p0263_a027", "pdf_atom_type": "TABLE_ROW", "pdf_source": "SDTMIG_v3.4", "pdf_page": 263, "pdf_parent_section": "§6.3.5.7.3 Microbiology Specimen/Microbiology Susceptibility Examples", "pdf_verbatim": "2 | ABC | MB | ABC-01-601 | MBSEQ | 2 | MBCNMIND | Culture Contamination Indicator | Y | Collected", "figure_ref": null, "candidates": [{"md_atom_id": "md_dmMB_ex_a147", "md_file": "knowledge_base/domains/MB/examples.md", "md_atom_type": "TABLE_ROW", "md_parent_section": "§MB.3 [Example 3]", "md_verbatim": "| 5 | ABC | MB | ABC-01-101 | MBSEQ | 5 | MBDILFCT | Dilution Factor | 10^-2 | Collected |", "score": 0.4615, "match_basis": "verbatim_token+global_search"}, {"md_atom_id": "md_dmMB_ex_a148", "md_file": "knowledge_base/domains/MB/examples.md", "md_atom_type": "TABLE_ROW", "md_parent_section": "§MB.3 [Example 3]", "md_verbatim": "| 6 | ABC | MB | ABC-01-101 | MBSEQ | 6 | MBQSCAL | Quantification Scale | Solid Media Result: Centers for Disease Control (CDC) Quantification Scale | Collected |", "score": 0.4481, "match_basis": "verbatim_token+global_search"}, {"md_atom_id": "md_model02_a215", "md_file": "knowledge_base/model/02_observation_classes.md", "md_atom_type": "TABLE_ROW", "md_parent_section": "§3.1.5 > Study Day Variables", "md_verbatim": "| 27 | --DUR | Collected Duration | Char | ISO 8601 duration |", "score": 0.4435, "match_basis": "verbatim_token+global_search"}, {"md_atom_id": "md_dmMK_ex_a032", "md_file": "knowledge_base/domains/MK/examples.md", "md_atom_type": "TABLE_ROW", "md_parent_section": "§MK.1 [Example 1]", "md_verbatim": "| 16 | DEF | MK | DEF-138 | 16 | SWLLIND | Swollen Indicator | Y | Y | | | | SHOULDER JOINT | LEFT | PHYSICAL EXAMINATION | 2 | WEEK 4 | 2012-09-30 |", "score": 0.4371, "match_basis": "verbatim_token+global_search"}, {"md_atom_id": "md_dmCE_ex_a086", "md_file": "knowledge_base/domains/CE/examples.md", "md_atom_type": "TABLE_ROW", "md_parent_section": "§CE.3 [Example 3]", "md_verbatim": "| 2 | ABC | MH | 001-001 | MHSEQ | 1 | MHCPLIND | Complications Indicator | Y | CRF | |", "score": 0.4358, "match_basis": "verbatim_token+global_search"}], "candidate_count": 5, "zero_candidate": false}
{"pdf_atom_id": "ig34_p0263_a028", "pdf_atom_type": "HEADING", "pdf_source": "SDTMIG_v3.4", "pdf_page": 263, "pdf_parent_section": "§6.3.5 Specimen-based Findings Domains", "pdf_verbatim": "6.3.5.8  Microscopic Findings (MI)", "figure_ref": null, "candidates": [{"md_atom_id": "md_varindex_a854", "md_file": "knowledge_base/VARIABLE_INDEX.md", "md_atom_type": "HEADING", "md_parent_section": "§ 二、领域专属变量（仅 1 个域，共 1499 个），按域分组", "md_verbatim": "### MI — Microscopic Findings (Findings)", "score": 0.9, "match_basis": "verbatim_token+global_search"}, {"md_atom_id": "md_varindex_a603", "md_file": "knowledge_base/VARIABLE_INDEX.md", "md_atom_type": "HEADING", "md_parent_section": "§ 二、领域专属变量（仅 1 个域，共 1499 个），按域分组", "md_verbatim": "### GF — Genomics Findings (Findings)", "score": 0.51, "match_basis": "verbatim_token+global_search"}, {"md_atom_id": "md_varindex_a790", "md_file": "knowledge_base/VARIABLE_INDEX.md", "md_atom_type": "HEADING", "md_parent_section": "§ 二、领域专属变量（仅 1 个域，共 1499 个），按域分组", "md_verbatim": "### MB — Microbiology Specimen (Findings)", "score": 0.4929, "match_basis": "verbatim_token+global_search"}, {"md_atom_id": "md_index_a053", "md_file": "knowledge_base/INDEX.md", "md_atom_type": "HEADING", "md_parent_section": "§ Domains (63 domains)", "md_verbatim": "### Findings Domains", "score": 0.48, "match_basis": "verbatim_token+global_search"}, {"md_atom_id": "md_varindex_a1630", "md_file": "knowledge_base/VARIABLE_INDEX.md", "md_atom_type": "HEADING", "md_parent_section": "§ 二、领域专属变量（仅 1 个域，共 1499 个），按域分组", "md_verbatim": "### VS — Vital Signs (Findings)", "score": 0.4714, "match_basis": "verbatim_token+global_search"}], "candidate_count": 5, "zero_candidate": false}
{"pdf_atom_id": "ig34_p0263_a029", "pdf_atom_type": "HEADING", "pdf_source": "SDTMIG_v3.4", "pdf_page": 263, "pdf_parent_section": "§6.3.5.8 Microscopic Findings (MI)", "pdf_verbatim": "MI – Description/Overview", "figure_ref": null, "candidates": [{"md_atom_id": "md_dmMI_assn_a001", "md_file": "knowledge_base/domains/MI/assumptions.md", "md_atom_type": "HEADING", "md_parent_section": "§MI [MI — Assumptions]", "md_verbatim": "# MI — Assumptions", "score": 0.4857, "match_basis": "verbatim_token+domain_route:MI"}, {"md_atom_id": "md_dmMI_ex_a001", "md_file": "knowledge_base/domains/MI/examples.md", "md_atom_type": "HEADING", "md_parent_section": "§MI [MI — Examples]", "md_verbatim": "# MI — Examples", "score": 0.4, "match_basis": "verbatim_token+domain_route:MI"}, {"md_atom_id": "md_dmMI_ex_a002", "md_file": "knowledge_base/domains/MI/examples.md", "md_atom_type": "HEADING", "md_parent_section": "§MI [MI — Examples]", "md_verbatim": "## Example 1", "score": 0.4, "match_basis": "verbatim_token+domain_route:MI"}, {"md_atom_id": "md_dmMI_ex_a014", "md_file": "knowledge_base/domains/MI/examples.md", "md_atom_type": "HEADING", "md_parent_section": "§MI [MI — Examples]", "md_verbatim": "## Example 2", "score": 0.4, "match_basis": "verbatim_token+domain_route:MI"}, {"md_atom_id": "md_dmMI_ex_a032", "md_file": "knowledge_base/domains/MI/examples.md", "md_atom_type": "HEADING", "md_parent_section": "§MI [MI — Examples]", "md_verbatim": "## Example 3", "score": 0.4, "match_basis": "verbatim_token+domain_route:MI"}], "candidate_count": 5, "zero_candidate": false}
{"pdf_atom_id": "ig34_p0263_a030", "pdf_atom_type": "SENTENCE", "pdf_source": "SDTMIG_v3.4", "pdf_page": 263, "pdf_parent_section": "§6.3.5.8 Microscopic Findings (MI)", "pdf_verbatim": "A findings domain that contains histopathology findings and microscopic evaluations.", "figure_ref": null, "candidates": [{"md_atom_id": "md_dmMI_ex_a003", "md_file": "knowledge_base/domains/MI/examples.md", "md_atom_type": "SENTENCE", "md_parent_section": "§MI.1 [Example 1]", "md_verbatim": "Immunohistochemistry (IHC) is a method that involves treating tissue with a stain that adheres to very specific substances.", "score": 0.4583, "match_basis": "verbatim_token+domain_route:MI"}, {"md_atom_id": "md_dmMI_ex_a016", "md_file": "knowledge_base/domains/MI/examples.md", "md_atom_type": "SENTENCE", "md_parent_section": "§MI.2 [Example 2]", "md_verbatim": "The proportion positive score was assessed as the percentage of tumor cells that stained positive on a scale from 0 to 5.", "score": 0.4533, "match_basis": "verbatim_token+domain_route:MI"}, {"md_atom_id": "md_dmMI_ex_a007", "md_file": "knowledge_base/domains/MI/examples.md", "md_atom_type": "SENTENCE", "md_parent_section": "§MI.1 [Example 1]", "md_verbatim": "Staining intensity values of 0 to 1+ were categorized as negative; values of 2+ and 3+ were categorized as positive.", "score": 0.4532, "match_basis": "verbatim_token+domain_route:MI"}, {"md_atom_id": "md_dmMI_ex_a018", "md_file": "knowledge_base/domains/MI/examples.md", "md_atom_type": "SENTENCE", "md_parent_section": "§MI.2 [Example 2]", "md_verbatim": "The total score is the sum of the proportion positive and stain intensity scores.", "score": 0.448, "match_basis": "verbatim_token+domain_route:MI"}, {"md_atom_id": "md_dmMI_ex_a046", "md_file": "knowledge_base/domains/MI/examples.md", "md_atom_type": "SENTENCE", "md_parent_section": "§MI.3 [Example 3]", "md_verbatim": "These IHC staining results were all for the cell cytoplasm, represented using a supplemental qualifier for subcellular location.", "score": 0.4453, "match_basis": "verbatim_token+domain_route:MI"}], "candidate_count": 5, "zero_candidate": false}
{"pdf_atom_id": "ig34_p0263_a031", "pdf_atom_type": "SENTENCE", "pdf_source": "SDTMIG_v3.4", "pdf_page": 263, "pdf_parent_section": "§6.3.5.8 Microscopic Findings (MI)", "pdf_verbatim": "The MI dataset provides a record for each microscopic finding observed. There may be multiple microscopic tests on a subject or specimen.", "figure_ref": null, "candidates": [{"md_atom_id": "md_dmMI_ex_a022", "md_file": "knowledge_base/domains/MI/examples.md", "md_atom_type": "SENTENCE", "md_parent_section": "§MI.2 [Example 2]", "md_verbatim": "**Row 3:** The total score is a represented in a derived record, so MIORRES is null.", "score": 0.4488, "match_basis": "verbatim_token+domain_route:MI"}, {"md_atom_id": "md_dmMI_ex_a015", "md_file": "knowledge_base/domains/MI/examples.md", "md_atom_type": "SENTENCE", "md_parent_section": "§MI.2 [Example 2]", "md_verbatim": "In this study, IHC for estrogen receptor protein expression in a tissue was reported using the Allred scoring system.", "score": 0.4425, "match_basis": "verbatim_token+domain_route:MI"}, {"md_atom_id": "md_dmMI_ex_a028", "md_file": "knowledge_base/domains/MI/examples.md", "md_atom_type": "SENTENCE", "md_parent_section": "§MI.2 [Example 2]", "md_verbatim": "These IHC staining results were all for the cell nucleus, represented using a supplemental qualifier for subcellular location.", "score": 0.4407, "match_basis": "verbatim_token+domain_route:MI"}, {"md_atom_id": "md_dmMI_ex_a036", "md_file": "knowledge_base/domains/MI/examples.md", "md_atom_type": "SENTENCE", "md_parent_section": "§MI.3 [Example 3]", "md_verbatim": "**Rows 1-4:** Show the percentage of cells at each H-Score staining intensity.", "score": 0.44, "match_basis": "verbatim_token+domain_route:MI"}, {"md_atom_id": "md_dmMI_ex_a046", "md_file": "knowledge_base/domains/MI/examples.md", "md_atom_type": "SENTENCE", "md_parent_section": "§MI.3 [Example 3]", "md_verbatim": "These IHC staining results were all for the cell cytoplasm, represented using a supplemental qualifier for subcellular location.", "score": 0.44, "match_basis": "verbatim_token+domain_route:MI"}], "candidate_count": 5, "zero_candidate": false}
{"pdf_atom_id": "ig34_p0264_a001", "pdf_atom_type": "HEADING", "pdf_source": "SDTMIG_v3.4", "pdf_page": 264, "pdf_parent_section": "§6.3.5.8 Microscopic Findings (MI)", "pdf_verbatim": "MI – Specification", "figure_ref": null, "candidates": [{"md_atom_id": "md_dmMI_assn_a001", "md_file": "knowledge_base/domains/MI/assumptions.md", "md_atom_type": "HEADING", "md_parent_section": "§MI [MI — Assumptions]", "md_verbatim": "# MI — Assumptions", "score": 0.4667, "match_basis": "verbatim_token+domain_route:MI"}, {"md_atom_id": "md_dmMI_ex_a001", "md_file": "knowledge_base/domains/MI/examples.md", "md_atom_type": "HEADING", "md_parent_section": "§MI [MI — Examples]", "md_verbatim": "# MI — Examples", "score": 0.4, "match_basis": "verbatim_token+domain_route:MI"}, {"md_atom_id": "md_dmMI_ex_a002", "md_file": "knowledge_base/domains/MI/examples.md", "md_atom_type": "HEADING", "md_parent_section": "§MI [MI — Examples]", "md_verbatim": "## Example 1", "score": 0.4, "match_basis": "verbatim_token+domain_route:MI"}, {"md_atom_id": "md_dmMI_ex_a014", "md_file": "knowledge_base/domains/MI/examples.md", "md_atom_type": "HEADING", "md_parent_section": "§MI [MI — Examples]", "md_verbatim": "## Example 2", "score": 0.4, "match_basis": "verbatim_token+domain_route:MI"}, {"md_atom_id": "md_dmMI_ex_a032", "md_file": "knowledge_base/domains/MI/examples.md", "md_atom_type": "HEADING", "md_parent_section": "§MI [MI — Examples]", "md_verbatim": "## Example 3", "score": 0.4, "match_basis": "verbatim_token+domain_route:MI"}], "candidate_count": 5, "zero_candidate": false}
{"pdf_atom_id": "ig34_p0264_a002", "pdf_atom_type": "CODE_LITERAL", "pdf_source": "SDTMIG_v3.4", "pdf_page": 264, "pdf_parent_section": "§6.3.5.8 Microscopic Findings (MI)", "pdf_verbatim": "mi.xpt", "figure_ref": null, "candidates": [{"md_atom_id": "md_dmMI_ex_a010", "md_file": "knowledge_base/domains/MI/examples.md", "md_atom_type": "SENTENCE", "md_parent_section": "§MI.1 [Example 1]", "md_verbatim": "**mi.xpt**", "score": 0.79, "match_basis": "verbatim_token+domain_route:MI"}, {"md_atom_id": "md_dmMI_ex_a023", "md_file": "knowledge_base/domains/MI/examples.md", "md_atom_type": "SENTENCE", "md_parent_section": "§MI.2 [Example 2]", "md_verbatim": "**mi.xpt**", "score": 0.79, "match_basis": "verbatim_token+domain_route:MI"}, {"md_atom_id": "md_dmMI_ex_a039", "md_file": "knowledge_base/domains/MI/examples.md", "md_atom_type": "SENTENCE", "md_parent_section": "§MI.3 [Example 3]", "md_verbatim": "**mi.xpt**", "score": 0.79, "match_basis": "verbatim_token+domain_route:MI"}, {"md_atom_id": "md_dmMI_ex_a029", "md_file": "knowledge_base/domains/MI/examples.md", "md_atom_type": "SENTENCE", "md_parent_section": "§MI.2 [Example 2]", "md_verbatim": "**suppmi.xpt**", "score": 0.31, "match_basis": "verbatim_token+domain_route:MI"}, {"md_atom_id": "md_dmMI_ex_a047", "md_file": "knowledge_base/domains/MI/examples.md", "md_atom_type": "SENTENCE", "md_parent_section": "§MI.3 [Example 3]", "md_verbatim": "**suppmi.xpt**", "score": 0.31, "match_basis": "verbatim_token+domain_route:MI"}, {"md_atom_id": "md_dmMI_assn_a001", "md_file": "knowledge_base/domains/MI/assumptions.md", "md_atom_type": "HEADING", "md_parent_section": "§MI [MI — Assumptions]", "md_verbatim": "# MI — Assumptions", "score": 0.19, "match_basis": "verbatim_token+domain_route:MI"}, {"md_atom_id": "md_dmMI_assn_a002", "md_file": "knowledge_base/domains/MI/assumptions.md", "md_atom_type": "LIST_ITEM", "md_parent_section": "§MI [MI — Assumptions]", "md_verbatim": "1. This domain holds findings resulting from the microscopic examination of tissue samples. These examinations are performed on a specimen, usually one that has been prepared with some type of stain. Some examinations of cells in fluid specimens (e.g., blood, urine) are classified as lab tests and should be stored in the Laboratory Test Results (LB) domain. Biomarkers assessed by histologic or histopathological examination (by employing cytochemical/immunocytochemical stains) are stored in the MI domain.", "score": 0.19, "match_basis": "verbatim_token+domain_route:MI"}, {"md_atom_id": "md_dmMI_assn_a003", "md_file": "knowledge_base/domains/MI/assumptions.md", "md_atom_type": "LIST_ITEM", "md_parent_section": "§MI [MI — Assumptions]", "md_verbatim": "2. When biomarker results are represented in MI, MITESTCD reflects the biomarker of interest (e.g., \"BRCA1\", \"HER2\", \"TTF1\"), and MITSTDTL further qualifies the record. MITSTDTL is used to represent details descriptive of staining results (e.g., \"H SCORE TOTAL SCORE\", \"STAINING INTENSITY\", \"PERCENT POSITIVE CELL\").", "score": 0.19, "match_basis": "verbatim_token+domain_route:MI"}, {"md_atom_id": "md_dmMI_assn_a004", "md_file": "knowledge_base/domains/MI/assumptions.md", "md_atom_type": "LIST_ITEM", "md_parent_section": "§MI [MI — Assumptions]", "md_verbatim": "3. Any Identifiers, Timing variables, or Findings general observation class qualifiers may be added to the MI domain, but the following qualifiers would generally not be used: --POS, --MODIFY, --ORNRLO, --ORNRHI, --STNRLO, --STNRHI, --STNRC, --NRIND, --LEAD, --CSTATE, --BLFL, --FAST, --DRVFL, --LLOQ, --ULOQ.", "score": 0.19, "match_basis": "verbatim_token+domain_route:MI"}, {"md_atom_id": "md_dmMI_ex_a001", "md_file": "knowledge_base/domains/MI/examples.md", "md_atom_type": "HEADING", "md_parent_section": "§MI [MI — Examples]", "md_verbatim": "# MI — Examples", "score": 0.19, "match_basis": "verbatim_token+domain_route:MI"}], "candidate_count": 10, "zero_candidate": false}
{"pdf_atom_id": "ig34_p0264_a003", "pdf_atom_type": "HEADING", "pdf_source": "SDTMIG_v3.4", "pdf_page": 264, "pdf_parent_section": "§6.3.5.8 Microscopic Findings (MI)", "pdf_verbatim": "mi.xpt, Microscopic Findings — Findings. One record per finding per specimen per subject, Tabulation.", "figure_ref": null, "candidates": [{"md_atom_id": "md_dmMI_assn_a001", "md_file": "knowledge_base/domains/MI/assumptions.md", "md_atom_type": "HEADING", "md_parent_section": "§MI [MI — Assumptions]", "md_verbatim": "# MI — Assumptions", "score": 0.425, "match_basis": "verbatim_token+domain_route:MI"}, {"md_atom_id": "md_dmMI_ex_a001", "md_file": "knowledge_base/domains/MI/examples.md", "md_atom_type": "HEADING", "md_parent_section": "§MI [MI — Examples]", "md_verbatim": "# MI — Examples", "score": 0.4, "match_basis": "verbatim_token+domain_route:MI"}, {"md_atom_id": "md_dmMI_ex_a002", "md_file": "knowledge_base/domains/MI/examples.md", "md_atom_type": "HEADING", "md_parent_section": "§MI [MI — Examples]", "md_verbatim": "## Example 1", "score": 0.4, "match_basis": "verbatim_token+domain_route:MI"}, {"md_atom_id": "md_dmMI_ex_a014", "md_file": "knowledge_base/domains/MI/examples.md", "md_atom_type": "HEADING", "md_parent_section": "§MI [MI — Examples]", "md_verbatim": "## Example 2", "score": 0.4, "match_basis": "verbatim_token+domain_route:MI"}, {"md_atom_id": "md_dmMI_ex_a032", "md_file": "knowledge_base/domains/MI/examples.md", "md_atom_type": "HEADING", "md_parent_section": "§MI [MI — Examples]", "md_verbatim": "## Example 3", "score": 0.4, "match_basis": "verbatim_token+domain_route:MI"}], "candidate_count": 5, "zero_candidate": false}
{"pdf_atom_id": "ig34_p0264_a004", "pdf_atom_type": "TABLE_HEADER", "pdf_source": "SDTMIG_v3.4", "pdf_page": 264, "pdf_parent_section": "§6.3.5.8 Microscopic Findings (MI)", "pdf_verbatim": "Variable Name | Variable Label | Type | Controlled Terms, Codelist or Format¹ | Role | CDISC Notes | Core", "figure_ref": null, "candidates": [{"md_atom_id": "md_dmMI_ex_a030", "md_file": "knowledge_base/domains/MI/examples.md", "md_atom_type": "TABLE_HEADER", "md_parent_section": "§MI.2 [Example 2]", "md_verbatim": "| Row | STUDYID | RDOMAIN | USUBJID | IDVAR | IDVARVAL | QNAM | QLABEL | QVAL | QORIG | QEVAL |\n|-----|---------|---------|---------|-------|----------|------|--------|------|-------|-------|", "score": 0.4417, "match_basis": "verbatim_token+domain_route:MI"}, {"md_atom_id": "md_dmMI_ex_a048", "md_file": "knowledge_base/domains/MI/examples.md", "md_atom_type": "TABLE_HEADER", "md_parent_section": "§MI.3 [Example 3]", "md_verbatim": "| Row | STUDYID | RDOMAIN | USUBJID | IDVAR | IDVARVAL | QNAM | QLABEL | QVAL | QORIG | QEVAL |\n|-----|---------|---------|---------|-------|----------|------|--------|------|-------|-------|", "score": 0.4417, "match_basis": "verbatim_token+domain_route:MI"}, {"md_atom_id": "md_dmMI_ex_a011", "md_file": "knowledge_base/domains/MI/examples.md", "md_atom_type": "TABLE_HEADER", "md_parent_section": "§MI.1 [Example 1]", "md_verbatim": "| Row | STUDYID | DOMAIN | USUBJID | MISEQ | MITESTCD | MITEST | MITSTDTL | MIORRES | MISTRESC | MIRESCAT | MISPEC | MILOC | MIMETHOD | VISIT | MIDTC |\n|-----|---------|--------|---------|-------|----------|--------|----------|---------|----------|----------|--------|-------|----------|-------|-------|", "score": 0.4119, "match_basis": "verbatim_token+domain_route:MI"}, {"md_atom_id": "md_dmMI_ex_a024", "md_file": "knowledge_base/domains/MI/examples.md", "md_atom_type": "TABLE_HEADER", "md_parent_section": "§MI.2 [Example 2]", "md_verbatim": "| Row | STUDYID | DOMAIN | USUBJID | MISEQ | MIGRPID | MITESTCD | MITEST | MITSTDTL | MIORRES | MISTRESC | MISTRESN | MISPEC | MILOC | MIMETHOD | MIDRVFL | VISIT | MIDTC |\n|-----|---------|--------|---------|-------|---------|----------|--------|----------|---------|----------|----------|--------|-------|----------|---------|-------|-------|", "score": 0.4112, "match_basis": "verbatim_token+domain_route:MI"}, {"md_atom_id": "md_dmMI_ex_a040", "md_file": "knowledge_base/domains/MI/examples.md", "md_atom_type": "TABLE_HEADER", "md_parent_section": "§MI.3 [Example 3]", "md_verbatim": "| Row | STUDYID | DOMAIN | USUBJID | MISEQ | MIGRPID | MITESTCD | MITEST | MITSTDTL | MIORRES | MIORRESU | MISTRESC | MISTRESN | MISTRESU | MISPEC | MILOC | MIMETHOD | MIDRVFL | VISIT | MIDTC |\n|-----|---------|--------|---------|-------|---------|----------|--------|----------|---------|----------|----------|----------|----------|--------|-------|----------|---------|-------|-------|", "score": 0.4111, "match_basis": "verbatim_token+domain_route:MI"}], "candidate_count": 5, "zero_candidate": false}
{"pdf_atom_id": "ig34_p0264_a005", "pdf_atom_type": "TABLE_ROW", "pdf_source": "SDTMIG_v3.4", "pdf_page": 264, "pdf_parent_section": "§6.3.5.8 Microscopic Findings (MI)", "pdf_verbatim": "STUDYID | Study Identifier | Char | | Identifier | Unique identifier for a study. | Req", "figure_ref": null, "candidates": [{"md_atom_id": "md_dmMI_ex_a013", "md_file": "knowledge_base/domains/MI/examples.md", "md_atom_type": "TABLE_ROW", "md_parent_section": "§MI.1 [Example 1]", "md_verbatim": "| 2 | ABC | MI | ABC-2002 | 1 | HER2 | Human Epidermal Growth Factor Receptor 2 | STAINING INTENSITY | 2+ | 2+ | POSITIVE | TISSUE | BREAST | IHC | SCREENING | 2001-06-15 |", "score": 0.4074, "match_basis": "verbatim_token+domain_route:MI"}, {"md_atom_id": "md_dmMI_ex_a012", "md_file": "knowledge_base/domains/MI/examples.md", "md_atom_type": "TABLE_ROW", "md_parent_section": "§MI.1 [Example 1]", "md_verbatim": "| 1 | ABC | MI | ABC-1001 | 1 | HER2 | Human Epidermal Growth Factor Receptor 2 | STAINING INTENSITY | 0 | 0 | NEGATIVE | TISSUE | BREAST | IHC | SCREENING | 2001-06-15 |", "score": 0.4073, "match_basis": "verbatim_token+domain_route:MI"}, {"md_atom_id": "md_dmMI_ex_a025", "md_file": "knowledge_base/domains/MI/examples.md", "md_atom_type": "TABLE_ROW", "md_parent_section": "§MI.2 [Example 2]", "md_verbatim": "| 1 | ABC | MI | ABC-1001 | 1 | 1 | ESTRCPT | Estrogen Receptor | ALLRED PROPORTION POSITIVE SCORE | 3 | 3 | 3 | TISSUE | BREAST | IHC | | SCREENING | 2001-06-15 |", "score": 0.4, "match_basis": "verbatim_token+domain_route:MI"}, {"md_atom_id": "md_dmMI_ex_a026", "md_file": "knowledge_base/domains/MI/examples.md", "md_atom_type": "TABLE_ROW", "md_parent_section": "§MI.2 [Example 2]", "md_verbatim": "| 2 | ABC | MI | ABC-1001 | 2 | 1 | ESTRCPT | Estrogen Receptor | ALLRED STAINING INTENSITY SCORE | STRONG | 3 | 3 | TISSUE | BREAST | IHC | | SCREENING | 2001-06-15 |", "score": 0.4, "match_basis": "verbatim_token+domain_route:MI"}, {"md_atom_id": "md_dmMI_ex_a027", "md_file": "knowledge_base/domains/MI/examples.md", "md_atom_type": "TABLE_ROW", "md_parent_section": "§MI.2 [Example 2]", "md_verbatim": "| 3 | ABC | MI | ABC-1001 | 3 | 1 | ESTRCPT | Estrogen Receptor | ALLRED TOTAL SCORE | | 6 | 6 | TISSUE | BREAST | IHC | Y | SCREENING | 2001-06-15 |", "score": 0.4, "match_basis": "verbatim_token+domain_route:MI"}], "candidate_count": 5, "zero_candidate": false}
{"pdf_atom_id": "ig34_p0264_a006", "pdf_atom_type": "TABLE_ROW", "pdf_source": "SDTMIG_v3.4", "pdf_page": 264, "pdf_parent_section": "§6.3.5.8 Microscopic Findings (MI)", "pdf_verbatim": "DOMAIN | Domain Abbreviation | Char | MI | Identifier | Two-character abbreviation for the domain. | Req", "figure_ref": null, "candidates": [{"md_atom_id": "md_dmMI_ex_a012", "md_file": "knowledge_base/domains/MI/examples.md", "md_atom_type": "TABLE_ROW", "md_parent_section": "§MI.1 [Example 1]", "md_verbatim": "| 1 | ABC | MI | ABC-1001 | 1 | HER2 | Human Epidermal Growth Factor Receptor 2 | STAINING INTENSITY | 0 | 0 | NEGATIVE | TISSUE | BREAST | IHC | SCREENING | 2001-06-15 |", "score": 0.4333, "match_basis": "verbatim_token+domain_route:MI"}, {"md_atom_id": "md_dmMI_ex_a031", "md_file": "knowledge_base/domains/MI/examples.md", "md_atom_type": "TABLE_ROW", "md_parent_section": "§MI.2 [Example 2]", "md_verbatim": "| 1 | ABC | MI | ABC-1001 | MIGRPID | 1 | MISCELOC | Subcellular Location | NUCLEUS | CRF | |", "score": 0.4286, "match_basis": "verbatim_token+domain_route:MI"}, {"md_atom_id": "md_dmMI_ex_a049", "md_file": "knowledge_base/domains/MI/examples.md", "md_atom_type": "TABLE_ROW", "md_parent_section": "§MI.3 [Example 3]", "md_verbatim": "| 1 | ABC | MI | ABC-1001 | MIGRPID | 1 | MISCELOC | Subcellular Location | CYTOPLASM | CRF | |", "score": 0.4277, "match_basis": "verbatim_token+domain_route:MI"}, {"md_atom_id": "md_dmMI_ex_a013", "md_file": "knowledge_base/domains/MI/examples.md", "md_atom_type": "TABLE_ROW", "md_parent_section": "§MI.1 [Example 1]", "md_verbatim": "| 2 | ABC | MI | ABC-2002 | 1 | HER2 | Human Epidermal Growth Factor Receptor 2 | STAINING INTENSITY | 2+ | 2+ | POSITIVE | TISSUE | BREAST | IHC | SCREENING | 2001-06-15 |", "score": 0.4267, "match_basis": "verbatim_token+domain_route:MI"}, {"md_atom_id": "md_dmMI_ex_a025", "md_file": "knowledge_base/domains/MI/examples.md", "md_atom_type": "TABLE_ROW", "md_parent_section": "§MI.2 [Example 2]", "md_verbatim": "| 1 | ABC | MI | ABC-1001 | 1 | 1 | ESTRCPT | Estrogen Receptor | ALLRED PROPORTION POSITIVE SCORE | 3 | 3 | 3 | TISSUE | BREAST | IHC | | SCREENING | 2001-06-15 |", "score": 0.4209, "match_basis": "verbatim_token+domain_route:MI"}], "candidate_count": 5, "zero_candidate": false}
{"pdf_atom_id": "ig34_p0264_a007", "pdf_atom_type": "TABLE_ROW", "pdf_source": "SDTMIG_v3.4", "pdf_page": 264, "pdf_parent_section": "§6.3.5.8 Microscopic Findings (MI)", "pdf_verbatim": "USUBJID | Unique Subject Identifier | Char | | Identifier | Identifier used to uniquely identify a subject across all studies for all applications or submissions involving the product. | Req", "figure_ref": null, "candidates": [{"md_atom_id": "md_dmMI_ex_a031", "md_file": "knowledge_base/domains/MI/examples.md", "md_atom_type": "TABLE_ROW", "md_parent_section": "§MI.2 [Example 2]", "md_verbatim": "| 1 | ABC | MI | ABC-1001 | MIGRPID | 1 | MISCELOC | Subcellular Location | NUCLEUS | CRF | |", "score": 0.4379, "match_basis": "verbatim_token+domain_route:MI"}, {"md_atom_id": "md_dmMI_ex_a049", "md_file": "knowledge_base/domains/MI/examples.md", "md_atom_type": "TABLE_ROW", "md_parent_section": "§MI.3 [Example 3]", "md_verbatim": "| 1 | ABC | MI | ABC-1001 | MIGRPID | 1 | MISCELOC | Subcellular Location | CYTOPLASM | CRF | |", "score": 0.4371, "match_basis": "verbatim_token+domain_route:MI"}, {"md_atom_id": "md_dmMI_ex_a025", "md_file": "knowledge_base/domains/MI/examples.md", "md_atom_type": "TABLE_ROW", "md_parent_section": "§MI.2 [Example 2]", "md_verbatim": "| 1 | ABC | MI | ABC-1001 | 1 | 1 | ESTRCPT | Estrogen Receptor | ALLRED PROPORTION POSITIVE SCORE | 3 | 3 | 3 | TISSUE | BREAST | IHC | | SCREENING | 2001-06-15 |", "score": 0.4305, "match_basis": "verbatim_token+domain_route:MI"}, {"md_atom_id": "md_dmMI_ex_a012", "md_file": "knowledge_base/domains/MI/examples.md", "md_atom_type": "TABLE_ROW", "md_parent_section": "§MI.1 [Example 1]", "md_verbatim": "| 1 | ABC | MI | ABC-1001 | 1 | HER2 | Human Epidermal Growth Factor Receptor 2 | STAINING INTENSITY | 0 | 0 | NEGATIVE | TISSUE | BREAST | IHC | SCREENING | 2001-06-15 |", "score": 0.419, "match_basis": "verbatim_token+domain_route:MI"}, {"md_atom_id": "md_dmMI_ex_a027", "md_file": "knowledge_base/domains/MI/examples.md", "md_atom_type": "TABLE_ROW", "md_parent_section": "§MI.2 [Example 2]", "md_verbatim": "| 3 | ABC | MI | ABC-1001 | 3 | 1 | ESTRCPT | Estrogen Receptor | ALLRED TOTAL SCORE | | 6 | 6 | TISSUE | BREAST | IHC | Y | SCREENING | 2001-06-15 |", "score": 0.4164, "match_basis": "verbatim_token+domain_route:MI"}], "candidate_count": 5, "zero_candidate": false}
{"pdf_atom_id": "ig34_p0264_a008", "pdf_atom_type": "TABLE_ROW", "pdf_source": "SDTMIG_v3.4", "pdf_page": 264, "pdf_parent_section": "§6.3.5.8 Microscopic Findings (MI)", "pdf_verbatim": "MISEQ | Sequence Number | Num | | Identifier | Sequence number given to ensure uniqueness of subject records within a domain. May be any valid number. | Req", "figure_ref": null, "candidates": [{"md_atom_id": "md_dmMI_ex_a013", "md_file": "knowledge_base/domains/MI/examples.md", "md_atom_type": "TABLE_ROW", "md_parent_section": "§MI.1 [Example 1]", "md_verbatim": "| 2 | ABC | MI | ABC-2002 | 1 | HER2 | Human Epidermal Growth Factor Receptor 2 | STAINING INTENSITY | 2+ | 2+ | POSITIVE | TISSUE | BREAST | IHC | SCREENING | 2001-06-15 |", "score": 0.4265, "match_basis": "verbatim_token+domain_route:MI"}, {"md_atom_id": "md_dmMI_ex_a012", "md_file": "knowledge_base/domains/MI/examples.md", "md_atom_type": "TABLE_ROW", "md_parent_section": "§MI.1 [Example 1]", "md_verbatim": "| 1 | ABC | MI | ABC-1001 | 1 | HER2 | Human Epidermal Growth Factor Receptor 2 | STAINING INTENSITY | 0 | 0 | NEGATIVE | TISSUE | BREAST | IHC | SCREENING | 2001-06-15 |", "score": 0.4263, "match_basis": "verbatim_token+domain_route:MI"}, {"md_atom_id": "md_dmMI_ex_a026", "md_file": "knowledge_base/domains/MI/examples.md", "md_atom_type": "TABLE_ROW", "md_parent_section": "§MI.2 [Example 2]", "md_verbatim": "| 2 | ABC | MI | ABC-1001 | 2 | 1 | ESTRCPT | Estrogen Receptor | ALLRED STAINING INTENSITY SCORE | STRONG | 3 | 3 | TISSUE | BREAST | IHC | | SCREENING | 2001-06-15 |", "score": 0.4222, "match_basis": "verbatim_token+domain_route:MI"}, {"md_atom_id": "md_dmMI_ex_a041", "md_file": "knowledge_base/domains/MI/examples.md", "md_atom_type": "TABLE_ROW", "md_parent_section": "§MI.3 [Example 3]", "md_verbatim": "| 1 | ABC | MI | ABC-1001 | 1 | 1 | NKX2_1 | NK2 Homeobox 1 | H SCORE STAINING INTENSITY 0 | 25 | % | 25 | 25 | % | TISSUE | LUNG | IHC | | SCREENING | 2001-06-15 |", "score": 0.4189, "match_basis": "verbatim_token+domain_route:MI"}, {"md_atom_id": "md_dmMI_ex_a042", "md_file": "knowledge_base/domains/MI/examples.md", "md_atom_type": "TABLE_ROW", "md_parent_section": "§MI.3 [Example 3]", "md_verbatim": "| 2 | ABC | MI | ABC-1001 | 2 | 1 | NKX2_1 | NK2 Homeobox 1 | H SCORE STAINING INTENSITY 1+ | 40 | % | 40 | 40 | % | TISSUE | LUNG | IHC | | SCREENING | 2001-06-15 |", "score": 0.4189, "match_basis": "verbatim_token+domain_route:MI"}], "candidate_count": 5, "zero_candidate": false}
{"pdf_atom_id": "ig34_p0264_a009", "pdf_atom_type": "TABLE_ROW", "pdf_source": "SDTMIG_v3.4", "pdf_page": 264, "pdf_parent_section": "§6.3.5.8 Microscopic Findings (MI)", "pdf_verbatim": "MIGRPID | Group ID | Char | | Identifier | Used to tie together a block of related records in a single domain for a subject. This is not the treatment group number. | Perm", "figure_ref": null, "candidates": [{"md_atom_id": "md_dmMI_ex_a013", "md_file": "knowledge_base/domains/MI/examples.md", "md_atom_type": "TABLE_ROW", "md_parent_section": "§MI.1 [Example 1]", "md_verbatim": "| 2 | ABC | MI | ABC-2002 | 1 | HER2 | Human Epidermal Growth Factor Receptor 2 | STAINING INTENSITY | 2+ | 2+ | POSITIVE | TISSUE | BREAST | IHC | SCREENING | 2001-06-15 |", "score": 0.4446, "match_basis": "verbatim_token+domain_route:MI"}, {"md_atom_id": "md_dmMI_ex_a012", "md_file": "knowledge_base/domains/MI/examples.md", "md_atom_type": "TABLE_ROW", "md_parent_section": "§MI.1 [Example 1]", "md_verbatim": "| 1 | ABC | MI | ABC-1001 | 1 | HER2 | Human Epidermal Growth Factor Receptor 2 | STAINING INTENSITY | 0 | 0 | NEGATIVE | TISSUE | BREAST | IHC | SCREENING | 2001-06-15 |", "score": 0.4443, "match_basis": "verbatim_token+domain_route:MI"}, {"md_atom_id": "md_dmMI_ex_a031", "md_file": "knowledge_base/domains/MI/examples.md", "md_atom_type": "TABLE_ROW", "md_parent_section": "§MI.2 [Example 2]", "md_verbatim": "| 1 | ABC | MI | ABC-1001 | MIGRPID | 1 | MISCELOC | Subcellular Location | NUCLEUS | CRF | |", "score": 0.4442, "match_basis": "verbatim_token+domain_route:MI"}, {"md_atom_id": "md_dmMI_ex_a049", "md_file": "knowledge_base/domains/MI/examples.md", "md_atom_type": "TABLE_ROW", "md_parent_section": "§MI.3 [Example 3]", "md_verbatim": "| 1 | ABC | MI | ABC-1001 | MIGRPID | 1 | MISCELOC | Subcellular Location | CYTOPLASM | CRF | |", "score": 0.4433, "match_basis": "verbatim_token+domain_route:MI"}, {"md_atom_id": "md_dmMI_ex_a026", "md_file": "knowledge_base/domains/MI/examples.md", "md_atom_type": "TABLE_ROW", "md_parent_section": "§MI.2 [Example 2]", "md_verbatim": "| 2 | ABC | MI | ABC-1001 | 2 | 1 | ESTRCPT | Estrogen Receptor | ALLRED STAINING INTENSITY SCORE | STRONG | 3 | 3 | TISSUE | BREAST | IHC | | SCREENING | 2001-06-15 |", "score": 0.4305, "match_basis": "verbatim_token+domain_route:MI"}], "candidate_count": 5, "zero_candidate": false}
{"pdf_atom_id": "ig34_p0264_a010", "pdf_atom_type": "TABLE_ROW", "pdf_source": "SDTMIG_v3.4", "pdf_page": 264, "pdf_parent_section": "§6.3.5.8 Microscopic Findings (MI)", "pdf_verbatim": "MIREFID | Reference ID | Char | | Identifier | Internal or external specimen identifier. Example: specimen barcode number. | Perm", "figure_ref": null, "candidates": [{"md_atom_id": "md_dmMI_ex_a013", "md_file": "knowledge_base/domains/MI/examples.md", "md_atom_type": "TABLE_ROW", "md_parent_section": "§MI.1 [Example 1]", "md_verbatim": "| 2 | ABC | MI | ABC-2002 | 1 | HER2 | Human Epidermal Growth Factor Receptor 2 | STAINING INTENSITY | 2+ | 2+ | POSITIVE | TISSUE | BREAST | IHC | SCREENING | 2001-06-15 |", "score": 0.4222, "match_basis": "verbatim_token+domain_route:MI"}, {"md_atom_id": "md_dmMI_ex_a012", "md_file": "knowledge_base/domains/MI/examples.md", "md_atom_type": "TABLE_ROW", "md_parent_section": "§MI.1 [Example 1]", "md_verbatim": "| 1 | ABC | MI | ABC-1001 | 1 | HER2 | Human Epidermal Growth Factor Receptor 2 | STAINING INTENSITY | 0 | 0 | NEGATIVE | TISSUE | BREAST | IHC | SCREENING | 2001-06-15 |", "score": 0.422, "match_basis": "verbatim_token+domain_route:MI"}, {"md_atom_id": "md_dmMI_ex_a041", "md_file": "knowledge_base/domains/MI/examples.md", "md_atom_type": "TABLE_ROW", "md_parent_section": "§MI.3 [Example 3]", "md_verbatim": "| 1 | ABC | MI | ABC-1001 | 1 | 1 | NKX2_1 | NK2 Homeobox 1 | H SCORE STAINING INTENSITY 0 | 25 | % | 25 | 25 | % | TISSUE | LUNG | IHC | | SCREENING | 2001-06-15 |", "score": 0.4133, "match_basis": "verbatim_token+domain_route:MI"}, {"md_atom_id": "md_dmMI_ex_a042", "md_file": "knowledge_base/domains/MI/examples.md", "md_atom_type": "TABLE_ROW", "md_parent_section": "§MI.3 [Example 3]", "md_verbatim": "| 2 | ABC | MI | ABC-1001 | 2 | 1 | NKX2_1 | NK2 Homeobox 1 | H SCORE STAINING INTENSITY 1+ | 40 | % | 40 | 40 | % | TISSUE | LUNG | IHC | | SCREENING | 2001-06-15 |", "score": 0.4133, "match_basis": "verbatim_token+domain_route:MI"}, {"md_atom_id": "md_dmMI_ex_a043", "md_file": "knowledge_base/domains/MI/examples.md", "md_atom_type": "TABLE_ROW", "md_parent_section": "§MI.3 [Example 3]", "md_verbatim": "| 3 | ABC | MI | ABC-1001 | 3 | 1 | NKX2_1 | NK2 Homeobox 1 | H SCORE STAINING INTENSITY 2+ | 35 | % | 35 | 35 | % | TISSUE | LUNG | IHC | | SCREENING | 2001-06-15 |", "score": 0.4133, "match_basis": "verbatim_token+domain_route:MI"}], "candidate_count": 5, "zero_candidate": false}
{"pdf_atom_id": "ig34_p0264_a011", "pdf_atom_type": "TABLE_ROW", "pdf_source": "SDTMIG_v3.4", "pdf_page": 264, "pdf_parent_section": "§6.3.5.8 Microscopic Findings (MI)", "pdf_verbatim": "MISPID | Sponsor-Defined Identifier | Char | | Identifier | Sponsor-defined reference number. May be printed on the CRF as an explicit line identifier or defined in the sponsor's operational database. Example: line number from the MI Findings page. | Perm", "figure_ref": null, "candidates": [{"md_atom_id": "md_dmMI_ex_a031", "md_file": "knowledge_base/domains/MI/examples.md", "md_atom_type": "TABLE_ROW", "md_parent_section": "§MI.2 [Example 2]", "md_verbatim": "| 1 | ABC | MI | ABC-1001 | MIGRPID | 1 | MISCELOC | Subcellular Location | NUCLEUS | CRF | |", "score": 0.4336, "match_basis": "verbatim_token+domain_route:MI"}, {"md_atom_id": "md_dmMI_ex_a049", "md_file": "knowledge_base/domains/MI/examples.md", "md_atom_type": "TABLE_ROW", "md_parent_section": "§MI.3 [Example 3]", "md_verbatim": "| 1 | ABC | MI | ABC-1001 | MIGRPID | 1 | MISCELOC | Subcellular Location | CYTOPLASM | CRF | |", "score": 0.433, "match_basis": "verbatim_token+domain_route:MI"}, {"md_atom_id": "md_dmMI_ex_a012", "md_file": "knowledge_base/domains/MI/examples.md", "md_atom_type": "TABLE_ROW", "md_parent_section": "§MI.1 [Example 1]", "md_verbatim": "| 1 | ABC | MI | ABC-1001 | 1 | HER2 | Human Epidermal Growth Factor Receptor 2 | STAINING INTENSITY | 0 | 0 | NEGATIVE | TISSUE | BREAST | IHC | SCREENING | 2001-06-15 |", "score": 0.4311, "match_basis": "verbatim_token+domain_route:MI"}, {"md_atom_id": "md_dmMI_ex_a013", "md_file": "knowledge_base/domains/MI/examples.md", "md_atom_type": "TABLE_ROW", "md_parent_section": "§MI.1 [Example 1]", "md_verbatim": "| 2 | ABC | MI | ABC-2002 | 1 | HER2 | Human Epidermal Growth Factor Receptor 2 | STAINING INTENSITY | 2+ | 2+ | POSITIVE | TISSUE | BREAST | IHC | SCREENING | 2001-06-15 |", "score": 0.4267, "match_basis": "verbatim_token+domain_route:MI"}, {"md_atom_id": "md_dmMI_ex_a041", "md_file": "knowledge_base/domains/MI/examples.md", "md_atom_type": "TABLE_ROW", "md_parent_section": "§MI.3 [Example 3]", "md_verbatim": "| 1 | ABC | MI | ABC-1001 | 1 | 1 | NKX2_1 | NK2 Homeobox 1 | H SCORE STAINING INTENSITY 0 | 25 | % | 25 | 25 | % | TISSUE | LUNG | IHC | | SCREENING | 2001-06-15 |", "score": 0.4153, "match_basis": "verbatim_token+domain_route:MI"}], "candidate_count": 5, "zero_candidate": false}
{"pdf_atom_id": "ig34_p0264_a012", "pdf_atom_type": "TABLE_ROW", "pdf_source": "SDTMIG_v3.4", "pdf_page": 264, "pdf_parent_section": "§6.3.5.8 Microscopic Findings (MI)", "pdf_verbatim": "MITESTCD | Microscopic Examination Short Name | Char | (MITSCD) | Topic | Short name of the measurement, test, or examination described in MITEST. It can be used as a column name when converting a dataset from a vertical to a horizontal format. The value in MITESTCD cannot be longer than 8 characters, nor can it start with a number (e.g., \"1TEST\" is not valid). MITESTCD cannot contain characters other than letters, numbers, or underscores. Examples: \"HER2\", \"BRCA1\", \"TTF1\". | Req", "figure_ref": null, "candidates": [{"md_atom_id": "md_dmMI_ex_a012", "md_file": "knowledge_base/domains/MI/examples.md", "md_atom_type": "TABLE_ROW", "md_parent_section": "§MI.1 [Example 1]", "md_verbatim": "| 1 | ABC | MI | ABC-1001 | 1 | HER2 | Human Epidermal Growth Factor Receptor 2 | STAINING INTENSITY | 0 | 0 | NEGATIVE | TISSUE | BREAST | IHC | SCREENING | 2001-06-15 |", "score": 0.4367, "match_basis": "verbatim_token+domain_route:MI"}, {"md_atom_id": "md_dmMI_ex_a026", "md_file": "knowledge_base/domains/MI/examples.md", "md_atom_type": "TABLE_ROW", "md_parent_section": "§MI.2 [Example 2]", "md_verbatim": "| 2 | ABC | MI | ABC-1001 | 2 | 1 | ESTRCPT | Estrogen Receptor | ALLRED STAINING INTENSITY SCORE | STRONG | 3 | 3 | TISSUE | BREAST | IHC | | SCREENING | 2001-06-15 |", "score": 0.4347, "match_basis": "verbatim_token+domain_route:MI"}, {"md_atom_id": "md_dmMI_ex_a025", "md_file": "knowledge_base/domains/MI/examples.md", "md_atom_type": "TABLE_ROW", "md_parent_section": "§MI.2 [Example 2]", "md_verbatim": "| 1 | ABC | MI | ABC-1001 | 1 | 1 | ESTRCPT | Estrogen Receptor | ALLRED PROPORTION POSITIVE SCORE | 3 | 3 | 3 | TISSUE | BREAST | IHC | | SCREENING | 2001-06-15 |", "score": 0.4346, "match_basis": "verbatim_token+domain_route:MI"}, {"md_atom_id": "md_dmMI_ex_a013", "md_file": "knowledge_base/domains/MI/examples.md", "md_atom_type": "TABLE_ROW", "md_parent_section": "§MI.1 [Example 1]", "md_verbatim": "| 2 | ABC | MI | ABC-2002 | 1 | HER2 | Human Epidermal Growth Factor Receptor 2 | STAINING INTENSITY | 2+ | 2+ | POSITIVE | TISSUE | BREAST | IHC | SCREENING | 2001-06-15 |", "score": 0.4337, "match_basis": "verbatim_token+domain_route:MI"}, {"md_atom_id": "md_dmMI_ex_a041", "md_file": "knowledge_base/domains/MI/examples.md", "md_atom_type": "TABLE_ROW", "md_parent_section": "§MI.3 [Example 3]", "md_verbatim": "| 1 | ABC | MI | ABC-1001 | 1 | 1 | NKX2_1 | NK2 Homeobox 1 | H SCORE STAINING INTENSITY 0 | 25 | % | 25 | 25 | % | TISSUE | LUNG | IHC | | SCREENING | 2001-06-15 |", "score": 0.4268, "match_basis": "verbatim_token+domain_route:MI"}], "candidate_count": 5, "zero_candidate": false}
{"pdf_atom_id": "ig34_p0264_a013", "pdf_atom_type": "TABLE_ROW", "pdf_source": "SDTMIG_v3.4", "pdf_page": 264, "pdf_parent_section": "§6.3.5.8 Microscopic Findings (MI)", "pdf_verbatim": "MITEST | Microscopic Examination Name | Char | (MITS) | Synonym Qualifier | Verbatim name of the test or examination used to obtain the measurement or finding. The value in MITEST cannot be longer than 40 characters. Examples: \"Human Epidermal Growth Factor Receptor 2\", \"Breast Cancer Susceptibility Gene 1\", \"Thyroid Transcription Factor 1\". | Req", "figure_ref": null, "candidates": [{"md_atom_id": "md_dmMI_ex_a012", "md_file": "knowledge_base/domains/MI/examples.md", "md_atom_type": "TABLE_ROW", "md_parent_section": "§MI.1 [Example 1]", "md_verbatim": "| 1 | ABC | MI | ABC-1001 | 1 | HER2 | Human Epidermal Growth Factor Receptor 2 | STAINING INTENSITY | 0 | 0 | NEGATIVE | TISSUE | BREAST | IHC | SCREENING | 2001-06-15 |", "score": 0.5158, "match_basis": "verbatim_token+domain_route:MI"}, {"md_atom_id": "md_dmMI_ex_a013", "md_file": "knowledge_base/domains/MI/examples.md", "md_atom_type": "TABLE_ROW", "md_parent_section": "§MI.1 [Example 1]", "md_verbatim": "| 2 | ABC | MI | ABC-2002 | 1 | HER2 | Human Epidermal Growth Factor Receptor 2 | STAINING INTENSITY | 2+ | 2+ | POSITIVE | TISSUE | BREAST | IHC | SCREENING | 2001-06-15 |", "score": 0.5123, "match_basis": "verbatim_token+domain_route:MI"}, {"md_atom_id": "md_dmMI_ex_a026", "md_file": "knowledge_base/domains/MI/examples.md", "md_atom_type": "TABLE_ROW", "md_parent_section": "§MI.2 [Example 2]", "md_verbatim": "| 2 | ABC | MI | ABC-1001 | 2 | 1 | ESTRCPT | Estrogen Receptor | ALLRED STAINING INTENSITY SCORE | STRONG | 3 | 3 | TISSUE | BREAST | IHC | | SCREENING | 2001-06-15 |", "score": 0.464, "match_basis": "verbatim_token+domain_route:MI"}, {"md_atom_id": "md_dmMI_ex_a025", "md_file": "knowledge_base/domains/MI/examples.md", "md_atom_type": "TABLE_ROW", "md_parent_section": "§MI.2 [Example 2]", "md_verbatim": "| 1 | ABC | MI | ABC-1001 | 1 | 1 | ESTRCPT | Estrogen Receptor | ALLRED PROPORTION POSITIVE SCORE | 3 | 3 | 3 | TISSUE | BREAST | IHC | | SCREENING | 2001-06-15 |", "score": 0.4564, "match_basis": "verbatim_token+domain_route:MI"}, {"md_atom_id": "md_dmMI_ex_a027", "md_file": "knowledge_base/domains/MI/examples.md", "md_atom_type": "TABLE_ROW", "md_parent_section": "§MI.2 [Example 2]", "md_verbatim": "| 3 | ABC | MI | ABC-1001 | 3 | 1 | ESTRCPT | Estrogen Receptor | ALLRED TOTAL SCORE | | 6 | 6 | TISSUE | BREAST | IHC | Y | SCREENING | 2001-06-15 |", "score": 0.4523, "match_basis": "verbatim_token+domain_route:MI"}], "candidate_count": 5, "zero_candidate": false}
{"pdf_atom_id": "ig34_p0264_a014", "pdf_atom_type": "TABLE_ROW", "pdf_source": "SDTMIG_v3.4", "pdf_page": 264, "pdf_parent_section": "§6.3.5.8 Microscopic Findings (MI)", "pdf_verbatim": "MITSTDTL | Microscopic Examination Detail | Char | (MIFTSDTL) | Record Qualifier | Further description of the test performed in producing the MI result. This would be used to represent specific attributes, such as intensity score or percentage of cells displaying presence of the biomarker or compound. | Perm", "figure_ref": null, "candidates": [{"md_atom_id": "md_dmMI_ex_a026", "md_file": "knowledge_base/domains/MI/examples.md", "md_atom_type": "TABLE_ROW", "md_parent_section": "§MI.2 [Example 2]", "md_verbatim": "| 2 | ABC | MI | ABC-1001 | 2 | 1 | ESTRCPT | Estrogen Receptor | ALLRED STAINING INTENSITY SCORE | STRONG | 3 | 3 | TISSUE | BREAST | IHC | | SCREENING | 2001-06-15 |", "score": 0.4486, "match_basis": "verbatim_token+domain_route:MI"}, {"md_atom_id": "md_dmMI_assn_a003", "md_file": "knowledge_base/domains/MI/assumptions.md", "md_atom_type": "LIST_ITEM", "md_parent_section": "§MI [MI — Assumptions]", "md_verbatim": "2. When biomarker results are represented in MI, MITESTCD reflects the biomarker of interest (e.g., \"BRCA1\", \"HER2\", \"TTF1\"), and MITSTDTL further qualifies the record. MITSTDTL is used to represent details descriptive of staining results (e.g., \"H SCORE TOTAL SCORE\", \"STAINING INTENSITY\", \"PERCENT POSITIVE CELL\").", "score": 0.4475, "match_basis": "verbatim_token+domain_route:MI"}, {"md_atom_id": "md_dmMI_ex_a041", "md_file": "knowledge_base/domains/MI/examples.md", "md_atom_type": "TABLE_ROW", "md_parent_section": "§MI.3 [Example 3]", "md_verbatim": "| 1 | ABC | MI | ABC-1001 | 1 | 1 | NKX2_1 | NK2 Homeobox 1 | H SCORE STAINING INTENSITY 0 | 25 | % | 25 | 25 | % | TISSUE | LUNG | IHC | | SCREENING | 2001-06-15 |", "score": 0.4451, "match_basis": "verbatim_token+domain_route:MI"}, {"md_atom_id": "md_dmMI_ex_a042", "md_file": "knowledge_base/domains/MI/examples.md", "md_atom_type": "TABLE_ROW", "md_parent_section": "§MI.3 [Example 3]", "md_verbatim": "| 2 | ABC | MI | ABC-1001 | 2 | 1 | NKX2_1 | NK2 Homeobox 1 | H SCORE STAINING INTENSITY 1+ | 40 | % | 40 | 40 | % | TISSUE | LUNG | IHC | | SCREENING | 2001-06-15 |", "score": 0.4451, "match_basis": "verbatim_token+domain_route:MI"}, {"md_atom_id": "md_dmMI_ex_a043", "md_file": "knowledge_base/domains/MI/examples.md", "md_atom_type": "TABLE_ROW", "md_parent_section": "§MI.3 [Example 3]", "md_verbatim": "| 3 | ABC | MI | ABC-1001 | 3 | 1 | NKX2_1 | NK2 Homeobox 1 | H SCORE STAINING INTENSITY 2+ | 35 | % | 35 | 35 | % | TISSUE | LUNG | IHC | | SCREENING | 2001-06-15 |", "score": 0.4451, "match_basis": "verbatim_token+domain_route:MI"}], "candidate_count": 5, "zero_candidate": false}
{"pdf_atom_id": "ig34_p0264_a015", "pdf_atom_type": "TABLE_ROW", "pdf_source": "SDTMIG_v3.4", "pdf_page": 264, "pdf_parent_section": "§6.3.5.8 Microscopic Findings (MI)", "pdf_verbatim": "MICAT | Category for Microscopic Finding | Char | * | Grouping Qualifier | Used to define a category of related records. | Perm", "figure_ref": null, "candidates": [{"md_atom_id": "md_dmMI_ex_a027", "md_file": "knowledge_base/domains/MI/examples.md", "md_atom_type": "TABLE_ROW", "md_parent_section": "§MI.2 [Example 2]", "md_verbatim": "| 3 | ABC | MI | ABC-1001 | 3 | 1 | ESTRCPT | Estrogen Receptor | ALLRED TOTAL SCORE | | 6 | 6 | TISSUE | BREAST | IHC | Y | SCREENING | 2001-06-15 |", "score": 0.4258, "match_basis": "verbatim_token+domain_route:MI"}, {"md_atom_id": "md_dmMI_ex_a026", "md_file": "knowledge_base/domains/MI/examples.md", "md_atom_type": "TABLE_ROW", "md_parent_section": "§MI.2 [Example 2]", "md_verbatim": "| 2 | ABC | MI | ABC-1001 | 2 | 1 | ESTRCPT | Estrogen Receptor | ALLRED STAINING INTENSITY SCORE | STRONG | 3 | 3 | TISSUE | BREAST | IHC | | SCREENING | 2001-06-15 |", "score": 0.4233, "match_basis": "verbatim_token+domain_route:MI"}, {"md_atom_id": "md_dmMI_ex_a025", "md_file": "knowledge_base/domains/MI/examples.md", "md_atom_type": "TABLE_ROW", "md_parent_section": "§MI.2 [Example 2]", "md_verbatim": "| 1 | ABC | MI | ABC-1001 | 1 | 1 | ESTRCPT | Estrogen Receptor | ALLRED PROPORTION POSITIVE SCORE | 3 | 3 | 3 | TISSUE | BREAST | IHC | | SCREENING | 2001-06-15 |", "score": 0.4231, "match_basis": "verbatim_token+domain_route:MI"}, {"md_atom_id": "md_dmMI_ex_a013", "md_file": "knowledge_base/domains/MI/examples.md", "md_atom_type": "TABLE_ROW", "md_parent_section": "§MI.1 [Example 1]", "md_verbatim": "| 2 | ABC | MI | ABC-2002 | 1 | HER2 | Human Epidermal Growth Factor Receptor 2 | STAINING INTENSITY | 2+ | 2+ | POSITIVE | TISSUE | BREAST | IHC | SCREENING | 2001-06-15 |", "score": 0.422, "match_basis": "verbatim_token+domain_route:MI"}, {"md_atom_id": "md_dmMI_ex_a012", "md_file": "knowledge_base/domains/MI/examples.md", "md_atom_type": "TABLE_ROW", "md_parent_section": "§MI.1 [Example 1]", "md_verbatim": "| 1 | ABC | MI | ABC-1001 | 1 | HER2 | Human Epidermal Growth Factor Receptor 2 | STAINING INTENSITY | 0 | 0 | NEGATIVE | TISSUE | BREAST | IHC | SCREENING | 2001-06-15 |", "score": 0.4218, "match_basis": "verbatim_token+domain_route:MI"}], "candidate_count": 5, "zero_candidate": false}
{"pdf_atom_id": "ig34_p0264_a016", "pdf_atom_type": "TABLE_ROW", "pdf_source": "SDTMIG_v3.4", "pdf_page": 264, "pdf_parent_section": "§6.3.5.8 Microscopic Findings (MI)", "pdf_verbatim": "MISCAT | Subcategory for Microscopic Finding | Char | * | Grouping Qualifier | Used to define a further categorization of MICAT. | Perm", "figure_ref": null, "candidates": [{"md_atom_id": "md_dmMI_ex_a031", "md_file": "knowledge_base/domains/MI/examples.md", "md_atom_type": "TABLE_ROW", "md_parent_section": "§MI.2 [Example 2]", "md_verbatim": "| 1 | ABC | MI | ABC-1001 | MIGRPID | 1 | MISCELOC | Subcellular Location | NUCLEUS | CRF | |", "score": 0.4558, "match_basis": "verbatim_token+domain_route:MI"}, {"md_atom_id": "md_dmMI_ex_a049", "md_file": "knowledge_base/domains/MI/examples.md", "md_atom_type": "TABLE_ROW", "md_parent_section": "§MI.3 [Example 3]", "md_verbatim": "| 1 | ABC | MI | ABC-1001 | MIGRPID | 1 | MISCELOC | Subcellular Location | CYTOPLASM | CRF | |", "score": 0.4545, "match_basis": "verbatim_token+domain_route:MI"}, {"md_atom_id": "md_dmMI_ex_a012", "md_file": "knowledge_base/domains/MI/examples.md", "md_atom_type": "TABLE_ROW", "md_parent_section": "§MI.1 [Example 1]", "md_verbatim": "| 1 | ABC | MI | ABC-1001 | 1 | HER2 | Human Epidermal Growth Factor Receptor 2 | STAINING INTENSITY | 0 | 0 | NEGATIVE | TISSUE | BREAST | IHC | SCREENING | 2001-06-15 |", "score": 0.4254, "match_basis": "verbatim_token+domain_route:MI"}, {"md_atom_id": "md_dmMI_ex_a025", "md_file": "knowledge_base/domains/MI/examples.md", "md_atom_type": "TABLE_ROW", "md_parent_section": "§MI.2 [Example 2]", "md_verbatim": "| 1 | ABC | MI | ABC-1001 | 1 | 1 | ESTRCPT | Estrogen Receptor | ALLRED PROPORTION POSITIVE SCORE | 3 | 3 | 3 | TISSUE | BREAST | IHC | | SCREENING | 2001-06-15 |", "score": 0.4212, "match_basis": "verbatim_token+domain_route:MI"}, {"md_atom_id": "md_dmMI_ex_a013", "md_file": "knowledge_base/domains/MI/examples.md", "md_atom_type": "TABLE_ROW", "md_parent_section": "§MI.1 [Example 1]", "md_verbatim": "| 2 | ABC | MI | ABC-2002 | 1 | HER2 | Human Epidermal Growth Factor Receptor 2 | STAINING INTENSITY | 2+ | 2+ | POSITIVE | TISSUE | BREAST | IHC | SCREENING | 2001-06-15 |", "score": 0.4203, "match_basis": "verbatim_token+domain_route:MI"}], "candidate_count": 5, "zero_candidate": false}
{"pdf_atom_id": "ig34_p0264_a017", "pdf_atom_type": "TABLE_ROW", "pdf_source": "SDTMIG_v3.4", "pdf_page": 264, "pdf_parent_section": "§6.3.5.8 Microscopic Findings (MI)", "pdf_verbatim": "MIORRES | Result or Finding in Original Units | Char | | Result Qualifier | Result of the histopathology measurement or finding as originally received or collected. | Exp", "figure_ref": null, "candidates": [{"md_atom_id": "md_dmMI_ex_a025", "md_file": "knowledge_base/domains/MI/examples.md", "md_atom_type": "TABLE_ROW", "md_parent_section": "§MI.2 [Example 2]", "md_verbatim": "| 1 | ABC | MI | ABC-1001 | 1 | 1 | ESTRCPT | Estrogen Receptor | ALLRED PROPORTION POSITIVE SCORE | 3 | 3 | 3 | TISSUE | BREAST | IHC | | SCREENING | 2001-06-15 |", "score": 0.4303, "match_basis": "verbatim_token+domain_route:MI"}, {"md_atom_id": "md_dmMI_ex_a027", "md_file": "knowledge_base/domains/MI/examples.md", "md_atom_type": "TABLE_ROW", "md_parent_section": "§MI.2 [Example 2]", "md_verbatim": "| 3 | ABC | MI | ABC-1001 | 3 | 1 | ESTRCPT | Estrogen Receptor | ALLRED TOTAL SCORE | | 6 | 6 | TISSUE | BREAST | IHC | Y | SCREENING | 2001-06-15 |", "score": 0.4275, "match_basis": "verbatim_token+domain_route:MI"}, {"md_atom_id": "md_dmMI_ex_a026", "md_file": "knowledge_base/domains/MI/examples.md", "md_atom_type": "TABLE_ROW", "md_parent_section": "§MI.2 [Example 2]", "md_verbatim": "| 2 | ABC | MI | ABC-1001 | 2 | 1 | ESTRCPT | Estrogen Receptor | ALLRED STAINING INTENSITY SCORE | STRONG | 3 | 3 | TISSUE | BREAST | IHC | | SCREENING | 2001-06-15 |", "score": 0.4252, "match_basis": "verbatim_token+domain_route:MI"}, {"md_atom_id": "md_dmMI_ex_a013", "md_file": "knowledge_base/domains/MI/examples.md", "md_atom_type": "TABLE_ROW", "md_parent_section": "§MI.1 [Example 1]", "md_verbatim": "| 2 | ABC | MI | ABC-2002 | 1 | HER2 | Human Epidermal Growth Factor Receptor 2 | STAINING INTENSITY | 2+ | 2+ | POSITIVE | TISSUE | BREAST | IHC | SCREENING | 2001-06-15 |", "score": 0.424, "match_basis": "verbatim_token+domain_route:MI"}, {"md_atom_id": "md_dmMI_ex_a012", "md_file": "knowledge_base/domains/MI/examples.md", "md_atom_type": "TABLE_ROW", "md_parent_section": "§MI.1 [Example 1]", "md_verbatim": "| 1 | ABC | MI | ABC-1001 | 1 | HER2 | Human Epidermal Growth Factor Receptor 2 | STAINING INTENSITY | 0 | 0 | NEGATIVE | TISSUE | BREAST | IHC | SCREENING | 2001-06-15 |", "score": 0.4238, "match_basis": "verbatim_token+domain_route:MI"}], "candidate_count": 5, "zero_candidate": false}
{"pdf_atom_id": "ig34_p0264_a018", "pdf_atom_type": "TABLE_ROW", "pdf_source": "SDTMIG_v3.4", "pdf_page": 264, "pdf_parent_section": "§6.3.5.8 Microscopic Findings (MI)", "pdf_verbatim": "MIORRESU | Original Units | Char | (UNIT) | Variable Qualifier | Original unit for MIORRES. | Perm", "figure_ref": null, "candidates": [{"md_atom_id": "md_dmMI_ex_a013", "md_file": "knowledge_base/domains/MI/examples.md", "md_atom_type": "TABLE_ROW", "md_parent_section": "§MI.1 [Example 1]", "md_verbatim": "| 2 | ABC | MI | ABC-2002 | 1 | HER2 | Human Epidermal Growth Factor Receptor 2 | STAINING INTENSITY | 2+ | 2+ | POSITIVE | TISSUE | BREAST | IHC | SCREENING | 2001-06-15 |", "score": 0.4065, "match_basis": "verbatim_token+domain_route:MI"}, {"md_atom_id": "md_dmMI_ex_a012", "md_file": "knowledge_base/domains/MI/examples.md", "md_atom_type": "TABLE_ROW", "md_parent_section": "§MI.1 [Example 1]", "md_verbatim": "| 1 | ABC | MI | ABC-1001 | 1 | HER2 | Human Epidermal Growth Factor Receptor 2 | STAINING INTENSITY | 0 | 0 | NEGATIVE | TISSUE | BREAST | IHC | SCREENING | 2001-06-15 |", "score": 0.4064, "match_basis": "verbatim_token+domain_route:MI"}, {"md_atom_id": "md_dmMI_ex_a025", "md_file": "knowledge_base/domains/MI/examples.md", "md_atom_type": "TABLE_ROW", "md_parent_section": "§MI.2 [Example 2]", "md_verbatim": "| 1 | ABC | MI | ABC-1001 | 1 | 1 | ESTRCPT | Estrogen Receptor | ALLRED PROPORTION POSITIVE SCORE | 3 | 3 | 3 | TISSUE | BREAST | IHC | | SCREENING | 2001-06-15 |", "score": 0.4, "match_basis": "verbatim_token+domain_route:MI"}, {"md_atom_id": "md_dmMI_ex_a026", "md_file": "knowledge_base/domains/MI/examples.md", "md_atom_type": "TABLE_ROW", "md_parent_section": "§MI.2 [Example 2]", "md_verbatim": "| 2 | ABC | MI | ABC-1001 | 2 | 1 | ESTRCPT | Estrogen Receptor | ALLRED STAINING INTENSITY SCORE | STRONG | 3 | 3 | TISSUE | BREAST | IHC | | SCREENING | 2001-06-15 |", "score": 0.4, "match_basis": "verbatim_token+domain_route:MI"}, {"md_atom_id": "md_dmMI_ex_a027", "md_file": "knowledge_base/domains/MI/examples.md", "md_atom_type": "TABLE_ROW", "md_parent_section": "§MI.2 [Example 2]", "md_verbatim": "| 3 | ABC | MI | ABC-1001 | 3 | 1 | ESTRCPT | Estrogen Receptor | ALLRED TOTAL SCORE | | 6 | 6 | TISSUE | BREAST | IHC | Y | SCREENING | 2001-06-15 |", "score": 0.4, "match_basis": "verbatim_token+domain_route:MI"}], "candidate_count": 5, "zero_candidate": false}
{"pdf_atom_id": "ig34_p0264_a019", "pdf_atom_type": "TABLE_ROW", "pdf_source": "SDTMIG_v3.4", "pdf_page": 264, "pdf_parent_section": "§6.3.5.8 Microscopic Findings (MI)", "pdf_verbatim": "MISTRESC | Character Result/Finding in Std Format | Char | | Result Qualifier | Contains the result value for all findings; copied or derived from MIORRES in a standard format or standard units. MISTRESC should store all results or findings in character format; if results are numeric, they should also be stored in numeric format in MISTRESN. | Exp", "figure_ref": null, "candidates": [{"md_atom_id": "md_dmMI_ex_a026", "md_file": "knowledge_base/domains/MI/examples.md", "md_atom_type": "TABLE_ROW", "md_parent_section": "§MI.2 [Example 2]", "md_verbatim": "| 2 | ABC | MI | ABC-1001 | 2 | 1 | ESTRCPT | Estrogen Receptor | ALLRED STAINING INTENSITY SCORE | STRONG | 3 | 3 | TISSUE | BREAST | IHC | | SCREENING | 2001-06-15 |", "score": 0.4403, "match_basis": "verbatim_token+domain_route:MI"}, {"md_atom_id": "md_dmMI_ex_a013", "md_file": "knowledge_base/domains/MI/examples.md", "md_atom_type": "TABLE_ROW", "md_parent_section": "§MI.1 [Example 1]", "md_verbatim": "| 2 | ABC | MI | ABC-2002 | 1 | HER2 | Human Epidermal Growth Factor Receptor 2 | STAINING INTENSITY | 2+ | 2+ | POSITIVE | TISSUE | BREAST | IHC | SCREENING | 2001-06-15 |", "score": 0.4386, "match_basis": "verbatim_token+domain_route:MI"}, {"md_atom_id": "md_dmMI_ex_a012", "md_file": "knowledge_base/domains/MI/examples.md", "md_atom_type": "TABLE_ROW", "md_parent_section": "§MI.1 [Example 1]", "md_verbatim": "| 1 | ABC | MI | ABC-1001 | 1 | HER2 | Human Epidermal Growth Factor Receptor 2 | STAINING INTENSITY | 0 | 0 | NEGATIVE | TISSUE | BREAST | IHC | SCREENING | 2001-06-15 |", "score": 0.4383, "match_basis": "verbatim_token+domain_route:MI"}, {"md_atom_id": "md_dmMI_ex_a025", "md_file": "knowledge_base/domains/MI/examples.md", "md_atom_type": "TABLE_ROW", "md_parent_section": "§MI.2 [Example 2]", "md_verbatim": "| 1 | ABC | MI | ABC-1001 | 1 | 1 | ESTRCPT | Estrogen Receptor | ALLRED PROPORTION POSITIVE SCORE | 3 | 3 | 3 | TISSUE | BREAST | IHC | | SCREENING | 2001-06-15 |", "score": 0.4307, "match_basis": "verbatim_token+domain_route:MI"}, {"md_atom_id": "md_dmMI_ex_a027", "md_file": "knowledge_base/domains/MI/examples.md", "md_atom_type": "TABLE_ROW", "md_parent_section": "§MI.2 [Example 2]", "md_verbatim": "| 3 | ABC | MI | ABC-1001 | 3 | 1 | ESTRCPT | Estrogen Receptor | ALLRED TOTAL SCORE | | 6 | 6 | TISSUE | BREAST | IHC | Y | SCREENING | 2001-06-15 |", "score": 0.4283, "match_basis": "verbatim_token+domain_route:MI"}], "candidate_count": 5, "zero_candidate": false}
{"pdf_atom_id": "ig34_p0264_a020", "pdf_atom_type": "TABLE_ROW", "pdf_source": "SDTMIG_v3.4", "pdf_page": 264, "pdf_parent_section": "§6.3.5.8 Microscopic Findings (MI)", "pdf_verbatim": "MISTRESN | Numeric Result/Finding in Standard Units | Num | | Result Qualifier | Used for continuous or numeric results or findings in standard format; copied in numeric format from MISTRESC. MISTRESN should store all numeric test results or findings. | Perm", "figure_ref": null, "candidates": [{"md_atom_id": "md_dmMI_ex_a026", "md_file": "knowledge_base/domains/MI/examples.md", "md_atom_type": "TABLE_ROW", "md_parent_section": "§MI.2 [Example 2]", "md_verbatim": "| 2 | ABC | MI | ABC-1001 | 2 | 1 | ESTRCPT | Estrogen Receptor | ALLRED STAINING INTENSITY SCORE | STRONG | 3 | 3 | TISSUE | BREAST | IHC | | SCREENING | 2001-06-15 |", "score": 0.4356, "match_basis": "verbatim_token+domain_route:MI"}, {"md_atom_id": "md_dmMI_ex_a027", "md_file": "knowledge_base/domains/MI/examples.md", "md_atom_type": "TABLE_ROW", "md_parent_section": "§MI.2 [Example 2]", "md_verbatim": "| 3 | ABC | MI | ABC-1001 | 3 | 1 | ESTRCPT | Estrogen Receptor | ALLRED TOTAL SCORE | | 6 | 6 | TISSUE | BREAST | IHC | Y | SCREENING | 2001-06-15 |", "score": 0.433, "match_basis": "verbatim_token+domain_route:MI"}, {"md_atom_id": "md_dmMI_ex_a025", "md_file": "knowledge_base/domains/MI/examples.md", "md_atom_type": "TABLE_ROW", "md_parent_section": "§MI.2 [Example 2]", "md_verbatim": "| 1 | ABC | MI | ABC-1001 | 1 | 1 | ESTRCPT | Estrogen Receptor | ALLRED PROPORTION POSITIVE SCORE | 3 | 3 | 3 | TISSUE | BREAST | IHC | | SCREENING | 2001-06-15 |", "score": 0.43, "match_basis": "verbatim_token+domain_route:MI"}, {"md_atom_id": "md_dmMI_ex_a013", "md_file": "knowledge_base/domains/MI/examples.md", "md_atom_type": "TABLE_ROW", "md_parent_section": "§MI.1 [Example 1]", "md_verbatim": "| 2 | ABC | MI | ABC-2002 | 1 | HER2 | Human Epidermal Growth Factor Receptor 2 | STAINING INTENSITY | 2+ | 2+ | POSITIVE | TISSUE | BREAST | IHC | SCREENING | 2001-06-15 |", "score": 0.4238, "match_basis": "verbatim_token+domain_route:MI"}, {"md_atom_id": "md_dmMI_ex_a012", "md_file": "knowledge_base/domains/MI/examples.md", "md_atom_type": "TABLE_ROW", "md_parent_section": "§MI.1 [Example 1]", "md_verbatim": "| 1 | ABC | MI | ABC-1001 | 1 | HER2 | Human Epidermal Growth Factor Receptor 2 | STAINING INTENSITY | 0 | 0 | NEGATIVE | TISSUE | BREAST | IHC | SCREENING | 2001-06-15 |", "score": 0.4236, "match_basis": "verbatim_token+domain_route:MI"}], "candidate_count": 5, "zero_candidate": false}
{"pdf_atom_id": "ig34_p0264_a021", "pdf_atom_type": "TABLE_ROW", "pdf_source": "SDTMIG_v3.4", "pdf_page": 264, "pdf_parent_section": "§6.3.5.8 Microscopic Findings (MI)", "pdf_verbatim": "MISTRESU | Standard Units | Char | (UNIT) | Variable Qualifier | Standardized unit used for MISTRESC and MISTRESN. | Perm", "figure_ref": null, "candidates": [{"md_atom_id": "md_dmMI_ex_a026", "md_file": "knowledge_base/domains/MI/examples.md", "md_atom_type": "TABLE_ROW", "md_parent_section": "§MI.2 [Example 2]", "md_verbatim": "| 2 | ABC | MI | ABC-1001 | 2 | 1 | ESTRCPT | Estrogen Receptor | ALLRED STAINING INTENSITY SCORE | STRONG | 3 | 3 | TISSUE | BREAST | IHC | | SCREENING | 2001-06-15 |", "score": 0.4128, "match_basis": "verbatim_token+domain_route:MI"}, {"md_atom_id": "md_dmMI_ex_a013", "md_file": "knowledge_base/domains/MI/examples.md", "md_atom_type": "TABLE_ROW", "md_parent_section": "§MI.1 [Example 1]", "md_verbatim": "| 2 | ABC | MI | ABC-2002 | 1 | HER2 | Human Epidermal Growth Factor Receptor 2 | STAINING INTENSITY | 2+ | 2+ | POSITIVE | TISSUE | BREAST | IHC | SCREENING | 2001-06-15 |", "score": 0.412, "match_basis": "verbatim_token+domain_route:MI"}, {"md_atom_id": "md_dmMI_ex_a012", "md_file": "knowledge_base/domains/MI/examples.md", "md_atom_type": "TABLE_ROW", "md_parent_section": "§MI.1 [Example 1]", "md_verbatim": "| 1 | ABC | MI | ABC-1001 | 1 | HER2 | Human Epidermal Growth Factor Receptor 2 | STAINING INTENSITY | 0 | 0 | NEGATIVE | TISSUE | BREAST | IHC | SCREENING | 2001-06-15 |", "score": 0.4119, "match_basis": "verbatim_token+domain_route:MI"}, {"md_atom_id": "md_dmMI_ex_a031", "md_file": "knowledge_base/domains/MI/examples.md", "md_atom_type": "TABLE_ROW", "md_parent_section": "§MI.2 [Example 2]", "md_verbatim": "| 1 | ABC | MI | ABC-1001 | MIGRPID | 1 | MISCELOC | Subcellular Location | NUCLEUS | CRF | |", "score": 0.4082, "match_basis": "verbatim_token+domain_route:MI"}, {"md_atom_id": "md_dmMI_ex_a049", "md_file": "knowledge_base/domains/MI/examples.md", "md_atom_type": "TABLE_ROW", "md_parent_section": "§MI.3 [Example 3]", "md_verbatim": "| 1 | ABC | MI | ABC-1001 | MIGRPID | 1 | MISCELOC | Subcellular Location | CYTOPLASM | CRF | |", "score": 0.408, "match_basis": "verbatim_token+domain_route:MI"}], "candidate_count": 5, "zero_candidate": false}
{"pdf_atom_id": "ig34_p0264_a022", "pdf_atom_type": "TABLE_ROW", "pdf_source": "SDTMIG_v3.4", "pdf_page": 264, "pdf_parent_section": "§6.3.5.8 Microscopic Findings (MI)", "pdf_verbatim": "MIRESCAT | Result Category | Char | * | Variable Qualifier | Used to categorize the result of a finding. Examples: \"MALIGNANT\" or \"BENIGN\" for tumor findings. | Perm", "figure_ref": null, "candidates": [{"md_atom_id": "md_dmMI_ex_a013", "md_file": "knowledge_base/domains/MI/examples.md", "md_atom_type": "TABLE_ROW", "md_parent_section": "§MI.1 [Example 1]", "md_verbatim": "| 2 | ABC | MI | ABC-2002 | 1 | HER2 | Human Epidermal Growth Factor Receptor 2 | STAINING INTENSITY | 2+ | 2+ | POSITIVE | TISSUE | BREAST | IHC | SCREENING | 2001-06-15 |", "score": 0.4202, "match_basis": "verbatim_token+domain_route:MI"}, {"md_atom_id": "md_dmMI_ex_a012", "md_file": "knowledge_base/domains/MI/examples.md", "md_atom_type": "TABLE_ROW", "md_parent_section": "§MI.1 [Example 1]", "md_verbatim": "| 1 | ABC | MI | ABC-1001 | 1 | HER2 | Human Epidermal Growth Factor Receptor 2 | STAINING INTENSITY | 0 | 0 | NEGATIVE | TISSUE | BREAST | IHC | SCREENING | 2001-06-15 |", "score": 0.42, "match_basis": "verbatim_token+domain_route:MI"}, {"md_atom_id": "md_dmMI_ex_a045", "md_file": "knowledge_base/domains/MI/examples.md", "md_atom_type": "TABLE_ROW", "md_parent_section": "§MI.3 [Example 3]", "md_verbatim": "| 5 | ABC | MI | ABC-1001 | 5 | 1 | NKX2_1 | NK2 Homeobox 1 | H SCORE TOTAL SCORE | | | 110 | 110 | | TISSUE | LUNG | IHC | Y | SCREENING | 2001-06-15 |", "score": 0.4128, "match_basis": "verbatim_token+domain_route:MI"}, {"md_atom_id": "md_dmMI_ex_a041", "md_file": "knowledge_base/domains/MI/examples.md", "md_atom_type": "TABLE_ROW", "md_parent_section": "§MI.3 [Example 3]", "md_verbatim": "| 1 | ABC | MI | ABC-1001 | 1 | 1 | NKX2_1 | NK2 Homeobox 1 | H SCORE STAINING INTENSITY 0 | 25 | % | 25 | 25 | % | TISSUE | LUNG | IHC | | SCREENING | 2001-06-15 |", "score": 0.4119, "match_basis": "verbatim_token+domain_route:MI"}, {"md_atom_id": "md_dmMI_ex_a042", "md_file": "knowledge_base/domains/MI/examples.md", "md_atom_type": "TABLE_ROW", "md_parent_section": "§MI.3 [Example 3]", "md_verbatim": "| 2 | ABC | MI | ABC-1001 | 2 | 1 | NKX2_1 | NK2 Homeobox 1 | H SCORE STAINING INTENSITY 1+ | 40 | % | 40 | 40 | % | TISSUE | LUNG | IHC | | SCREENING | 2001-06-15 |", "score": 0.4119, "match_basis": "verbatim_token+domain_route:MI"}], "candidate_count": 5, "zero_candidate": false}
{"pdf_atom_id": "ig34_p0264_a023", "pdf_atom_type": "TABLE_ROW", "pdf_source": "SDTMIG_v3.4", "pdf_page": 264, "pdf_parent_section": "§6.3.5.8 Microscopic Findings (MI)", "pdf_verbatim": "MISTAT | Completion Status | Char | (ND) | Record Qualifier | Used to indicate examination not done or result is missing. Should be null if a result exists in MIORRES or have a value of \"NOT DONE\" when MIORRES = \"NULL\". | Perm", "figure_ref": null, "candidates": [{"md_atom_id": "md_dmMI_ex_a031", "md_file": "knowledge_base/domains/MI/examples.md", "md_atom_type": "TABLE_ROW", "md_parent_section": "§MI.2 [Example 2]", "md_verbatim": "| 1 | ABC | MI | ABC-1001 | MIGRPID | 1 | MISCELOC | Subcellular Location | NUCLEUS | CRF | |", "score": 0.4291, "match_basis": "verbatim_token+domain_route:MI"}, {"md_atom_id": "md_dmMI_ex_a025", "md_file": "knowledge_base/domains/MI/examples.md", "md_atom_type": "TABLE_ROW", "md_parent_section": "§MI.2 [Example 2]", "md_verbatim": "| 1 | ABC | MI | ABC-1001 | 1 | 1 | ESTRCPT | Estrogen Receptor | ALLRED PROPORTION POSITIVE SCORE | 3 | 3 | 3 | TISSUE | BREAST | IHC | | SCREENING | 2001-06-15 |", "score": 0.4288, "match_basis": "verbatim_token+domain_route:MI"}, {"md_atom_id": "md_dmMI_ex_a049", "md_file": "knowledge_base/domains/MI/examples.md", "md_atom_type": "TABLE_ROW", "md_parent_section": "§MI.3 [Example 3]", "md_verbatim": "| 1 | ABC | MI | ABC-1001 | MIGRPID | 1 | MISCELOC | Subcellular Location | CYTOPLASM | CRF | |", "score": 0.4286, "match_basis": "verbatim_token+domain_route:MI"}, {"md_atom_id": "md_dmMI_ex_a012", "md_file": "knowledge_base/domains/MI/examples.md", "md_atom_type": "TABLE_ROW", "md_parent_section": "§MI.1 [Example 1]", "md_verbatim": "| 1 | ABC | MI | ABC-1001 | 1 | HER2 | Human Epidermal Growth Factor Receptor 2 | STAINING INTENSITY | 0 | 0 | NEGATIVE | TISSUE | BREAST | IHC | SCREENING | 2001-06-15 |", "score": 0.4275, "match_basis": "verbatim_token+domain_route:MI"}, {"md_atom_id": "md_dmMI_ex_a026", "md_file": "knowledge_base/domains/MI/examples.md", "md_atom_type": "TABLE_ROW", "md_parent_section": "§MI.2 [Example 2]", "md_verbatim": "| 2 | ABC | MI | ABC-1001 | 2 | 1 | ESTRCPT | Estrogen Receptor | ALLRED STAINING INTENSITY SCORE | STRONG | 3 | 3 | TISSUE | BREAST | IHC | | SCREENING | 2001-06-15 |", "score": 0.424, "match_basis": "verbatim_token+domain_route:MI"}], "candidate_count": 5, "zero_candidate": false}
{"pdf_atom_id": "ig34_p0264_a024", "pdf_atom_type": "TABLE_ROW", "pdf_source": "SDTMIG_v3.4", "pdf_page": 264, "pdf_parent_section": "§6.3.5.8 Microscopic Findings (MI)", "pdf_verbatim": "MIREASND | Reason Not Done | Char | | Record Qualifier | Reason not done. Used in conjunction with MISTAT when value is NOT DONE. Examples: \"SAMPLE AUTOLYZED\", \"SPECIMEN LOST\". | Perm", "figure_ref": null, "candidates": [{"md_atom_id": "md_dmMI_ex_a025", "md_file": "knowledge_base/domains/MI/examples.md", "md_atom_type": "TABLE_ROW", "md_parent_section": "§MI.2 [Example 2]", "md_verbatim": "| 1 | ABC | MI | ABC-1001 | 1 | 1 | ESTRCPT | Estrogen Receptor | ALLRED PROPORTION POSITIVE SCORE | 3 | 3 | 3 | TISSUE | BREAST | IHC | | SCREENING | 2001-06-15 |", "score": 0.43, "match_basis": "verbatim_token+domain_route:MI"}, {"md_atom_id": "md_dmMI_ex_a026", "md_file": "knowledge_base/domains/MI/examples.md", "md_atom_type": "TABLE_ROW", "md_parent_section": "§MI.2 [Example 2]", "md_verbatim": "| 2 | ABC | MI | ABC-1001 | 2 | 1 | ESTRCPT | Estrogen Receptor | ALLRED STAINING INTENSITY SCORE | STRONG | 3 | 3 | TISSUE | BREAST | IHC | | SCREENING | 2001-06-15 |", "score": 0.425, "match_basis": "verbatim_token+domain_route:MI"}, {"md_atom_id": "md_dmMI_ex_a013", "md_file": "knowledge_base/domains/MI/examples.md", "md_atom_type": "TABLE_ROW", "md_parent_section": "§MI.1 [Example 1]", "md_verbatim": "| 2 | ABC | MI | ABC-2002 | 1 | HER2 | Human Epidermal Growth Factor Receptor 2 | STAINING INTENSITY | 2+ | 2+ | POSITIVE | TISSUE | BREAST | IHC | SCREENING | 2001-06-15 |", "score": 0.4238, "match_basis": "verbatim_token+domain_route:MI"}, {"md_atom_id": "md_dmMI_ex_a012", "md_file": "knowledge_base/domains/MI/examples.md", "md_atom_type": "TABLE_ROW", "md_parent_section": "§MI.1 [Example 1]", "md_verbatim": "| 1 | ABC | MI | ABC-1001 | 1 | HER2 | Human Epidermal Growth Factor Receptor 2 | STAINING INTENSITY | 0 | 0 | NEGATIVE | TISSUE | BREAST | IHC | SCREENING | 2001-06-15 |", "score": 0.4236, "match_basis": "verbatim_token+domain_route:MI"}, {"md_atom_id": "md_dmMI_ex_a027", "md_file": "knowledge_base/domains/MI/examples.md", "md_atom_type": "TABLE_ROW", "md_parent_section": "§MI.2 [Example 2]", "md_verbatim": "| 3 | ABC | MI | ABC-1001 | 3 | 1 | ESTRCPT | Estrogen Receptor | ALLRED TOTAL SCORE | | 6 | 6 | TISSUE | BREAST | IHC | Y | SCREENING | 2001-06-15 |", "score": 0.4216, "match_basis": "verbatim_token+domain_route:MI"}], "candidate_count": 5, "zero_candidate": false}
{"pdf_atom_id": "ig34_p0264_a025", "pdf_atom_type": "TABLE_ROW", "pdf_source": "SDTMIG_v3.4", "pdf_page": 264, "pdf_parent_section": "§6.3.5.8 Microscopic Findings (MI)", "pdf_verbatim": "MINAM | Laboratory/Vendor Name | Char | | Record Qualifier | Name or identifier of the vendor (e.g., laboratory) that provided the test results. | Perm", "figure_ref": null, "candidates": [{"md_atom_id": "md_dmMI_ex_a025", "md_file": "knowledge_base/domains/MI/examples.md", "md_atom_type": "TABLE_ROW", "md_parent_section": "§MI.2 [Example 2]", "md_verbatim": "| 1 | ABC | MI | ABC-1001 | 1 | 1 | ESTRCPT | Estrogen Receptor | ALLRED PROPORTION POSITIVE SCORE | 3 | 3 | 3 | TISSUE | BREAST | IHC | | SCREENING | 2001-06-15 |", "score": 0.4294, "match_basis": "verbatim_token+domain_route:MI"}, {"md_atom_id": "md_dmMI_ex_a027", "md_file": "knowledge_base/domains/MI/examples.md", "md_atom_type": "TABLE_ROW", "md_parent_section": "§MI.2 [Example 2]", "md_verbatim": "| 3 | ABC | MI | ABC-1001 | 3 | 1 | ESTRCPT | Estrogen Receptor | ALLRED TOTAL SCORE | | 6 | 6 | TISSUE | BREAST | IHC | Y | SCREENING | 2001-06-15 |", "score": 0.4261, "match_basis": "verbatim_token+domain_route:MI"}, {"md_atom_id": "md_dmMI_ex_a026", "md_file": "knowledge_base/domains/MI/examples.md", "md_atom_type": "TABLE_ROW", "md_parent_section": "§MI.2 [Example 2]", "md_verbatim": "| 2 | ABC | MI | ABC-1001 | 2 | 1 | ESTRCPT | Estrogen Receptor | ALLRED STAINING INTENSITY SCORE | STRONG | 3 | 3 | TISSUE | BREAST | IHC | | SCREENING | 2001-06-15 |", "score": 0.4235, "match_basis": "verbatim_token+domain_route:MI"}, {"md_atom_id": "md_dmMI_ex_a013", "md_file": "knowledge_base/domains/MI/examples.md", "md_atom_type": "TABLE_ROW", "md_parent_section": "§MI.1 [Example 1]", "md_verbatim": "| 2 | ABC | MI | ABC-2002 | 1 | HER2 | Human Epidermal Growth Factor Receptor 2 | STAINING INTENSITY | 2+ | 2+ | POSITIVE | TISSUE | BREAST | IHC | SCREENING | 2001-06-15 |", "score": 0.4222, "match_basis": "verbatim_token+domain_route:MI"}, {"md_atom_id": "md_dmMI_ex_a012", "md_file": "knowledge_base/domains/MI/examples.md", "md_atom_type": "TABLE_ROW", "md_parent_section": "§MI.1 [Example 1]", "md_verbatim": "| 1 | ABC | MI | ABC-1001 | 1 | HER2 | Human Epidermal Growth Factor Receptor 2 | STAINING INTENSITY | 0 | 0 | NEGATIVE | TISSUE | BREAST | IHC | SCREENING | 2001-06-15 |", "score": 0.422, "match_basis": "verbatim_token+domain_route:MI"}], "candidate_count": 5, "zero_candidate": false}
{"pdf_atom_id": "ig34_p0265_a001", "pdf_atom_type": "TABLE_ROW", "pdf_source": "SDTMIG_v3.4", "pdf_page": 265, "pdf_parent_section": "§6.3.5.8 Microscopic Findings (MI)", "pdf_verbatim": "MISPEC | Specimen Material Type | Char | (SPECTYPE) | Record Qualifier | Subject of the observation. Defines the type of specimen used for a measurement. Examples: \"TISSUE\", \"BLOOD\", \"BONE MARROW\". | Req", "figure_ref": null, "candidates": [{"md_atom_id": "md_dmMI_ex_a025", "md_file": "knowledge_base/domains/MI/examples.md", "md_atom_type": "TABLE_ROW", "md_parent_section": "§MI.2 [Example 2]", "md_verbatim": "| 1 | ABC | MI | ABC-1001 | 1 | 1 | ESTRCPT | Estrogen Receptor | ALLRED PROPORTION POSITIVE SCORE | 3 | 3 | 3 | TISSUE | BREAST | IHC | | SCREENING | 2001-06-15 |", "score": 0.4422, "match_basis": "verbatim_token+domain_route:MI"}, {"md_atom_id": "md_dmMI_ex_a012", "md_file": "knowledge_base/domains/MI/examples.md", "md_atom_type": "TABLE_ROW", "md_parent_section": "§MI.1 [Example 1]", "md_verbatim": "| 1 | ABC | MI | ABC-1001 | 1 | HER2 | Human Epidermal Growth Factor Receptor 2 | STAINING INTENSITY | 0 | 0 | NEGATIVE | TISSUE | BREAST | IHC | SCREENING | 2001-06-15 |", "score": 0.4356, "match_basis": "verbatim_token+domain_route:MI"}, {"md_atom_id": "md_dmMI_ex_a027", "md_file": "knowledge_base/domains/MI/examples.md", "md_atom_type": "TABLE_ROW", "md_parent_section": "§MI.2 [Example 2]", "md_verbatim": "| 3 | ABC | MI | ABC-1001 | 3 | 1 | ESTRCPT | Estrogen Receptor | ALLRED TOTAL SCORE | | 6 | 6 | TISSUE | BREAST | IHC | Y | SCREENING | 2001-06-15 |", "score": 0.4353, "match_basis": "verbatim_token+domain_route:MI"}, {"md_atom_id": "md_dmMI_ex_a026", "md_file": "knowledge_base/domains/MI/examples.md", "md_atom_type": "TABLE_ROW", "md_parent_section": "§MI.2 [Example 2]", "md_verbatim": "| 2 | ABC | MI | ABC-1001 | 2 | 1 | ESTRCPT | Estrogen Receptor | ALLRED STAINING INTENSITY SCORE | STRONG | 3 | 3 | TISSUE | BREAST | IHC | | SCREENING | 2001-06-15 |", "score": 0.4326, "match_basis": "verbatim_token+domain_route:MI"}, {"md_atom_id": "md_dmMI_ex_a013", "md_file": "knowledge_base/domains/MI/examples.md", "md_atom_type": "TABLE_ROW", "md_parent_section": "§MI.1 [Example 1]", "md_verbatim": "| 2 | ABC | MI | ABC-2002 | 1 | HER2 | Human Epidermal Growth Factor Receptor 2 | STAINING INTENSITY | 2+ | 2+ | POSITIVE | TISSUE | BREAST | IHC | SCREENING | 2001-06-15 |", "score": 0.4311, "match_basis": "verbatim_token+domain_route:MI"}], "candidate_count": 5, "zero_candidate": false}
{"pdf_atom_id": "ig34_p0265_a002", "pdf_atom_type": "TABLE_ROW", "pdf_source": "SDTMIG_v3.4", "pdf_page": 265, "pdf_parent_section": "§6.3.5.8 Microscopic Findings (MI)", "pdf_verbatim": "MISPCCND | Specimen Condition | Char | (SPECCOND) | Record Qualifier | Free or standardized text describing the condition of the specimen. Example: \"AUTOLYZED\". | Exp", "figure_ref": null, "candidates": [{"md_atom_id": "md_dmMI_ex_a025", "md_file": "knowledge_base/domains/MI/examples.md", "md_atom_type": "TABLE_ROW", "md_parent_section": "§MI.2 [Example 2]", "md_verbatim": "| 1 | ABC | MI | ABC-1001 | 1 | 1 | ESTRCPT | Estrogen Receptor | ALLRED PROPORTION POSITIVE SCORE | 3 | 3 | 3 | TISSUE | BREAST | IHC | | SCREENING | 2001-06-15 |", "score": 0.441, "match_basis": "verbatim_token+domain_route:MI"}, {"md_atom_id": "md_dmMI_ex_a026", "md_file": "knowledge_base/domains/MI/examples.md", "md_atom_type": "TABLE_ROW", "md_parent_section": "§MI.2 [Example 2]", "md_verbatim": "| 2 | ABC | MI | ABC-1001 | 2 | 1 | ESTRCPT | Estrogen Receptor | ALLRED STAINING INTENSITY SCORE | STRONG | 3 | 3 | TISSUE | BREAST | IHC | | SCREENING | 2001-06-15 |", "score": 0.4305, "match_basis": "verbatim_token+domain_route:MI"}, {"md_atom_id": "md_dmMI_ex_a013", "md_file": "knowledge_base/domains/MI/examples.md", "md_atom_type": "TABLE_ROW", "md_parent_section": "§MI.1 [Example 1]", "md_verbatim": "| 2 | ABC | MI | ABC-2002 | 1 | HER2 | Human Epidermal Growth Factor Receptor 2 | STAINING INTENSITY | 2+ | 2+ | POSITIVE | TISSUE | BREAST | IHC | SCREENING | 2001-06-15 |", "score": 0.429, "match_basis": "verbatim_token+domain_route:MI"}, {"md_atom_id": "md_dmMI_ex_a041", "md_file": "knowledge_base/domains/MI/examples.md", "md_atom_type": "TABLE_ROW", "md_parent_section": "§MI.3 [Example 3]", "md_verbatim": "| 1 | ABC | MI | ABC-1001 | 1 | 1 | NKX2_1 | NK2 Homeobox 1 | H SCORE STAINING INTENSITY 0 | 25 | % | 25 | 25 | % | TISSUE | LUNG | IHC | | SCREENING | 2001-06-15 |", "score": 0.4286, "match_basis": "verbatim_token+domain_route:MI"}, {"md_atom_id": "md_dmMI_ex_a042", "md_file": "knowledge_base/domains/MI/examples.md", "md_atom_type": "TABLE_ROW", "md_parent_section": "§MI.3 [Example 3]", "md_verbatim": "| 2 | ABC | MI | ABC-1001 | 2 | 1 | NKX2_1 | NK2 Homeobox 1 | H SCORE STAINING INTENSITY 1+ | 40 | % | 40 | 40 | % | TISSUE | LUNG | IHC | | SCREENING | 2001-06-15 |", "score": 0.4286, "match_basis": "verbatim_token+domain_route:MI"}], "candidate_count": 5, "zero_candidate": false}
{"pdf_atom_id": "ig34_p0265_a003", "pdf_atom_type": "TABLE_ROW", "pdf_source": "SDTMIG_v3.4", "pdf_page": 265, "pdf_parent_section": "§6.3.5.8 Microscopic Findings (MI)", "pdf_verbatim": "MILOC | Specimen Collection Location | Char | (LOC) | Record Qualifier | Location relevant to the collection of the specimen. Examples: \"LUNG\", \"KNEE JOINT\", \"ARM\", \"THIGH\". | Perm", "figure_ref": null, "candidates": [{"md_atom_id": "md_dmMI_ex_a031", "md_file": "knowledge_base/domains/MI/examples.md", "md_atom_type": "TABLE_ROW", "md_parent_section": "§MI.2 [Example 2]", "md_verbatim": "| 1 | ABC | MI | ABC-1001 | MIGRPID | 1 | MISCELOC | Subcellular Location | NUCLEUS | CRF | |", "score": 0.4419, "match_basis": "verbatim_token+domain_route:MI"}, {"md_atom_id": "md_dmMI_ex_a049", "md_file": "knowledge_base/domains/MI/examples.md", "md_atom_type": "TABLE_ROW", "md_parent_section": "§MI.3 [Example 3]", "md_verbatim": "| 1 | ABC | MI | ABC-1001 | MIGRPID | 1 | MISCELOC | Subcellular Location | CYTOPLASM | CRF | |", "score": 0.4409, "match_basis": "verbatim_token+domain_route:MI"}, {"md_atom_id": "md_dmMI_ex_a041", "md_file": "knowledge_base/domains/MI/examples.md", "md_atom_type": "TABLE_ROW", "md_parent_section": "§MI.3 [Example 3]", "md_verbatim": "| 1 | ABC | MI | ABC-1001 | 1 | 1 | NKX2_1 | NK2 Homeobox 1 | H SCORE STAINING INTENSITY 0 | 25 | % | 25 | 25 | % | TISSUE | LUNG | IHC | | SCREENING | 2001-06-15 |", "score": 0.425, "match_basis": "verbatim_token+domain_route:MI"}, {"md_atom_id": "md_dmMI_ex_a042", "md_file": "knowledge_base/domains/MI/examples.md", "md_atom_type": "TABLE_ROW", "md_parent_section": "§MI.3 [Example 3]", "md_verbatim": "| 2 | ABC | MI | ABC-1001 | 2 | 1 | NKX2_1 | NK2 Homeobox 1 | H SCORE STAINING INTENSITY 1+ | 40 | % | 40 | 40 | % | TISSUE | LUNG | IHC | | SCREENING | 2001-06-15 |", "score": 0.425, "match_basis": "verbatim_token+domain_route:MI"}, {"md_atom_id": "md_dmMI_ex_a043", "md_file": "knowledge_base/domains/MI/examples.md", "md_atom_type": "TABLE_ROW", "md_parent_section": "§MI.3 [Example 3]", "md_verbatim": "| 3 | ABC | MI | ABC-1001 | 3 | 1 | NKX2_1 | NK2 Homeobox 1 | H SCORE STAINING INTENSITY 2+ | 35 | % | 35 | 35 | % | TISSUE | LUNG | IHC | | SCREENING | 2001-06-15 |", "score": 0.425, "match_basis": "verbatim_token+domain_route:MI"}], "candidate_count": 5, "zero_candidate": false}
{"pdf_atom_id": "ig34_p0265_a004", "pdf_atom_type": "TABLE_ROW", "pdf_source": "SDTMIG_v3.4", "pdf_page": 265, "pdf_parent_section": "§6.3.5.8 Microscopic Findings (MI)", "pdf_verbatim": "MILAT | Specimen Laterality within Subject | Char | (LAT) | Variable Qualifier | Qualifier for laterality of the location of the specimen in MILOC. Examples: \"LEFT\", \"RIGHT\", \"BILATERAL\". | Perm", "figure_ref": null, "candidates": [{"md_atom_id": "md_dmMI_ex_a031", "md_file": "knowledge_base/domains/MI/examples.md", "md_atom_type": "TABLE_ROW", "md_parent_section": "§MI.2 [Example 2]", "md_verbatim": "| 1 | ABC | MI | ABC-1001 | MIGRPID | 1 | MISCELOC | Subcellular Location | NUCLEUS | CRF | |", "score": 0.4477, "match_basis": "verbatim_token+domain_route:MI"}, {"md_atom_id": "md_dmMI_ex_a049", "md_file": "knowledge_base/domains/MI/examples.md", "md_atom_type": "TABLE_ROW", "md_parent_section": "§MI.3 [Example 3]", "md_verbatim": "| 1 | ABC | MI | ABC-1001 | MIGRPID | 1 | MISCELOC | Subcellular Location | CYTOPLASM | CRF | |", "score": 0.4467, "match_basis": "verbatim_token+domain_route:MI"}, {"md_atom_id": "md_dmMI_ex_a012", "md_file": "knowledge_base/domains/MI/examples.md", "md_atom_type": "TABLE_ROW", "md_parent_section": "§MI.1 [Example 1]", "md_verbatim": "| 1 | ABC | MI | ABC-1001 | 1 | HER2 | Human Epidermal Growth Factor Receptor 2 | STAINING INTENSITY | 0 | 0 | NEGATIVE | TISSUE | BREAST | IHC | SCREENING | 2001-06-15 |", "score": 0.4149, "match_basis": "verbatim_token+domain_route:MI"}, {"md_atom_id": "md_dmMI_ex_a025", "md_file": "knowledge_base/domains/MI/examples.md", "md_atom_type": "TABLE_ROW", "md_parent_section": "§MI.2 [Example 2]", "md_verbatim": "| 1 | ABC | MI | ABC-1001 | 1 | 1 | ESTRCPT | Estrogen Receptor | ALLRED PROPORTION POSITIVE SCORE | 3 | 3 | 3 | TISSUE | BREAST | IHC | | SCREENING | 2001-06-15 |", "score": 0.4103, "match_basis": "verbatim_token+domain_route:MI"}, {"md_atom_id": "md_dmMI_ex_a013", "md_file": "knowledge_base/domains/MI/examples.md", "md_atom_type": "TABLE_ROW", "md_parent_section": "§MI.1 [Example 1]", "md_verbatim": "| 2 | ABC | MI | ABC-2002 | 1 | HER2 | Human Epidermal Growth Factor Receptor 2 | STAINING INTENSITY | 2+ | 2+ | POSITIVE | TISSUE | BREAST | IHC | SCREENING | 2001-06-15 |", "score": 0.4099, "match_basis": "verbatim_token+domain_route:MI"}], "candidate_count": 5, "zero_candidate": false}
