{"pdf_atom_id": "ig34_p0255_a011", "pdf_atom_type": "TABLE_ROW", "pdf_source": "SDTMIG_v3.4", "pdf_page": 255, "pdf_parent_section": "§6.3.5.7.2 Microbiology Susceptibility (MS)", "pdf_verbatim": "| MSELTM | Planned Elapsed Time from Time Point Ref | Char | ISO 8601 duration | Timing | Planned elapsed time relative to a planned fixed reference (MSTPTREF; e.g., previous dose, previous meal). This variable is useful where there are repetitive measures. Not a clock time or a date/time variable, but an interval, represented as ISO duration. | Perm |", "figure_ref": null, "candidates": [{"md_atom_id": "md_dmMS_ex_a028", "md_file": "knowledge_base/domains/MS/examples.md", "md_atom_type": "TABLE_ROW", "md_parent_section": "§MS.2 [Example 2]", "md_verbatim": "| 1 | ABC | MS | ABC-001-001 | STREPTOCOCCUS PNEUMONIAE | | 1 | SP01 | MIC | Minimum Inhibitory Concentration | Sponsor Drug | 0.004 | mg/L | 0.004 | 0.004 | mg/L | | EPSILOMETER | 1 | VISIT 1 | 2005-06-19T08:00 |", "score": 0.4347, "match_basis": "verbatim_token+domain_route:MS"}, {"md_atom_id": "md_dmMS_ex_a030", "md_file": "knowledge_base/domains/MS/examples.md", "md_atom_type": "TABLE_ROW", "md_parent_section": "§MS.2 [Example 2]", "md_verbatim": "| 3 | ABC | MS | ABC-001-001 | STREPTOCOCCUS PNEUMONIAE | | 3 | SP01 | MIC | Minimum Inhibitory Concentration | Penicillin | 0.125 | mg/L | 0.125 | 0.125 | mg/L | | EPSILOMETER | 1 | VISIT 1 | 2005-06-19T08:00 |", "score": 0.4345, "match_basis": "verbatim_token+domain_route:MS"}, {"md_atom_id": "md_dmMS_ex_a016", "md_file": "knowledge_base/domains/MS/examples.md", "md_atom_type": "TABLE_ROW", "md_parent_section": "§MS.1 [Example 1]", "md_verbatim": "| 7 | ABC | MS | ABC-001-002 | ENTEROCOCCUS FAECALIS | 3 | 7 | SPEC01 | 2 | DIAZOINH | Diameter of the Zone of Inhibition | Sponsor Drug | | | 23 | mm | 23 | 23 | mm | LOCAL LAB XYZ | DISK DIFFUSION | 2005-06-19T08:00 |", "score": 0.4321, "match_basis": "verbatim_token+domain_route:MS"}, {"md_atom_id": "md_dmMS_ex_a010", "md_file": "knowledge_base/domains/MS/examples.md", "md_atom_type": "TABLE_ROW", "md_parent_section": "§MS.1 [Example 1]", "md_verbatim": "| 1 | ABC | MS | ABC-001-002 | ENTEROCOCCUS FAECALIS | 1 | 1 | SPEC01 | | MIC | Minimum Inhibitory Concentration | Sponsor Drug | 0.25 | ug/dL | 0.25 | ug/dL | | | | CENTRAL LAB ABC | EPSILOMETER | 2005-06-19T08:00 |", "score": 0.4318, "match_basis": "verbatim_token+domain_route:MS"}, {"md_atom_id": "md_dmMS_ex_a018", "md_file": "knowledge_base/domains/MS/examples.md", "md_atom_type": "TABLE_ROW", "md_parent_section": "§MS.1 [Example 1]", "md_verbatim": "| 9 | ABC | MS | ABC-001-002 | ENTEROCOCCUS FAECALIS | 4 | 9 | SPEC01 | 2 | DIAZOINH | Diameter of the Zone of Inhibition | Amoxicillin | | | 25 | mm | 25 | 25 | mm | LOCAL LAB XYZ | DISK DIFFUSION | 2005-06-19T08:00 |", "score": 0.4318, "match_basis": "verbatim_token+domain_route:MS"}], "candidate_count": 5, "zero_candidate": false}
{"pdf_atom_id": "ig34_p0255_a012", "pdf_atom_type": "CODE_LITERAL", "pdf_source": "SDTMIG_v3.4", "pdf_page": 255, "pdf_parent_section": "§6.3.5.7.2 Microbiology Susceptibility (MS)", "pdf_verbatim": "MSELTM", "figure_ref": null, "candidates": [{"md_atom_id": "md_dmMS_assn_a001", "md_file": "knowledge_base/domains/MS/assumptions.md", "md_atom_type": "HEADING", "md_parent_section": "§MS [MS — Assumptions]", "md_verbatim": "# MS — Assumptions", "score": 0.19, "match_basis": "verbatim_token+domain_route:MS"}, {"md_atom_id": "md_dmMS_assn_a002", "md_file": "knowledge_base/domains/MS/assumptions.md", "md_atom_type": "LIST_ITEM", "md_parent_section": "§MS [MS — Assumptions]", "md_verbatim": "1. Microbiology Susceptibility testing includes testing of the following types:", "score": 0.19, "match_basis": "verbatim_token+domain_route:MS"}, {"md_atom_id": "md_dmMS_assn_a003", "md_file": "knowledge_base/domains/MS/assumptions.md", "md_atom_type": "LIST_ITEM", "md_parent_section": "§MS [MS — Assumptions]", "md_verbatim": "   a. Phenotypic drug susceptibility testing (qualitative), which may involve determining susceptibility/resistance (qualitative) at a predefined concentration of drug, or determining a specific dose (quantitative) at which a drug inhibits organism growth or some other process associated with virulence.", "score": 0.19, "match_basis": "verbatim_token+domain_route:MS"}, {"md_atom_id": "md_dmMS_assn_a004", "md_file": "knowledge_base/domains/MS/assumptions.md", "md_atom_type": "LIST_ITEM", "md_parent_section": "§MS [MS — Assumptions]", "md_verbatim": "      i. For studies using qualitative testing methods, MSAGENT, MSCONC, and MSCONCU are used to represent the predefined drug, concentration, and units, respectively. Results are represented with values such as \"SUSCEPTIBLE\" or \"RESISTANT\".", "score": 0.19, "match_basis": "verbatim_token+domain_route:MS"}, {"md_atom_id": "md_dmMS_assn_a005", "md_file": "knowledge_base/domains/MS/assumptions.md", "md_atom_type": "LIST_ITEM", "md_parent_section": "§MS [MS — Assumptions]", "md_verbatim": "      ii. For studies using quantitative testing methods, MSAGENT is used to represent the drug being tested; MSCONC and MSCONCU are not used. The concentration at which growth is inhibited is the result in these cases (MSORRES, MSSTRESC/MSSTRESN), with units being represented in MSORRESU/MSSTRESU.", "score": 0.19, "match_basis": "verbatim_token+domain_route:MS"}, {"md_atom_id": "md_dmMS_assn_a006", "md_file": "knowledge_base/domains/MS/assumptions.md", "md_atom_type": "LIST_ITEM", "md_parent_section": "§MS [MS — Assumptions]", "md_verbatim": "      iii. As in 1.a.ii, MSAGENT should be populated with the drug whose action would be affected by the genetic marker being assessed via the genotypic test. MSCONC and MSCONCU are null in these records.", "score": 0.19, "match_basis": "verbatim_token+domain_route:MS"}, {"md_atom_id": "md_dmMS_assn_a007", "md_file": "knowledge_base/domains/MS/assumptions.md", "md_atom_type": "LIST_ITEM", "md_parent_section": "§MS [MS — Assumptions]", "md_verbatim": "   b. Genetic tests that provide results in terms of susceptible/resistant only (e.g., nucleic acid amplification tests (NAAT)). Genotypic tests that provide results in terms of specific changes to nucleotides, codons, or amino acids of genes/gene products associated with resistance should be represented in the Genomic Findings (GF) domain, as that domain structure contains the variables necessary to accommodate data of this type. If a test provides both mutation data and susceptibility data, the mutation results should be represented in GF and the susceptibility information should be represented in MS. In these cases, the GF records should be linked via RELREC to susceptibility records in MS.", "score": 0.19, "match_basis": "verbatim_token+domain_route:MS"}, {"md_atom_id": "md_dmMS_assn_a008", "md_file": "knowledge_base/domains/MS/assumptions.md", "md_atom_type": "LIST_ITEM", "md_parent_section": "§MS [MS — Assumptions]", "md_verbatim": "   c. CDISC Controlled Terminology Rules for Microbiology (MB/MS) domains are available at https://www.cdisc.org/standards/terminology/controlled-terminology.", "score": 0.19, "match_basis": "verbatim_token+domain_route:MS"}, {"md_atom_id": "md_dmMS_assn_a009", "md_file": "knowledge_base/domains/MS/assumptions.md", "md_atom_type": "LIST_ITEM", "md_parent_section": "§MS [MS — Assumptions]", "md_verbatim": "2. MSDTC represents the date the specimen was collected.", "score": 0.19, "match_basis": "verbatim_token+domain_route:MS"}, {"md_atom_id": "md_dmMS_assn_a010", "md_file": "knowledge_base/domains/MS/assumptions.md", "md_atom_type": "LIST_ITEM", "md_parent_section": "§MS [MS — Assumptions]", "md_verbatim": "3. If the specimen was cultured, the start and end date of culture are represented in the Biospecimen Events (BE) domain in BESTDTC and BEENDTC respectively. --REFID represents the sample ID as originally assigned in the BE domain. See BE domain assumptions in the SDTMIG v3.4, Section 6.2.2, for guidelines on assigning --REFID values to samples and subsamples.", "score": 0.19, "match_basis": "verbatim_token+domain_route:MS"}], "candidate_count": 10, "zero_candidate": false}
{"pdf_atom_id": "ig34_p0255_a013", "pdf_atom_type": "TABLE_ROW", "pdf_source": "SDTMIG_v3.4", "pdf_page": 255, "pdf_parent_section": "§6.3.5.7.2 Microbiology Susceptibility (MS)", "pdf_verbatim": "| MSTPTREF | Time Point Reference | Char | | Timing | Description of the fixed reference point referred to by MSELTM, MSTPTNUM, and MSTPT. Example: \"PREVIOUS DOSE\". | Perm |", "figure_ref": null, "candidates": [{"md_atom_id": "md_dmMS_ex_a028", "md_file": "knowledge_base/domains/MS/examples.md", "md_atom_type": "TABLE_ROW", "md_parent_section": "§MS.2 [Example 2]", "md_verbatim": "| 1 | ABC | MS | ABC-001-001 | STREPTOCOCCUS PNEUMONIAE | | 1 | SP01 | MIC | Minimum Inhibitory Concentration | Sponsor Drug | 0.004 | mg/L | 0.004 | 0.004 | mg/L | | EPSILOMETER | 1 | VISIT 1 | 2005-06-19T08:00 |", "score": 0.4233, "match_basis": "verbatim_token+domain_route:MS"}, {"md_atom_id": "md_dmMS_ex_a030", "md_file": "knowledge_base/domains/MS/examples.md", "md_atom_type": "TABLE_ROW", "md_parent_section": "§MS.2 [Example 2]", "md_verbatim": "| 3 | ABC | MS | ABC-001-001 | STREPTOCOCCUS PNEUMONIAE | | 3 | SP01 | MIC | Minimum Inhibitory Concentration | Penicillin | 0.125 | mg/L | 0.125 | 0.125 | mg/L | | EPSILOMETER | 1 | VISIT 1 | 2005-06-19T08:00 |", "score": 0.4231, "match_basis": "verbatim_token+domain_route:MS"}, {"md_atom_id": "md_dmMS_ex_a047", "md_file": "knowledge_base/domains/MS/examples.md", "md_atom_type": "TABLE_ROW", "md_parent_section": "§MS.3 [Example 3]", "md_verbatim": "| 4 | ABC | MS | ABC-01-101 | ABC765 | MYCOBACTERIUM TUBERCULOSIS | 4 | 100.2 | | MICROSUS | Microbial Susceptibility | Isoniazid | | | SUSCEPTIBLE | SUSCEPTIBLE | LAVAGE FLUID | STOMACH | NUCLEIC ACID AMPLIFICATION TEST | 2011-01-17T06:00 |", "score": 0.42, "match_basis": "verbatim_token+domain_route:MS"}, {"md_atom_id": "md_dmMS_ex_a046", "md_file": "knowledge_base/domains/MS/examples.md", "md_atom_type": "TABLE_ROW", "md_parent_section": "§MS.3 [Example 3]", "md_verbatim": "| 3 | ABC | MS | ABC-01-101 | ABC765 | MYCOBACTERIUM TUBERCULOSIS | 3 | 100.2 | | MICROSUS | Microbial Susceptibility | Rifampicin | | | RESISTANT | RESISTANT | LAVAGE FLUID | STOMACH | NUCLEIC ACID AMPLIFICATION TEST | 2011-01-17T06:00 |", "score": 0.4195, "match_basis": "verbatim_token+domain_route:MS"}, {"md_atom_id": "md_dmMS_ex_a016", "md_file": "knowledge_base/domains/MS/examples.md", "md_atom_type": "TABLE_ROW", "md_parent_section": "§MS.1 [Example 1]", "md_verbatim": "| 7 | ABC | MS | ABC-001-002 | ENTEROCOCCUS FAECALIS | 3 | 7 | SPEC01 | 2 | DIAZOINH | Diameter of the Zone of Inhibition | Sponsor Drug | | | 23 | mm | 23 | 23 | mm | LOCAL LAB XYZ | DISK DIFFUSION | 2005-06-19T08:00 |", "score": 0.4194, "match_basis": "verbatim_token+domain_route:MS"}], "candidate_count": 5, "zero_candidate": false}
{"pdf_atom_id": "ig34_p0255_a014", "pdf_atom_type": "CODE_LITERAL", "pdf_source": "SDTMIG_v3.4", "pdf_page": 255, "pdf_parent_section": "§6.3.5.7.2 Microbiology Susceptibility (MS)", "pdf_verbatim": "MSTPTREF", "figure_ref": null, "candidates": [{"md_atom_id": "md_dmMS_ex_a027", "md_file": "knowledge_base/domains/MS/examples.md", "md_atom_type": "TABLE_HEADER", "md_parent_section": "§MS.2 [Example 2]", "md_verbatim": "| Row | STUDYID | DOMAIN | USUBJID | NHOID | MSGRPID | MSSEQ | MSREFID | MSTESTCD | MSTEST | MSAGENT | MSORRES | MSORRESU | MSSTRESC | MSSTRESN | MSSTRESU | MSNAM | MSMETHOD | VISITNUM | VISIT | MSDTC |\n|-----|---------|--------|---------|-------|---------|-------|---------|----------|--------|---------|---------|----------|----------|----------|----------|-------|----------|----------|-------|-------|", "score": 0.2143, "match_basis": "verbatim_token+domain_route:MS"}, {"md_atom_id": "md_dmMS_ex_a009", "md_file": "knowledge_base/domains/MS/examples.md", "md_atom_type": "TABLE_HEADER", "md_parent_section": "§MS.1 [Example 1]", "md_verbatim": "| Row | STUDYID | DOMAIN | USUBJID | NHOID | MSGRPID | MSSEQ | MSREFID | MSLNKGRP | MSTESTCD | MSTEST | MSAGENT | MSCONC | MSCONCU | MSORRES | MSORRESU | MSSTRESC | MSSTRESN | MSSTRESU | MSNAM | MSMETHOD | MSDTC |\n|-----|---------|--------|---------|-------|---------|-------|---------|----------|----------|--------|---------|--------|---------|---------|----------|----------|----------|----------|-------|----------|-------|", "score": 0.2131, "match_basis": "verbatim_token+domain_route:MS"}, {"md_atom_id": "md_dmMS_ex_a043", "md_file": "knowledge_base/domains/MS/examples.md", "md_atom_type": "TABLE_HEADER", "md_parent_section": "§MS.3 [Example 3]", "md_verbatim": "| Row | STUDYID | DOMAIN | USUBJID | SPDEVID | NHOID | MSSEQ | MSREFID | MSLNKID | MSTESTCD | MSTEST | MSAGENT | MSCONC | MSCONCU | MSORRES | MSSTRESC | MSSPEC | MSLOC | MSMETHOD | MSDTC |\n|-----|---------|--------|---------|---------|-------|-------|---------|---------|----------|--------|---------|--------|---------|---------|----------|--------|-------|----------|-------|", "score": 0.2131, "match_basis": "verbatim_token+domain_route:MS"}, {"md_atom_id": "md_dmMS_assn_a011", "md_file": "knowledge_base/domains/MS/assumptions.md", "md_atom_type": "LIST_ITEM", "md_parent_section": "§MS [MS — Assumptions]", "md_verbatim": "   a. Culture dates can be connected to the MS record via MSREFID and BEREFID.", "score": 0.2071, "match_basis": "verbatim_token+domain_route:MS"}, {"md_atom_id": "md_dmMS_ex_a050", "md_file": "knowledge_base/domains/MS/examples.md", "md_atom_type": "TABLE_ROW", "md_parent_section": "§MS.3 [Example 3]", "md_verbatim": "| 1 | ABC | MS | ABC-01-101 | MBREFID | 100.4 | MSMEDTYPE | Medium Type | LOWENSTEIN-JENSEN | Collected |", "score": 0.2046, "match_basis": "verbatim_token+domain_route:MS"}], "candidate_count": 5, "zero_candidate": false}
{"pdf_atom_id": "ig34_p0255_a015", "pdf_atom_type": "TABLE_ROW", "pdf_source": "SDTMIG_v3.4", "pdf_page": 255, "pdf_parent_section": "§6.3.5.7.2 Microbiology Susceptibility (MS)", "pdf_verbatim": "| MSRFTDTC | Date/Time of Reference Time Point | Char | ISO 8601 datetime or interval | Timing | Date/time for a fixed reference time point defined by MSTPTREF. | Perm |", "figure_ref": null, "candidates": [{"md_atom_id": "md_dmMS_ex_a010", "md_file": "knowledge_base/domains/MS/examples.md", "md_atom_type": "TABLE_ROW", "md_parent_section": "§MS.1 [Example 1]", "md_verbatim": "| 1 | ABC | MS | ABC-001-002 | ENTEROCOCCUS FAECALIS | 1 | 1 | SPEC01 | | MIC | Minimum Inhibitory Concentration | Sponsor Drug | 0.25 | ug/dL | 0.25 | ug/dL | | | | CENTRAL LAB ABC | EPSILOMETER | 2005-06-19T08:00 |", "score": 0.4207, "match_basis": "verbatim_token+domain_route:MS"}, {"md_atom_id": "md_dmMS_ex_a012", "md_file": "knowledge_base/domains/MS/examples.md", "md_atom_type": "TABLE_ROW", "md_parent_section": "§MS.1 [Example 1]", "md_verbatim": "| 3 | ABC | MS | ABC-001-002 | ENTEROCOCCUS FAECALIS | 2 | 3 | SPEC01 | | MIC | Minimum Inhibitory Concentration | Amoxicillin | 1 | ug/dL | 1 | ug/dL | | | | CENTRAL LAB ABC | EPSILOMETER | 2005-06-19T08:00 |", "score": 0.4203, "match_basis": "verbatim_token+domain_route:MS"}, {"md_atom_id": "md_dmMS_ex_a028", "md_file": "knowledge_base/domains/MS/examples.md", "md_atom_type": "TABLE_ROW", "md_parent_section": "§MS.2 [Example 2]", "md_verbatim": "| 1 | ABC | MS | ABC-001-001 | STREPTOCOCCUS PNEUMONIAE | | 1 | SP01 | MIC | Minimum Inhibitory Concentration | Sponsor Drug | 0.004 | mg/L | 0.004 | 0.004 | mg/L | | EPSILOMETER | 1 | VISIT 1 | 2005-06-19T08:00 |", "score": 0.42, "match_basis": "verbatim_token+domain_route:MS"}, {"md_atom_id": "md_dmMS_ex_a030", "md_file": "knowledge_base/domains/MS/examples.md", "md_atom_type": "TABLE_ROW", "md_parent_section": "§MS.2 [Example 2]", "md_verbatim": "| 3 | ABC | MS | ABC-001-001 | STREPTOCOCCUS PNEUMONIAE | | 3 | SP01 | MIC | Minimum Inhibitory Concentration | Penicillin | 0.125 | mg/L | 0.125 | 0.125 | mg/L | | EPSILOMETER | 1 | VISIT 1 | 2005-06-19T08:00 |", "score": 0.4198, "match_basis": "verbatim_token+domain_route:MS"}, {"md_atom_id": "md_dmMS_ex_a016", "md_file": "knowledge_base/domains/MS/examples.md", "md_atom_type": "TABLE_ROW", "md_parent_section": "§MS.1 [Example 1]", "md_verbatim": "| 7 | ABC | MS | ABC-001-002 | ENTEROCOCCUS FAECALIS | 3 | 7 | SPEC01 | 2 | DIAZOINH | Diameter of the Zone of Inhibition | Sponsor Drug | | | 23 | mm | 23 | 23 | mm | LOCAL LAB XYZ | DISK DIFFUSION | 2005-06-19T08:00 |", "score": 0.4157, "match_basis": "verbatim_token+domain_route:MS"}], "candidate_count": 5, "zero_candidate": false}
{"pdf_atom_id": "ig34_p0255_a016", "pdf_atom_type": "CODE_LITERAL", "pdf_source": "SDTMIG_v3.4", "pdf_page": 255, "pdf_parent_section": "§6.3.5.7.2 Microbiology Susceptibility (MS)", "pdf_verbatim": "MSRFTDTC", "figure_ref": null, "candidates": [{"md_atom_id": "md_dmMS_assn_a009", "md_file": "knowledge_base/domains/MS/assumptions.md", "md_atom_type": "LIST_ITEM", "md_parent_section": "§MS [MS — Assumptions]", "md_verbatim": "2. MSDTC represents the date the specimen was collected.", "score": 0.2082, "match_basis": "verbatim_token+domain_route:MS"}, {"md_atom_id": "md_dmMS_assn_a011", "md_file": "knowledge_base/domains/MS/assumptions.md", "md_atom_type": "LIST_ITEM", "md_parent_section": "§MS [MS — Assumptions]", "md_verbatim": "   a. Culture dates can be connected to the MS record via MSREFID and BEREFID.", "score": 0.2071, "match_basis": "verbatim_token+domain_route:MS"}, {"md_atom_id": "md_dmMS_ex_a027", "md_file": "knowledge_base/domains/MS/examples.md", "md_atom_type": "TABLE_HEADER", "md_parent_section": "§MS.2 [Example 2]", "md_verbatim": "| Row | STUDYID | DOMAIN | USUBJID | NHOID | MSGRPID | MSSEQ | MSREFID | MSTESTCD | MSTEST | MSAGENT | MSORRES | MSORRESU | MSSTRESC | MSSTRESN | MSSTRESU | MSNAM | MSMETHOD | VISITNUM | VISIT | MSDTC |\n|-----|---------|--------|---------|-------|---------|-------|---------|----------|--------|---------|---------|----------|----------|----------|----------|-------|----------|----------|-------|-------|", "score": 0.206, "match_basis": "verbatim_token+domain_route:MS"}, {"md_atom_id": "md_dmMS_ex_a009", "md_file": "knowledge_base/domains/MS/examples.md", "md_atom_type": "TABLE_HEADER", "md_parent_section": "§MS.1 [Example 1]", "md_verbatim": "| Row | STUDYID | DOMAIN | USUBJID | NHOID | MSGRPID | MSSEQ | MSREFID | MSLNKGRP | MSTESTCD | MSTEST | MSAGENT | MSCONC | MSCONCU | MSORRES | MSORRESU | MSSTRESC | MSSTRESN | MSSTRESU | MSNAM | MSMETHOD | MSDTC |\n|-----|---------|--------|---------|-------|---------|-------|---------|----------|----------|--------|---------|--------|---------|---------|----------|----------|----------|----------|-------|----------|-------|", "score": 0.2052, "match_basis": "verbatim_token+domain_route:MS"}, {"md_atom_id": "md_dmMS_ex_a043", "md_file": "knowledge_base/domains/MS/examples.md", "md_atom_type": "TABLE_HEADER", "md_parent_section": "§MS.3 [Example 3]", "md_verbatim": "| Row | STUDYID | DOMAIN | USUBJID | SPDEVID | NHOID | MSSEQ | MSREFID | MSLNKID | MSTESTCD | MSTEST | MSAGENT | MSCONC | MSCONCU | MSORRES | MSSTRESC | MSSPEC | MSLOC | MSMETHOD | MSDTC |\n|-----|---------|--------|---------|---------|-------|-------|---------|---------|----------|--------|---------|--------|---------|---------|----------|--------|-------|----------|-------|", "score": 0.2052, "match_basis": "verbatim_token+domain_route:MS"}], "candidate_count": 5, "zero_candidate": false}
{"pdf_atom_id": "ig34_p0255_a017", "pdf_atom_type": "TABLE_ROW", "pdf_source": "SDTMIG_v3.4", "pdf_page": 255, "pdf_parent_section": "§6.3.5.7.2 Microbiology Susceptibility (MS)", "pdf_verbatim": "| MSEVLINT | Evaluation Interval | Char | ISO 8601 duration or interval | Timing | Duration of interval associated with an observation such as a finding MSTESTCD. Example: \"-P2M\" to represent a period of the past 2 months before the assessment. | Perm |", "figure_ref": null, "candidates": [{"md_atom_id": "md_dmMS_ex_a030", "md_file": "knowledge_base/domains/MS/examples.md", "md_atom_type": "TABLE_ROW", "md_parent_section": "§MS.2 [Example 2]", "md_verbatim": "| 3 | ABC | MS | ABC-001-001 | STREPTOCOCCUS PNEUMONIAE | | 3 | SP01 | MIC | Minimum Inhibitory Concentration | Penicillin | 0.125 | mg/L | 0.125 | 0.125 | mg/L | | EPSILOMETER | 1 | VISIT 1 | 2005-06-19T08:00 |", "score": 0.4387, "match_basis": "verbatim_token+domain_route:MS"}, {"md_atom_id": "md_dmMS_ex_a034", "md_file": "knowledge_base/domains/MS/examples.md", "md_atom_type": "TABLE_ROW", "md_parent_section": "§MS.2 [Example 2]", "md_verbatim": "| 7 | ABC | MS | ABC-001-001 | KLEBSIELLA PNEUMONIAE | | 7 | SP02 | MIC | Minimum Inhibitory Concentration | Penicillin | 4.9 | mg/L | 4.9 | 4.9 | mg/L | | EPSILOMETER | 2 | VISIT 2 | 2005-06-26T08:00 |", "score": 0.4355, "match_basis": "verbatim_token+domain_route:MS"}, {"md_atom_id": "md_dmMS_ex_a036", "md_file": "knowledge_base/domains/MS/examples.md", "md_atom_type": "TABLE_ROW", "md_parent_section": "§MS.2 [Example 2]", "md_verbatim": "| 9 | ABC | MS | ABC-001-001 | KLEBSIELLA PNEUMONIAE | | 9 | SP03 | MIC | Minimum Inhibitory Concentration | Penicillin | 4.8 | mg/L | 4.8 | 4.8 | mg/L | | EPSILOMETER | 3 | VISIT 3 | 2005-07-01T08:00 |", "score": 0.4355, "match_basis": "verbatim_token+domain_route:MS"}, {"md_atom_id": "md_dmMS_ex_a012", "md_file": "knowledge_base/domains/MS/examples.md", "md_atom_type": "TABLE_ROW", "md_parent_section": "§MS.1 [Example 1]", "md_verbatim": "| 3 | ABC | MS | ABC-001-002 | ENTEROCOCCUS FAECALIS | 2 | 3 | SPEC01 | | MIC | Minimum Inhibitory Concentration | Amoxicillin | 1 | ug/dL | 1 | ug/dL | | | | CENTRAL LAB ABC | EPSILOMETER | 2005-06-19T08:00 |", "score": 0.4353, "match_basis": "verbatim_token+domain_route:MS"}, {"md_atom_id": "md_dmMS_ex_a028", "md_file": "knowledge_base/domains/MS/examples.md", "md_atom_type": "TABLE_ROW", "md_parent_section": "§MS.2 [Example 2]", "md_verbatim": "| 1 | ABC | MS | ABC-001-001 | STREPTOCOCCUS PNEUMONIAE | | 1 | SP01 | MIC | Minimum Inhibitory Concentration | Sponsor Drug | 0.004 | mg/L | 0.004 | 0.004 | mg/L | | EPSILOMETER | 1 | VISIT 1 | 2005-06-19T08:00 |", "score": 0.4348, "match_basis": "verbatim_token+domain_route:MS"}], "candidate_count": 5, "zero_candidate": false}
{"pdf_atom_id": "ig34_p0255_a018", "pdf_atom_type": "CODE_LITERAL", "pdf_source": "SDTMIG_v3.4", "pdf_page": 255, "pdf_parent_section": "§6.3.5.7.2 Microbiology Susceptibility (MS)", "pdf_verbatim": "MSEVLINT", "figure_ref": null, "candidates": [{"md_atom_id": "md_dmMS_ex_a007", "md_file": "knowledge_base/domains/MS/examples.md", "md_atom_type": "SENTENCE", "md_parent_section": "§MS.1 [Example 1]", "md_verbatim": "**Rows 7-10:** Show the diameter of the zone of inhibition and the interpretation result reported from Local Lab XYZ from a sample that was tested for susceptibility to the sponsor drug and amoxicillin using a disk diffusion test method.", "score": 0.2017, "match_basis": "verbatim_token+domain_route:MS"}, {"md_atom_id": "md_dmMS_ex_a005", "md_file": "knowledge_base/domains/MS/examples.md", "md_atom_type": "SENTENCE", "md_parent_section": "§MS.1 [Example 1]", "md_verbatim": "**Rows 1-4:** Show the minimum inhibitory concentration and the interpretation result reported from Central Lab ABC from a sample that was tested for susceptibility to the sponsor drug and amoxicillin, using an epsilometer test method.", "score": 0.2009, "match_basis": "verbatim_token+domain_route:MS"}, {"md_atom_id": "md_dmMS_ex_a024", "md_file": "knowledge_base/domains/MS/examples.md", "md_atom_type": "SENTENCE", "md_parent_section": "§MS.2 [Example 2]", "md_verbatim": "**Rows 5-8:** Similar to rows 1-4, the sponsor drug (rows 5-6) and penicillin (rows 7-8) were tested against \"KLEBSIELLA PNEUMONIAE\" from an additional sample at a later time point. Results from these tests indicated that the organism was susceptible to sponsor drug, yet had intermediate resistance to penicillin.", "score": 0.1997, "match_basis": "verbatim_token+domain_route:MS"}, {"md_atom_id": "md_dmMS_ex_a025", "md_file": "knowledge_base/domains/MS/examples.md", "md_atom_type": "SENTENCE", "md_parent_section": "§MS.2 [Example 2]", "md_verbatim": "**Rows 9-10:** A test against \"KLEBSIELLA PNEUMONIAE\" from an additional sample at a later time point showed little change in the minimum inhibitory concentration of penicillin, and that the organism is still classified as having intermediate resistance to penicillin.", "score": 0.1992, "match_basis": "verbatim_token+domain_route:MS"}, {"md_atom_id": "md_dmMS_ex_a006", "md_file": "knowledge_base/domains/MS/examples.md", "md_atom_type": "SENTENCE", "md_parent_section": "§MS.1 [Example 1]", "md_verbatim": "**Rows 5-6:** Show that Local Lab XYZ found that the sample was susceptible to the sponsor drug at a concentration of 0.5 ug/dL and resistant to amoxicillin at a concentration of 0.5 ug/dL.", "score": 0.1987, "match_basis": "verbatim_token+domain_route:MS"}], "candidate_count": 5, "zero_candidate": false}
{"pdf_atom_id": "ig34_p0255_a019", "pdf_atom_type": "TABLE_ROW", "pdf_source": "SDTMIG_v3.4", "pdf_page": 255, "pdf_parent_section": "§6.3.5.7.2 Microbiology Susceptibility (MS)", "pdf_verbatim": "| MSEVINTX | Evaluation Interval Text | Char | | Timing | Evaluation interval associated with an observation, where the interval is not able to be represented in ISO 8601 format. Examples: \"LIFETIME\", \"LAST NIGHT\", \"RECENTLY\", \"OVER THE LAST FEW WEEKS\". | Perm |", "figure_ref": null, "candidates": [{"md_atom_id": "md_dmMS_ex_a010", "md_file": "knowledge_base/domains/MS/examples.md", "md_atom_type": "TABLE_ROW", "md_parent_section": "§MS.1 [Example 1]", "md_verbatim": "| 1 | ABC | MS | ABC-001-002 | ENTEROCOCCUS FAECALIS | 1 | 1 | SPEC01 | | MIC | Minimum Inhibitory Concentration | Sponsor Drug | 0.25 | ug/dL | 0.25 | ug/dL | | | | CENTRAL LAB ABC | EPSILOMETER | 2005-06-19T08:00 |", "score": 0.4318, "match_basis": "verbatim_token+domain_route:MS"}, {"md_atom_id": "md_dmMS_ex_a012", "md_file": "knowledge_base/domains/MS/examples.md", "md_atom_type": "TABLE_ROW", "md_parent_section": "§MS.1 [Example 1]", "md_verbatim": "| 3 | ABC | MS | ABC-001-002 | ENTEROCOCCUS FAECALIS | 2 | 3 | SPEC01 | | MIC | Minimum Inhibitory Concentration | Amoxicillin | 1 | ug/dL | 1 | ug/dL | | | | CENTRAL LAB ABC | EPSILOMETER | 2005-06-19T08:00 |", "score": 0.4314, "match_basis": "verbatim_token+domain_route:MS"}, {"md_atom_id": "md_dmMS_ex_a028", "md_file": "knowledge_base/domains/MS/examples.md", "md_atom_type": "TABLE_ROW", "md_parent_section": "§MS.2 [Example 2]", "md_verbatim": "| 1 | ABC | MS | ABC-001-001 | STREPTOCOCCUS PNEUMONIAE | | 1 | SP01 | MIC | Minimum Inhibitory Concentration | Sponsor Drug | 0.004 | mg/L | 0.004 | 0.004 | mg/L | | EPSILOMETER | 1 | VISIT 1 | 2005-06-19T08:00 |", "score": 0.431, "match_basis": "verbatim_token+domain_route:MS"}, {"md_atom_id": "md_dmMS_ex_a047", "md_file": "knowledge_base/domains/MS/examples.md", "md_atom_type": "TABLE_ROW", "md_parent_section": "§MS.3 [Example 3]", "md_verbatim": "| 4 | ABC | MS | ABC-01-101 | ABC765 | MYCOBACTERIUM TUBERCULOSIS | 4 | 100.2 | | MICROSUS | Microbial Susceptibility | Isoniazid | | | SUSCEPTIBLE | SUSCEPTIBLE | LAVAGE FLUID | STOMACH | NUCLEIC ACID AMPLIFICATION TEST | 2011-01-17T06:00 |", "score": 0.4309, "match_basis": "verbatim_token+domain_route:MS"}, {"md_atom_id": "md_dmMS_ex_a030", "md_file": "knowledge_base/domains/MS/examples.md", "md_atom_type": "TABLE_ROW", "md_parent_section": "§MS.2 [Example 2]", "md_verbatim": "| 3 | ABC | MS | ABC-001-001 | STREPTOCOCCUS PNEUMONIAE | | 3 | SP01 | MIC | Minimum Inhibitory Concentration | Penicillin | 0.125 | mg/L | 0.125 | 0.125 | mg/L | | EPSILOMETER | 1 | VISIT 1 | 2005-06-19T08:00 |", "score": 0.4308, "match_basis": "verbatim_token+domain_route:MS"}], "candidate_count": 5, "zero_candidate": false}
{"pdf_atom_id": "ig34_p0255_a020", "pdf_atom_type": "CODE_LITERAL", "pdf_source": "SDTMIG_v3.4", "pdf_page": 255, "pdf_parent_section": "§6.3.5.7.2 Microbiology Susceptibility (MS)", "pdf_verbatim": "MSEVINTX", "figure_ref": null, "candidates": [{"md_atom_id": "md_dmMS_ex_a025", "md_file": "knowledge_base/domains/MS/examples.md", "md_atom_type": "SENTENCE", "md_parent_section": "§MS.2 [Example 2]", "md_verbatim": "**Rows 9-10:** A test against \"KLEBSIELLA PNEUMONIAE\" from an additional sample at a later time point showed little change in the minimum inhibitory concentration of penicillin, and that the organism is still classified as having intermediate resistance to penicillin.", "score": 0.1992, "match_basis": "verbatim_token+domain_route:MS"}, {"md_atom_id": "md_dmMS_ex_a043", "md_file": "knowledge_base/domains/MS/examples.md", "md_atom_type": "TABLE_HEADER", "md_parent_section": "§MS.3 [Example 3]", "md_verbatim": "| Row | STUDYID | DOMAIN | USUBJID | SPDEVID | NHOID | MSSEQ | MSREFID | MSLNKID | MSTESTCD | MSTEST | MSAGENT | MSCONC | MSCONCU | MSORRES | MSSTRESC | MSSPEC | MSLOC | MSMETHOD | MSDTC |\n|-----|---------|--------|---------|---------|-------|-------|---------|---------|----------|--------|---------|--------|---------|---------|----------|--------|-------|----------|-------|", "score": 0.1975, "match_basis": "verbatim_token+domain_route:MS"}, {"md_atom_id": "md_dmMS_assn_a014", "md_file": "knowledge_base/domains/MS/assumptions.md", "md_atom_type": "LIST_ITEM", "md_parent_section": "§MS [MS — Assumptions]", "md_verbatim": "5. Any Identifiers, Timing variables, or Findings general observation class qualifiers may be added to the MS domain, but the following variables would not generally be used: --MODIFY, --BODSYS, --TOX, --TOXGR --SEV.", "score": 0.1968, "match_basis": "verbatim_token+domain_route:MS"}, {"md_atom_id": "md_dmMS_ex_a007", "md_file": "knowledge_base/domains/MS/examples.md", "md_atom_type": "SENTENCE", "md_parent_section": "§MS.1 [Example 1]", "md_verbatim": "**Rows 7-10:** Show the diameter of the zone of inhibition and the interpretation result reported from Local Lab XYZ from a sample that was tested for susceptibility to the sponsor drug and amoxicillin using a disk diffusion test method.", "score": 0.1958, "match_basis": "verbatim_token+domain_route:MS"}, {"md_atom_id": "md_dmMS_ex_a005", "md_file": "knowledge_base/domains/MS/examples.md", "md_atom_type": "SENTENCE", "md_parent_section": "§MS.1 [Example 1]", "md_verbatim": "**Rows 1-4:** Show the minimum inhibitory concentration and the interpretation result reported from Central Lab ABC from a sample that was tested for susceptibility to the sponsor drug and amoxicillin, using an epsilometer test method.", "score": 0.1954, "match_basis": "verbatim_token+domain_route:MS"}], "candidate_count": 5, "zero_candidate": false}
{"pdf_atom_id": "ig34_p0255_a021", "pdf_atom_type": "NOTE", "pdf_source": "SDTMIG_v3.4", "pdf_page": 255, "pdf_parent_section": "§6.3.5.7.2 Microbiology Susceptibility (MS)", "pdf_verbatim": "1In this column, an asterisk (*) indicates that the variable may be subject to controlled terminology. CDISC/NCI codelist values are enclosed in parentheses.", "figure_ref": null, "candidates": [{"md_atom_id": "md_dmMS_ex_a039", "md_file": "knowledge_base/domains/MS/examples.md", "md_atom_type": "SENTENCE", "md_parent_section": "§MS.3 [Example 3]", "md_verbatim": "Results from drug susceptibility tests performed on samples from the gastric TB study (see MB Example 3) are represented in the MS domain. This includes all phenotypic tests (where the drug is added directly to a culture medium) and genotypic tests (when the result is given as susceptible or resistant). In this example, the variable NHOID (Non-host Organism Identifier) is populated with the name of the organism that is the subject of the test.", "score": 0.3802, "match_basis": "verbatim_token+domain_route:MS"}, {"md_atom_id": "md_dmMS_ex_a022", "md_file": "knowledge_base/domains/MS/examples.md", "md_atom_type": "SENTENCE", "md_parent_section": "§MS.2 [Example 2]", "md_verbatim": "**Rows 1-2:** Show that the sponsor drug (MSAGENT) was tested against \"STREPTOCOCCUS PNEUMONIAE\" (NHOID) from subject sample SP01 and that the drug has a minimum inhibitory concentration (MSTESTCD/MSTEST) of 0.004 mg/L (row 1). This led to the conclusion that this organism is susceptible to that drug (row 2).", "score": 0.3751, "match_basis": "verbatim_token+domain_route:MS"}, {"md_atom_id": "md_dmMS_assn_a008", "md_file": "knowledge_base/domains/MS/assumptions.md", "md_atom_type": "LIST_ITEM", "md_parent_section": "§MS [MS — Assumptions]", "md_verbatim": "   c. CDISC Controlled Terminology Rules for Microbiology (MB/MS) domains are available at https://www.cdisc.org/standards/terminology/controlled-terminology.", "score": 0.3732, "match_basis": "verbatim_token+domain_route:MS"}, {"md_atom_id": "md_dmMS_ex_a024", "md_file": "knowledge_base/domains/MS/examples.md", "md_atom_type": "SENTENCE", "md_parent_section": "§MS.2 [Example 2]", "md_verbatim": "**Rows 5-8:** Similar to rows 1-4, the sponsor drug (rows 5-6) and penicillin (rows 7-8) were tested against \"KLEBSIELLA PNEUMONIAE\" from an additional sample at a later time point. Results from these tests indicated that the organism was susceptible to sponsor drug, yet had intermediate resistance to penicillin.", "score": 0.366, "match_basis": "verbatim_token+domain_route:MS"}, {"md_atom_id": "md_dmMS_ex_a041", "md_file": "knowledge_base/domains/MS/examples.md", "md_atom_type": "SENTENCE", "md_parent_section": "§MS.3 [Example 3]", "md_verbatim": "**Rows 3-4:** Show genotypic susceptibility testing results on the same aliquot from a NAAT that looks for mutations that confer resistance to 2 drugs. MSAGENT should be populated with the name of the drug whose action is affected by the mutation being tested for. However, because the drug is not used in the test, MSCONC and MSCONCU should be null. These results are represented in MS because the only result given is in terms of resistant/susceptible; no genetic results are reported.", "score": 0.3622, "match_basis": "verbatim_token+domain_route:MS"}], "candidate_count": 5, "zero_candidate": false}
{"pdf_atom_id": "ig34_p0255_a022", "pdf_atom_type": "HEADING", "pdf_source": "SDTMIG_v3.4", "pdf_page": 255, "pdf_parent_section": "§6.3.5.7.2 Microbiology Susceptibility (MS)", "pdf_verbatim": "MS – Assumptions", "figure_ref": null, "candidates": [{"md_atom_id": "md_dmMS_assn_a001", "md_file": "knowledge_base/domains/MS/assumptions.md", "md_atom_type": "HEADING", "md_parent_section": "§MS [MS — Assumptions]", "md_verbatim": "# MS — Assumptions", "score": 1.0, "match_basis": "verbatim_token+domain_route:MS"}, {"md_atom_id": "md_dmMS_ex_a001", "md_file": "knowledge_base/domains/MS/examples.md", "md_atom_type": "HEADING", "md_parent_section": "§MS [MS — Examples]", "md_verbatim": "# MS — Examples", "score": 0.4, "match_basis": "verbatim_token+domain_route:MS"}, {"md_atom_id": "md_dmMS_ex_a003", "md_file": "knowledge_base/domains/MS/examples.md", "md_atom_type": "HEADING", "md_parent_section": "§MS [MS — Examples]", "md_verbatim": "## Example 1", "score": 0.4, "match_basis": "verbatim_token+domain_route:MS"}, {"md_atom_id": "md_dmMS_ex_a020", "md_file": "knowledge_base/domains/MS/examples.md", "md_atom_type": "HEADING", "md_parent_section": "§MS [MS — Examples]", "md_verbatim": "## Example 2", "score": 0.4, "match_basis": "verbatim_token+domain_route:MS"}, {"md_atom_id": "md_dmMS_ex_a038", "md_file": "knowledge_base/domains/MS/examples.md", "md_atom_type": "HEADING", "md_parent_section": "§MS [MS — Examples]", "md_verbatim": "## Example 3", "score": 0.4, "match_basis": "verbatim_token+domain_route:MS"}], "candidate_count": 5, "zero_candidate": false}
{"pdf_atom_id": "ig34_p0255_a023", "pdf_atom_type": "LIST_ITEM", "pdf_source": "SDTMIG_v3.4", "pdf_page": 255, "pdf_parent_section": "§6.3.5.7.2 Microbiology Susceptibility (MS)", "pdf_verbatim": "1. Microbiology Susceptibility testing includes testing of the following types:", "figure_ref": null, "candidates": [{"md_atom_id": "md_dmMS_assn_a002", "md_file": "knowledge_base/domains/MS/assumptions.md", "md_atom_type": "LIST_ITEM", "md_parent_section": "§MS [MS — Assumptions]", "md_verbatim": "1. Microbiology Susceptibility testing includes testing of the following types:", "score": 1.0, "match_basis": "verbatim_token+domain_route:MS"}, {"md_atom_id": "md_dmMS_assn_a008", "md_file": "knowledge_base/domains/MS/assumptions.md", "md_atom_type": "LIST_ITEM", "md_parent_section": "§MS [MS — Assumptions]", "md_verbatim": "   c. CDISC Controlled Terminology Rules for Microbiology (MB/MS) domains are available at https://www.cdisc.org/standards/terminology/controlled-terminology.", "score": 0.475, "match_basis": "verbatim_token+domain_route:MS"}, {"md_atom_id": "md_dmMS_assn_a003", "md_file": "knowledge_base/domains/MS/assumptions.md", "md_atom_type": "LIST_ITEM", "md_parent_section": "§MS [MS — Assumptions]", "md_verbatim": "   a. Phenotypic drug susceptibility testing (qualitative), which may involve determining susceptibility/resistance (qualitative) at a predefined concentration of drug, or determining a specific dose (quantitative) at which a drug inhibits organism growth or some other process associated with virulence.", "score": 0.474, "match_basis": "verbatim_token+domain_route:MS"}, {"md_atom_id": "md_dmMS_ex_a021", "md_file": "knowledge_base/domains/MS/examples.md", "md_atom_type": "SENTENCE", "md_parent_section": "§MS.2 [Example 2]", "md_verbatim": "Susceptibility testing results from the sputum multi-visit study (see MB Example 2).", "score": 0.4688, "match_basis": "verbatim_token+domain_route:MS"}, {"md_atom_id": "md_dmMS_assn_a004", "md_file": "knowledge_base/domains/MS/assumptions.md", "md_atom_type": "LIST_ITEM", "md_parent_section": "§MS [MS — Assumptions]", "md_verbatim": "      i. For studies using qualitative testing methods, MSAGENT, MSCONC, and MSCONCU are used to represent the predefined drug, concentration, and units, respectively. Results are represented with values such as \"SUSCEPTIBLE\" or \"RESISTANT\".", "score": 0.4636, "match_basis": "verbatim_token+domain_route:MS"}], "candidate_count": 5, "zero_candidate": false}
{"pdf_atom_id": "ig34_p0255_a024", "pdf_atom_type": "LIST_ITEM", "pdf_source": "SDTMIG_v3.4", "pdf_page": 255, "pdf_parent_section": "§6.3.5.7.2 Microbiology Susceptibility (MS)", "pdf_verbatim": "a. Phenotypic drug susceptibility testing (qualitative), which may involve determining susceptibility/resistance (qualitative) at a predefined concentration of drug, or determining a specific dose (quantitative) at which a drug inhibits organism growth or some other process associated with virulence.", "figure_ref": null, "candidates": [{"md_atom_id": "md_dmMS_assn_a003", "md_file": "knowledge_base/domains/MS/assumptions.md", "md_atom_type": "LIST_ITEM", "md_parent_section": "§MS [MS — Assumptions]", "md_verbatim": "   a. Phenotypic drug susceptibility testing (qualitative), which may involve determining susceptibility/resistance (qualitative) at a predefined concentration of drug, or determining a specific dose (quantitative) at which a drug inhibits organism growth or some other process associated with virulence.", "score": 1.0, "match_basis": "verbatim_token+domain_route:MS"}, {"md_atom_id": "md_dmMS_assn_a004", "md_file": "knowledge_base/domains/MS/assumptions.md", "md_atom_type": "LIST_ITEM", "md_parent_section": "§MS [MS — Assumptions]", "md_verbatim": "      i. For studies using qualitative testing methods, MSAGENT, MSCONC, and MSCONCU are used to represent the predefined drug, concentration, and units, respectively. Results are represented with values such as \"SUSCEPTIBLE\" or \"RESISTANT\".", "score": 0.5854, "match_basis": "verbatim_token+domain_route:MS"}, {"md_atom_id": "md_dmMS_assn_a005", "md_file": "knowledge_base/domains/MS/assumptions.md", "md_atom_type": "LIST_ITEM", "md_parent_section": "§MS [MS — Assumptions]", "md_verbatim": "      ii. For studies using quantitative testing methods, MSAGENT is used to represent the drug being tested; MSCONC and MSCONCU are not used. The concentration at which growth is inhibited is the result in these cases (MSORRES, MSSTRESC/MSSTRESN), with units being represented in MSORRESU/MSSTRESU.", "score": 0.5549, "match_basis": "verbatim_token+domain_route:MS"}, {"md_atom_id": "md_dmMS_assn_a007", "md_file": "knowledge_base/domains/MS/assumptions.md", "md_atom_type": "LIST_ITEM", "md_parent_section": "§MS [MS — Assumptions]", "md_verbatim": "   b. Genetic tests that provide results in terms of susceptible/resistant only (e.g., nucleic acid amplification tests (NAAT)). Genotypic tests that provide results in terms of specific changes to nucleotides, codons, or amino acids of genes/gene products associated with resistance should be represented in the Genomic Findings (GF) domain, as that domain structure contains the variables necessary to accommodate data of this type. If a test provides both mutation data and susceptibility data, the mutation results should be represented in GF and the susceptibility information should be represented in MS. In these cases, the GF records should be linked via RELREC to susceptibility records in MS.", "score": 0.5383, "match_basis": "verbatim_token+domain_route:MS"}, {"md_atom_id": "md_dmMS_assn_a013", "md_file": "knowledge_base/domains/MS/assumptions.md", "md_atom_type": "LIST_ITEM", "md_parent_section": "§MS [MS — Assumptions]", "md_verbatim": "4. NHOID is a sponsor-defined, intuitive name of the non-host organism being tested. It should only be populated with values representing what is known about the identity of the organism before the results of the test are determined. It should therefore never be used as a qualifier of result.", "score": 0.5176, "match_basis": "verbatim_token+domain_route:MS"}], "candidate_count": 5, "zero_candidate": false}
{"pdf_atom_id": "ig34_p0255_a025", "pdf_atom_type": "LIST_ITEM", "pdf_source": "SDTMIG_v3.4", "pdf_page": 255, "pdf_parent_section": "§6.3.5.7.2 Microbiology Susceptibility (MS)", "pdf_verbatim": "i. For studies using qualitative testing methods, MSAGENT, MSCONC, and MSCONCU are used to represent the predefined drug, concentration, and units, respectively. Results are represented with values such as \"SUSCEPTIBLE\" or \"RESISTANT\".", "figure_ref": null, "candidates": [{"md_atom_id": "md_dmMS_assn_a004", "md_file": "knowledge_base/domains/MS/assumptions.md", "md_atom_type": "LIST_ITEM", "md_parent_section": "§MS [MS — Assumptions]", "md_verbatim": "      i. For studies using qualitative testing methods, MSAGENT, MSCONC, and MSCONCU are used to represent the predefined drug, concentration, and units, respectively. Results are represented with values such as \"SUSCEPTIBLE\" or \"RESISTANT\".", "score": 1.0, "match_basis": "verbatim_token+domain_route:MS"}, {"md_atom_id": "md_dmMS_assn_a005", "md_file": "knowledge_base/domains/MS/assumptions.md", "md_atom_type": "LIST_ITEM", "md_parent_section": "§MS [MS — Assumptions]", "md_verbatim": "      ii. For studies using quantitative testing methods, MSAGENT is used to represent the drug being tested; MSCONC and MSCONCU are not used. The concentration at which growth is inhibited is the result in these cases (MSORRES, MSSTRESC/MSSTRESN), with units being represented in MSORRESU/MSSTRESU.", "score": 0.6847, "match_basis": "verbatim_token+domain_route:MS"}, {"md_atom_id": "md_dmMS_assn_a003", "md_file": "knowledge_base/domains/MS/assumptions.md", "md_atom_type": "LIST_ITEM", "md_parent_section": "§MS [MS — Assumptions]", "md_verbatim": "   a. Phenotypic drug susceptibility testing (qualitative), which may involve determining susceptibility/resistance (qualitative) at a predefined concentration of drug, or determining a specific dose (quantitative) at which a drug inhibits organism growth or some other process associated with virulence.", "score": 0.5854, "match_basis": "verbatim_token+domain_route:MS"}, {"md_atom_id": "md_dmMS_assn_a013", "md_file": "knowledge_base/domains/MS/assumptions.md", "md_atom_type": "LIST_ITEM", "md_parent_section": "§MS [MS — Assumptions]", "md_verbatim": "4. NHOID is a sponsor-defined, intuitive name of the non-host organism being tested. It should only be populated with values representing what is known about the identity of the organism before the results of the test are determined. It should therefore never be used as a qualifier of result.", "score": 0.5276, "match_basis": "verbatim_token+domain_route:MS"}, {"md_atom_id": "md_dmMS_assn_a010", "md_file": "knowledge_base/domains/MS/assumptions.md", "md_atom_type": "LIST_ITEM", "md_parent_section": "§MS [MS — Assumptions]", "md_verbatim": "3. If the specimen was cultured, the start and end date of culture are represented in the Biospecimen Events (BE) domain in BESTDTC and BEENDTC respectively. --REFID represents the sample ID as originally assigned in the BE domain. See BE domain assumptions in the SDTMIG v3.4, Section 6.2.2, for guidelines on assigning --REFID values to samples and subsamples.", "score": 0.5254, "match_basis": "verbatim_token+domain_route:MS"}], "candidate_count": 5, "zero_candidate": false}
{"pdf_atom_id": "ig34_p0255_a026", "pdf_atom_type": "CODE_LITERAL", "pdf_source": "SDTMIG_v3.4", "pdf_page": 255, "pdf_parent_section": "§6.3.5.7.2 Microbiology Susceptibility (MS)", "pdf_verbatim": "MSAGENT", "figure_ref": null, "candidates": [{"md_atom_id": "md_dmMS_ex_a027", "md_file": "knowledge_base/domains/MS/examples.md", "md_atom_type": "TABLE_HEADER", "md_parent_section": "§MS.2 [Example 2]", "md_verbatim": "| Row | STUDYID | DOMAIN | USUBJID | NHOID | MSGRPID | MSSEQ | MSREFID | MSTESTCD | MSTEST | MSAGENT | MSORRES | MSORRESU | MSSTRESC | MSSTRESN | MSSTRESU | MSNAM | MSMETHOD | VISITNUM | VISIT | MSDTC |\n|-----|---------|--------|---------|-------|---------|-------|---------|----------|--------|---------|---------|----------|----------|----------|----------|-------|----------|----------|-------|-------|", "score": 0.2323, "match_basis": "verbatim_token+domain_route:MS"}, {"md_atom_id": "md_dmMS_ex_a009", "md_file": "knowledge_base/domains/MS/examples.md", "md_atom_type": "TABLE_HEADER", "md_parent_section": "§MS.1 [Example 1]", "md_verbatim": "| Row | STUDYID | DOMAIN | USUBJID | NHOID | MSGRPID | MSSEQ | MSREFID | MSLNKGRP | MSTESTCD | MSTEST | MSAGENT | MSCONC | MSCONCU | MSORRES | MSORRESU | MSSTRESC | MSSTRESN | MSSTRESU | MSNAM | MSMETHOD | MSDTC |\n|-----|---------|--------|---------|-------|---------|-------|---------|----------|----------|--------|---------|--------|---------|---------|----------|----------|----------|----------|-------|----------|-------|", "score": 0.23, "match_basis": "verbatim_token+domain_route:MS"}, {"md_atom_id": "md_dmMS_ex_a043", "md_file": "knowledge_base/domains/MS/examples.md", "md_atom_type": "TABLE_HEADER", "md_parent_section": "§MS.3 [Example 3]", "md_verbatim": "| Row | STUDYID | DOMAIN | USUBJID | SPDEVID | NHOID | MSSEQ | MSREFID | MSLNKID | MSTESTCD | MSTEST | MSAGENT | MSCONC | MSCONCU | MSORRES | MSSTRESC | MSSPEC | MSLOC | MSMETHOD | MSDTC |\n|-----|---------|--------|---------|---------|-------|-------|---------|---------|----------|--------|---------|--------|---------|---------|----------|--------|-------|----------|-------|", "score": 0.23, "match_basis": "verbatim_token+domain_route:MS"}, {"md_atom_id": "md_dmMS_assn_a006", "md_file": "knowledge_base/domains/MS/assumptions.md", "md_atom_type": "LIST_ITEM", "md_parent_section": "§MS [MS — Assumptions]", "md_verbatim": "      iii. As in 1.a.ii, MSAGENT should be populated with the drug whose action would be affected by the genetic marker being assessed via the genotypic test. MSCONC and MSCONCU are null in these records.", "score": 0.2295, "match_basis": "verbatim_token+domain_route:MS"}, {"md_atom_id": "md_dmMS_assn_a005", "md_file": "knowledge_base/domains/MS/assumptions.md", "md_atom_type": "LIST_ITEM", "md_parent_section": "§MS [MS — Assumptions]", "md_verbatim": "      ii. For studies using quantitative testing methods, MSAGENT is used to represent the drug being tested; MSCONC and MSCONCU are not used. The concentration at which growth is inhibited is the result in these cases (MSORRES, MSSTRESC/MSSTRESN), with units being represented in MSORRESU/MSSTRESU.", "score": 0.2203, "match_basis": "verbatim_token+domain_route:MS"}, {"md_atom_id": "md_dmMS_assn_a004", "md_file": "knowledge_base/domains/MS/assumptions.md", "md_atom_type": "LIST_ITEM", "md_parent_section": "§MS [MS — Assumptions]", "md_verbatim": "      i. For studies using qualitative testing methods, MSAGENT, MSCONC, and MSCONCU are used to represent the predefined drug, concentration, and units, respectively. Results are represented with values such as \"SUSCEPTIBLE\" or \"RESISTANT\".", "score": 0.2191, "match_basis": "verbatim_token+domain_route:MS"}, {"md_atom_id": "md_dmMS_ex_a022", "md_file": "knowledge_base/domains/MS/examples.md", "md_atom_type": "SENTENCE", "md_parent_section": "§MS.2 [Example 2]", "md_verbatim": "**Rows 1-2:** Show that the sponsor drug (MSAGENT) was tested against \"STREPTOCOCCUS PNEUMONIAE\" (NHOID) from subject sample SP01 and that the drug has a minimum inhibitory concentration (MSTESTCD/MSTEST) of 0.004 mg/L (row 1). This led to the conclusion that this organism is susceptible to that drug (row 2).", "score": 0.2161, "match_basis": "verbatim_token+domain_route:MS"}, {"md_atom_id": "md_dmMS_ex_a040", "md_file": "knowledge_base/domains/MS/examples.md", "md_atom_type": "SENTENCE", "md_parent_section": "§MS.3 [Example 3]", "md_verbatim": "**Rows 1-2:** Show phenotypic testing results on 2 separate culture plates: 1 with medium containing rifampicin (row 1) and 1 with medium containing isoniazid (row 2). MSAGENT is populated with the name of the drug being used in the susceptibility test. The variables MSCONC and MSCONCU represent the concentration and units of the drug being used. The culture start and stop dates are represented in BE and can be linked to MS by BELNKID and MSLNKID.", "score": 0.2116, "match_basis": "verbatim_token+domain_route:MS"}, {"md_atom_id": "md_dmMS_ex_a041", "md_file": "knowledge_base/domains/MS/examples.md", "md_atom_type": "SENTENCE", "md_parent_section": "§MS.3 [Example 3]", "md_verbatim": "**Rows 3-4:** Show genotypic susceptibility testing results on the same aliquot from a NAAT that looks for mutations that confer resistance to 2 drugs. MSAGENT should be populated with the name of the drug whose action is affected by the mutation being tested for. However, because the drug is not used in the test, MSCONC and MSCONCU should be null. These results are represented in MS because the only result given is in terms of resistant/susceptible; no genetic results are reported.", "score": 0.2105, "match_basis": "verbatim_token+domain_route:MS"}, {"md_atom_id": "md_dmMS_assn_a009", "md_file": "knowledge_base/domains/MS/assumptions.md", "md_atom_type": "LIST_ITEM", "md_parent_section": "§MS [MS — Assumptions]", "md_verbatim": "2. MSDTC represents the date the specimen was collected.", "score": 0.2087, "match_basis": "verbatim_token+domain_route:MS"}], "candidate_count": 10, "zero_candidate": false}
{"pdf_atom_id": "ig34_p0255_a027", "pdf_atom_type": "CODE_LITERAL", "pdf_source": "SDTMIG_v3.4", "pdf_page": 255, "pdf_parent_section": "§6.3.5.7.2 Microbiology Susceptibility (MS)", "pdf_verbatim": "MSCONC", "figure_ref": null, "candidates": [{"md_atom_id": "md_dmMS_ex_a009", "md_file": "knowledge_base/domains/MS/examples.md", "md_atom_type": "TABLE_HEADER", "md_parent_section": "§MS.1 [Example 1]", "md_verbatim": "| Row | STUDYID | DOMAIN | USUBJID | NHOID | MSGRPID | MSSEQ | MSREFID | MSLNKGRP | MSTESTCD | MSTEST | MSAGENT | MSCONC | MSCONCU | MSORRES | MSORRESU | MSSTRESC | MSSTRESN | MSSTRESU | MSNAM | MSMETHOD | MSDTC |\n|-----|---------|--------|---------|-------|---------|-------|---------|----------|----------|--------|---------|--------|---------|---------|----------|----------|----------|----------|-------|----------|-------|", "score": 0.222, "match_basis": "verbatim_token+domain_route:MS"}, {"md_atom_id": "md_dmMS_ex_a043", "md_file": "knowledge_base/domains/MS/examples.md", "md_atom_type": "TABLE_HEADER", "md_parent_section": "§MS.3 [Example 3]", "md_verbatim": "| Row | STUDYID | DOMAIN | USUBJID | SPDEVID | NHOID | MSSEQ | MSREFID | MSLNKID | MSTESTCD | MSTEST | MSAGENT | MSCONC | MSCONCU | MSORRES | MSSTRESC | MSSPEC | MSLOC | MSMETHOD | MSDTC |\n|-----|---------|--------|---------|---------|-------|-------|---------|---------|----------|--------|---------|--------|---------|---------|----------|--------|-------|----------|-------|", "score": 0.222, "match_basis": "verbatim_token+domain_route:MS"}, {"md_atom_id": "md_dmMS_assn_a006", "md_file": "knowledge_base/domains/MS/assumptions.md", "md_atom_type": "LIST_ITEM", "md_parent_section": "§MS [MS — Assumptions]", "md_verbatim": "      iii. As in 1.a.ii, MSAGENT should be populated with the drug whose action would be affected by the genetic marker being assessed via the genotypic test. MSCONC and MSCONCU are null in these records.", "score": 0.2216, "match_basis": "verbatim_token+domain_route:MS"}, {"md_atom_id": "md_dmMS_assn_a005", "md_file": "knowledge_base/domains/MS/assumptions.md", "md_atom_type": "LIST_ITEM", "md_parent_section": "§MS [MS — Assumptions]", "md_verbatim": "      ii. For studies using quantitative testing methods, MSAGENT is used to represent the drug being tested; MSCONC and MSCONCU are not used. The concentration at which growth is inhibited is the result in these cases (MSORRES, MSSTRESC/MSSTRESN), with units being represented in MSORRESU/MSSTRESU.", "score": 0.2142, "match_basis": "verbatim_token+domain_route:MS"}, {"md_atom_id": "md_dmMS_assn_a004", "md_file": "knowledge_base/domains/MS/assumptions.md", "md_atom_type": "LIST_ITEM", "md_parent_section": "§MS [MS — Assumptions]", "md_verbatim": "      i. For studies using qualitative testing methods, MSAGENT, MSCONC, and MSCONCU are used to represent the predefined drug, concentration, and units, respectively. Results are represented with values such as \"SUSCEPTIBLE\" or \"RESISTANT\".", "score": 0.2133, "match_basis": "verbatim_token+domain_route:MS"}, {"md_atom_id": "md_dmMS_assn_a011", "md_file": "knowledge_base/domains/MS/assumptions.md", "md_atom_type": "LIST_ITEM", "md_parent_section": "§MS [MS — Assumptions]", "md_verbatim": "   a. Culture dates can be connected to the MS record via MSREFID and BEREFID.", "score": 0.2082, "match_basis": "verbatim_token+domain_route:MS"}, {"md_atom_id": "md_dmMS_ex_a006", "md_file": "knowledge_base/domains/MS/examples.md", "md_atom_type": "SENTENCE", "md_parent_section": "§MS.1 [Example 1]", "md_verbatim": "**Rows 5-6:** Show that Local Lab XYZ found that the sample was susceptible to the sponsor drug at a concentration of 0.5 ug/dL and resistant to amoxicillin at a concentration of 0.5 ug/dL.", "score": 0.2082, "match_basis": "verbatim_token+domain_route:MS"}, {"md_atom_id": "md_dmMS_ex_a040", "md_file": "knowledge_base/domains/MS/examples.md", "md_atom_type": "SENTENCE", "md_parent_section": "§MS.3 [Example 3]", "md_verbatim": "**Rows 1-2:** Show phenotypic testing results on 2 separate culture plates: 1 with medium containing rifampicin (row 1) and 1 with medium containing isoniazid (row 2). MSAGENT is populated with the name of the drug being used in the susceptibility test. The variables MSCONC and MSCONCU represent the concentration and units of the drug being used. The culture start and stop dates are represented in BE and can be linked to MS by BELNKID and MSLNKID.", "score": 0.2073, "match_basis": "verbatim_token+domain_route:MS"}, {"md_atom_id": "md_dmMS_ex_a010", "md_file": "knowledge_base/domains/MS/examples.md", "md_atom_type": "TABLE_ROW", "md_parent_section": "§MS.1 [Example 1]", "md_verbatim": "| 1 | ABC | MS | ABC-001-002 | ENTEROCOCCUS FAECALIS | 1 | 1 | SPEC01 | | MIC | Minimum Inhibitory Concentration | Sponsor Drug | 0.25 | ug/dL | 0.25 | ug/dL | | | | CENTRAL LAB ABC | EPSILOMETER | 2005-06-19T08:00 |", "score": 0.2069, "match_basis": "verbatim_token+domain_route:MS"}, {"md_atom_id": "md_dmMS_ex_a032", "md_file": "knowledge_base/domains/MS/examples.md", "md_atom_type": "TABLE_ROW", "md_parent_section": "§MS.2 [Example 2]", "md_verbatim": "| 5 | ABC | MS | ABC-001-001 | KLEBSIELLA PNEUMONIAE | | 5 | SP02 | MIC | Minimum Inhibitory Concentration | Sponsor Drug | 0.19 | mg/L | 0.19 | 0.19 | mg/L | | EPSILOMETER | 2 | VISIT 2 | 2005-06-26T08:00 |", "score": 0.2069, "match_basis": "verbatim_token+domain_route:MS"}], "candidate_count": 10, "zero_candidate": false}
{"pdf_atom_id": "ig34_p0255_a028", "pdf_atom_type": "CODE_LITERAL", "pdf_source": "SDTMIG_v3.4", "pdf_page": 255, "pdf_parent_section": "§6.3.5.7.2 Microbiology Susceptibility (MS)", "pdf_verbatim": "MSCONCU", "figure_ref": null, "candidates": [{"md_atom_id": "md_dmMS_ex_a009", "md_file": "knowledge_base/domains/MS/examples.md", "md_atom_type": "TABLE_HEADER", "md_parent_section": "§MS.1 [Example 1]", "md_verbatim": "| Row | STUDYID | DOMAIN | USUBJID | NHOID | MSGRPID | MSSEQ | MSREFID | MSLNKGRP | MSTESTCD | MSTEST | MSAGENT | MSCONC | MSCONCU | MSORRES | MSORRESU | MSSTRESC | MSSTRESN | MSSTRESU | MSNAM | MSMETHOD | MSDTC |\n|-----|---------|--------|---------|-------|---------|-------|---------|----------|----------|--------|---------|--------|---------|---------|----------|----------|----------|----------|-------|----------|-------|", "score": 0.23, "match_basis": "verbatim_token+domain_route:MS"}, {"md_atom_id": "md_dmMS_ex_a043", "md_file": "knowledge_base/domains/MS/examples.md", "md_atom_type": "TABLE_HEADER", "md_parent_section": "§MS.3 [Example 3]", "md_verbatim": "| Row | STUDYID | DOMAIN | USUBJID | SPDEVID | NHOID | MSSEQ | MSREFID | MSLNKID | MSTESTCD | MSTEST | MSAGENT | MSCONC | MSCONCU | MSORRES | MSSTRESC | MSSPEC | MSLOC | MSMETHOD | MSDTC |\n|-----|---------|--------|---------|---------|-------|-------|---------|---------|----------|--------|---------|--------|---------|---------|----------|--------|-------|----------|-------|", "score": 0.23, "match_basis": "verbatim_token+domain_route:MS"}, {"md_atom_id": "md_dmMS_assn_a006", "md_file": "knowledge_base/domains/MS/assumptions.md", "md_atom_type": "LIST_ITEM", "md_parent_section": "§MS [MS — Assumptions]", "md_verbatim": "      iii. As in 1.a.ii, MSAGENT should be populated with the drug whose action would be affected by the genetic marker being assessed via the genotypic test. MSCONC and MSCONCU are null in these records.", "score": 0.2295, "match_basis": "verbatim_token+domain_route:MS"}, {"md_atom_id": "md_dmMS_assn_a005", "md_file": "knowledge_base/domains/MS/assumptions.md", "md_atom_type": "LIST_ITEM", "md_parent_section": "§MS [MS — Assumptions]", "md_verbatim": "      ii. For studies using quantitative testing methods, MSAGENT is used to represent the drug being tested; MSCONC and MSCONCU are not used. The concentration at which growth is inhibited is the result in these cases (MSORRES, MSSTRESC/MSSTRESN), with units being represented in MSORRESU/MSSTRESU.", "score": 0.2203, "match_basis": "verbatim_token+domain_route:MS"}, {"md_atom_id": "md_dmMS_assn_a004", "md_file": "knowledge_base/domains/MS/assumptions.md", "md_atom_type": "LIST_ITEM", "md_parent_section": "§MS [MS — Assumptions]", "md_verbatim": "      i. For studies using qualitative testing methods, MSAGENT, MSCONC, and MSCONCU are used to represent the predefined drug, concentration, and units, respectively. Results are represented with values such as \"SUSCEPTIBLE\" or \"RESISTANT\".", "score": 0.2191, "match_basis": "verbatim_token+domain_route:MS"}, {"md_atom_id": "md_dmMS_ex_a040", "md_file": "knowledge_base/domains/MS/examples.md", "md_atom_type": "SENTENCE", "md_parent_section": "§MS.3 [Example 3]", "md_verbatim": "**Rows 1-2:** Show phenotypic testing results on 2 separate culture plates: 1 with medium containing rifampicin (row 1) and 1 with medium containing isoniazid (row 2). MSAGENT is populated with the name of the drug being used in the susceptibility test. The variables MSCONC and MSCONCU represent the concentration and units of the drug being used. The culture start and stop dates are represented in BE and can be linked to MS by BELNKID and MSLNKID.", "score": 0.2116, "match_basis": "verbatim_token+domain_route:MS"}, {"md_atom_id": "md_dmMS_ex_a041", "md_file": "knowledge_base/domains/MS/examples.md", "md_atom_type": "SENTENCE", "md_parent_section": "§MS.3 [Example 3]", "md_verbatim": "**Rows 3-4:** Show genotypic susceptibility testing results on the same aliquot from a NAAT that looks for mutations that confer resistance to 2 drugs. MSAGENT should be populated with the name of the drug whose action is affected by the mutation being tested for. However, because the drug is not used in the test, MSCONC and MSCONCU should be null. These results are represented in MS because the only result given is in terms of resistant/susceptible; no genetic results are reported.", "score": 0.2105, "match_basis": "verbatim_token+domain_route:MS"}, {"md_atom_id": "md_dmMS_ex_a006", "md_file": "knowledge_base/domains/MS/examples.md", "md_atom_type": "SENTENCE", "md_parent_section": "§MS.1 [Example 1]", "md_verbatim": "**Rows 5-6:** Show that Local Lab XYZ found that the sample was susceptible to the sponsor drug at a concentration of 0.5 ug/dL and resistant to amoxicillin at a concentration of 0.5 ug/dL.", "score": 0.2079, "match_basis": "verbatim_token+domain_route:MS"}, {"md_atom_id": "md_dmMS_assn_a011", "md_file": "knowledge_base/domains/MS/assumptions.md", "md_atom_type": "LIST_ITEM", "md_parent_section": "§MS [MS — Assumptions]", "md_verbatim": "   a. Culture dates can be connected to the MS record via MSREFID and BEREFID.", "score": 0.2076, "match_basis": "verbatim_token+domain_route:MS"}, {"md_atom_id": "md_dmMS_ex_a010", "md_file": "knowledge_base/domains/MS/examples.md", "md_atom_type": "TABLE_ROW", "md_parent_section": "§MS.1 [Example 1]", "md_verbatim": "| 1 | ABC | MS | ABC-001-002 | ENTEROCOCCUS FAECALIS | 1 | 1 | SPEC01 | | MIC | Minimum Inhibitory Concentration | Sponsor Drug | 0.25 | ug/dL | 0.25 | ug/dL | | | | CENTRAL LAB ABC | EPSILOMETER | 2005-06-19T08:00 |", "score": 0.2067, "match_basis": "verbatim_token+domain_route:MS"}], "candidate_count": 10, "zero_candidate": false}
{"pdf_atom_id": "ig34_p0255_a029", "pdf_atom_type": "CODE_LITERAL", "pdf_source": "SDTMIG_v3.4", "pdf_page": 255, "pdf_parent_section": "§6.3.5.7.2 Microbiology Susceptibility (MS)", "pdf_verbatim": "\"SUSCEPTIBLE\"", "figure_ref": null, "candidates": [{"md_atom_id": "md_dmMS_assn_a002", "md_file": "knowledge_base/domains/MS/assumptions.md", "md_atom_type": "LIST_ITEM", "md_parent_section": "§MS [MS — Assumptions]", "md_verbatim": "1. Microbiology Susceptibility testing includes testing of the following types:", "score": 0.2833, "match_basis": "verbatim_token+domain_route:MS"}, {"md_atom_id": "md_dmMS_ex_a021", "md_file": "knowledge_base/domains/MS/examples.md", "md_atom_type": "SENTENCE", "md_parent_section": "§MS.2 [Example 2]", "md_verbatim": "Susceptibility testing results from the sputum multi-visit study (see MB Example 2).", "score": 0.2833, "match_basis": "verbatim_token+domain_route:MS"}, {"md_atom_id": "md_dmMS_ex_a006", "md_file": "knowledge_base/domains/MS/examples.md", "md_atom_type": "SENTENCE", "md_parent_section": "§MS.1 [Example 1]", "md_verbatim": "**Rows 5-6:** Show that Local Lab XYZ found that the sample was susceptible to the sponsor drug at a concentration of 0.5 ug/dL and resistant to amoxicillin at a concentration of 0.5 ug/dL.", "score": 0.2744, "match_basis": "verbatim_token+domain_route:MS"}, {"md_atom_id": "md_dmMS_ex_a033", "md_file": "knowledge_base/domains/MS/examples.md", "md_atom_type": "TABLE_ROW", "md_parent_section": "§MS.2 [Example 2]", "md_verbatim": "| 6 | ABC | MS | ABC-001-001 | KLEBSIELLA PNEUMONIAE | | 6 | SP02 | MICROSUS | Microbial Susceptibility | Sponsor Drug | SUSCEPTIBLE | | SUSCEPTIBLE | | | | EPSILOMETER | 2 | VISIT 2 | 2005-06-26T08:00 |", "score": 0.2706, "match_basis": "verbatim_token+domain_route:MS"}, {"md_atom_id": "md_dmMS_ex_a035", "md_file": "knowledge_base/domains/MS/examples.md", "md_atom_type": "TABLE_ROW", "md_parent_section": "§MS.2 [Example 2]", "md_verbatim": "| 8 | ABC | MS | ABC-001-001 | KLEBSIELLA PNEUMONIAE | | 8 | SP02 | MICROSUS | Microbial Susceptibility | Penicillin | SUSCEPTIBLE | | SUSCEPTIBLE | | | | EPSILOMETER | 2 | VISIT 2 | 2005-06-26T08:00 |", "score": 0.2694, "match_basis": "verbatim_token+domain_route:MS"}], "candidate_count": 5, "zero_candidate": false}
{"pdf_atom_id": "ig34_p0255_a030", "pdf_atom_type": "CODE_LITERAL", "pdf_source": "SDTMIG_v3.4", "pdf_page": 255, "pdf_parent_section": "§6.3.5.7.2 Microbiology Susceptibility (MS)", "pdf_verbatim": "\"RESISTANT\"", "figure_ref": null, "candidates": [{"md_atom_id": "md_dmMS_ex_a006", "md_file": "knowledge_base/domains/MS/examples.md", "md_atom_type": "SENTENCE", "md_parent_section": "§MS.1 [Example 1]", "md_verbatim": "**Rows 5-6:** Show that Local Lab XYZ found that the sample was susceptible to the sponsor drug at a concentration of 0.5 ug/dL and resistant to amoxicillin at a concentration of 0.5 ug/dL.", "score": 0.2556, "match_basis": "verbatim_token+domain_route:MS"}, {"md_atom_id": "md_dmMS_ex_a031", "md_file": "knowledge_base/domains/MS/examples.md", "md_atom_type": "TABLE_ROW", "md_parent_section": "§MS.2 [Example 2]", "md_verbatim": "| 4 | ABC | MS | ABC-001-001 | STREPTOCOCCUS PNEUMONIAE | | 4 | SP01 | MICROSUS | Microbial Susceptibility | Penicillin | RESISTANT | | RESISTANT | | | | EPSILOMETER | 1 | VISIT 1 | 2005-06-19T08:00 |", "score": 0.246, "match_basis": "verbatim_token+domain_route:MS"}, {"md_atom_id": "md_dmMS_ex_a013", "md_file": "knowledge_base/domains/MS/examples.md", "md_atom_type": "TABLE_ROW", "md_parent_section": "§MS.1 [Example 1]", "md_verbatim": "| 4 | ABC | MS | ABC-001-002 | ENTEROCOCCUS FAECALIS | 2 | 4 | SPEC01 | | MICROSUS | Microbial Susceptibility | Amoxicillin | | | RESISTANT | | RESISTANT | | | CENTRAL LAB ABC | EPSILOMETER | 2005-06-19T08:00 |", "score": 0.2438, "match_basis": "verbatim_token+domain_route:MS"}, {"md_atom_id": "md_dmMS_ex_a019", "md_file": "knowledge_base/domains/MS/examples.md", "md_atom_type": "TABLE_ROW", "md_parent_section": "§MS.1 [Example 1]", "md_verbatim": "| 10 | ABC | MS | ABC-001-002 | ENTEROCOCCUS FAECALIS | 4 | 10 | SPEC01 | 2 | MICROSUS | Microbial Susceptibility | Amoxicillin | | | RESISTANT | | RESISTANT | | | LOCAL LAB XYZ | DISK DIFFUSION | 2005-06-19T08:00 |", "score": 0.2438, "match_basis": "verbatim_token+domain_route:MS"}, {"md_atom_id": "md_dmMS_ex_a015", "md_file": "knowledge_base/domains/MS/examples.md", "md_atom_type": "TABLE_ROW", "md_parent_section": "§MS.1 [Example 1]", "md_verbatim": "| 6 | ABC | MS | ABC-001-002 | ENTEROCOCCUS FAECALIS | | 6 | SPEC01 | 2 | MICROSUS | Microbial Susceptibility | Amoxicillin | 0.5 | ug/dL | RESISTANT | | RESISTANT | | | LOCAL LAB XYZ | MACRO BROTH DILUTION | 2005-06-19T08:00 |", "score": 0.2425, "match_basis": "verbatim_token+domain_route:MS"}], "candidate_count": 5, "zero_candidate": false}
{"pdf_atom_id": "ig34_p0255_a031", "pdf_atom_type": "LIST_ITEM", "pdf_source": "SDTMIG_v3.4", "pdf_page": 255, "pdf_parent_section": "§6.3.5.7.2 Microbiology Susceptibility (MS)", "pdf_verbatim": "ii. For studies using quantitative testing methods, MSAGENT is used to represent the drug being tested; MSCONC and MSCONCU are not used. The concentration at which growth is inhibited is the result in these cases (MSORRES, MSSTRESC/MSSTRESN), with units being represented in MSORRESU/MSSTRESU.", "figure_ref": null, "candidates": [{"md_atom_id": "md_dmMS_assn_a005", "md_file": "knowledge_base/domains/MS/assumptions.md", "md_atom_type": "LIST_ITEM", "md_parent_section": "§MS [MS — Assumptions]", "md_verbatim": "      ii. For studies using quantitative testing methods, MSAGENT is used to represent the drug being tested; MSCONC and MSCONCU are not used. The concentration at which growth is inhibited is the result in these cases (MSORRES, MSSTRESC/MSSTRESN), with units being represented in MSORRESU/MSSTRESU.", "score": 1.0, "match_basis": "verbatim_token+domain_route:MS"}, {"md_atom_id": "md_dmMS_assn_a004", "md_file": "knowledge_base/domains/MS/assumptions.md", "md_atom_type": "LIST_ITEM", "md_parent_section": "§MS [MS — Assumptions]", "md_verbatim": "      i. For studies using qualitative testing methods, MSAGENT, MSCONC, and MSCONCU are used to represent the predefined drug, concentration, and units, respectively. Results are represented with values such as \"SUSCEPTIBLE\" or \"RESISTANT\".", "score": 0.6847, "match_basis": "verbatim_token+domain_route:MS"}, {"md_atom_id": "md_dmMS_assn_a003", "md_file": "knowledge_base/domains/MS/assumptions.md", "md_atom_type": "LIST_ITEM", "md_parent_section": "§MS [MS — Assumptions]", "md_verbatim": "   a. Phenotypic drug susceptibility testing (qualitative), which may involve determining susceptibility/resistance (qualitative) at a predefined concentration of drug, or determining a specific dose (quantitative) at which a drug inhibits organism growth or some other process associated with virulence.", "score": 0.5549, "match_basis": "verbatim_token+domain_route:MS"}, {"md_atom_id": "md_dmMS_assn_a006", "md_file": "knowledge_base/domains/MS/assumptions.md", "md_atom_type": "LIST_ITEM", "md_parent_section": "§MS [MS — Assumptions]", "md_verbatim": "      iii. As in 1.a.ii, MSAGENT should be populated with the drug whose action would be affected by the genetic marker being assessed via the genotypic test. MSCONC and MSCONCU are null in these records.", "score": 0.5241, "match_basis": "verbatim_token+domain_route:MS"}, {"md_atom_id": "md_dmMS_assn_a013", "md_file": "knowledge_base/domains/MS/assumptions.md", "md_atom_type": "LIST_ITEM", "md_parent_section": "§MS [MS — Assumptions]", "md_verbatim": "4. NHOID is a sponsor-defined, intuitive name of the non-host organism being tested. It should only be populated with values representing what is known about the identity of the organism before the results of the test are determined. It should therefore never be used as a qualifier of result.", "score": 0.5057, "match_basis": "verbatim_token+domain_route:MS"}], "candidate_count": 5, "zero_candidate": false}
{"pdf_atom_id": "ig34_p0255_a032", "pdf_atom_type": "CODE_LITERAL", "pdf_source": "SDTMIG_v3.4", "pdf_page": 255, "pdf_parent_section": "§6.3.5.7.2 Microbiology Susceptibility (MS)", "pdf_verbatim": "MSAGENT", "figure_ref": null, "candidates": [{"md_atom_id": "md_dmMS_ex_a027", "md_file": "knowledge_base/domains/MS/examples.md", "md_atom_type": "TABLE_HEADER", "md_parent_section": "§MS.2 [Example 2]", "md_verbatim": "| Row | STUDYID | DOMAIN | USUBJID | NHOID | MSGRPID | MSSEQ | MSREFID | MSTESTCD | MSTEST | MSAGENT | MSORRES | MSORRESU | MSSTRESC | MSSTRESN | MSSTRESU | MSNAM | MSMETHOD | VISITNUM | VISIT | MSDTC |\n|-----|---------|--------|---------|-------|---------|-------|---------|----------|--------|---------|---------|----------|----------|----------|----------|-------|----------|----------|-------|-------|", "score": 0.2323, "match_basis": "verbatim_token+domain_route:MS"}, {"md_atom_id": "md_dmMS_ex_a009", "md_file": "knowledge_base/domains/MS/examples.md", "md_atom_type": "TABLE_HEADER", "md_parent_section": "§MS.1 [Example 1]", "md_verbatim": "| Row | STUDYID | DOMAIN | USUBJID | NHOID | MSGRPID | MSSEQ | MSREFID | MSLNKGRP | MSTESTCD | MSTEST | MSAGENT | MSCONC | MSCONCU | MSORRES | MSORRESU | MSSTRESC | MSSTRESN | MSSTRESU | MSNAM | MSMETHOD | MSDTC |\n|-----|---------|--------|---------|-------|---------|-------|---------|----------|----------|--------|---------|--------|---------|---------|----------|----------|----------|----------|-------|----------|-------|", "score": 0.23, "match_basis": "verbatim_token+domain_route:MS"}, {"md_atom_id": "md_dmMS_ex_a043", "md_file": "knowledge_base/domains/MS/examples.md", "md_atom_type": "TABLE_HEADER", "md_parent_section": "§MS.3 [Example 3]", "md_verbatim": "| Row | STUDYID | DOMAIN | USUBJID | SPDEVID | NHOID | MSSEQ | MSREFID | MSLNKID | MSTESTCD | MSTEST | MSAGENT | MSCONC | MSCONCU | MSORRES | MSSTRESC | MSSPEC | MSLOC | MSMETHOD | MSDTC |\n|-----|---------|--------|---------|---------|-------|-------|---------|---------|----------|--------|---------|--------|---------|---------|----------|--------|-------|----------|-------|", "score": 0.23, "match_basis": "verbatim_token+domain_route:MS"}, {"md_atom_id": "md_dmMS_assn_a006", "md_file": "knowledge_base/domains/MS/assumptions.md", "md_atom_type": "LIST_ITEM", "md_parent_section": "§MS [MS — Assumptions]", "md_verbatim": "      iii. As in 1.a.ii, MSAGENT should be populated with the drug whose action would be affected by the genetic marker being assessed via the genotypic test. MSCONC and MSCONCU are null in these records.", "score": 0.2295, "match_basis": "verbatim_token+domain_route:MS"}, {"md_atom_id": "md_dmMS_assn_a005", "md_file": "knowledge_base/domains/MS/assumptions.md", "md_atom_type": "LIST_ITEM", "md_parent_section": "§MS [MS — Assumptions]", "md_verbatim": "      ii. For studies using quantitative testing methods, MSAGENT is used to represent the drug being tested; MSCONC and MSCONCU are not used. The concentration at which growth is inhibited is the result in these cases (MSORRES, MSSTRESC/MSSTRESN), with units being represented in MSORRESU/MSSTRESU.", "score": 0.2203, "match_basis": "verbatim_token+domain_route:MS"}, {"md_atom_id": "md_dmMS_assn_a004", "md_file": "knowledge_base/domains/MS/assumptions.md", "md_atom_type": "LIST_ITEM", "md_parent_section": "§MS [MS — Assumptions]", "md_verbatim": "      i. For studies using qualitative testing methods, MSAGENT, MSCONC, and MSCONCU are used to represent the predefined drug, concentration, and units, respectively. Results are represented with values such as \"SUSCEPTIBLE\" or \"RESISTANT\".", "score": 0.2191, "match_basis": "verbatim_token+domain_route:MS"}, {"md_atom_id": "md_dmMS_ex_a022", "md_file": "knowledge_base/domains/MS/examples.md", "md_atom_type": "SENTENCE", "md_parent_section": "§MS.2 [Example 2]", "md_verbatim": "**Rows 1-2:** Show that the sponsor drug (MSAGENT) was tested against \"STREPTOCOCCUS PNEUMONIAE\" (NHOID) from subject sample SP01 and that the drug has a minimum inhibitory concentration (MSTESTCD/MSTEST) of 0.004 mg/L (row 1). This led to the conclusion that this organism is susceptible to that drug (row 2).", "score": 0.2161, "match_basis": "verbatim_token+domain_route:MS"}, {"md_atom_id": "md_dmMS_ex_a040", "md_file": "knowledge_base/domains/MS/examples.md", "md_atom_type": "SENTENCE", "md_parent_section": "§MS.3 [Example 3]", "md_verbatim": "**Rows 1-2:** Show phenotypic testing results on 2 separate culture plates: 1 with medium containing rifampicin (row 1) and 1 with medium containing isoniazid (row 2). MSAGENT is populated with the name of the drug being used in the susceptibility test. The variables MSCONC and MSCONCU represent the concentration and units of the drug being used. The culture start and stop dates are represented in BE and can be linked to MS by BELNKID and MSLNKID.", "score": 0.2116, "match_basis": "verbatim_token+domain_route:MS"}, {"md_atom_id": "md_dmMS_ex_a041", "md_file": "knowledge_base/domains/MS/examples.md", "md_atom_type": "SENTENCE", "md_parent_section": "§MS.3 [Example 3]", "md_verbatim": "**Rows 3-4:** Show genotypic susceptibility testing results on the same aliquot from a NAAT that looks for mutations that confer resistance to 2 drugs. MSAGENT should be populated with the name of the drug whose action is affected by the mutation being tested for. However, because the drug is not used in the test, MSCONC and MSCONCU should be null. These results are represented in MS because the only result given is in terms of resistant/susceptible; no genetic results are reported.", "score": 0.2105, "match_basis": "verbatim_token+domain_route:MS"}, {"md_atom_id": "md_dmMS_assn_a009", "md_file": "knowledge_base/domains/MS/assumptions.md", "md_atom_type": "LIST_ITEM", "md_parent_section": "§MS [MS — Assumptions]", "md_verbatim": "2. MSDTC represents the date the specimen was collected.", "score": 0.2087, "match_basis": "verbatim_token+domain_route:MS"}], "candidate_count": 10, "zero_candidate": false}
{"pdf_atom_id": "ig34_p0255_a033", "pdf_atom_type": "CODE_LITERAL", "pdf_source": "SDTMIG_v3.4", "pdf_page": 255, "pdf_parent_section": "§6.3.5.7.2 Microbiology Susceptibility (MS)", "pdf_verbatim": "MSCONC", "figure_ref": null, "candidates": [{"md_atom_id": "md_dmMS_ex_a009", "md_file": "knowledge_base/domains/MS/examples.md", "md_atom_type": "TABLE_HEADER", "md_parent_section": "§MS.1 [Example 1]", "md_verbatim": "| Row | STUDYID | DOMAIN | USUBJID | NHOID | MSGRPID | MSSEQ | MSREFID | MSLNKGRP | MSTESTCD | MSTEST | MSAGENT | MSCONC | MSCONCU | MSORRES | MSORRESU | MSSTRESC | MSSTRESN | MSSTRESU | MSNAM | MSMETHOD | MSDTC |\n|-----|---------|--------|---------|-------|---------|-------|---------|----------|----------|--------|---------|--------|---------|---------|----------|----------|----------|----------|-------|----------|-------|", "score": 0.222, "match_basis": "verbatim_token+domain_route:MS"}, {"md_atom_id": "md_dmMS_ex_a043", "md_file": "knowledge_base/domains/MS/examples.md", "md_atom_type": "TABLE_HEADER", "md_parent_section": "§MS.3 [Example 3]", "md_verbatim": "| Row | STUDYID | DOMAIN | USUBJID | SPDEVID | NHOID | MSSEQ | MSREFID | MSLNKID | MSTESTCD | MSTEST | MSAGENT | MSCONC | MSCONCU | MSORRES | MSSTRESC | MSSPEC | MSLOC | MSMETHOD | MSDTC |\n|-----|---------|--------|---------|---------|-------|-------|---------|---------|----------|--------|---------|--------|---------|---------|----------|--------|-------|----------|-------|", "score": 0.222, "match_basis": "verbatim_token+domain_route:MS"}, {"md_atom_id": "md_dmMS_assn_a006", "md_file": "knowledge_base/domains/MS/assumptions.md", "md_atom_type": "LIST_ITEM", "md_parent_section": "§MS [MS — Assumptions]", "md_verbatim": "      iii. As in 1.a.ii, MSAGENT should be populated with the drug whose action would be affected by the genetic marker being assessed via the genotypic test. MSCONC and MSCONCU are null in these records.", "score": 0.2216, "match_basis": "verbatim_token+domain_route:MS"}, {"md_atom_id": "md_dmMS_assn_a005", "md_file": "knowledge_base/domains/MS/assumptions.md", "md_atom_type": "LIST_ITEM", "md_parent_section": "§MS [MS — Assumptions]", "md_verbatim": "      ii. For studies using quantitative testing methods, MSAGENT is used to represent the drug being tested; MSCONC and MSCONCU are not used. The concentration at which growth is inhibited is the result in these cases (MSORRES, MSSTRESC/MSSTRESN), with units being represented in MSORRESU/MSSTRESU.", "score": 0.2142, "match_basis": "verbatim_token+domain_route:MS"}, {"md_atom_id": "md_dmMS_assn_a004", "md_file": "knowledge_base/domains/MS/assumptions.md", "md_atom_type": "LIST_ITEM", "md_parent_section": "§MS [MS — Assumptions]", "md_verbatim": "      i. For studies using qualitative testing methods, MSAGENT, MSCONC, and MSCONCU are used to represent the predefined drug, concentration, and units, respectively. Results are represented with values such as \"SUSCEPTIBLE\" or \"RESISTANT\".", "score": 0.2133, "match_basis": "verbatim_token+domain_route:MS"}, {"md_atom_id": "md_dmMS_assn_a011", "md_file": "knowledge_base/domains/MS/assumptions.md", "md_atom_type": "LIST_ITEM", "md_parent_section": "§MS [MS — Assumptions]", "md_verbatim": "   a. Culture dates can be connected to the MS record via MSREFID and BEREFID.", "score": 0.2082, "match_basis": "verbatim_token+domain_route:MS"}, {"md_atom_id": "md_dmMS_ex_a006", "md_file": "knowledge_base/domains/MS/examples.md", "md_atom_type": "SENTENCE", "md_parent_section": "§MS.1 [Example 1]", "md_verbatim": "**Rows 5-6:** Show that Local Lab XYZ found that the sample was susceptible to the sponsor drug at a concentration of 0.5 ug/dL and resistant to amoxicillin at a concentration of 0.5 ug/dL.", "score": 0.2082, "match_basis": "verbatim_token+domain_route:MS"}, {"md_atom_id": "md_dmMS_ex_a040", "md_file": "knowledge_base/domains/MS/examples.md", "md_atom_type": "SENTENCE", "md_parent_section": "§MS.3 [Example 3]", "md_verbatim": "**Rows 1-2:** Show phenotypic testing results on 2 separate culture plates: 1 with medium containing rifampicin (row 1) and 1 with medium containing isoniazid (row 2). MSAGENT is populated with the name of the drug being used in the susceptibility test. The variables MSCONC and MSCONCU represent the concentration and units of the drug being used. The culture start and stop dates are represented in BE and can be linked to MS by BELNKID and MSLNKID.", "score": 0.2073, "match_basis": "verbatim_token+domain_route:MS"}, {"md_atom_id": "md_dmMS_ex_a010", "md_file": "knowledge_base/domains/MS/examples.md", "md_atom_type": "TABLE_ROW", "md_parent_section": "§MS.1 [Example 1]", "md_verbatim": "| 1 | ABC | MS | ABC-001-002 | ENTEROCOCCUS FAECALIS | 1 | 1 | SPEC01 | | MIC | Minimum Inhibitory Concentration | Sponsor Drug | 0.25 | ug/dL | 0.25 | ug/dL | | | | CENTRAL LAB ABC | EPSILOMETER | 2005-06-19T08:00 |", "score": 0.2069, "match_basis": "verbatim_token+domain_route:MS"}, {"md_atom_id": "md_dmMS_ex_a032", "md_file": "knowledge_base/domains/MS/examples.md", "md_atom_type": "TABLE_ROW", "md_parent_section": "§MS.2 [Example 2]", "md_verbatim": "| 5 | ABC | MS | ABC-001-001 | KLEBSIELLA PNEUMONIAE | | 5 | SP02 | MIC | Minimum Inhibitory Concentration | Sponsor Drug | 0.19 | mg/L | 0.19 | 0.19 | mg/L | | EPSILOMETER | 2 | VISIT 2 | 2005-06-26T08:00 |", "score": 0.2069, "match_basis": "verbatim_token+domain_route:MS"}], "candidate_count": 10, "zero_candidate": false}
{"pdf_atom_id": "ig34_p0255_a034", "pdf_atom_type": "CODE_LITERAL", "pdf_source": "SDTMIG_v3.4", "pdf_page": 255, "pdf_parent_section": "§6.3.5.7.2 Microbiology Susceptibility (MS)", "pdf_verbatim": "MSCONCU", "figure_ref": null, "candidates": [{"md_atom_id": "md_dmMS_ex_a009", "md_file": "knowledge_base/domains/MS/examples.md", "md_atom_type": "TABLE_HEADER", "md_parent_section": "§MS.1 [Example 1]", "md_verbatim": "| Row | STUDYID | DOMAIN | USUBJID | NHOID | MSGRPID | MSSEQ | MSREFID | MSLNKGRP | MSTESTCD | MSTEST | MSAGENT | MSCONC | MSCONCU | MSORRES | MSORRESU | MSSTRESC | MSSTRESN | MSSTRESU | MSNAM | MSMETHOD | MSDTC |\n|-----|---------|--------|---------|-------|---------|-------|---------|----------|----------|--------|---------|--------|---------|---------|----------|----------|----------|----------|-------|----------|-------|", "score": 0.23, "match_basis": "verbatim_token+domain_route:MS"}, {"md_atom_id": "md_dmMS_ex_a043", "md_file": "knowledge_base/domains/MS/examples.md", "md_atom_type": "TABLE_HEADER", "md_parent_section": "§MS.3 [Example 3]", "md_verbatim": "| Row | STUDYID | DOMAIN | USUBJID | SPDEVID | NHOID | MSSEQ | MSREFID | MSLNKID | MSTESTCD | MSTEST | MSAGENT | MSCONC | MSCONCU | MSORRES | MSSTRESC | MSSPEC | MSLOC | MSMETHOD | MSDTC |\n|-----|---------|--------|---------|---------|-------|-------|---------|---------|----------|--------|---------|--------|---------|---------|----------|--------|-------|----------|-------|", "score": 0.23, "match_basis": "verbatim_token+domain_route:MS"}, {"md_atom_id": "md_dmMS_assn_a006", "md_file": "knowledge_base/domains/MS/assumptions.md", "md_atom_type": "LIST_ITEM", "md_parent_section": "§MS [MS — Assumptions]", "md_verbatim": "      iii. As in 1.a.ii, MSAGENT should be populated with the drug whose action would be affected by the genetic marker being assessed via the genotypic test. MSCONC and MSCONCU are null in these records.", "score": 0.2295, "match_basis": "verbatim_token+domain_route:MS"}, {"md_atom_id": "md_dmMS_assn_a005", "md_file": "knowledge_base/domains/MS/assumptions.md", "md_atom_type": "LIST_ITEM", "md_parent_section": "§MS [MS — Assumptions]", "md_verbatim": "      ii. For studies using quantitative testing methods, MSAGENT is used to represent the drug being tested; MSCONC and MSCONCU are not used. The concentration at which growth is inhibited is the result in these cases (MSORRES, MSSTRESC/MSSTRESN), with units being represented in MSORRESU/MSSTRESU.", "score": 0.2203, "match_basis": "verbatim_token+domain_route:MS"}, {"md_atom_id": "md_dmMS_assn_a004", "md_file": "knowledge_base/domains/MS/assumptions.md", "md_atom_type": "LIST_ITEM", "md_parent_section": "§MS [MS — Assumptions]", "md_verbatim": "      i. For studies using qualitative testing methods, MSAGENT, MSCONC, and MSCONCU are used to represent the predefined drug, concentration, and units, respectively. Results are represented with values such as \"SUSCEPTIBLE\" or \"RESISTANT\".", "score": 0.2191, "match_basis": "verbatim_token+domain_route:MS"}, {"md_atom_id": "md_dmMS_ex_a040", "md_file": "knowledge_base/domains/MS/examples.md", "md_atom_type": "SENTENCE", "md_parent_section": "§MS.3 [Example 3]", "md_verbatim": "**Rows 1-2:** Show phenotypic testing results on 2 separate culture plates: 1 with medium containing rifampicin (row 1) and 1 with medium containing isoniazid (row 2). MSAGENT is populated with the name of the drug being used in the susceptibility test. The variables MSCONC and MSCONCU represent the concentration and units of the drug being used. The culture start and stop dates are represented in BE and can be linked to MS by BELNKID and MSLNKID.", "score": 0.2116, "match_basis": "verbatim_token+domain_route:MS"}, {"md_atom_id": "md_dmMS_ex_a041", "md_file": "knowledge_base/domains/MS/examples.md", "md_atom_type": "SENTENCE", "md_parent_section": "§MS.3 [Example 3]", "md_verbatim": "**Rows 3-4:** Show genotypic susceptibility testing results on the same aliquot from a NAAT that looks for mutations that confer resistance to 2 drugs. MSAGENT should be populated with the name of the drug whose action is affected by the mutation being tested for. However, because the drug is not used in the test, MSCONC and MSCONCU should be null. These results are represented in MS because the only result given is in terms of resistant/susceptible; no genetic results are reported.", "score": 0.2105, "match_basis": "verbatim_token+domain_route:MS"}, {"md_atom_id": "md_dmMS_ex_a006", "md_file": "knowledge_base/domains/MS/examples.md", "md_atom_type": "SENTENCE", "md_parent_section": "§MS.1 [Example 1]", "md_verbatim": "**Rows 5-6:** Show that Local Lab XYZ found that the sample was susceptible to the sponsor drug at a concentration of 0.5 ug/dL and resistant to amoxicillin at a concentration of 0.5 ug/dL.", "score": 0.2079, "match_basis": "verbatim_token+domain_route:MS"}, {"md_atom_id": "md_dmMS_assn_a011", "md_file": "knowledge_base/domains/MS/assumptions.md", "md_atom_type": "LIST_ITEM", "md_parent_section": "§MS [MS — Assumptions]", "md_verbatim": "   a. Culture dates can be connected to the MS record via MSREFID and BEREFID.", "score": 0.2076, "match_basis": "verbatim_token+domain_route:MS"}, {"md_atom_id": "md_dmMS_ex_a010", "md_file": "knowledge_base/domains/MS/examples.md", "md_atom_type": "TABLE_ROW", "md_parent_section": "§MS.1 [Example 1]", "md_verbatim": "| 1 | ABC | MS | ABC-001-002 | ENTEROCOCCUS FAECALIS | 1 | 1 | SPEC01 | | MIC | Minimum Inhibitory Concentration | Sponsor Drug | 0.25 | ug/dL | 0.25 | ug/dL | | | | CENTRAL LAB ABC | EPSILOMETER | 2005-06-19T08:00 |", "score": 0.2067, "match_basis": "verbatim_token+domain_route:MS"}], "candidate_count": 10, "zero_candidate": false}
{"pdf_atom_id": "ig34_p0255_a035", "pdf_atom_type": "CODE_LITERAL", "pdf_source": "SDTMIG_v3.4", "pdf_page": 255, "pdf_parent_section": "§6.3.5.7.2 Microbiology Susceptibility (MS)", "pdf_verbatim": "MSORRES", "figure_ref": null, "candidates": [{"md_atom_id": "md_dmMS_ex_a027", "md_file": "knowledge_base/domains/MS/examples.md", "md_atom_type": "TABLE_HEADER", "md_parent_section": "§MS.2 [Example 2]", "md_verbatim": "| Row | STUDYID | DOMAIN | USUBJID | NHOID | MSGRPID | MSSEQ | MSREFID | MSTESTCD | MSTEST | MSAGENT | MSORRES | MSORRESU | MSSTRESC | MSSTRESN | MSSTRESU | MSNAM | MSMETHOD | VISITNUM | VISIT | MSDTC |\n|-----|---------|--------|---------|-------|---------|-------|---------|----------|--------|---------|---------|----------|----------|----------|----------|-------|----------|----------|-------|-------|", "score": 0.2323, "match_basis": "verbatim_token+domain_route:MS"}, {"md_atom_id": "md_dmMS_ex_a009", "md_file": "knowledge_base/domains/MS/examples.md", "md_atom_type": "TABLE_HEADER", "md_parent_section": "§MS.1 [Example 1]", "md_verbatim": "| Row | STUDYID | DOMAIN | USUBJID | NHOID | MSGRPID | MSSEQ | MSREFID | MSLNKGRP | MSTESTCD | MSTEST | MSAGENT | MSCONC | MSCONCU | MSORRES | MSORRESU | MSSTRESC | MSSTRESN | MSSTRESU | MSNAM | MSMETHOD | MSDTC |\n|-----|---------|--------|---------|-------|---------|-------|---------|----------|----------|--------|---------|--------|---------|---------|----------|----------|----------|----------|-------|----------|-------|", "score": 0.23, "match_basis": "verbatim_token+domain_route:MS"}, {"md_atom_id": "md_dmMS_ex_a043", "md_file": "knowledge_base/domains/MS/examples.md", "md_atom_type": "TABLE_HEADER", "md_parent_section": "§MS.3 [Example 3]", "md_verbatim": "| Row | STUDYID | DOMAIN | USUBJID | SPDEVID | NHOID | MSSEQ | MSREFID | MSLNKID | MSTESTCD | MSTEST | MSAGENT | MSCONC | MSCONCU | MSORRES | MSSTRESC | MSSPEC | MSLOC | MSMETHOD | MSDTC |\n|-----|---------|--------|---------|---------|-------|-------|---------|---------|----------|--------|---------|--------|---------|---------|----------|--------|-------|----------|-------|", "score": 0.23, "match_basis": "verbatim_token+domain_route:MS"}, {"md_atom_id": "md_dmMS_assn_a005", "md_file": "knowledge_base/domains/MS/assumptions.md", "md_atom_type": "LIST_ITEM", "md_parent_section": "§MS [MS — Assumptions]", "md_verbatim": "      ii. For studies using quantitative testing methods, MSAGENT is used to represent the drug being tested; MSCONC and MSCONCU are not used. The concentration at which growth is inhibited is the result in these cases (MSORRES, MSSTRESC/MSSTRESN), with units being represented in MSORRESU/MSSTRESU.", "score": 0.2203, "match_basis": "verbatim_token+domain_route:MS"}, {"md_atom_id": "md_dmMS_assn_a009", "md_file": "knowledge_base/domains/MS/assumptions.md", "md_atom_type": "LIST_ITEM", "md_parent_section": "§MS [MS — Assumptions]", "md_verbatim": "2. MSDTC represents the date the specimen was collected.", "score": 0.2087, "match_basis": "verbatim_token+domain_route:MS"}, {"md_atom_id": "md_dmMS_ex_a006", "md_file": "knowledge_base/domains/MS/examples.md", "md_atom_type": "SENTENCE", "md_parent_section": "§MS.1 [Example 1]", "md_verbatim": "**Rows 5-6:** Show that Local Lab XYZ found that the sample was susceptible to the sponsor drug at a concentration of 0.5 ug/dL and resistant to amoxicillin at a concentration of 0.5 ug/dL.", "score": 0.2079, "match_basis": "verbatim_token+domain_route:MS"}, {"md_atom_id": "md_dmMS_ex_a021", "md_file": "knowledge_base/domains/MS/examples.md", "md_atom_type": "SENTENCE", "md_parent_section": "§MS.2 [Example 2]", "md_verbatim": "Susceptibility testing results from the sputum multi-visit study (see MB Example 2).", "score": 0.2028, "match_basis": "verbatim_token+domain_route:MS"}, {"md_atom_id": "md_dmMS_ex_a007", "md_file": "knowledge_base/domains/MS/examples.md", "md_atom_type": "SENTENCE", "md_parent_section": "§MS.1 [Example 1]", "md_verbatim": "**Rows 7-10:** Show the diameter of the zone of inhibition and the interpretation result reported from Local Lab XYZ from a sample that was tested for susceptibility to the sponsor drug and amoxicillin using a disk diffusion test method.", "score": 0.2018, "match_basis": "verbatim_token+domain_route:MS"}, {"md_atom_id": "md_dmMS_ex_a005", "md_file": "knowledge_base/domains/MS/examples.md", "md_atom_type": "SENTENCE", "md_parent_section": "§MS.1 [Example 1]", "md_verbatim": "**Rows 1-4:** Show the minimum inhibitory concentration and the interpretation result reported from Central Lab ABC from a sample that was tested for susceptibility to the sponsor drug and amoxicillin, using an epsilometer test method.", "score": 0.201, "match_basis": "verbatim_token+domain_route:MS"}, {"md_atom_id": "md_dmMS_assn_a013", "md_file": "knowledge_base/domains/MS/assumptions.md", "md_atom_type": "LIST_ITEM", "md_parent_section": "§MS [MS — Assumptions]", "md_verbatim": "4. NHOID is a sponsor-defined, intuitive name of the non-host organism being tested. It should only be populated with values representing what is known about the identity of the organism before the results of the test are determined. It should therefore never be used as a qualifier of result.", "score": 0.2008, "match_basis": "verbatim_token+domain_route:MS"}], "candidate_count": 10, "zero_candidate": false}
{"pdf_atom_id": "ig34_p0255_a036", "pdf_atom_type": "CODE_LITERAL", "pdf_source": "SDTMIG_v3.4", "pdf_page": 255, "pdf_parent_section": "§6.3.5.7.2 Microbiology Susceptibility (MS)", "pdf_verbatim": "MSSTRESC", "figure_ref": null, "candidates": [{"md_atom_id": "md_dmMS_ex_a027", "md_file": "knowledge_base/domains/MS/examples.md", "md_atom_type": "TABLE_HEADER", "md_parent_section": "§MS.2 [Example 2]", "md_verbatim": "| Row | STUDYID | DOMAIN | USUBJID | NHOID | MSGRPID | MSSEQ | MSREFID | MSTESTCD | MSTEST | MSAGENT | MSORRES | MSORRESU | MSSTRESC | MSSTRESN | MSSTRESU | MSNAM | MSMETHOD | VISITNUM | VISIT | MSDTC |\n|-----|---------|--------|---------|-------|---------|-------|---------|----------|--------|---------|---------|----------|----------|----------|----------|-------|----------|----------|-------|-------|", "score": 0.2407, "match_basis": "verbatim_token+domain_route:MS"}, {"md_atom_id": "md_dmMS_ex_a009", "md_file": "knowledge_base/domains/MS/examples.md", "md_atom_type": "TABLE_HEADER", "md_parent_section": "§MS.1 [Example 1]", "md_verbatim": "| Row | STUDYID | DOMAIN | USUBJID | NHOID | MSGRPID | MSSEQ | MSREFID | MSLNKGRP | MSTESTCD | MSTEST | MSAGENT | MSCONC | MSCONCU | MSORRES | MSORRESU | MSSTRESC | MSSTRESN | MSSTRESU | MSNAM | MSMETHOD | MSDTC |\n|-----|---------|--------|---------|-------|---------|-------|---------|----------|----------|--------|---------|--------|---------|---------|----------|----------|----------|----------|-------|----------|-------|", "score": 0.238, "match_basis": "verbatim_token+domain_route:MS"}, {"md_atom_id": "md_dmMS_ex_a043", "md_file": "knowledge_base/domains/MS/examples.md", "md_atom_type": "TABLE_HEADER", "md_parent_section": "§MS.3 [Example 3]", "md_verbatim": "| Row | STUDYID | DOMAIN | USUBJID | SPDEVID | NHOID | MSSEQ | MSREFID | MSLNKID | MSTESTCD | MSTEST | MSAGENT | MSCONC | MSCONCU | MSORRES | MSSTRESC | MSSPEC | MSLOC | MSMETHOD | MSDTC |\n|-----|---------|--------|---------|---------|-------|-------|---------|---------|----------|--------|---------|--------|---------|---------|----------|--------|-------|----------|-------|", "score": 0.238, "match_basis": "verbatim_token+domain_route:MS"}, {"md_atom_id": "md_dmMS_assn_a005", "md_file": "knowledge_base/domains/MS/assumptions.md", "md_atom_type": "LIST_ITEM", "md_parent_section": "§MS [MS — Assumptions]", "md_verbatim": "      ii. For studies using quantitative testing methods, MSAGENT is used to represent the drug being tested; MSCONC and MSCONCU are not used. The concentration at which growth is inhibited is the result in these cases (MSORRES, MSSTRESC/MSSTRESN), with units being represented in MSORRESU/MSSTRESU.", "score": 0.2264, "match_basis": "verbatim_token+domain_route:MS"}, {"md_atom_id": "md_dmMS_ex_a031", "md_file": "knowledge_base/domains/MS/examples.md", "md_atom_type": "TABLE_ROW", "md_parent_section": "§MS.2 [Example 2]", "md_verbatim": "| 4 | ABC | MS | ABC-001-001 | STREPTOCOCCUS PNEUMONIAE | | 4 | SP01 | MICROSUS | Microbial Susceptibility | Penicillin | RESISTANT | | RESISTANT | | | | EPSILOMETER | 1 | VISIT 1 | 2005-06-19T08:00 |", "score": 0.2131, "match_basis": "verbatim_token+domain_route:MS"}], "candidate_count": 5, "zero_candidate": false}
{"pdf_atom_id": "ig34_p0255_a037", "pdf_atom_type": "CODE_LITERAL", "pdf_source": "SDTMIG_v3.4", "pdf_page": 255, "pdf_parent_section": "§6.3.5.7.2 Microbiology Susceptibility (MS)", "pdf_verbatim": "MSSTRESN", "figure_ref": null, "candidates": [{"md_atom_id": "md_dmMS_ex_a027", "md_file": "knowledge_base/domains/MS/examples.md", "md_atom_type": "TABLE_HEADER", "md_parent_section": "§MS.2 [Example 2]", "md_verbatim": "| Row | STUDYID | DOMAIN | USUBJID | NHOID | MSGRPID | MSSEQ | MSREFID | MSTESTCD | MSTEST | MSAGENT | MSORRES | MSORRESU | MSSTRESC | MSSTRESN | MSSTRESU | MSNAM | MSMETHOD | VISITNUM | VISIT | MSDTC |\n|-----|---------|--------|---------|-------|---------|-------|---------|----------|--------|---------|---------|----------|----------|----------|----------|-------|----------|----------|-------|-------|", "score": 0.2407, "match_basis": "verbatim_token+domain_route:MS"}, {"md_atom_id": "md_dmMS_ex_a009", "md_file": "knowledge_base/domains/MS/examples.md", "md_atom_type": "TABLE_HEADER", "md_parent_section": "§MS.1 [Example 1]", "md_verbatim": "| Row | STUDYID | DOMAIN | USUBJID | NHOID | MSGRPID | MSSEQ | MSREFID | MSLNKGRP | MSTESTCD | MSTEST | MSAGENT | MSCONC | MSCONCU | MSORRES | MSORRESU | MSSTRESC | MSSTRESN | MSSTRESU | MSNAM | MSMETHOD | MSDTC |\n|-----|---------|--------|---------|-------|---------|-------|---------|----------|----------|--------|---------|--------|---------|---------|----------|----------|----------|----------|-------|----------|-------|", "score": 0.238, "match_basis": "verbatim_token+domain_route:MS"}, {"md_atom_id": "md_dmMS_ex_a043", "md_file": "knowledge_base/domains/MS/examples.md", "md_atom_type": "TABLE_HEADER", "md_parent_section": "§MS.3 [Example 3]", "md_verbatim": "| Row | STUDYID | DOMAIN | USUBJID | SPDEVID | NHOID | MSSEQ | MSREFID | MSLNKID | MSTESTCD | MSTEST | MSAGENT | MSCONC | MSCONCU | MSORRES | MSSTRESC | MSSPEC | MSLOC | MSMETHOD | MSDTC |\n|-----|---------|--------|---------|---------|-------|-------|---------|---------|----------|--------|---------|--------|---------|---------|----------|--------|-------|----------|-------|", "score": 0.2295, "match_basis": "verbatim_token+domain_route:MS"}, {"md_atom_id": "md_dmMS_assn_a005", "md_file": "knowledge_base/domains/MS/assumptions.md", "md_atom_type": "LIST_ITEM", "md_parent_section": "§MS [MS — Assumptions]", "md_verbatim": "      ii. For studies using quantitative testing methods, MSAGENT is used to represent the drug being tested; MSCONC and MSCONCU are not used. The concentration at which growth is inhibited is the result in these cases (MSORRES, MSSTRESC/MSSTRESN), with units being represented in MSORRESU/MSSTRESU.", "score": 0.2264, "match_basis": "verbatim_token+domain_route:MS"}, {"md_atom_id": "md_dmMS_ex_a031", "md_file": "knowledge_base/domains/MS/examples.md", "md_atom_type": "TABLE_ROW", "md_parent_section": "§MS.2 [Example 2]", "md_verbatim": "| 4 | ABC | MS | ABC-001-001 | STREPTOCOCCUS PNEUMONIAE | | 4 | SP01 | MICROSUS | Microbial Susceptibility | Penicillin | RESISTANT | | RESISTANT | | | | EPSILOMETER | 1 | VISIT 1 | 2005-06-19T08:00 |", "score": 0.2131, "match_basis": "verbatim_token+domain_route:MS"}], "candidate_count": 5, "zero_candidate": false}
{"pdf_atom_id": "ig34_p0255_a038", "pdf_atom_type": "CODE_LITERAL", "pdf_source": "SDTMIG_v3.4", "pdf_page": 255, "pdf_parent_section": "§6.3.5.7.2 Microbiology Susceptibility (MS)", "pdf_verbatim": "MSORRESU", "figure_ref": null, "candidates": [{"md_atom_id": "md_dmMS_ex_a027", "md_file": "knowledge_base/domains/MS/examples.md", "md_atom_type": "TABLE_HEADER", "md_parent_section": "§MS.2 [Example 2]", "md_verbatim": "| Row | STUDYID | DOMAIN | USUBJID | NHOID | MSGRPID | MSSEQ | MSREFID | MSTESTCD | MSTEST | MSAGENT | MSORRES | MSORRESU | MSSTRESC | MSSTRESN | MSSTRESU | MSNAM | MSMETHOD | VISITNUM | VISIT | MSDTC |\n|-----|---------|--------|---------|-------|---------|-------|---------|----------|--------|---------|---------|----------|----------|----------|----------|-------|----------|----------|-------|-------|", "score": 0.2407, "match_basis": "verbatim_token+domain_route:MS"}, {"md_atom_id": "md_dmMS_ex_a009", "md_file": "knowledge_base/domains/MS/examples.md", "md_atom_type": "TABLE_HEADER", "md_parent_section": "§MS.1 [Example 1]", "md_verbatim": "| Row | STUDYID | DOMAIN | USUBJID | NHOID | MSGRPID | MSSEQ | MSREFID | MSLNKGRP | MSTESTCD | MSTEST | MSAGENT | MSCONC | MSCONCU | MSORRES | MSORRESU | MSSTRESC | MSSTRESN | MSSTRESU | MSNAM | MSMETHOD | MSDTC |\n|-----|---------|--------|---------|-------|---------|-------|---------|----------|----------|--------|---------|--------|---------|---------|----------|----------|----------|----------|-------|----------|-------|", "score": 0.238, "match_basis": "verbatim_token+domain_route:MS"}, {"md_atom_id": "md_dmMS_ex_a043", "md_file": "knowledge_base/domains/MS/examples.md", "md_atom_type": "TABLE_HEADER", "md_parent_section": "§MS.3 [Example 3]", "md_verbatim": "| Row | STUDYID | DOMAIN | USUBJID | SPDEVID | NHOID | MSSEQ | MSREFID | MSLNKID | MSTESTCD | MSTEST | MSAGENT | MSCONC | MSCONCU | MSORRES | MSSTRESC | MSSPEC | MSLOC | MSMETHOD | MSDTC |\n|-----|---------|--------|---------|---------|-------|-------|---------|---------|----------|--------|---------|--------|---------|---------|----------|--------|-------|----------|-------|", "score": 0.2295, "match_basis": "verbatim_token+domain_route:MS"}, {"md_atom_id": "md_dmMS_assn_a005", "md_file": "knowledge_base/domains/MS/assumptions.md", "md_atom_type": "LIST_ITEM", "md_parent_section": "§MS [MS — Assumptions]", "md_verbatim": "      ii. For studies using quantitative testing methods, MSAGENT is used to represent the drug being tested; MSCONC and MSCONCU are not used. The concentration at which growth is inhibited is the result in these cases (MSORRES, MSSTRESC/MSSTRESN), with units being represented in MSORRESU/MSSTRESU.", "score": 0.2264, "match_basis": "verbatim_token+domain_route:MS"}, {"md_atom_id": "md_dmMS_ex_a021", "md_file": "knowledge_base/domains/MS/examples.md", "md_atom_type": "SENTENCE", "md_parent_section": "§MS.2 [Example 2]", "md_verbatim": "Susceptibility testing results from the sputum multi-visit study (see MB Example 2).", "score": 0.2155, "match_basis": "verbatim_token+domain_route:MS"}], "candidate_count": 5, "zero_candidate": false}
{"pdf_atom_id": "ig34_p0255_a039", "pdf_atom_type": "CODE_LITERAL", "pdf_source": "SDTMIG_v3.4", "pdf_page": 255, "pdf_parent_section": "§6.3.5.7.2 Microbiology Susceptibility (MS)", "pdf_verbatim": "MSSTRESU", "figure_ref": null, "candidates": [{"md_atom_id": "md_dmMS_ex_a027", "md_file": "knowledge_base/domains/MS/examples.md", "md_atom_type": "TABLE_HEADER", "md_parent_section": "§MS.2 [Example 2]", "md_verbatim": "| Row | STUDYID | DOMAIN | USUBJID | NHOID | MSGRPID | MSSEQ | MSREFID | MSTESTCD | MSTEST | MSAGENT | MSORRES | MSORRESU | MSSTRESC | MSSTRESN | MSSTRESU | MSNAM | MSMETHOD | VISITNUM | VISIT | MSDTC |\n|-----|---------|--------|---------|-------|---------|-------|---------|----------|--------|---------|---------|----------|----------|----------|----------|-------|----------|----------|-------|-------|", "score": 0.2407, "match_basis": "verbatim_token+domain_route:MS"}, {"md_atom_id": "md_dmMS_ex_a009", "md_file": "knowledge_base/domains/MS/examples.md", "md_atom_type": "TABLE_HEADER", "md_parent_section": "§MS.1 [Example 1]", "md_verbatim": "| Row | STUDYID | DOMAIN | USUBJID | NHOID | MSGRPID | MSSEQ | MSREFID | MSLNKGRP | MSTESTCD | MSTEST | MSAGENT | MSCONC | MSCONCU | MSORRES | MSORRESU | MSSTRESC | MSSTRESN | MSSTRESU | MSNAM | MSMETHOD | MSDTC |\n|-----|---------|--------|---------|-------|---------|-------|---------|----------|----------|--------|---------|--------|---------|---------|----------|----------|----------|----------|-------|----------|-------|", "score": 0.238, "match_basis": "verbatim_token+domain_route:MS"}, {"md_atom_id": "md_dmMS_ex_a043", "md_file": "knowledge_base/domains/MS/examples.md", "md_atom_type": "TABLE_HEADER", "md_parent_section": "§MS.3 [Example 3]", "md_verbatim": "| Row | STUDYID | DOMAIN | USUBJID | SPDEVID | NHOID | MSSEQ | MSREFID | MSLNKID | MSTESTCD | MSTEST | MSAGENT | MSCONC | MSCONCU | MSORRES | MSSTRESC | MSSPEC | MSLOC | MSMETHOD | MSDTC |\n|-----|---------|--------|---------|---------|-------|-------|---------|---------|----------|--------|---------|--------|---------|---------|----------|--------|-------|----------|-------|", "score": 0.2295, "match_basis": "verbatim_token+domain_route:MS"}, {"md_atom_id": "md_dmMS_assn_a005", "md_file": "knowledge_base/domains/MS/assumptions.md", "md_atom_type": "LIST_ITEM", "md_parent_section": "§MS [MS — Assumptions]", "md_verbatim": "      ii. For studies using quantitative testing methods, MSAGENT is used to represent the drug being tested; MSCONC and MSCONCU are not used. The concentration at which growth is inhibited is the result in these cases (MSORRES, MSSTRESC/MSSTRESN), with units being represented in MSORRESU/MSSTRESU.", "score": 0.2264, "match_basis": "verbatim_token+domain_route:MS"}, {"md_atom_id": "md_dmMS_ex_a021", "md_file": "knowledge_base/domains/MS/examples.md", "md_atom_type": "SENTENCE", "md_parent_section": "§MS.2 [Example 2]", "md_verbatim": "Susceptibility testing results from the sputum multi-visit study (see MB Example 2).", "score": 0.2155, "match_basis": "verbatim_token+domain_route:MS"}], "candidate_count": 5, "zero_candidate": false}
{"pdf_atom_id": "ig34_p0255_a040", "pdf_atom_type": "LIST_ITEM", "pdf_source": "SDTMIG_v3.4", "pdf_page": 255, "pdf_parent_section": "§6.3.5.7.2 Microbiology Susceptibility (MS)", "pdf_verbatim": "b. Genetic tests that provide results in terms of susceptible/resistant only (e.g., nucleic acid amplification tests (NAAT)). Genotypic tests that provide results in terms of specific changes to nucleotides, codons, or amino acids of genes/gene products associated with resistance should be represented in the Genomic Findings (GF) domain, as that domain structure contains the variables necessary to accommodate data of this type. If a test provides both mutation data and susceptibility data, the mutation results should be represented in GF and the susceptibility information should be represented in MS. In these cases, the GF records should be linked via RELREC to susceptibility records in MS.", "figure_ref": null, "candidates": [{"md_atom_id": "md_dmMS_assn_a007", "md_file": "knowledge_base/domains/MS/assumptions.md", "md_atom_type": "LIST_ITEM", "md_parent_section": "§MS [MS — Assumptions]", "md_verbatim": "   b. Genetic tests that provide results in terms of susceptible/resistant only (e.g., nucleic acid amplification tests (NAAT)). Genotypic tests that provide results in terms of specific changes to nucleotides, codons, or amino acids of genes/gene products associated with resistance should be represented in the Genomic Findings (GF) domain, as that domain structure contains the variables necessary to accommodate data of this type. If a test provides both mutation data and susceptibility data, the mutation results should be represented in GF and the susceptibility information should be represented in MS. In these cases, the GF records should be linked via RELREC to susceptibility records in MS.", "score": 1.0, "match_basis": "verbatim_token+domain_route:MS"}, {"md_atom_id": "md_dmMS_assn_a003", "md_file": "knowledge_base/domains/MS/assumptions.md", "md_atom_type": "LIST_ITEM", "md_parent_section": "§MS [MS — Assumptions]", "md_verbatim": "   a. Phenotypic drug susceptibility testing (qualitative), which may involve determining susceptibility/resistance (qualitative) at a predefined concentration of drug, or determining a specific dose (quantitative) at which a drug inhibits organism growth or some other process associated with virulence.", "score": 0.5383, "match_basis": "verbatim_token+domain_route:MS"}, {"md_atom_id": "md_dmMS_assn_a004", "md_file": "knowledge_base/domains/MS/assumptions.md", "md_atom_type": "LIST_ITEM", "md_parent_section": "§MS [MS — Assumptions]", "md_verbatim": "      i. For studies using qualitative testing methods, MSAGENT, MSCONC, and MSCONCU are used to represent the predefined drug, concentration, and units, respectively. Results are represented with values such as \"SUSCEPTIBLE\" or \"RESISTANT\".", "score": 0.5097, "match_basis": "verbatim_token+domain_route:MS"}, {"md_atom_id": "md_dmMS_assn_a006", "md_file": "knowledge_base/domains/MS/assumptions.md", "md_atom_type": "LIST_ITEM", "md_parent_section": "§MS [MS — Assumptions]", "md_verbatim": "      iii. As in 1.a.ii, MSAGENT should be populated with the drug whose action would be affected by the genetic marker being assessed via the genotypic test. MSCONC and MSCONCU are null in these records.", "score": 0.4983, "match_basis": "verbatim_token+domain_route:MS"}, {"md_atom_id": "md_dmMS_assn_a012", "md_file": "knowledge_base/domains/MS/assumptions.md", "md_atom_type": "LIST_ITEM", "md_parent_section": "§MS [MS — Assumptions]", "md_verbatim": "   b. If the same sample is associated with many biospecimen events and tests, users may need to make use of additional linking variables such as --LNKID.", "score": 0.4843, "match_basis": "verbatim_token+domain_route:MS"}], "candidate_count": 5, "zero_candidate": false}
{"pdf_atom_id": "ig34_p0255_a041", "pdf_atom_type": "CODE_LITERAL", "pdf_source": "SDTMIG_v3.4", "pdf_page": 255, "pdf_parent_section": "§6.3.5.7.2 Microbiology Susceptibility (MS)", "pdf_verbatim": "(NAAT)", "figure_ref": null, "candidates": [{"md_atom_id": "md_dmMS_ex_a041", "md_file": "knowledge_base/domains/MS/examples.md", "md_atom_type": "SENTENCE", "md_parent_section": "§MS.3 [Example 3]", "md_verbatim": "**Rows 3-4:** Show genotypic susceptibility testing results on the same aliquot from a NAAT that looks for mutations that confer resistance to 2 drugs. MSAGENT should be populated with the name of the drug whose action is affected by the mutation being tested for. However, because the drug is not used in the test, MSCONC and MSCONCU should be null. These results are represented in MS because the only result given is in terms of resistant/susceptible; no genetic results are reported.", "score": 0.1982, "match_basis": "verbatim_token+domain_route:MS"}, {"md_atom_id": "md_dmMS_assn_a007", "md_file": "knowledge_base/domains/MS/assumptions.md", "md_atom_type": "LIST_ITEM", "md_parent_section": "§MS [MS — Assumptions]", "md_verbatim": "   b. Genetic tests that provide results in terms of susceptible/resistant only (e.g., nucleic acid amplification tests (NAAT)). Genotypic tests that provide results in terms of specific changes to nucleotides, codons, or amino acids of genes/gene products associated with resistance should be represented in the Genomic Findings (GF) domain, as that domain structure contains the variables necessary to accommodate data of this type. If a test provides both mutation data and susceptibility data, the mutation results should be represented in GF and the susceptibility information should be represented in MS. In these cases, the GF records should be linked via RELREC to susceptibility records in MS.", "score": 0.196, "match_basis": "verbatim_token+domain_route:MS"}, {"md_atom_id": "md_dmMS_assn_a001", "md_file": "knowledge_base/domains/MS/assumptions.md", "md_atom_type": "HEADING", "md_parent_section": "§MS [MS — Assumptions]", "md_verbatim": "# MS — Assumptions", "score": 0.19, "match_basis": "verbatim_token+domain_route:MS"}, {"md_atom_id": "md_dmMS_assn_a002", "md_file": "knowledge_base/domains/MS/assumptions.md", "md_atom_type": "LIST_ITEM", "md_parent_section": "§MS [MS — Assumptions]", "md_verbatim": "1. Microbiology Susceptibility testing includes testing of the following types:", "score": 0.19, "match_basis": "verbatim_token+domain_route:MS"}, {"md_atom_id": "md_dmMS_assn_a003", "md_file": "knowledge_base/domains/MS/assumptions.md", "md_atom_type": "LIST_ITEM", "md_parent_section": "§MS [MS — Assumptions]", "md_verbatim": "   a. Phenotypic drug susceptibility testing (qualitative), which may involve determining susceptibility/resistance (qualitative) at a predefined concentration of drug, or determining a specific dose (quantitative) at which a drug inhibits organism growth or some other process associated with virulence.", "score": 0.19, "match_basis": "verbatim_token+domain_route:MS"}, {"md_atom_id": "md_dmMS_assn_a004", "md_file": "knowledge_base/domains/MS/assumptions.md", "md_atom_type": "LIST_ITEM", "md_parent_section": "§MS [MS — Assumptions]", "md_verbatim": "      i. For studies using qualitative testing methods, MSAGENT, MSCONC, and MSCONCU are used to represent the predefined drug, concentration, and units, respectively. Results are represented with values such as \"SUSCEPTIBLE\" or \"RESISTANT\".", "score": 0.19, "match_basis": "verbatim_token+domain_route:MS"}, {"md_atom_id": "md_dmMS_assn_a005", "md_file": "knowledge_base/domains/MS/assumptions.md", "md_atom_type": "LIST_ITEM", "md_parent_section": "§MS [MS — Assumptions]", "md_verbatim": "      ii. For studies using quantitative testing methods, MSAGENT is used to represent the drug being tested; MSCONC and MSCONCU are not used. The concentration at which growth is inhibited is the result in these cases (MSORRES, MSSTRESC/MSSTRESN), with units being represented in MSORRESU/MSSTRESU.", "score": 0.19, "match_basis": "verbatim_token+domain_route:MS"}, {"md_atom_id": "md_dmMS_assn_a006", "md_file": "knowledge_base/domains/MS/assumptions.md", "md_atom_type": "LIST_ITEM", "md_parent_section": "§MS [MS — Assumptions]", "md_verbatim": "      iii. As in 1.a.ii, MSAGENT should be populated with the drug whose action would be affected by the genetic marker being assessed via the genotypic test. MSCONC and MSCONCU are null in these records.", "score": 0.19, "match_basis": "verbatim_token+domain_route:MS"}, {"md_atom_id": "md_dmMS_assn_a008", "md_file": "knowledge_base/domains/MS/assumptions.md", "md_atom_type": "LIST_ITEM", "md_parent_section": "§MS [MS — Assumptions]", "md_verbatim": "   c. CDISC Controlled Terminology Rules for Microbiology (MB/MS) domains are available at https://www.cdisc.org/standards/terminology/controlled-terminology.", "score": 0.19, "match_basis": "verbatim_token+domain_route:MS"}, {"md_atom_id": "md_dmMS_assn_a009", "md_file": "knowledge_base/domains/MS/assumptions.md", "md_atom_type": "LIST_ITEM", "md_parent_section": "§MS [MS — Assumptions]", "md_verbatim": "2. MSDTC represents the date the specimen was collected.", "score": 0.19, "match_basis": "verbatim_token+domain_route:MS"}], "candidate_count": 10, "zero_candidate": false}
{"pdf_atom_id": "ig34_p0255_a042", "pdf_atom_type": "CODE_LITERAL", "pdf_source": "SDTMIG_v3.4", "pdf_page": 255, "pdf_parent_section": "§6.3.5.7.2 Microbiology Susceptibility (MS)", "pdf_verbatim": "RELREC", "figure_ref": null, "candidates": [{"md_atom_id": "md_dmMS_assn_a011", "md_file": "knowledge_base/domains/MS/assumptions.md", "md_atom_type": "LIST_ITEM", "md_parent_section": "§MS [MS — Assumptions]", "md_verbatim": "   a. Culture dates can be connected to the MS record via MSREFID and BEREFID.", "score": 0.2082, "match_basis": "verbatim_token+domain_route:MS"}, {"md_atom_id": "md_dmMS_assn_a007", "md_file": "knowledge_base/domains/MS/assumptions.md", "md_atom_type": "LIST_ITEM", "md_parent_section": "§MS [MS — Assumptions]", "md_verbatim": "   b. Genetic tests that provide results in terms of susceptible/resistant only (e.g., nucleic acid amplification tests (NAAT)). Genotypic tests that provide results in terms of specific changes to nucleotides, codons, or amino acids of genes/gene products associated with resistance should be represented in the Genomic Findings (GF) domain, as that domain structure contains the variables necessary to accommodate data of this type. If a test provides both mutation data and susceptibility data, the mutation results should be represented in GF and the susceptibility information should be represented in MS. In these cases, the GF records should be linked via RELREC to susceptibility records in MS.", "score": 0.2019, "match_basis": "verbatim_token+domain_route:MS"}, {"md_atom_id": "md_dmMS_assn_a006", "md_file": "knowledge_base/domains/MS/assumptions.md", "md_atom_type": "LIST_ITEM", "md_parent_section": "§MS [MS — Assumptions]", "md_verbatim": "      iii. As in 1.a.ii, MSAGENT should be populated with the drug whose action would be affected by the genetic marker being assessed via the genotypic test. MSCONC and MSCONCU are null in these records.", "score": 0.1976, "match_basis": "verbatim_token+domain_route:MS"}, {"md_atom_id": "md_dmMS_ex_a039", "md_file": "knowledge_base/domains/MS/examples.md", "md_atom_type": "SENTENCE", "md_parent_section": "§MS.3 [Example 3]", "md_verbatim": "Results from drug susceptibility tests performed on samples from the gastric TB study (see MB Example 3) are represented in the MS domain. This includes all phenotypic tests (where the drug is added directly to a culture medium) and genotypic tests (when the result is given as susceptible or resistant). In this example, the variable NHOID (Non-host Organism Identifier) is populated with the name of the organism that is the subject of the test.", "score": 0.1939, "match_basis": "verbatim_token+domain_route:MS"}, {"md_atom_id": "md_dmMS_assn_a001", "md_file": "knowledge_base/domains/MS/assumptions.md", "md_atom_type": "HEADING", "md_parent_section": "§MS [MS — Assumptions]", "md_verbatim": "# MS — Assumptions", "score": 0.19, "match_basis": "verbatim_token+domain_route:MS"}, {"md_atom_id": "md_dmMS_assn_a002", "md_file": "knowledge_base/domains/MS/assumptions.md", "md_atom_type": "LIST_ITEM", "md_parent_section": "§MS [MS — Assumptions]", "md_verbatim": "1. Microbiology Susceptibility testing includes testing of the following types:", "score": 0.19, "match_basis": "verbatim_token+domain_route:MS"}, {"md_atom_id": "md_dmMS_assn_a003", "md_file": "knowledge_base/domains/MS/assumptions.md", "md_atom_type": "LIST_ITEM", "md_parent_section": "§MS [MS — Assumptions]", "md_verbatim": "   a. Phenotypic drug susceptibility testing (qualitative), which may involve determining susceptibility/resistance (qualitative) at a predefined concentration of drug, or determining a specific dose (quantitative) at which a drug inhibits organism growth or some other process associated with virulence.", "score": 0.19, "match_basis": "verbatim_token+domain_route:MS"}, {"md_atom_id": "md_dmMS_assn_a004", "md_file": "knowledge_base/domains/MS/assumptions.md", "md_atom_type": "LIST_ITEM", "md_parent_section": "§MS [MS — Assumptions]", "md_verbatim": "      i. For studies using qualitative testing methods, MSAGENT, MSCONC, and MSCONCU are used to represent the predefined drug, concentration, and units, respectively. Results are represented with values such as \"SUSCEPTIBLE\" or \"RESISTANT\".", "score": 0.19, "match_basis": "verbatim_token+domain_route:MS"}, {"md_atom_id": "md_dmMS_assn_a005", "md_file": "knowledge_base/domains/MS/assumptions.md", "md_atom_type": "LIST_ITEM", "md_parent_section": "§MS [MS — Assumptions]", "md_verbatim": "      ii. For studies using quantitative testing methods, MSAGENT is used to represent the drug being tested; MSCONC and MSCONCU are not used. The concentration at which growth is inhibited is the result in these cases (MSORRES, MSSTRESC/MSSTRESN), with units being represented in MSORRESU/MSSTRESU.", "score": 0.19, "match_basis": "verbatim_token+domain_route:MS"}, {"md_atom_id": "md_dmMS_assn_a008", "md_file": "knowledge_base/domains/MS/assumptions.md", "md_atom_type": "LIST_ITEM", "md_parent_section": "§MS [MS — Assumptions]", "md_verbatim": "   c. CDISC Controlled Terminology Rules for Microbiology (MB/MS) domains are available at https://www.cdisc.org/standards/terminology/controlled-terminology.", "score": 0.19, "match_basis": "verbatim_token+domain_route:MS"}], "candidate_count": 10, "zero_candidate": false}
{"pdf_atom_id": "ig34_p0256_a001", "pdf_atom_type": "LIST_ITEM", "pdf_source": "SDTMIG_v3.4", "pdf_page": 256, "pdf_parent_section": "§6.3.5.7.2 Microbiology Susceptibility (MS)", "pdf_verbatim": "i. As in 1.a.ii, MSAGENT should be populated with the drug whose action would be affected by the genetic marker being assessed via the genotypic test. MSCONC and MSCONCU are null in these records.", "figure_ref": null, "candidates": [{"md_atom_id": "md_dmMS_assn_a006", "md_file": "knowledge_base/domains/MS/assumptions.md", "md_atom_type": "LIST_ITEM", "md_parent_section": "§MS [MS — Assumptions]", "md_verbatim": "      iii. As in 1.a.ii, MSAGENT should be populated with the drug whose action would be affected by the genetic marker being assessed via the genotypic test. MSCONC and MSCONCU are null in these records.", "score": 0.9921, "match_basis": "verbatim_token+domain_route:MS"}, {"md_atom_id": "md_dmMS_ex_a041", "md_file": "knowledge_base/domains/MS/examples.md", "md_atom_type": "SENTENCE", "md_parent_section": "§MS.3 [Example 3]", "md_verbatim": "**Rows 3-4:** Show genotypic susceptibility testing results on the same aliquot from a NAAT that looks for mutations that confer resistance to 2 drugs. MSAGENT should be populated with the name of the drug whose action is affected by the mutation being tested for. However, because the drug is not used in the test, MSCONC and MSCONCU should be null. These results are represented in MS because the only result given is in terms of resistant/susceptible; no genetic results are reported.", "score": 0.5336, "match_basis": "verbatim_token+domain_route:MS"}, {"md_atom_id": "md_dmMS_assn_a005", "md_file": "knowledge_base/domains/MS/assumptions.md", "md_atom_type": "LIST_ITEM", "md_parent_section": "§MS [MS — Assumptions]", "md_verbatim": "      ii. For studies using quantitative testing methods, MSAGENT is used to represent the drug being tested; MSCONC and MSCONCU are not used. The concentration at which growth is inhibited is the result in these cases (MSORRES, MSSTRESC/MSSTRESN), with units being represented in MSORRESU/MSSTRESU.", "score": 0.525, "match_basis": "verbatim_token+domain_route:MS"}, {"md_atom_id": "md_dmMS_assn_a004", "md_file": "knowledge_base/domains/MS/assumptions.md", "md_atom_type": "LIST_ITEM", "md_parent_section": "§MS [MS — Assumptions]", "md_verbatim": "      i. For studies using qualitative testing methods, MSAGENT, MSCONC, and MSCONCU are used to represent the predefined drug, concentration, and units, respectively. Results are represented with values such as \"SUSCEPTIBLE\" or \"RESISTANT\".", "score": 0.5073, "match_basis": "verbatim_token+domain_route:MS"}, {"md_atom_id": "md_dmMS_assn_a007", "md_file": "knowledge_base/domains/MS/assumptions.md", "md_atom_type": "LIST_ITEM", "md_parent_section": "§MS [MS — Assumptions]", "md_verbatim": "   b. Genetic tests that provide results in terms of susceptible/resistant only (e.g., nucleic acid amplification tests (NAAT)). Genotypic tests that provide results in terms of specific changes to nucleotides, codons, or amino acids of genes/gene products associated with resistance should be represented in the Genomic Findings (GF) domain, as that domain structure contains the variables necessary to accommodate data of this type. If a test provides both mutation data and susceptibility data, the mutation results should be represented in GF and the susceptibility information should be represented in MS. In these cases, the GF records should be linked via RELREC to susceptibility records in MS.", "score": 0.4987, "match_basis": "verbatim_token+domain_route:MS"}], "candidate_count": 5, "zero_candidate": false}
{"pdf_atom_id": "ig34_p0256_a002", "pdf_atom_type": "LIST_ITEM", "pdf_source": "SDTMIG_v3.4", "pdf_page": 256, "pdf_parent_section": "§6.3.5.7.2 Microbiology Susceptibility (MS)", "pdf_verbatim": "c. CDISC Controlled Terminology Rules for Microbiology (MB/MS) domains are available at https://www.cdisc.org/standards/terminology/controlled-terminology.", "figure_ref": null, "candidates": [{"md_atom_id": "md_dmMS_assn_a008", "md_file": "knowledge_base/domains/MS/assumptions.md", "md_atom_type": "LIST_ITEM", "md_parent_section": "§MS [MS — Assumptions]", "md_verbatim": "   c. CDISC Controlled Terminology Rules for Microbiology (MB/MS) domains are available at https://www.cdisc.org/standards/terminology/controlled-terminology.", "score": 1.0, "match_basis": "verbatim_token+domain_route:MS"}, {"md_atom_id": "md_dmMS_assn_a002", "md_file": "knowledge_base/domains/MS/assumptions.md", "md_atom_type": "LIST_ITEM", "md_parent_section": "§MS [MS — Assumptions]", "md_verbatim": "1. Microbiology Susceptibility testing includes testing of the following types:", "score": 0.475, "match_basis": "verbatim_token+domain_route:MS"}, {"md_atom_id": "md_dmMS_assn_a007", "md_file": "knowledge_base/domains/MS/assumptions.md", "md_atom_type": "LIST_ITEM", "md_parent_section": "§MS [MS — Assumptions]", "md_verbatim": "   b. Genetic tests that provide results in terms of susceptible/resistant only (e.g., nucleic acid amplification tests (NAAT)). Genotypic tests that provide results in terms of specific changes to nucleotides, codons, or amino acids of genes/gene products associated with resistance should be represented in the Genomic Findings (GF) domain, as that domain structure contains the variables necessary to accommodate data of this type. If a test provides both mutation data and susceptibility data, the mutation results should be represented in GF and the susceptibility information should be represented in MS. In these cases, the GF records should be linked via RELREC to susceptibility records in MS.", "score": 0.4506, "match_basis": "verbatim_token+domain_route:MS"}, {"md_atom_id": "md_dmMS_assn_a014", "md_file": "knowledge_base/domains/MS/assumptions.md", "md_atom_type": "LIST_ITEM", "md_parent_section": "§MS [MS — Assumptions]", "md_verbatim": "5. Any Identifiers, Timing variables, or Findings general observation class qualifiers may be added to the MS domain, but the following variables would not generally be used: --MODIFY, --BODSYS, --TOX, --TOXGR --SEV.", "score": 0.4415, "match_basis": "verbatim_token+domain_route:MS"}, {"md_atom_id": "md_dmMS_assn_a010", "md_file": "knowledge_base/domains/MS/assumptions.md", "md_atom_type": "LIST_ITEM", "md_parent_section": "§MS [MS — Assumptions]", "md_verbatim": "3. If the specimen was cultured, the start and end date of culture are represented in the Biospecimen Events (BE) domain in BESTDTC and BEENDTC respectively. --REFID represents the sample ID as originally assigned in the BE domain. See BE domain assumptions in the SDTMIG v3.4, Section 6.2.2, for guidelines on assigning --REFID values to samples and subsamples.", "score": 0.4382, "match_basis": "verbatim_token+domain_route:MS"}], "candidate_count": 5, "zero_candidate": false}
{"pdf_atom_id": "ig34_p0256_a003", "pdf_atom_type": "LIST_ITEM", "pdf_source": "SDTMIG_v3.4", "pdf_page": 256, "pdf_parent_section": "§6.3.5.7.2 Microbiology Susceptibility (MS)", "pdf_verbatim": "2. MSDTC represents the date the specimen was collected.", "figure_ref": null, "candidates": [{"md_atom_id": "md_dmMS_assn_a009", "md_file": "knowledge_base/domains/MS/assumptions.md", "md_atom_type": "LIST_ITEM", "md_parent_section": "§MS [MS — Assumptions]", "md_verbatim": "2. MSDTC represents the date the specimen was collected.", "score": 1.0, "match_basis": "verbatim_token+domain_route:MS"}, {"md_atom_id": "md_dmMS_assn_a010", "md_file": "knowledge_base/domains/MS/assumptions.md", "md_atom_type": "LIST_ITEM", "md_parent_section": "§MS [MS — Assumptions]", "md_verbatim": "3. If the specimen was cultured, the start and end date of culture are represented in the Biospecimen Events (BE) domain in BESTDTC and BEENDTC respectively. --REFID represents the sample ID as originally assigned in the BE domain. See BE domain assumptions in the SDTMIG v3.4, Section 6.2.2, for guidelines on assigning --REFID values to samples and subsamples.", "score": 0.5128, "match_basis": "verbatim_token+domain_route:MS"}, {"md_atom_id": "md_dmMS_assn_a012", "md_file": "knowledge_base/domains/MS/assumptions.md", "md_atom_type": "LIST_ITEM", "md_parent_section": "§MS [MS — Assumptions]", "md_verbatim": "   b. If the same sample is associated with many biospecimen events and tests, users may need to make use of additional linking variables such as --LNKID.", "score": 0.4786, "match_basis": "verbatim_token+domain_route:MS"}, {"md_atom_id": "md_dmMS_assn_a011", "md_file": "knowledge_base/domains/MS/assumptions.md", "md_atom_type": "LIST_ITEM", "md_parent_section": "§MS [MS — Assumptions]", "md_verbatim": "   a. Culture dates can be connected to the MS record via MSREFID and BEREFID.", "score": 0.4692, "match_basis": "verbatim_token+domain_route:MS"}, {"md_atom_id": "md_dmMS_assn_a004", "md_file": "knowledge_base/domains/MS/assumptions.md", "md_atom_type": "LIST_ITEM", "md_parent_section": "§MS [MS — Assumptions]", "md_verbatim": "      i. For studies using qualitative testing methods, MSAGENT, MSCONC, and MSCONCU are used to represent the predefined drug, concentration, and units, respectively. Results are represented with values such as \"SUSCEPTIBLE\" or \"RESISTANT\".", "score": 0.4605, "match_basis": "verbatim_token+domain_route:MS"}], "candidate_count": 5, "zero_candidate": false}
{"pdf_atom_id": "ig34_p0256_a004", "pdf_atom_type": "LIST_ITEM", "pdf_source": "SDTMIG_v3.4", "pdf_page": 256, "pdf_parent_section": "§6.3.5.7.2 Microbiology Susceptibility (MS)", "pdf_verbatim": "3. If the specimen was cultured, the start and end date of culture are represented in the Biospecimen Events (BE) domain in BESTDTC and BEENDTC, respectively.\n--REFID represents the sample ID as originally assigned in the BE domain. See BE domain assumptions in the SDTMIG v3.4, Section 6.2.2, for guidelines on assigning --REFID values to samples and subsamples.", "figure_ref": null, "candidates": [{"md_atom_id": "md_dmMS_assn_a010", "md_file": "knowledge_base/domains/MS/assumptions.md", "md_atom_type": "LIST_ITEM", "md_parent_section": "§MS [MS — Assumptions]", "md_verbatim": "3. If the specimen was cultured, the start and end date of culture are represented in the Biospecimen Events (BE) domain in BESTDTC and BEENDTC respectively. --REFID represents the sample ID as originally assigned in the BE domain. See BE domain assumptions in the SDTMIG v3.4, Section 6.2.2, for guidelines on assigning --REFID values to samples and subsamples.", "score": 1.0, "match_basis": "verbatim_token+domain_route:MS"}, {"md_atom_id": "md_dmMS_assn_a004", "md_file": "knowledge_base/domains/MS/assumptions.md", "md_atom_type": "LIST_ITEM", "md_parent_section": "§MS [MS — Assumptions]", "md_verbatim": "      i. For studies using qualitative testing methods, MSAGENT, MSCONC, and MSCONCU are used to represent the predefined drug, concentration, and units, respectively. Results are represented with values such as \"SUSCEPTIBLE\" or \"RESISTANT\".", "score": 0.5254, "match_basis": "verbatim_token+domain_route:MS"}, {"md_atom_id": "md_dmMS_assn_a012", "md_file": "knowledge_base/domains/MS/assumptions.md", "md_atom_type": "LIST_ITEM", "md_parent_section": "§MS [MS — Assumptions]", "md_verbatim": "   b. If the same sample is associated with many biospecimen events and tests, users may need to make use of additional linking variables such as --LNKID.", "score": 0.5168, "match_basis": "verbatim_token+domain_route:MS"}, {"md_atom_id": "md_dmMS_assn_a009", "md_file": "knowledge_base/domains/MS/assumptions.md", "md_atom_type": "LIST_ITEM", "md_parent_section": "§MS [MS — Assumptions]", "md_verbatim": "2. MSDTC represents the date the specimen was collected.", "score": 0.5128, "match_basis": "verbatim_token+domain_route:MS"}, {"md_atom_id": "md_dmMS_assn_a013", "md_file": "knowledge_base/domains/MS/assumptions.md", "md_atom_type": "LIST_ITEM", "md_parent_section": "§MS [MS — Assumptions]", "md_verbatim": "4. NHOID is a sponsor-defined, intuitive name of the non-host organism being tested. It should only be populated with values representing what is known about the identity of the organism before the results of the test are determined. It should therefore never be used as a qualifier of result.", "score": 0.488, "match_basis": "verbatim_token+domain_route:MS"}], "candidate_count": 5, "zero_candidate": false}
{"pdf_atom_id": "ig34_p0256_a005", "pdf_atom_type": "LIST_ITEM", "pdf_source": "SDTMIG_v3.4", "pdf_page": 256, "pdf_parent_section": "§6.3.5.7.2 Microbiology Susceptibility (MS)", "pdf_verbatim": "a. Culture dates can be connected to the MS record via MSREFID and BEREFID.", "figure_ref": null, "candidates": [{"md_atom_id": "md_dmMS_assn_a011", "md_file": "knowledge_base/domains/MS/assumptions.md", "md_atom_type": "LIST_ITEM", "md_parent_section": "§MS [MS — Assumptions]", "md_verbatim": "   a. Culture dates can be connected to the MS record via MSREFID and BEREFID.", "score": 1.0, "match_basis": "verbatim_token+domain_route:MS"}, {"md_atom_id": "md_dmMS_assn_a006", "md_file": "knowledge_base/domains/MS/assumptions.md", "md_atom_type": "LIST_ITEM", "md_parent_section": "§MS [MS — Assumptions]", "md_verbatim": "      iii. As in 1.a.ii, MSAGENT should be populated with the drug whose action would be affected by the genetic marker being assessed via the genotypic test. MSCONC and MSCONCU are null in these records.", "score": 0.4839, "match_basis": "verbatim_token+domain_route:MS"}, {"md_atom_id": "md_dmMS_assn_a009", "md_file": "knowledge_base/domains/MS/assumptions.md", "md_atom_type": "LIST_ITEM", "md_parent_section": "§MS [MS — Assumptions]", "md_verbatim": "2. MSDTC represents the date the specimen was collected.", "score": 0.4692, "match_basis": "verbatim_token+domain_route:MS"}, {"md_atom_id": "md_dmMS_assn_a010", "md_file": "knowledge_base/domains/MS/assumptions.md", "md_atom_type": "LIST_ITEM", "md_parent_section": "§MS [MS — Assumptions]", "md_verbatim": "3. If the specimen was cultured, the start and end date of culture are represented in the Biospecimen Events (BE) domain in BESTDTC and BEENDTC respectively. --REFID represents the sample ID as originally assigned in the BE domain. See BE domain assumptions in the SDTMIG v3.4, Section 6.2.2, for guidelines on assigning --REFID values to samples and subsamples.", "score": 0.4661, "match_basis": "verbatim_token+domain_route:MS"}, {"md_atom_id": "md_dmMS_assn_a007", "md_file": "knowledge_base/domains/MS/assumptions.md", "md_atom_type": "LIST_ITEM", "md_parent_section": "§MS [MS — Assumptions]", "md_verbatim": "   b. Genetic tests that provide results in terms of susceptible/resistant only (e.g., nucleic acid amplification tests (NAAT)). Genotypic tests that provide results in terms of specific changes to nucleotides, codons, or amino acids of genes/gene products associated with resistance should be represented in the Genomic Findings (GF) domain, as that domain structure contains the variables necessary to accommodate data of this type. If a test provides both mutation data and susceptibility data, the mutation results should be represented in GF and the susceptibility information should be represented in MS. In these cases, the GF records should be linked via RELREC to susceptibility records in MS.", "score": 0.4447, "match_basis": "verbatim_token+domain_route:MS"}], "candidate_count": 5, "zero_candidate": false}
{"pdf_atom_id": "ig34_p0256_a006", "pdf_atom_type": "LIST_ITEM", "pdf_source": "SDTMIG_v3.4", "pdf_page": 256, "pdf_parent_section": "§6.3.5.7.2 Microbiology Susceptibility (MS)", "pdf_verbatim": "b. If the same sample is associated with many biospecimen events and tests, users may need to make use of additional linking variables such as --LNKID.", "figure_ref": null, "candidates": [{"md_atom_id": "md_dmMS_assn_a012", "md_file": "knowledge_base/domains/MS/assumptions.md", "md_atom_type": "LIST_ITEM", "md_parent_section": "§MS [MS — Assumptions]", "md_verbatim": "   b. If the same sample is associated with many biospecimen events and tests, users may need to make use of additional linking variables such as --LNKID.", "score": 1.0, "match_basis": "verbatim_token+domain_route:MS"}, {"md_atom_id": "md_dmMS_assn_a010", "md_file": "knowledge_base/domains/MS/assumptions.md", "md_atom_type": "LIST_ITEM", "md_parent_section": "§MS [MS — Assumptions]", "md_verbatim": "3. If the specimen was cultured, the start and end date of culture are represented in the Biospecimen Events (BE) domain in BESTDTC and BEENDTC respectively. --REFID represents the sample ID as originally assigned in the BE domain. See BE domain assumptions in the SDTMIG v3.4, Section 6.2.2, for guidelines on assigning --REFID values to samples and subsamples.", "score": 0.5168, "match_basis": "verbatim_token+domain_route:MS"}, {"md_atom_id": "md_dmMS_assn_a014", "md_file": "knowledge_base/domains/MS/assumptions.md", "md_atom_type": "LIST_ITEM", "md_parent_section": "§MS [MS — Assumptions]", "md_verbatim": "5. Any Identifiers, Timing variables, or Findings general observation class qualifiers may be added to the MS domain, but the following variables would not generally be used: --MODIFY, --BODSYS, --TOX, --TOXGR --SEV.", "score": 0.487, "match_basis": "verbatim_token+domain_route:MS"}, {"md_atom_id": "md_dmMS_assn_a007", "md_file": "knowledge_base/domains/MS/assumptions.md", "md_atom_type": "LIST_ITEM", "md_parent_section": "§MS [MS — Assumptions]", "md_verbatim": "   b. Genetic tests that provide results in terms of susceptible/resistant only (e.g., nucleic acid amplification tests (NAAT)). Genotypic tests that provide results in terms of specific changes to nucleotides, codons, or amino acids of genes/gene products associated with resistance should be represented in the Genomic Findings (GF) domain, as that domain structure contains the variables necessary to accommodate data of this type. If a test provides both mutation data and susceptibility data, the mutation results should be represented in GF and the susceptibility information should be represented in MS. In these cases, the GF records should be linked via RELREC to susceptibility records in MS.", "score": 0.4843, "match_basis": "verbatim_token+domain_route:MS"}, {"md_atom_id": "md_dmMS_assn_a009", "md_file": "knowledge_base/domains/MS/assumptions.md", "md_atom_type": "LIST_ITEM", "md_parent_section": "§MS [MS — Assumptions]", "md_verbatim": "2. MSDTC represents the date the specimen was collected.", "score": 0.4786, "match_basis": "verbatim_token+domain_route:MS"}], "candidate_count": 5, "zero_candidate": false}
{"pdf_atom_id": "ig34_p0256_a007", "pdf_atom_type": "LIST_ITEM", "pdf_source": "SDTMIG_v3.4", "pdf_page": 256, "pdf_parent_section": "§6.3.5.7.2 Microbiology Susceptibility (MS)", "pdf_verbatim": "4. NHOID is a sponsor-defined, intuitive name of the non-host organism being tested. It should only populated with values representing what is known about the identity of the organism before the results of the test are determined. It should therefore never be used as a qualifier of result.", "figure_ref": null, "candidates": [{"md_atom_id": "md_dmMS_assn_a013", "md_file": "knowledge_base/domains/MS/assumptions.md", "md_atom_type": "LIST_ITEM", "md_parent_section": "§MS [MS — Assumptions]", "md_verbatim": "4. NHOID is a sponsor-defined, intuitive name of the non-host organism being tested. It should only be populated with values representing what is known about the identity of the organism before the results of the test are determined. It should therefore never be used as a qualifier of result.", "score": 1.0, "match_basis": "verbatim_token+domain_route:MS"}, {"md_atom_id": "md_dmMS_assn_a004", "md_file": "knowledge_base/domains/MS/assumptions.md", "md_atom_type": "LIST_ITEM", "md_parent_section": "§MS [MS — Assumptions]", "md_verbatim": "      i. For studies using qualitative testing methods, MSAGENT, MSCONC, and MSCONCU are used to represent the predefined drug, concentration, and units, respectively. Results are represented with values such as \"SUSCEPTIBLE\" or \"RESISTANT\".", "score": 0.5276, "match_basis": "verbatim_token+domain_route:MS"}, {"md_atom_id": "md_dmMS_assn_a003", "md_file": "knowledge_base/domains/MS/assumptions.md", "md_atom_type": "LIST_ITEM", "md_parent_section": "§MS [MS — Assumptions]", "md_verbatim": "   a. Phenotypic drug susceptibility testing (qualitative), which may involve determining susceptibility/resistance (qualitative) at a predefined concentration of drug, or determining a specific dose (quantitative) at which a drug inhibits organism growth or some other process associated with virulence.", "score": 0.5176, "match_basis": "verbatim_token+domain_route:MS"}, {"md_atom_id": "md_dmMS_assn_a005", "md_file": "knowledge_base/domains/MS/assumptions.md", "md_atom_type": "LIST_ITEM", "md_parent_section": "§MS [MS — Assumptions]", "md_verbatim": "      ii. For studies using quantitative testing methods, MSAGENT is used to represent the drug being tested; MSCONC and MSCONCU are not used. The concentration at which growth is inhibited is the result in these cases (MSORRES, MSSTRESC/MSSTRESN), with units being represented in MSORRESU/MSSTRESU.", "score": 0.5057, "match_basis": "verbatim_token+domain_route:MS"}, {"md_atom_id": "md_dmMS_assn_a006", "md_file": "knowledge_base/domains/MS/assumptions.md", "md_atom_type": "LIST_ITEM", "md_parent_section": "§MS [MS — Assumptions]", "md_verbatim": "      iii. As in 1.a.ii, MSAGENT should be populated with the drug whose action would be affected by the genetic marker being assessed via the genotypic test. MSCONC and MSCONCU are null in these records.", "score": 0.49, "match_basis": "verbatim_token+domain_route:MS"}], "candidate_count": 5, "zero_candidate": false}
{"pdf_atom_id": "ig34_p0256_a008", "pdf_atom_type": "LIST_ITEM", "pdf_source": "SDTMIG_v3.4", "pdf_page": 256, "pdf_parent_section": "§6.3.5.7.2 Microbiology Susceptibility (MS)", "pdf_verbatim": "5. Any Identifiers, Timing variables, or Findings general observation class qualifiers may be added to the MS domain, but the following variables would not generally be used: --MODIFY, --BODSYS, --TOX, --TOXGR --SEV.", "figure_ref": null, "candidates": [{"md_atom_id": "md_dmMS_assn_a014", "md_file": "knowledge_base/domains/MS/assumptions.md", "md_atom_type": "LIST_ITEM", "md_parent_section": "§MS [MS — Assumptions]", "md_verbatim": "5. Any Identifiers, Timing variables, or Findings general observation class qualifiers may be added to the MS domain, but the following variables would not generally be used: --MODIFY, --BODSYS, --TOX, --TOXGR --SEV.", "score": 1.0, "match_basis": "verbatim_token+domain_route:MS"}, {"md_atom_id": "md_dmMS_assn_a012", "md_file": "knowledge_base/domains/MS/assumptions.md", "md_atom_type": "LIST_ITEM", "md_parent_section": "§MS [MS — Assumptions]", "md_verbatim": "   b. If the same sample is associated with many biospecimen events and tests, users may need to make use of additional linking variables such as --LNKID.", "score": 0.487, "match_basis": "verbatim_token+domain_route:MS"}, {"md_atom_id": "md_dmMS_assn_a007", "md_file": "knowledge_base/domains/MS/assumptions.md", "md_atom_type": "LIST_ITEM", "md_parent_section": "§MS [MS — Assumptions]", "md_verbatim": "   b. Genetic tests that provide results in terms of susceptible/resistant only (e.g., nucleic acid amplification tests (NAAT)). Genotypic tests that provide results in terms of specific changes to nucleotides, codons, or amino acids of genes/gene products associated with resistance should be represented in the Genomic Findings (GF) domain, as that domain structure contains the variables necessary to accommodate data of this type. If a test provides both mutation data and susceptibility data, the mutation results should be represented in GF and the susceptibility information should be represented in MS. In these cases, the GF records should be linked via RELREC to susceptibility records in MS.", "score": 0.4789, "match_basis": "verbatim_token+domain_route:MS"}, {"md_atom_id": "md_dmMS_assn_a013", "md_file": "knowledge_base/domains/MS/assumptions.md", "md_atom_type": "LIST_ITEM", "md_parent_section": "§MS [MS — Assumptions]", "md_verbatim": "4. NHOID is a sponsor-defined, intuitive name of the non-host organism being tested. It should only be populated with values representing what is known about the identity of the organism before the results of the test are determined. It should therefore never be used as a qualifier of result.", "score": 0.4663, "match_basis": "verbatim_token+domain_route:MS"}, {"md_atom_id": "md_dmMS_assn_a006", "md_file": "knowledge_base/domains/MS/assumptions.md", "md_atom_type": "LIST_ITEM", "md_parent_section": "§MS [MS — Assumptions]", "md_verbatim": "      iii. As in 1.a.ii, MSAGENT should be populated with the drug whose action would be affected by the genetic marker being assessed via the genotypic test. MSCONC and MSCONCU are null in these records.", "score": 0.4534, "match_basis": "verbatim_token+domain_route:MS"}], "candidate_count": 5, "zero_candidate": false}
{"pdf_atom_id": "ig34_p0256_a009", "pdf_atom_type": "HEADING", "pdf_source": "SDTMIG_v3.4", "pdf_page": 256, "pdf_parent_section": "§6.3.5.7 Microbiology Domains", "pdf_verbatim": "6.3.5.7.3 Microbiology Specimen/Microbiology Susceptibility Examples", "figure_ref": null, "candidates": [{"md_atom_id": "md_varindex_a951", "md_file": "knowledge_base/VARIABLE_INDEX.md", "md_atom_type": "HEADING", "md_parent_section": "§ 二、领域专属变量（仅 1 个域，共 1499 个），按域分组", "md_verbatim": "### MS — Microbiology Susceptibility (Findings)", "score": 0.63, "match_basis": "verbatim_token+global_search"}, {"md_atom_id": "md_varindex_a790", "md_file": "knowledge_base/VARIABLE_INDEX.md", "md_atom_type": "HEADING", "md_parent_section": "§ 二、领域专属变量（仅 1 个域，共 1499 个），按域分组", "md_verbatim": "### MB — Microbiology Specimen (Findings)", "score": 0.54, "match_basis": "verbatim_token+global_search"}, {"md_atom_id": "md_dmRELSPEC_ex_a001", "md_file": "knowledge_base/domains/RELSPEC/examples.md", "md_atom_type": "HEADING", "md_parent_section": "§RELSPEC [RELSPEC — Examples]", "md_verbatim": "# RELSPEC — Examples", "score": 0.4297, "match_basis": "verbatim_token+global_search"}, {"md_atom_id": "md_dmCM_ex_a001", "md_file": "knowledge_base/domains/CM/examples.md", "md_atom_type": "HEADING", "md_parent_section": "§CM [CM — Examples]", "md_verbatim": "# CM — Examples", "score": 0.4059, "match_basis": "verbatim_token+global_search"}, {"md_atom_id": "md_ch08_a184", "md_file": "knowledge_base/chapters/ch08_relationships.md", "md_atom_type": "HEADING", "md_parent_section": "§8.4 [Relating Non-standard Variable Values to a Parent Domain]", "md_verbatim": "### 8.4.3 Examples", "score": 0.4059, "match_basis": "verbatim_token+global_search"}], "candidate_count": 5, "zero_candidate": false}
{"pdf_atom_id": "ig34_p0256_a010", "pdf_atom_type": "HEADING", "pdf_source": "SDTMIG_v3.4", "pdf_page": 256, "pdf_parent_section": "§6.3.5.7.3 Microbiology Specimen/Microbiology Susceptibility Examples", "pdf_verbatim": "Example 1", "figure_ref": null, "candidates": [{"md_atom_id": "md_dmCM_ex_a002", "md_file": "knowledge_base/domains/CM/examples.md", "md_atom_type": "HEADING", "md_parent_section": "§CM.1 [Example 1]", "md_verbatim": "## Example 1", "score": 0.9, "match_basis": "verbatim_token+global_search"}, {"md_atom_id": "md_dmCM_ex_a022", "md_file": "knowledge_base/domains/CM/examples.md", "md_atom_type": "HEADING", "md_parent_section": "§CM.2 [Example 2]", "md_verbatim": "## Example 2", "score": 0.9, "match_basis": "verbatim_token+global_search"}, {"md_atom_id": "md_dmCM_ex_a029", "md_file": "knowledge_base/domains/CM/examples.md", "md_atom_type": "HEADING", "md_parent_section": "§CM.3 [Example 3]", "md_verbatim": "## Example 3", "score": 0.9, "match_basis": "verbatim_token+global_search"}, {"md_atom_id": "md_dmCM_ex_a047", "md_file": "knowledge_base/domains/CM/examples.md", "md_atom_type": "HEADING", "md_parent_section": "§CM.4 [Example 4]", "md_verbatim": "## Example 4", "score": 0.9, "match_basis": "verbatim_token+global_search"}, {"md_atom_id": "md_dmCM_ex_a060", "md_file": "knowledge_base/domains/CM/examples.md", "md_atom_type": "HEADING", "md_parent_section": "§CM.5 [Example 5]", "md_verbatim": "## Example 5", "score": 0.9, "match_basis": "verbatim_token+global_search"}, {"md_atom_id": "md_ch08_a292", "md_file": "knowledge_base/chapters/ch08_relationships.md", "md_atom_type": "HEADING", "md_parent_section": "§8.7 [Related Subjects (RELSUB)]", "md_verbatim": "### Example", "score": 0.9, "match_basis": "verbatim_token+global_search"}, {"md_atom_id": "md_ch08_a331", "md_file": "knowledge_base/chapters/ch08_relationships.md", "md_atom_type": "HEADING", "md_parent_section": "§8.8 [Related Specimens (RELSPEC)]", "md_verbatim": "### Example", "score": 0.9, "match_basis": "verbatim_token+global_search"}, {"md_atom_id": "md_dmAE_ex_a002", "md_file": "knowledge_base/domains/AE/examples.md", "md_atom_type": "HEADING", "md_parent_section": "§AE.1 [Example 1]", "md_verbatim": "## Example 1", "score": 0.9, "match_basis": "verbatim_token+global_search"}, {"md_atom_id": "md_dmAE_ex_a020", "md_file": "knowledge_base/domains/AE/examples.md", "md_atom_type": "HEADING", "md_parent_section": "§AE.2 [Example 2]", "md_verbatim": "## Example 2", "score": 0.9, "match_basis": "verbatim_token+global_search"}, {"md_atom_id": "md_dmAE_ex_a035", "md_file": "knowledge_base/domains/AE/examples.md", "md_atom_type": "HEADING", "md_parent_section": "§AE.3 [Example 3]", "md_verbatim": "## Example 3", "score": 0.9, "match_basis": "verbatim_token+global_search"}], "candidate_count": 10, "zero_candidate": false}
{"pdf_atom_id": "ig34_p0256_a011", "pdf_atom_type": "SENTENCE", "pdf_source": "SDTMIG_v3.4", "pdf_page": 256, "pdf_parent_section": "§6.3.5.7.3 Microbiology Specimen/Microbiology Susceptibility Examples", "pdf_verbatim": "In this example, both a central and a local lab (MBNAM) independently identified Enterococcus faecalis (MBORRES) in a fluid specimen (MBSPEC) taken from the skin (MBLOC) of a subject at visit 1.", "figure_ref": null, "candidates": [{"md_atom_id": "md_dmMB_ex_a005", "md_file": "knowledge_base/domains/MB/examples.md", "md_atom_type": "SENTENCE", "md_parent_section": "§MB.1 [Example 1]", "md_verbatim": "In this example, both a central and a local lab (MBNAM) independently identified Enterococcus faecalis (MBORRES) in a fluid specimen (MBSPEC) taken from the skin (MBLOC) of a subject at visit 1.", "score": 0.9, "match_basis": "verbatim_token+global_search"}, {"md_atom_id": "md_dmMB_ex_a009", "md_file": "knowledge_base/domains/MB/examples.md", "md_atom_type": "SENTENCE", "md_parent_section": "§MB.1 [Example 1]", "md_verbatim": "Because an identified organism is the subject of the test, the NHOID variable is populated with \"ENTEROCOCCUS FAECALIS\".", "score": 0.4513, "match_basis": "verbatim_token+global_search"}, {"md_atom_id": "md_dmMS_ex_a004", "md_file": "knowledge_base/domains/MS/examples.md", "md_atom_type": "SENTENCE", "md_parent_section": "§MS.1 [Example 1]", "md_verbatim": "This example shows susceptibility testing results following organism identification. After E. faecalis was identified in the subject sample (see MB Example 1), drug susceptibility testing was performed at each of the labs using both the sponsor's investigational drug and amoxicillin.", "score": 0.4179, "match_basis": "verbatim_token+global_search"}, {"md_atom_id": "md_dmMB_ex_a008", "md_file": "knowledge_base/domains/MB/examples.md", "md_atom_type": "SENTENCE", "md_parent_section": "§MB.1 [Example 1]", "md_verbatim": "After E. faecalis was identified in the subject sample, drug susceptibility testing was performed at each of the labs using both the sponsor's investigational drug and amoxicillin.", "score": 0.4159, "match_basis": "verbatim_token+global_search"}, {"md_atom_id": "md_dmMB_ex_a048", "md_file": "knowledge_base/domains/MB/examples.md", "md_atom_type": "SENTENCE", "md_parent_section": "§MB.2 [Example 2]", "md_verbatim": "**Rows 1-2:** Show that a gram stain was used on a subject sputum sample to identify the presence of gram negative cocci (row 1) and to quantify the bacteria (row 2). MBORRES in row 2 represents an ordinal result (MBRSLSCL = \"Ord\"), such as from a published quantification scale. This value decodes to \"FEW\" as shown in MBSTRESC. The quantification scale used is represented as Supplemental Qualifiers of MB.", "score": 0.4148, "match_basis": "verbatim_token+global_search"}], "candidate_count": 5, "zero_candidate": false}
{"pdf_atom_id": "ig34_p0256_a012", "pdf_atom_type": "SENTENCE", "pdf_source": "SDTMIG_v3.4", "pdf_page": 256, "pdf_parent_section": "§6.3.5.7.3 Microbiology Specimen/Microbiology Susceptibility Examples", "pdf_verbatim": "The method used by both labs was a solid microbial culture (MBMETHOD).", "figure_ref": null, "candidates": [{"md_atom_id": "md_dmMB_ex_a006", "md_file": "knowledge_base/domains/MB/examples.md", "md_atom_type": "SENTENCE", "md_parent_section": "§MB.1 [Example 1]", "md_verbatim": "The method used by both labs was a solid microbial culture (MBMETHOD).", "score": 0.9, "match_basis": "verbatim_token+global_search"}, {"md_atom_id": "md_dmMB_ex_a052", "md_file": "knowledge_base/domains/MB/examples.md", "md_atom_type": "SENTENCE", "md_parent_section": "§MB.2 [Example 2]", "md_verbatim": "**Row 8:** Shows that microbial culture of a third subject sample at the third visit indicated \"NO GROWTH\" (MBORRES) of any organisms.", "score": 0.4068, "match_basis": "verbatim_token+global_search"}, {"md_atom_id": "md_dmMB_ex_a050", "md_file": "knowledge_base/domains/MB/examples.md", "md_atom_type": "SENTENCE", "md_parent_section": "§MB.2 [Example 2]", "md_verbatim": "**Rows 5-6:** Show that microbial culture of the same sample was used at the same visit to identify the presence of two organisms, \"STREPTOCOCCUS PNEUMONIAE\" and \"KLEBSIELLA PNEUMONIAE\" (MBORRES).", "score": 0.4011, "match_basis": "verbatim_token+global_search"}, {"md_atom_id": "md_dmMB_ex_a007", "md_file": "knowledge_base/domains/MB/examples.md", "md_atom_type": "SENTENCE", "md_parent_section": "§MB.1 [Example 1]", "md_verbatim": "Because the culture was not targeted to encourage the growth of a specific organism, MBTESTCD/MBTEST = \"MCORGIDN\"/\"Microbial Organism Identification\" and MBORRES represents the name of the organism identified.", "score": 0.39, "match_basis": "verbatim_token+global_search"}, {"md_atom_id": "md_dmMB_ex_a051", "md_file": "knowledge_base/domains/MB/examples.md", "md_atom_type": "SENTENCE", "md_parent_section": "§MB.2 [Example 2]", "md_verbatim": "**Row 7:** Shows that microbial culture of a subsequent sample at a later visit indicated only the presence of \"KLEBSIELLA PNEUMONIAE\" (MBORRES).", "score": 0.3897, "match_basis": "verbatim_token+global_search"}], "candidate_count": 5, "zero_candidate": false}
{"pdf_atom_id": "ig34_p0256_a013", "pdf_atom_type": "SENTENCE", "pdf_source": "SDTMIG_v3.4", "pdf_page": 256, "pdf_parent_section": "§6.3.5.7.3 Microbiology Specimen/Microbiology Susceptibility Examples", "pdf_verbatim": "Because the culture was not targeted to encourage the growth of a specific organism, MBTESTCD/MBTEST = \"MCORGIDN\"/\"Microbial Organism Identification\" and MBORRES represents the name of the organism identified.", "figure_ref": null, "candidates": [{"md_atom_id": "md_dmMB_ex_a007", "md_file": "knowledge_base/domains/MB/examples.md", "md_atom_type": "SENTENCE", "md_parent_section": "§MB.1 [Example 1]", "md_verbatim": "Because the culture was not targeted to encourage the growth of a specific organism, MBTESTCD/MBTEST = \"MCORGIDN\"/\"Microbial Organism Identification\" and MBORRES represents the name of the organism identified.", "score": 0.9, "match_basis": "verbatim_token+global_search"}, {"md_atom_id": "md_dmMB_ex_a050", "md_file": "knowledge_base/domains/MB/examples.md", "md_atom_type": "SENTENCE", "md_parent_section": "§MB.2 [Example 2]", "md_verbatim": "**Rows 5-6:** Show that microbial culture of the same sample was used at the same visit to identify the presence of two organisms, \"STREPTOCOCCUS PNEUMONIAE\" and \"KLEBSIELLA PNEUMONIAE\" (MBORRES).", "score": 0.4814, "match_basis": "verbatim_token+global_search"}, {"md_atom_id": "md_dmMB_ex_a052", "md_file": "knowledge_base/domains/MB/examples.md", "md_atom_type": "SENTENCE", "md_parent_section": "§MB.2 [Example 2]", "md_verbatim": "**Row 8:** Shows that microbial culture of a third subject sample at the third visit indicated \"NO GROWTH\" (MBORRES) of any organisms.", "score": 0.4661, "match_basis": "verbatim_token+global_search"}, {"md_atom_id": "md_dmGF_ex_a085", "md_file": "knowledge_base/domains/GF/examples.md", "md_atom_type": "SENTENCE", "md_parent_section": "§GF.5 [Example 5]", "md_verbatim": "Tests that diagnose or identify the presence of an infectious agent in a subject sample are represented in the MB domain, regardless of the methodology used. In this example, the subject was diagnosed with influenza A H3N2 via a nucleic acid amplification test (NAAT) at the baseline visit. MBTEST = \"Microbial Organism Identification\" because the assay does not specifically test for the presence of 1 organism or subtype to the exclusion of all others.", "score": 0.4546, "match_basis": "verbatim_token+global_search"}, {"md_atom_id": "md_dmMB_ex_a129", "md_file": "knowledge_base/domains/MB/examples.md", "md_atom_type": "SENTENCE", "md_parent_section": "§MB.3 [Example 3]", "md_verbatim": "**Row 3:** Shows a test targeting the presence or absence of M. tuberculosis complex using a genotyping method. Details about the assay can be found in the Device Identifiers (DI) domain. The value in SPDEVID links the genotype result to the assay information in the DI domain. The microbial detection certainty is represented as a supplemental qualifier. Because genotyping was used, the detection is considered to be definitive.", "score": 0.4284, "match_basis": "verbatim_token+global_search"}], "candidate_count": 5, "zero_candidate": false}
{"pdf_atom_id": "ig34_p0256_a014", "pdf_atom_type": "CODE_LITERAL", "pdf_source": "SDTMIG_v3.4", "pdf_page": 256, "pdf_parent_section": "§6.3.5.7.3 Microbiology Specimen/Microbiology Susceptibility Examples", "pdf_verbatim": "mb.xpt", "figure_ref": null, "candidates": [{"md_atom_id": "md_ch04_a207", "md_file": "knowledge_base/chapters/ch04_general_assumptions.md", "md_atom_type": "CODE_LITERAL", "md_parent_section": "§4.2.3 [Use of \"Subject\" and USUBJID]", "md_verbatim": "dm.xpt:", "score": 0.69, "match_basis": "verbatim_token+global_search"}, {"md_atom_id": "md_ch04_a210", "md_file": "knowledge_base/chapters/ch04_general_assumptions.md", "md_atom_type": "CODE_LITERAL", "md_parent_section": "§4.2.3 [Use of \"Subject\" and USUBJID]", "md_verbatim": "dm.xpt:", "score": 0.69, "match_basis": "verbatim_token+global_search"}, {"md_atom_id": "md_dmCM_ex_a010", "md_file": "knowledge_base/domains/CM/examples.md", "md_atom_type": "NOTE", "md_parent_section": "§CM.1 [Example 1]", "md_verbatim": "**cm.xpt**", "score": 0.69, "match_basis": "verbatim_token+global_search"}, {"md_atom_id": "md_dmCM_ex_a025", "md_file": "knowledge_base/domains/CM/examples.md", "md_atom_type": "NOTE", "md_parent_section": "§CM.2 [Example 2]", "md_verbatim": "**cm.xpt**", "score": 0.69, "match_basis": "verbatim_token+global_search"}, {"md_atom_id": "md_dmCM_ex_a042", "md_file": "knowledge_base/domains/CM/examples.md", "md_atom_type": "NOTE", "md_parent_section": "§CM.3 [Example 3]", "md_verbatim": "**cm.xpt**", "score": 0.69, "match_basis": "verbatim_token+global_search"}, {"md_atom_id": "md_dmCM_ex_a052", "md_file": "knowledge_base/domains/CM/examples.md", "md_atom_type": "NOTE", "md_parent_section": "§CM.4 [Example 4]", "md_verbatim": "**cm.xpt**", "score": 0.69, "match_basis": "verbatim_token+global_search"}, {"md_atom_id": "md_dmCM_ex_a070", "md_file": "knowledge_base/domains/CM/examples.md", "md_atom_type": "NOTE", "md_parent_section": "§CM.5 [Example 5]", "md_verbatim": "**cm.xpt**", "score": 0.69, "match_basis": "verbatim_token+global_search"}, {"md_atom_id": "md_ch04_a368", "md_file": "knowledge_base/chapters/ch04_general_assumptions.md", "md_atom_type": "CODE_LITERAL", "md_parent_section": "§4.2.8.3 [Multiple Values for a Non-result Qualifier Variable]", "md_verbatim": "ae.xpt:", "score": 0.69, "match_basis": "verbatim_token+global_search"}, {"md_atom_id": "md_ch04_a378", "md_file": "knowledge_base/chapters/ch04_general_assumptions.md", "md_atom_type": "CODE_LITERAL", "md_parent_section": "§4.2.8.3 [Multiple Values for a Non-result Qualifier Variable]", "md_verbatim": "ae.xpt:", "score": 0.69, "match_basis": "verbatim_token+global_search"}, {"md_atom_id": "md_ch04_a391", "md_file": "knowledge_base/chapters/ch04_general_assumptions.md", "md_atom_type": "CODE_LITERAL", "md_parent_section": "§4.2.8.3 [Multiple Values for a Non-result Qualifier Variable]", "md_verbatim": "ae.xpt:", "score": 0.69, "match_basis": "verbatim_token+global_search"}], "candidate_count": 10, "zero_candidate": false}
{"pdf_atom_id": "ig34_p0256_a015", "pdf_atom_type": "TABLE_HEADER", "pdf_source": "SDTMIG_v3.4", "pdf_page": 256, "pdf_parent_section": "§6.3.5.7.3 Microbiology Specimen/Microbiology Susceptibility Examples", "pdf_verbatim": "Row | STUDYID | DOMAIN | USUBJID | MBSEQ | MBREFID | MBLNKID | MBTESTCD | MBTEST | MBORRES | MBSTRESC | MBNAM | MBSPEC | MBLOC | MBMETHOD | VISITNUM | VISIT | MBDTC", "figure_ref": null, "candidates": [{"md_atom_id": "md_dmMB_ex_a019", "md_file": "knowledge_base/domains/MB/examples.md", "md_atom_type": "TABLE_HEADER", "md_parent_section": "§MB.1 [Example 1]", "md_verbatim": "| Row | STUDYID | DOMAIN | USUBJID | MBSEQ | MBREFID | MBLNKID | MBTESTCD | MBTEST | MBTSTDTL | MBORRES | MBSTRESC | MBSPEC | MBLOC | MBMETHOD | MBNAM | VISITNUM | VISIT | MBDTC |\n|-----|---------|--------|---------|-------|---------|---------|----------|--------|----------|---------|----------|--------|-------|----------|-------|----------|-------|-------|", "score": 0.8577, "match_basis": "verbatim_token+global_search"}, {"md_atom_id": "md_dmGF_ex_a087", "md_file": "knowledge_base/domains/GF/examples.md", "md_atom_type": "TABLE_HEADER", "md_parent_section": "§GF.5 [Example 5]", "md_verbatim": "| Row | STUDYID | DOMAIN | USUBJID | MBSEQ | MBREFID | MBTESTCD | MBTEST | MBORRES | MBSTRESC | MBSPEC | MBLOC | MBMETHOD | VISITNUM | VISIT | MBDTC |\n|-----|---------|--------|---------|-------|---------|----------|--------|---------|----------|--------|-------|----------|----------|-------|-------|", "score": 0.8364, "match_basis": "verbatim_token+global_search"}, {"md_atom_id": "md_dmMB_ex_a054", "md_file": "knowledge_base/domains/MB/examples.md", "md_atom_type": "TABLE_HEADER", "md_parent_section": "§MB.2 [Example 2]", "md_verbatim": "| Row | STUDYID | DOMAIN | USUBJID | MBSEQ | MBREFID | MBTESTCD | MBTEST | MBTSTDTL | MBORRES | MBRSLSCL | MBSTRESC | MBSPEC | MBLOC | MBMETHOD | VISITNUM | VISIT | MBDTC |\n|-----|---------|--------|---------|-------|---------|----------|--------|----------|---------|----------|----------|--------|-------|----------|----------|-------|-------|", "score": 0.7658, "match_basis": "verbatim_token+global_search"}, {"md_atom_id": "md_dmMB_ex_a134", "md_file": "knowledge_base/domains/MB/examples.md", "md_atom_type": "TABLE_HEADER", "md_parent_section": "§MB.3 [Example 3]", "md_verbatim": "| Row | STUDYID | DOMAIN | USUBJID | SPDEVID | MBSEQ | MBGRPID | MBREFID | MBLNKGRP | MBTESTCD | MBTEST | MBTSTDTL | MBORRES | MBRSLSCL | MBSTRESC | MBSTRESN | MBSTRESU | MBSPCND | MBSPEC | MBLOC | MBMETHOD | VISITNUM | VISIT | MBDTC |\n|-----|---------|--------|---------|---------|-------|---------|---------|----------|----------|--------|----------|---------|----------|----------|----------|----------|---------|--------|-------|----------|----------|-------|-------|", "score": 0.6935, "match_basis": "verbatim_token+global_search"}, {"md_atom_id": "md_dmLB_ex_a052", "md_file": "knowledge_base/domains/LB/examples.md", "md_atom_type": "TABLE_HEADER", "md_parent_section": "§LB.5 [Example 5]", "md_verbatim": "| Row | STUDYID | DOMAIN | USUBJID | LBSEQ | LBTESTCD | LBTEST | LBBDAGNT | LBCAT | LBORRES | LBORRESU | LBSTRESC | LBSTRESN | LBSTRESU | LBSPEC | LBMETHOD | LBDTC | VISITNUM | VISIT |\n|-----|---------|--------|---------|-------|----------|--------|----------|-------|---------|----------|----------|----------|----------|--------|----------|-------|----------|-------|", "score": 0.6366, "match_basis": "verbatim_token+global_search"}], "candidate_count": 5, "zero_candidate": false}
{"pdf_atom_id": "ig34_p0256_a016", "pdf_atom_type": "TABLE_ROW", "pdf_source": "SDTMIG_v3.4", "pdf_page": 256, "pdf_parent_section": "§6.3.5.7.3 Microbiology Specimen/Microbiology Susceptibility Examples", "pdf_verbatim": "1 | ABC | MB | ABC-001-002 | 1 | SPEC01 | 1 | MCORGIDN | Microbial Organism Identification | ENTEROCOCCUS FAECALIS | ENTEROCOCCUS FAECALIS | CENTRAL LAB ABC | FLUID | SKIN | MICROBIAL CULTURE, SOLID | 1 | VISIT 1 | 2005-07-21T08:00", "figure_ref": null, "candidates": [{"md_atom_id": "md_dmMB_ex_a020", "md_file": "knowledge_base/domains/MB/examples.md", "md_atom_type": "TABLE_ROW", "md_parent_section": "§MB.1 [Example 1]", "md_verbatim": "| 1 | ABC | MB | ABC-001-002 | 1 | SPEC01 | | MCORGIDN | Microbial Organism Identification | DETECTION | PRESENT | PRESENT | FLUID | SKIN | MICROBIAL CULTURE, SOLID | CENTRAL LAB ABC | 1 | VISIT 1 | 2005-06-19T08:00 |", "score": 0.7112, "match_basis": "verbatim_token+global_search"}, {"md_atom_id": "md_dmMB_ex_a021", "md_file": "knowledge_base/domains/MB/examples.md", "md_atom_type": "TABLE_ROW", "md_parent_section": "§MB.1 [Example 1]", "md_verbatim": "| 2 | ABC | MB | ABC-001-002 | 2 | SPEC01 | | MCORGIDN | Microbial Organism Identification | DETECTION | PRESENT | PRESENT | FLUID | SKIN | MICROBIAL CULTURE, SOLID | LOCAL LAB XYZ | 1 | VISIT 1 | 2005-06-19T08:00 |", "score": 0.6783, "match_basis": "verbatim_token+global_search"}, {"md_atom_id": "md_dmMB_ex_a062", "md_file": "knowledge_base/domains/MB/examples.md", "md_atom_type": "TABLE_ROW", "md_parent_section": "§MB.2 [Example 2]", "md_verbatim": "| 8 | ABC | MB | ABC-001-001 | 8 | SP03 | MCORGIDN | Microbial Organism Identification | | NO GROWTH | Nom | NO GROWTH | LUNG | | MICROBIAL CULTURE, SOLID | 3 | VISIT 3 | 2005-07-06T08:00 |", "score": 0.6101, "match_basis": "verbatim_token+global_search"}, {"md_atom_id": "md_dmMB_ex_a059", "md_file": "knowledge_base/domains/MB/examples.md", "md_atom_type": "TABLE_ROW", "md_parent_section": "§MB.2 [Example 2]", "md_verbatim": "| 5 | ABC | MB | ABC-001-001 | 5 | SP01 | MCORGIDN | Microbial Organism Identification | | STREPTOCOCCUS PNEUMONIAE | Nom | STREPTOCOCCUS PNEUMONIAE | LUNG | | MICROBIAL CULTURE, SOLID | 1 | VISIT 1 | 2005-06-19T08:00 |", "score": 0.6091, "match_basis": "verbatim_token+global_search"}, {"md_atom_id": "md_dmMB_ex_a060", "md_file": "knowledge_base/domains/MB/examples.md", "md_atom_type": "TABLE_ROW", "md_parent_section": "§MB.2 [Example 2]", "md_verbatim": "| 6 | ABC | MB | ABC-001-001 | 6 | SP01 | MCORGIDN | Microbial Organism Identification | | KLEBSIELLA PNEUMONIAE | Nom | KLEBSIELLA PNEUMONIAE | LUNG | | MICROBIAL CULTURE, SOLID | 1 | VISIT 1 | 2005-06-19T08:00 |", "score": 0.5733, "match_basis": "verbatim_token+global_search"}], "candidate_count": 5, "zero_candidate": false}
{"pdf_atom_id": "ig34_p0256_a017", "pdf_atom_type": "TABLE_ROW", "pdf_source": "SDTMIG_v3.4", "pdf_page": 256, "pdf_parent_section": "§6.3.5.7.3 Microbiology Specimen/Microbiology Susceptibility Examples", "pdf_verbatim": "2 | ABC | MB | ABC-001-002 | 2 | SPEC01 | 2 | MCORGIDN | Microbial Organism Identification | ENTEROCOCCUS FAECALIS | ENTEROCOCCUS FAECALIS | LOCAL LAB XYZ | FLUID | SKIN | MICROBIAL CULTURE, SOLID | 1 | VISIT 1 | 2005-07-21T08:00", "figure_ref": null, "candidates": [{"md_atom_id": "md_dmMB_ex_a021", "md_file": "knowledge_base/domains/MB/examples.md", "md_atom_type": "TABLE_ROW", "md_parent_section": "§MB.1 [Example 1]", "md_verbatim": "| 2 | ABC | MB | ABC-001-002 | 2 | SPEC01 | | MCORGIDN | Microbial Organism Identification | DETECTION | PRESENT | PRESENT | FLUID | SKIN | MICROBIAL CULTURE, SOLID | LOCAL LAB XYZ | 1 | VISIT 1 | 2005-06-19T08:00 |", "score": 0.7159, "match_basis": "verbatim_token+global_search"}, {"md_atom_id": "md_dmMB_ex_a020", "md_file": "knowledge_base/domains/MB/examples.md", "md_atom_type": "TABLE_ROW", "md_parent_section": "§MB.1 [Example 1]", "md_verbatim": "| 1 | ABC | MB | ABC-001-002 | 1 | SPEC01 | | MCORGIDN | Microbial Organism Identification | DETECTION | PRESENT | PRESENT | FLUID | SKIN | MICROBIAL CULTURE, SOLID | CENTRAL LAB ABC | 1 | VISIT 1 | 2005-06-19T08:00 |", "score": 0.6717, "match_basis": "verbatim_token+global_search"}, {"md_atom_id": "md_dmMB_ex_a062", "md_file": "knowledge_base/domains/MB/examples.md", "md_atom_type": "TABLE_ROW", "md_parent_section": "§MB.2 [Example 2]", "md_verbatim": "| 8 | ABC | MB | ABC-001-001 | 8 | SP03 | MCORGIDN | Microbial Organism Identification | | NO GROWTH | Nom | NO GROWTH | LUNG | | MICROBIAL CULTURE, SOLID | 3 | VISIT 3 | 2005-07-06T08:00 |", "score": 0.6136, "match_basis": "verbatim_token+global_search"}, {"md_atom_id": "md_dmMB_ex_a059", "md_file": "knowledge_base/domains/MB/examples.md", "md_atom_type": "TABLE_ROW", "md_parent_section": "§MB.2 [Example 2]", "md_verbatim": "| 5 | ABC | MB | ABC-001-001 | 5 | SP01 | MCORGIDN | Microbial Organism Identification | | STREPTOCOCCUS PNEUMONIAE | Nom | STREPTOCOCCUS PNEUMONIAE | LUNG | | MICROBIAL CULTURE, SOLID | 1 | VISIT 1 | 2005-06-19T08:00 |", "score": 0.6122, "match_basis": "verbatim_token+global_search"}, {"md_atom_id": "md_dmMB_ex_a060", "md_file": "knowledge_base/domains/MB/examples.md", "md_atom_type": "TABLE_ROW", "md_parent_section": "§MB.2 [Example 2]", "md_verbatim": "| 6 | ABC | MB | ABC-001-001 | 6 | SP01 | MCORGIDN | Microbial Organism Identification | | KLEBSIELLA PNEUMONIAE | Nom | KLEBSIELLA PNEUMONIAE | LUNG | | MICROBIAL CULTURE, SOLID | 1 | VISIT 1 | 2005-06-19T08:00 |", "score": 0.576, "match_basis": "verbatim_token+global_search"}], "candidate_count": 5, "zero_candidate": false}
{"pdf_atom_id": "ig34_p0256_a018", "pdf_atom_type": "SENTENCE", "pdf_source": "SDTMIG_v3.4", "pdf_page": 256, "pdf_parent_section": "§6.3.5.7.3 Microbiology Specimen/Microbiology Susceptibility Examples", "pdf_verbatim": "After E. faecalis was identified in the subject sample, drug susceptibility testing was performed at each of the labs using both the sponsor's investigational drug and amoxicillin.", "figure_ref": null, "candidates": [{"md_atom_id": "md_dmMB_ex_a008", "md_file": "knowledge_base/domains/MB/examples.md", "md_atom_type": "SENTENCE", "md_parent_section": "§MB.1 [Example 1]", "md_verbatim": "After E. faecalis was identified in the subject sample, drug susceptibility testing was performed at each of the labs using both the sponsor's investigational drug and amoxicillin.", "score": 0.9, "match_basis": "verbatim_token+global_search"}, {"md_atom_id": "md_dmMS_ex_a004", "md_file": "knowledge_base/domains/MS/examples.md", "md_atom_type": "SENTENCE", "md_parent_section": "§MS.1 [Example 1]", "md_verbatim": "This example shows susceptibility testing results following organism identification. After E. faecalis was identified in the subject sample (see MB Example 1), drug susceptibility testing was performed at each of the labs using both the sponsor's investigational drug and amoxicillin.", "score": 0.7552, "match_basis": "verbatim_token+global_search"}, {"md_atom_id": "md_dmMB_ex_a029", "md_file": "knowledge_base/domains/MB/examples.md", "md_atom_type": "SENTENCE", "md_parent_section": "§MB.2 [Example 2]", "md_verbatim": "The 2 organisms identified were also tested for susceptibility to both penicillin and the sponsor's study drug (MSAGENT).", "score": 0.5108, "match_basis": "verbatim_token+global_search"}, {"md_atom_id": "md_dmMS_ex_a007", "md_file": "knowledge_base/domains/MS/examples.md", "md_atom_type": "SENTENCE", "md_parent_section": "§MS.1 [Example 1]", "md_verbatim": "**Rows 7-10:** Show the diameter of the zone of inhibition and the interpretation result reported from Local Lab XYZ from a sample that was tested for susceptibility to the sponsor drug and amoxicillin using a disk diffusion test method.", "score": 0.5014, "match_basis": "verbatim_token+global_search"}, {"md_atom_id": "md_dmMS_ex_a005", "md_file": "knowledge_base/domains/MS/examples.md", "md_atom_type": "SENTENCE", "md_parent_section": "§MS.1 [Example 1]", "md_verbatim": "**Rows 1-4:** Show the minimum inhibitory concentration and the interpretation result reported from Central Lab ABC from a sample that was tested for susceptibility to the sponsor drug and amoxicillin, using an epsilometer test method.", "score": 0.4918, "match_basis": "verbatim_token+global_search"}], "candidate_count": 5, "zero_candidate": false}
{"pdf_atom_id": "ig34_p0256_a019", "pdf_atom_type": "SENTENCE", "pdf_source": "SDTMIG_v3.4", "pdf_page": 256, "pdf_parent_section": "§6.3.5.7.3 Microbiology Specimen/Microbiology Susceptibility Examples", "pdf_verbatim": "Because an identified organism is the subject of the test, the NHOID variable is populated with \"ENTEROCOCCUS FAECALIS\".", "figure_ref": null, "candidates": [{"md_atom_id": "md_dmMB_ex_a009", "md_file": "knowledge_base/domains/MB/examples.md", "md_atom_type": "SENTENCE", "md_parent_section": "§MB.1 [Example 1]", "md_verbatim": "Because an identified organism is the subject of the test, the NHOID variable is populated with \"ENTEROCOCCUS FAECALIS\".", "score": 0.9, "match_basis": "verbatim_token+global_search"}, {"md_atom_id": "md_dmIS_ex_a121", "md_file": "knowledge_base/domains/IS/examples.md", "md_atom_type": "SENTENCE", "md_parent_section": "§IS.9 [Example 9]", "md_verbatim": "NHOID is populated with Staphylococcus aureus 04-02981 because this strain of S. aureus is the subject of the vaccine efficacy test.", "score": 0.5, "match_basis": "verbatim_token+global_search"}, {"md_atom_id": "md_dmIS_ex_a110", "md_file": "knowledge_base/domains/IS/examples.md", "md_atom_type": "SENTENCE", "md_parent_section": "§IS.8 [Example 8]", "md_verbatim": "NHOID is populated with respiratory syncytial virus because this microorganism is the subject of the vaccine efficacy test.", "score": 0.4938, "match_basis": "verbatim_token+global_search"}, {"md_atom_id": "md_dmMB_ex_a005", "md_file": "knowledge_base/domains/MB/examples.md", "md_atom_type": "SENTENCE", "md_parent_section": "§MB.1 [Example 1]", "md_verbatim": "In this example, both a central and a local lab (MBNAM) independently identified Enterococcus faecalis (MBORRES) in a fluid specimen (MBSPEC) taken from the skin (MBLOC) of a subject at visit 1.", "score": 0.4513, "match_basis": "verbatim_token+global_search"}, {"md_atom_id": "md_dmMS_ex_a039", "md_file": "knowledge_base/domains/MS/examples.md", "md_atom_type": "SENTENCE", "md_parent_section": "§MS.3 [Example 3]", "md_verbatim": "Results from drug susceptibility tests performed on samples from the gastric TB study (see MB Example 3) are represented in the MS domain. This includes all phenotypic tests (where the drug is added directly to a culture medium) and genotypic tests (when the result is given as susceptible or resistant). In this example, the variable NHOID (Non-host Organism Identifier) is populated with the name of the organism that is the subject of the test.", "score": 0.442, "match_basis": "verbatim_token+global_search"}], "candidate_count": 5, "zero_candidate": false}
{"pdf_atom_id": "ig34_p0256_a020", "pdf_atom_type": "SENTENCE", "pdf_source": "SDTMIG_v3.4", "pdf_page": 256, "pdf_parent_section": "§6.3.5.7.3 Microbiology Specimen/Microbiology Susceptibility Examples", "pdf_verbatim": "Between the 2 labs (MSNAM), a total of 3 susceptibility testing methods were used: epsilometer, disk diffusion, and macro broth dilution (MSMETHOD).", "figure_ref": null, "candidates": [{"md_atom_id": "md_dmMB_ex_a010", "md_file": "knowledge_base/domains/MB/examples.md", "md_atom_type": "SENTENCE", "md_parent_section": "§MB.1 [Example 1]", "md_verbatim": "Between the 2 labs (MSNAM), a total of 3 susceptibility testing methods were used: epsilometer, disk diffusion, and macro broth dilution (MSMETHOD).", "score": 0.9, "match_basis": "verbatim_token+global_search"}, {"md_atom_id": "md_dmMS_ex_a007", "md_file": "knowledge_base/domains/MS/examples.md", "md_atom_type": "SENTENCE", "md_parent_section": "§MS.1 [Example 1]", "md_verbatim": "**Rows 7-10:** Show the diameter of the zone of inhibition and the interpretation result reported from Local Lab XYZ from a sample that was tested for susceptibility to the sponsor drug and amoxicillin using a disk diffusion test method.", "score": 0.45, "match_basis": "verbatim_token+global_search"}, {"md_atom_id": "md_dmMB_ex_a011", "md_file": "knowledge_base/domains/MB/examples.md", "md_atom_type": "SENTENCE", "md_parent_section": "§MB.1 [Example 1]", "md_verbatim": "Epsilometer and disk diffusion both use agar diffusion methods, in which an agar plate is inoculated with the microorganism of interest and either a strip (epsilometer) or discs (disk diffusion) containing various concentrations of the drug are placed on the agar plate.", "score": 0.4378, "match_basis": "verbatim_token+global_search"}, {"md_atom_id": "md_dmMS_ex_a005", "md_file": "knowledge_base/domains/MS/examples.md", "md_atom_type": "SENTENCE", "md_parent_section": "§MS.1 [Example 1]", "md_verbatim": "**Rows 1-4:** Show the minimum inhibitory concentration and the interpretation result reported from Central Lab ABC from a sample that was tested for susceptibility to the sponsor drug and amoxicillin, using an epsilometer test method.", "score": 0.4375, "match_basis": "verbatim_token+global_search"}, {"md_atom_id": "md_dmMB_ex_a014", "md_file": "knowledge_base/domains/MB/examples.md", "md_atom_type": "SENTENCE", "md_parent_section": "§MB.1 [Example 1]", "md_verbatim": "The disk diffusion test method provides the diameter of the zone of inhibition (MSTESTCD = \"DIAZOINH\") and a qualitative interpretation such as susceptible, intermediate, or resistant (MSTESTCD = \"MICROSUS\").", "score": 0.4374, "match_basis": "verbatim_token+global_search"}], "candidate_count": 5, "zero_candidate": false}
{"pdf_atom_id": "ig34_p0256_a021", "pdf_atom_type": "SENTENCE", "pdf_source": "SDTMIG_v3.4", "pdf_page": 256, "pdf_parent_section": "§6.3.5.7.3 Microbiology Specimen/Microbiology Susceptibility Examples", "pdf_verbatim": "Epsilometer and disk diffusion both use agar diffusion methods, in which an agar plate is inoculated with the microorganism of interest and either a strip (epsilometer) or discs (disk diffusion) containing various concentrations of the drug are placed on the agar plate.", "figure_ref": null, "candidates": [{"md_atom_id": "md_dmMB_ex_a011", "md_file": "knowledge_base/domains/MB/examples.md", "md_atom_type": "SENTENCE", "md_parent_section": "§MB.1 [Example 1]", "md_verbatim": "Epsilometer and disk diffusion both use agar diffusion methods, in which an agar plate is inoculated with the microorganism of interest and either a strip (epsilometer) or discs (disk diffusion) containing various concentrations of the drug are placed on the agar plate.", "score": 0.9, "match_basis": "verbatim_token+global_search"}, {"md_atom_id": "md_dmMB_ex_a012", "md_file": "knowledge_base/domains/MB/examples.md", "md_atom_type": "SENTENCE", "md_parent_section": "§MB.1 [Example 1]", "md_verbatim": "The epsilometer test method provides both a minimum inhibitory concentration (MSTESTCD = \"MIC\"), the lowest concentration of a drug that inhibits the growth of a microorganism, and a qualitative interpretation (MSTESTCD = \"MICROSUS\").", "score": 0.4833, "match_basis": "verbatim_token+global_search"}, {"md_atom_id": "md_dmMB_ex_a010", "md_file": "knowledge_base/domains/MB/examples.md", "md_atom_type": "SENTENCE", "md_parent_section": "§MB.1 [Example 1]", "md_verbatim": "Between the 2 labs (MSNAM), a total of 3 susceptibility testing methods were used: epsilometer, disk diffusion, and macro broth dilution (MSMETHOD).", "score": 0.4378, "match_basis": "verbatim_token+global_search"}, {"md_atom_id": "md_dmMS_ex_a005", "md_file": "knowledge_base/domains/MS/examples.md", "md_atom_type": "SENTENCE", "md_parent_section": "§MS.1 [Example 1]", "md_verbatim": "**Rows 1-4:** Show the minimum inhibitory concentration and the interpretation result reported from Central Lab ABC from a sample that was tested for susceptibility to the sponsor drug and amoxicillin, using an epsilometer test method.", "score": 0.4309, "match_basis": "verbatim_token+global_search"}, {"md_atom_id": "md_dmPC_ex_a059", "md_file": "knowledge_base/domains/PC/examples.md", "md_atom_type": "SENTENCE", "md_parent_section": "§PC.2.2 [PC-PP Relating Records]", "md_verbatim": "The different methods for representing relationships are based on which linking variables are used in RELREC:", "score": 0.4134, "match_basis": "verbatim_token+global_search"}], "candidate_count": 5, "zero_candidate": false}
{"pdf_atom_id": "ig34_p0256_a022", "pdf_atom_type": "SENTENCE", "pdf_source": "SDTMIG_v3.4", "pdf_page": 256, "pdf_parent_section": "§6.3.5.7.3 Microbiology Specimen/Microbiology Susceptibility Examples", "pdf_verbatim": "The epsilometer test method provides both a minimum inhibitory concentration (MSTESTCD = \"MIC\"), the lowest concentration of a drug that inhibits the growth of a microorganism, and a qualitative interpretation (MSTESTCD = \"MICROSUS\") such as susceptible, intermediate, or resistant.", "figure_ref": null, "candidates": [{"md_atom_id": "md_dmMB_ex_a012", "md_file": "knowledge_base/domains/MB/examples.md", "md_atom_type": "SENTENCE", "md_parent_section": "§MB.1 [Example 1]", "md_verbatim": "The epsilometer test method provides both a minimum inhibitory concentration (MSTESTCD = \"MIC\"), the lowest concentration of a drug that inhibits the growth of a microorganism, and a qualitative interpretation (MSTESTCD = \"MICROSUS\").", "score": 0.7769, "match_basis": "verbatim_token+global_search"}, {"md_atom_id": "md_dmMB_ex_a014", "md_file": "knowledge_base/domains/MB/examples.md", "md_atom_type": "SENTENCE", "md_parent_section": "§MB.1 [Example 1]", "md_verbatim": "The disk diffusion test method provides the diameter of the zone of inhibition (MSTESTCD = \"DIAZOINH\") and a qualitative interpretation such as susceptible, intermediate, or resistant (MSTESTCD = \"MICROSUS\").", "score": 0.6269, "match_basis": "verbatim_token+global_search"}, {"md_atom_id": "md_dmMS_ex_a005", "md_file": "knowledge_base/domains/MS/examples.md", "md_atom_type": "SENTENCE", "md_parent_section": "§MS.1 [Example 1]", "md_verbatim": "**Rows 1-4:** Show the minimum inhibitory concentration and the interpretation result reported from Central Lab ABC from a sample that was tested for susceptibility to the sponsor drug and amoxicillin, using an epsilometer test method.", "score": 0.5363, "match_basis": "verbatim_token+global_search"}, {"md_atom_id": "md_dmMS_ex_a025", "md_file": "knowledge_base/domains/MS/examples.md", "md_atom_type": "SENTENCE", "md_parent_section": "§MS.2 [Example 2]", "md_verbatim": "**Rows 9-10:** A test against \"KLEBSIELLA PNEUMONIAE\" from an additional sample at a later time point showed little change in the minimum inhibitory concentration of penicillin, and that the organism is still classified as having intermediate resistance to penicillin.", "score": 0.4746, "match_basis": "verbatim_token+global_search"}, {"md_atom_id": "md_dmMS_ex_a022", "md_file": "knowledge_base/domains/MS/examples.md", "md_atom_type": "SENTENCE", "md_parent_section": "§MS.2 [Example 2]", "md_verbatim": "**Rows 1-2:** Show that the sponsor drug (MSAGENT) was tested against \"STREPTOCOCCUS PNEUMONIAE\" (NHOID) from subject sample SP01 and that the drug has a minimum inhibitory concentration (MSTESTCD/MSTEST) of 0.004 mg/L (row 1). This led to the conclusion that this organism is susceptible to that drug (row 2).", "score": 0.4733, "match_basis": "verbatim_token+global_search"}], "candidate_count": 5, "zero_candidate": false}
{"pdf_atom_id": "ig34_p0256_a023", "pdf_atom_type": "SENTENCE", "pdf_source": "SDTMIG_v3.4", "pdf_page": 256, "pdf_parent_section": "§6.3.5.7.3 Microbiology Specimen/Microbiology Susceptibility Examples", "pdf_verbatim": "The disk diffusion test method provides the diameter of the zone of inhibition", "figure_ref": null, "candidates": [{"md_atom_id": "md_dmMB_ex_a014", "md_file": "knowledge_base/domains/MB/examples.md", "md_atom_type": "SENTENCE", "md_parent_section": "§MB.1 [Example 1]", "md_verbatim": "The disk diffusion test method provides the diameter of the zone of inhibition (MSTESTCD = \"DIAZOINH\") and a qualitative interpretation such as susceptible, intermediate, or resistant (MSTESTCD = \"MICROSUS\").", "score": 0.54, "match_basis": "verbatim_token+global_search"}, {"md_atom_id": "md_dmMS_ex_a007", "md_file": "knowledge_base/domains/MS/examples.md", "md_atom_type": "SENTENCE", "md_parent_section": "§MS.1 [Example 1]", "md_verbatim": "**Rows 7-10:** Show the diameter of the zone of inhibition and the interpretation result reported from Local Lab XYZ from a sample that was tested for susceptibility to the sponsor drug and amoxicillin using a disk diffusion test method.", "score": 0.4714, "match_basis": "verbatim_token+global_search"}, {"md_atom_id": "md_dmMB_ex_a010", "md_file": "knowledge_base/domains/MB/examples.md", "md_atom_type": "SENTENCE", "md_parent_section": "§MB.1 [Example 1]", "md_verbatim": "Between the 2 labs (MSNAM), a total of 3 susceptibility testing methods were used: epsilometer, disk diffusion, and macro broth dilution (MSMETHOD).", "score": 0.4379, "match_basis": "verbatim_token+global_search"}, {"md_atom_id": "md_dmMB_ex_a012", "md_file": "knowledge_base/domains/MB/examples.md", "md_atom_type": "SENTENCE", "md_parent_section": "§MB.1 [Example 1]", "md_verbatim": "The epsilometer test method provides both a minimum inhibitory concentration (MSTESTCD = \"MIC\"), the lowest concentration of a drug that inhibits the growth of a microorganism, and a qualitative interpretation (MSTESTCD = \"MICROSUS\").", "score": 0.4234, "match_basis": "verbatim_token+global_search"}, {"md_atom_id": "md_dmMB_ex_a011", "md_file": "knowledge_base/domains/MB/examples.md", "md_atom_type": "SENTENCE", "md_parent_section": "§MB.1 [Example 1]", "md_verbatim": "Epsilometer and disk diffusion both use agar diffusion methods, in which an agar plate is inoculated with the microorganism of interest and either a strip (epsilometer) or discs (disk diffusion) containing various concentrations of the drug are placed on the agar plate.", "score": 0.3956, "match_basis": "verbatim_token+global_search"}], "candidate_count": 5, "zero_candidate": false}
{"pdf_atom_id": "ig34_p0257_a001", "pdf_atom_type": "SENTENCE", "pdf_source": "SDTMIG_v3.4", "pdf_page": 257, "pdf_parent_section": "§6.3.5.7.3 Microbiology Specimen/Microbiology Susceptibility Examples", "pdf_verbatim": "(MSTESTCD = \"DIAZOINH\") and a qualitative interpretation such as susceptible, intermediate, or resistant (MSTESTCD = \" MICROSUS\" ). The quantitative and qualitative results are grouped together using MSGRPID.", "figure_ref": null, "candidates": [{"md_atom_id": "md_dmMB_ex_a014", "md_file": "knowledge_base/domains/MB/examples.md", "md_atom_type": "SENTENCE", "md_parent_section": "§MB.1 [Example 1]", "md_verbatim": "The disk diffusion test method provides the diameter of the zone of inhibition (MSTESTCD = \"DIAZOINH\") and a qualitative interpretation such as susceptible, intermediate, or resistant (MSTESTCD = \"MICROSUS\").", "score": 0.6368, "match_basis": "verbatim_token+global_search"}, {"md_atom_id": "md_dmMB_ex_a013", "md_file": "knowledge_base/domains/MB/examples.md", "md_atom_type": "SENTENCE", "md_parent_section": "§MB.1 [Example 1]", "md_verbatim": "The quantitative and qualitative results are grouped together using MSGRPID.", "score": 0.5659, "match_basis": "verbatim_token+global_search"}, {"md_atom_id": "md_dmSR_ex_a068", "md_file": "knowledge_base/domains/SR/examples.md", "md_atom_type": "SENTENCE", "md_parent_section": "§SR.3 [Example 3]", "md_verbatim": "**Row 3:** Shows the interpretation of the tuberculin PPD skin test. SRGRPID is used to tie together the results to the interpretation.", "score": 0.4556, "match_basis": "verbatim_token+global_search"}, {"md_atom_id": "md_dmMB_ex_a012", "md_file": "knowledge_base/domains/MB/examples.md", "md_atom_type": "SENTENCE", "md_parent_section": "§MB.1 [Example 1]", "md_verbatim": "The epsilometer test method provides both a minimum inhibitory concentration (MSTESTCD = \"MIC\"), the lowest concentration of a drug that inhibits the growth of a microorganism, and a qualitative interpretation (MSTESTCD = \"MICROSUS\").", "score": 0.449, "match_basis": "verbatim_token+global_search"}, {"md_atom_id": "md_dmMS_ex_a007", "md_file": "knowledge_base/domains/MS/examples.md", "md_atom_type": "SENTENCE", "md_parent_section": "§MS.1 [Example 1]", "md_verbatim": "**Rows 7-10:** Show the diameter of the zone of inhibition and the interpretation result reported from Local Lab XYZ from a sample that was tested for susceptibility to the sponsor drug and amoxicillin using a disk diffusion test method.", "score": 0.4382, "match_basis": "verbatim_token+global_search"}], "candidate_count": 5, "zero_candidate": false}
{"pdf_atom_id": "ig34_p0257_a002", "pdf_atom_type": "SENTENCE", "pdf_source": "SDTMIG_v3.4", "pdf_page": 257, "pdf_parent_section": "§6.3.5.7.3 Microbiology Specimen/Microbiology Susceptibility Examples", "pdf_verbatim": "The third method, macro broth dilution, was used to test the specimen at a predefined drug concentration of each of the drugs. When the drug and amount are a predefined part of the test, the variable MSAGENT is populated with the name of the drug being used in the susceptibility test. The variables MSCONC and MSCONCU represent the concentration and units of the drug being used.", "figure_ref": null, "candidates": [{"md_atom_id": "md_dmMB_ex_a016", "md_file": "knowledge_base/domains/MB/examples.md", "md_atom_type": "SENTENCE", "md_parent_section": "§MB.1 [Example 1]", "md_verbatim": "When the drug and amount are a predefined part of the test, the variable MSAGENT is populated with the name of the drug being used in the susceptibility test.", "score": 0.6351, "match_basis": "verbatim_token+global_search"}, {"md_atom_id": "md_dmMB_ex_a015", "md_file": "knowledge_base/domains/MB/examples.md", "md_atom_type": "SENTENCE", "md_parent_section": "§MB.1 [Example 1]", "md_verbatim": "The third method, macro broth dilution, was used to test the specimen at a predefined drug concentration of each of the drugs.", "score": 0.5865, "match_basis": "verbatim_token+global_search"}, {"md_atom_id": "md_dmMS_ex_a040", "md_file": "knowledge_base/domains/MS/examples.md", "md_atom_type": "SENTENCE", "md_parent_section": "§MS.3 [Example 3]", "md_verbatim": "**Rows 1-2:** Show phenotypic testing results on 2 separate culture plates: 1 with medium containing rifampicin (row 1) and 1 with medium containing isoniazid (row 2). MSAGENT is populated with the name of the drug being used in the susceptibility test. The variables MSCONC and MSCONCU represent the concentration and units of the drug being used. The culture start and stop dates are represented in BE and can be linked to MS by BELNKID and MSLNKID.", "score": 0.5427, "match_basis": "verbatim_token+global_search"}, {"md_atom_id": "md_dmMB_ex_a017", "md_file": "knowledge_base/domains/MB/examples.md", "md_atom_type": "SENTENCE", "md_parent_section": "§MB.1 [Example 1]", "md_verbatim": "The variables MSCONC and MSCONCU represent the concentration and units of the drug being used.", "score": 0.5108, "match_basis": "verbatim_token+global_search"}, {"md_atom_id": "md_dmMS_ex_a041", "md_file": "knowledge_base/domains/MS/examples.md", "md_atom_type": "SENTENCE", "md_parent_section": "§MS.3 [Example 3]", "md_verbatim": "**Rows 3-4:** Show genotypic susceptibility testing results on the same aliquot from a NAAT that looks for mutations that confer resistance to 2 drugs. MSAGENT should be populated with the name of the drug whose action is affected by the mutation being tested for. However, because the drug is not used in the test, MSCONC and MSCONCU should be null. These results are represented in MS because the only result given is in terms of resistant/susceptible; no genetic results are reported.", "score": 0.471, "match_basis": "verbatim_token+global_search"}], "candidate_count": 5, "zero_candidate": false}
{"pdf_atom_id": "ig34_p0257_a003", "pdf_atom_type": "LIST_ITEM", "pdf_source": "SDTMIG_v3.4", "pdf_page": 257, "pdf_parent_section": "§6.3.5.7.3 Microbiology Specimen/Microbiology Susceptibility Examples", "pdf_verbatim": "Rows 1-4: Show the minimum inhibitory concentration and the interpretation result reported from Central Lab ABC from a sample that was tested for susceptibility to the sponsor drug and amoxicillin, using an epsilometer test method.", "figure_ref": null, "candidates": [{"md_atom_id": "md_dmMS_ex_a005", "md_file": "knowledge_base/domains/MS/examples.md", "md_atom_type": "SENTENCE", "md_parent_section": "§MS.1 [Example 1]", "md_verbatim": "**Rows 1-4:** Show the minimum inhibitory concentration and the interpretation result reported from Central Lab ABC from a sample that was tested for susceptibility to the sponsor drug and amoxicillin, using an epsilometer test method.", "score": 0.81, "match_basis": "verbatim_token+global_search"}, {"md_atom_id": "md_dmMS_ex_a007", "md_file": "knowledge_base/domains/MS/examples.md", "md_atom_type": "SENTENCE", "md_parent_section": "§MS.1 [Example 1]", "md_verbatim": "**Rows 7-10:** Show the diameter of the zone of inhibition and the interpretation result reported from Local Lab XYZ from a sample that was tested for susceptibility to the sponsor drug and amoxicillin using a disk diffusion test method.", "score": 0.61, "match_basis": "verbatim_token+global_search"}, {"md_atom_id": "md_dmMS_assn_a005", "md_file": "knowledge_base/domains/MS/assumptions.md", "md_atom_type": "LIST_ITEM", "md_parent_section": "§MS [MS — Assumptions]", "md_verbatim": "      ii. For studies using quantitative testing methods, MSAGENT is used to represent the drug being tested; MSCONC and MSCONCU are not used. The concentration at which growth is inhibited is the result in these cases (MSORRES, MSSTRESC/MSSTRESN), with units being represented in MSORRESU/MSSTRESU.", "score": 0.4546, "match_basis": "verbatim_token+global_search"}, {"md_atom_id": "md_dmMS_ex_a006", "md_file": "knowledge_base/domains/MS/examples.md", "md_atom_type": "SENTENCE", "md_parent_section": "§MS.1 [Example 1]", "md_verbatim": "**Rows 5-6:** Show that Local Lab XYZ found that the sample was susceptible to the sponsor drug at a concentration of 0.5 ug/dL and resistant to amoxicillin at a concentration of 0.5 ug/dL.", "score": 0.453, "match_basis": "verbatim_token+global_search"}, {"md_atom_id": "md_dmMS_assn_a004", "md_file": "knowledge_base/domains/MS/assumptions.md", "md_atom_type": "LIST_ITEM", "md_parent_section": "§MS [MS — Assumptions]", "md_verbatim": "      i. For studies using qualitative testing methods, MSAGENT, MSCONC, and MSCONCU are used to represent the predefined drug, concentration, and units, respectively. Results are represented with values such as \"SUSCEPTIBLE\" or \"RESISTANT\".", "score": 0.4509, "match_basis": "verbatim_token+global_search"}], "candidate_count": 5, "zero_candidate": false}
{"pdf_atom_id": "ig34_p0257_a004", "pdf_atom_type": "LIST_ITEM", "pdf_source": "SDTMIG_v3.4", "pdf_page": 257, "pdf_parent_section": "§6.3.5.7.3 Microbiology Specimen/Microbiology Susceptibility Examples", "pdf_verbatim": "Rows 5-6: Show that Local Lab XYZ found that the sample was susceptible to the sponsor drug at a concentration of 0.5 ug/dL and resistant to amoxicillin at a concentration of 0.5 ug/dL.", "figure_ref": null, "candidates": [{"md_atom_id": "md_dmMS_ex_a006", "md_file": "knowledge_base/domains/MS/examples.md", "md_atom_type": "SENTENCE", "md_parent_section": "§MS.1 [Example 1]", "md_verbatim": "**Rows 5-6:** Show that Local Lab XYZ found that the sample was susceptible to the sponsor drug at a concentration of 0.5 ug/dL and resistant to amoxicillin at a concentration of 0.5 ug/dL.", "score": 0.81, "match_basis": "verbatim_token+global_search"}, {"md_atom_id": "md_dmMS_ex_a005", "md_file": "knowledge_base/domains/MS/examples.md", "md_atom_type": "SENTENCE", "md_parent_section": "§MS.1 [Example 1]", "md_verbatim": "**Rows 1-4:** Show the minimum inhibitory concentration and the interpretation result reported from Central Lab ABC from a sample that was tested for susceptibility to the sponsor drug and amoxicillin, using an epsilometer test method.", "score": 0.453, "match_basis": "verbatim_token+global_search"}, {"md_atom_id": "md_dmMS_ex_a007", "md_file": "knowledge_base/domains/MS/examples.md", "md_atom_type": "SENTENCE", "md_parent_section": "§MS.1 [Example 1]", "md_verbatim": "**Rows 7-10:** Show the diameter of the zone of inhibition and the interpretation result reported from Local Lab XYZ from a sample that was tested for susceptibility to the sponsor drug and amoxicillin using a disk diffusion test method.", "score": 0.4388, "match_basis": "verbatim_token+global_search"}, {"md_atom_id": "md_dmMS_assn_a004", "md_file": "knowledge_base/domains/MS/assumptions.md", "md_atom_type": "LIST_ITEM", "md_parent_section": "§MS [MS — Assumptions]", "md_verbatim": "      i. For studies using qualitative testing methods, MSAGENT, MSCONC, and MSCONCU are used to represent the predefined drug, concentration, and units, respectively. Results are represented with values such as \"SUSCEPTIBLE\" or \"RESISTANT\".", "score": 0.4368, "match_basis": "verbatim_token+global_search"}, {"md_atom_id": "md_dmMS_assn_a003", "md_file": "knowledge_base/domains/MS/assumptions.md", "md_atom_type": "LIST_ITEM", "md_parent_section": "§MS [MS — Assumptions]", "md_verbatim": "   a. Phenotypic drug susceptibility testing (qualitative), which may involve determining susceptibility/resistance (qualitative) at a predefined concentration of drug, or determining a specific dose (quantitative) at which a drug inhibits organism growth or some other process associated with virulence.", "score": 0.4055, "match_basis": "verbatim_token+global_search"}], "candidate_count": 5, "zero_candidate": false}
