{"pdf_atom_id": "ig34_p0068_a016", "pdf_atom_type": "HEADING", "pdf_source": "SDTMIG_v3.4", "pdf_page": 68, "pdf_parent_section": "§5.2 [DM – Examples]", "pdf_verbatim": "ARMCD Example Table", "figure_ref": null, "candidates": [{"md_atom_id": "md_dmDM_ex_a002", "md_file": "knowledge_base/domains/DM/examples.md", "md_atom_type": "HEADING", "md_parent_section": "§DM [DM — Examples]", "md_verbatim": "## Example 1", "score": 0.6727, "match_basis": "verbatim_token+domain_route:DM"}, {"md_atom_id": "md_dmDM_ex_a011", "md_file": "knowledge_base/domains/DM/examples.md", "md_atom_type": "HEADING", "md_parent_section": "§DM [DM — Examples]", "md_verbatim": "## Example 2", "score": 0.6727, "match_basis": "verbatim_token+domain_route:DM"}, {"md_atom_id": "md_dmDM_ex_a043", "md_file": "knowledge_base/domains/DM/examples.md", "md_atom_type": "HEADING", "md_parent_section": "§DM [DM — Examples]", "md_verbatim": "## Example 3", "score": 0.6727, "match_basis": "verbatim_token+domain_route:DM"}, {"md_atom_id": "md_dmDM_ex_a066", "md_file": "knowledge_base/domains/DM/examples.md", "md_atom_type": "HEADING", "md_parent_section": "§DM [DM — Examples]", "md_verbatim": "## Example 4", "score": 0.6727, "match_basis": "verbatim_token+domain_route:DM"}, {"md_atom_id": "md_dmDM_ex_a117", "md_file": "knowledge_base/domains/DM/examples.md", "md_atom_type": "HEADING", "md_parent_section": "§DM [DM — Examples]", "md_verbatim": "## Example 5", "score": 0.6727, "match_basis": "verbatim_token+domain_route:DM"}], "candidate_count": 5, "zero_candidate": false}
{"pdf_atom_id": "ig34_p0068_a017", "pdf_atom_type": "TABLE_HEADER", "pdf_source": "SDTMIG_v3.4", "pdf_page": 68, "pdf_parent_section": "§5.2 [DM – Examples]", "pdf_verbatim": "ARMCD Example table with columns: Row, STUDYID, DOMAIN, USUBJID, ARMCD, ARM, ACTARMCD, ACTARM, ARMNRS, ACTARMNRS", "figure_ref": "pdf_p0068+bottom", "candidates": [{"md_atom_id": "md_dmDM_ex_a019", "md_file": "knowledge_base/domains/DM/examples.md", "md_atom_type": "TABLE_HEADER", "md_parent_section": "§DM.2 [Example 2]", "md_verbatim": "| Row | STUDYID | DOMAIN | USUBJID | ARMCD | ARM | ACTARMCD | ACTARM | ARMNRS | ACTARMUD |\n|-----|---------|--------|---------|-------|-----|----------|--------|--------|----------|", "score": 0.7512, "match_basis": "verbatim_token+domain_route:DM"}, {"md_atom_id": "md_dmDM_ex_a048", "md_file": "knowledge_base/domains/DM/examples.md", "md_atom_type": "TABLE_HEADER", "md_parent_section": "§DM.3 [Example 3]", "md_verbatim": "| Row | STUDYID | DOMAIN | USUBJID | ARMCD | ARM | ACTARMCD | ACTARM | ARMNRS | ACTARMUD |\n|-----|---------|--------|---------|-------|-----|----------|--------|--------|----------|", "score": 0.7512, "match_basis": "verbatim_token+domain_route:DM"}, {"md_atom_id": "md_dmDM_ex_a103", "md_file": "knowledge_base/domains/DM/examples.md", "md_atom_type": "TABLE_HEADER", "md_parent_section": "§DM.4 [Example 4]", "md_verbatim": "| Row | STUDYID | DOMAIN | USUBJID | SUBJID | RACE |\n|-----|---------|--------|---------|--------|------|", "score": 0.6195, "match_basis": "verbatim_token+domain_route:DM"}, {"md_atom_id": "md_dmDM_ex_a160", "md_file": "knowledge_base/domains/DM/examples.md", "md_atom_type": "TABLE_HEADER", "md_parent_section": "§DM.6 [Example 6]", "md_verbatim": "| Row | STUDYID | DOMAIN | USUBJID | SUBJID | RACE |\n|-----|---------|--------|---------|--------|------|", "score": 0.6195, "match_basis": "verbatim_token+domain_route:DM"}, {"md_atom_id": "md_dmDM_ex_a125", "md_file": "knowledge_base/domains/DM/examples.md", "md_atom_type": "TABLE_HEADER", "md_parent_section": "§DM.5 [Example 5]", "md_verbatim": "| Row | STUDYID | DOMAIN | USUBJID | SUBJID | AGE | AGEU | SEX | RACE | ETHNIC |\n|-----|---------|--------|---------|--------|-----|------|-----|------|--------|", "score": 0.5875, "match_basis": "verbatim_token+domain_route:DM"}], "candidate_count": 5, "zero_candidate": false}
{"pdf_atom_id": "ig34_p0068_a018", "pdf_atom_type": "TABLE_ROW", "pdf_source": "SDTMIG_v3.4", "pdf_page": 68, "pdf_parent_section": "§5.2 [DM – Examples]", "pdf_verbatim": "1 | ABC | DM | 001 | A | Drug A | A | Drug A | |", "figure_ref": null, "candidates": [{"md_atom_id": "md_dmDM_ex_a020", "md_file": "knowledge_base/domains/DM/examples.md", "md_atom_type": "TABLE_ROW", "md_parent_section": "§DM.2 [Example 2]", "md_verbatim": "| 1 | ABC | DM | 001 | A | Drug A | A | Drug A | | |", "score": 1.0, "match_basis": "verbatim_token+domain_route:DM"}, {"md_atom_id": "md_dmDM_ex_a034", "md_file": "knowledge_base/domains/DM/examples.md", "md_atom_type": "TABLE_ROW", "md_parent_section": "§DM.2 [Example 2]", "md_verbatim": "| 3 | ABC | SE | 001 | 3 | A | Drug A | 2006-06-21 | 2006-07-05 |", "score": 0.8, "match_basis": "verbatim_token+domain_route:DM"}, {"md_atom_id": "md_dmDM_ex_a021", "md_file": "knowledge_base/domains/DM/examples.md", "md_atom_type": "TABLE_ROW", "md_parent_section": "§DM.2 [Example 2]", "md_verbatim": "| 2 | ABC | DM | 002 | B | Drug B | B | Drug B | | |", "score": 0.76, "match_basis": "verbatim_token+domain_route:DM"}, {"md_atom_id": "md_dmDM_ex_a037", "md_file": "knowledge_base/domains/DM/examples.md", "md_atom_type": "TABLE_ROW", "md_parent_section": "§DM.2 [Example 2]", "md_verbatim": "| 6 | ABC | SE | 002 | 3 | B | Drug B | 2006-05-24 | 2006-06-07 |", "score": 0.6571, "match_basis": "verbatim_token+domain_route:DM"}, {"md_atom_id": "md_dmDM_ex_a060", "md_file": "knowledge_base/domains/DM/examples.md", "md_atom_type": "TABLE_ROW", "md_parent_section": "§DM.3 [Example 3]", "md_verbatim": "| 3 | DEF | SE | 001 | 3 | OA | Open Drug A | 2006-04-10 | 2006-07-05 |", "score": 0.6, "match_basis": "verbatim_token+domain_route:DM"}, {"md_atom_id": "md_dmDM_ex_a033", "md_file": "knowledge_base/domains/DM/examples.md", "md_atom_type": "TABLE_ROW", "md_parent_section": "§DM.2 [Example 2]", "md_verbatim": "| 2 | ABC | SE | 001 | 2 | RI | Run-In | 2006-06-07 | 2006-06-21 |", "score": 0.5714, "match_basis": "verbatim_token+domain_route:DM"}, {"md_atom_id": "md_dmDM_ex_a032", "md_file": "knowledge_base/domains/DM/examples.md", "md_atom_type": "TABLE_ROW", "md_parent_section": "§DM.2 [Example 2]", "md_verbatim": "| 1 | ABC | SE | 001 | 1 | SCRN | Screen | 2006-06-01 | 2006-06-07 |", "score": 0.5091, "match_basis": "verbatim_token+domain_route:DM"}, {"md_atom_id": "md_dmDM_ex_a161", "md_file": "knowledge_base/domains/DM/examples.md", "md_atom_type": "TABLE_ROW", "md_parent_section": "§DM.6 [Example 6]", "md_verbatim": "| 1 | ABC789 | DM | ABC789-010-001 | 010-001 | ASIAN |", "score": 0.5091, "match_basis": "verbatim_token+domain_route:DM"}, {"md_atom_id": "md_dmDM_ex_a024", "md_file": "knowledge_base/domains/DM/examples.md", "md_atom_type": "TABLE_ROW", "md_parent_section": "§DM.2 [Example 2]", "md_verbatim": "| 5 | ABC | DM | 005 | A | Drug A | | | ASSIGNED, NOT TREATED | |", "score": 0.5059, "match_basis": "verbatim_token+domain_route:DM"}, {"md_atom_id": "md_dmDM_ex_a049", "md_file": "knowledge_base/domains/DM/examples.md", "md_atom_type": "TABLE_ROW", "md_parent_section": "§DM.3 [Example 3]", "md_verbatim": "| 1 | DEF | DM | 001 | AA | A-OPEN A | AA | A-OPEN A | | |", "score": 0.4857, "match_basis": "verbatim_token+domain_route:DM"}], "candidate_count": 10, "zero_candidate": false}
{"pdf_atom_id": "ig34_p0068_a019", "pdf_atom_type": "TABLE_ROW", "pdf_source": "SDTMIG_v3.4", "pdf_page": 68, "pdf_parent_section": "§5.2 [DM – Examples]", "pdf_verbatim": "2 | ABC | DM | 002 | B | Drug B | B | Drug B | |", "figure_ref": null, "candidates": [{"md_atom_id": "md_dmDM_ex_a021", "md_file": "knowledge_base/domains/DM/examples.md", "md_atom_type": "TABLE_ROW", "md_parent_section": "§DM.2 [Example 2]", "md_verbatim": "| 2 | ABC | DM | 002 | B | Drug B | B | Drug B | | |", "score": 1.0, "match_basis": "verbatim_token+domain_route:DM"}, {"md_atom_id": "md_dmDM_ex_a037", "md_file": "knowledge_base/domains/DM/examples.md", "md_atom_type": "TABLE_ROW", "md_parent_section": "§DM.2 [Example 2]", "md_verbatim": "| 6 | ABC | SE | 002 | 3 | B | Drug B | 2006-05-24 | 2006-06-07 |", "score": 0.8, "match_basis": "verbatim_token+domain_route:DM"}, {"md_atom_id": "md_dmDM_ex_a020", "md_file": "knowledge_base/domains/DM/examples.md", "md_atom_type": "TABLE_ROW", "md_parent_section": "§DM.2 [Example 2]", "md_verbatim": "| 1 | ABC | DM | 001 | A | Drug A | A | Drug A | | |", "score": 0.76, "match_basis": "verbatim_token+domain_route:DM"}, {"md_atom_id": "md_dmDM_ex_a034", "md_file": "knowledge_base/domains/DM/examples.md", "md_atom_type": "TABLE_ROW", "md_parent_section": "§DM.2 [Example 2]", "md_verbatim": "| 3 | ABC | SE | 001 | 3 | A | Drug A | 2006-06-21 | 2006-07-05 |", "score": 0.6571, "match_basis": "verbatim_token+domain_route:DM"}, {"md_atom_id": "md_dmDM_ex_a036", "md_file": "knowledge_base/domains/DM/examples.md", "md_atom_type": "TABLE_ROW", "md_parent_section": "§DM.2 [Example 2]", "md_verbatim": "| 5 | ABC | SE | 002 | 2 | RI | Run-In | 2006-05-10 | 2006-05-24 |", "score": 0.5714, "match_basis": "verbatim_token+domain_route:DM"}, {"md_atom_id": "md_dmDM_ex_a050", "md_file": "knowledge_base/domains/DM/examples.md", "md_atom_type": "TABLE_ROW", "md_parent_section": "§DM.3 [Example 3]", "md_verbatim": "| 2 | DEF | DM | 002 | A | A | A | A | | |", "score": 0.52, "match_basis": "verbatim_token+domain_route:DM"}, {"md_atom_id": "md_dmDM_ex_a060", "md_file": "knowledge_base/domains/DM/examples.md", "md_atom_type": "TABLE_ROW", "md_parent_section": "§DM.3 [Example 3]", "md_verbatim": "| 3 | DEF | SE | 001 | 3 | OA | Open Drug A | 2006-04-10 | 2006-07-05 |", "score": 0.52, "match_basis": "verbatim_token+domain_route:DM"}, {"md_atom_id": "md_dmDM_ex_a035", "md_file": "knowledge_base/domains/DM/examples.md", "md_atom_type": "TABLE_ROW", "md_parent_section": "§DM.2 [Example 2]", "md_verbatim": "| 4 | ABC | SE | 002 | 1 | SCRN | Screen | 2006-05-03 | 2006-05-10 |", "score": 0.5091, "match_basis": "verbatim_token+domain_route:DM"}, {"md_atom_id": "md_dmDM_ex_a024", "md_file": "knowledge_base/domains/DM/examples.md", "md_atom_type": "TABLE_ROW", "md_parent_section": "§DM.2 [Example 2]", "md_verbatim": "| 5 | ABC | DM | 005 | A | Drug A | | | ASSIGNED, NOT TREATED | |", "score": 0.5059, "match_basis": "verbatim_token+domain_route:DM"}, {"md_atom_id": "md_dmDM_ex_a033", "md_file": "knowledge_base/domains/DM/examples.md", "md_atom_type": "TABLE_ROW", "md_parent_section": "§DM.2 [Example 2]", "md_verbatim": "| 2 | ABC | SE | 001 | 2 | RI | Run-In | 2006-06-07 | 2006-06-21 |", "score": 0.475, "match_basis": "verbatim_token+domain_route:DM"}], "candidate_count": 10, "zero_candidate": false}
{"pdf_atom_id": "ig34_p0068_a020", "pdf_atom_type": "TABLE_ROW", "pdf_source": "SDTMIG_v3.4", "pdf_page": 68, "pdf_parent_section": "§5.2 [DM – Examples]", "pdf_verbatim": "3 | ABC | DM | 003 | | | SCREEN FAILURE | |", "figure_ref": null, "candidates": [{"md_atom_id": "md_dmDM_ex_a022", "md_file": "knowledge_base/domains/DM/examples.md", "md_atom_type": "TABLE_ROW", "md_parent_section": "§DM.2 [Example 2]", "md_verbatim": "| 3 | ABC | DM | 003 | | | | | SCREEN FAILURE | |", "score": 1.0, "match_basis": "verbatim_token+domain_route:DM"}, {"md_atom_id": "md_dmDM_ex_a038", "md_file": "knowledge_base/domains/DM/examples.md", "md_atom_type": "TABLE_ROW", "md_parent_section": "§DM.2 [Example 2]", "md_verbatim": "| 7 | ABC | SE | 003 | 1 | SCRN | Screen | 2006-06-27 | 2006-06-30 |", "score": 0.6571, "match_basis": "verbatim_token+domain_route:DM"}, {"md_atom_id": "md_dmDM_ex_a032", "md_file": "knowledge_base/domains/DM/examples.md", "md_atom_type": "TABLE_ROW", "md_parent_section": "§DM.2 [Example 2]", "md_verbatim": "| 1 | ABC | SE | 001 | 1 | SCRN | Screen | 2006-06-01 | 2006-06-07 |", "score": 0.6, "match_basis": "verbatim_token+domain_route:DM"}, {"md_atom_id": "md_dmDM_ex_a035", "md_file": "knowledge_base/domains/DM/examples.md", "md_atom_type": "TABLE_ROW", "md_parent_section": "§DM.2 [Example 2]", "md_verbatim": "| 4 | ABC | SE | 002 | 1 | SCRN | Screen | 2006-05-03 | 2006-05-10 |", "score": 0.6, "match_basis": "verbatim_token+domain_route:DM"}, {"md_atom_id": "md_dmDM_ex_a039", "md_file": "knowledge_base/domains/DM/examples.md", "md_atom_type": "TABLE_ROW", "md_parent_section": "§DM.2 [Example 2]", "md_verbatim": "| 8 | ABC | SE | 004 | 1 | SCRN | Screen | 2006-05-14 | 2006-05-21 |", "score": 0.6, "match_basis": "verbatim_token+domain_route:DM"}], "candidate_count": 5, "zero_candidate": false}
{"pdf_atom_id": "ig34_p0068_a021", "pdf_atom_type": "TABLE_ROW", "pdf_source": "SDTMIG_v3.4", "pdf_page": 68, "pdf_parent_section": "§5.2 [DM – Examples]", "pdf_verbatim": "4 | ABC | DM | 004 | | | NOT ASSIGNED | |", "figure_ref": null, "candidates": [{"md_atom_id": "md_dmDM_ex_a023", "md_file": "knowledge_base/domains/DM/examples.md", "md_atom_type": "TABLE_ROW", "md_parent_section": "§DM.2 [Example 2]", "md_verbatim": "| 4 | ABC | DM | 004 | | | | | NOT ASSIGNED | |", "score": 1.0, "match_basis": "verbatim_token+domain_route:DM"}, {"md_atom_id": "md_dmDM_ex_a024", "md_file": "knowledge_base/domains/DM/examples.md", "md_atom_type": "TABLE_ROW", "md_parent_section": "§DM.2 [Example 2]", "md_verbatim": "| 5 | ABC | DM | 005 | A | Drug A | | | ASSIGNED, NOT TREATED | |", "score": 0.6824, "match_basis": "verbatim_token+domain_route:DM"}, {"md_atom_id": "md_dmDM_ex_a040", "md_file": "knowledge_base/domains/DM/examples.md", "md_atom_type": "TABLE_ROW", "md_parent_section": "§DM.2 [Example 2]", "md_verbatim": "| 9 | ABC | SE | 004 | 2 | RI | Run-In | 2006-05-21 | 2006-05-26 |", "score": 0.5, "match_basis": "verbatim_token+domain_route:DM"}, {"md_atom_id": "md_dmDM_ex_a039", "md_file": "knowledge_base/domains/DM/examples.md", "md_atom_type": "TABLE_ROW", "md_parent_section": "§DM.2 [Example 2]", "md_verbatim": "| 8 | ABC | SE | 004 | 1 | SCRN | Screen | 2006-05-14 | 2006-05-21 |", "score": 0.475, "match_basis": "verbatim_token+domain_route:DM"}, {"md_atom_id": "md_dmDM_ex_a020", "md_file": "knowledge_base/domains/DM/examples.md", "md_atom_type": "TABLE_ROW", "md_parent_section": "§DM.2 [Example 2]", "md_verbatim": "| 1 | ABC | DM | 001 | A | Drug A | A | Drug A | | |", "score": 0.45, "match_basis": "verbatim_token+domain_route:DM"}], "candidate_count": 5, "zero_candidate": false}
{"pdf_atom_id": "ig34_p0068_a022", "pdf_atom_type": "TABLE_ROW", "pdf_source": "SDTMIG_v3.4", "pdf_page": 68, "pdf_parent_section": "§5.2 [DM – Examples]", "pdf_verbatim": "5 | ABC | DM | 005 | A | Drug A | | ASSIGNED, NOT TREATED |", "figure_ref": null, "candidates": [{"md_atom_id": "md_dmDM_ex_a024", "md_file": "knowledge_base/domains/DM/examples.md", "md_atom_type": "TABLE_ROW", "md_parent_section": "§DM.2 [Example 2]", "md_verbatim": "| 5 | ABC | DM | 005 | A | Drug A | | | ASSIGNED, NOT TREATED | |", "score": 1.0, "match_basis": "verbatim_token+domain_route:DM"}, {"md_atom_id": "md_dmDM_ex_a023", "md_file": "knowledge_base/domains/DM/examples.md", "md_atom_type": "TABLE_ROW", "md_parent_section": "§DM.2 [Example 2]", "md_verbatim": "| 4 | ABC | DM | 004 | | | | | NOT ASSIGNED | |", "score": 0.6824, "match_basis": "verbatim_token+domain_route:DM"}, {"md_atom_id": "md_dmDM_ex_a020", "md_file": "knowledge_base/domains/DM/examples.md", "md_atom_type": "TABLE_ROW", "md_parent_section": "§DM.2 [Example 2]", "md_verbatim": "| 1 | ABC | DM | 001 | A | Drug A | A | Drug A | | |", "score": 0.5059, "match_basis": "verbatim_token+domain_route:DM"}, {"md_atom_id": "md_dmDM_ex_a021", "md_file": "knowledge_base/domains/DM/examples.md", "md_atom_type": "TABLE_ROW", "md_parent_section": "§DM.2 [Example 2]", "md_verbatim": "| 2 | ABC | DM | 002 | B | Drug B | B | Drug B | | |", "score": 0.5059, "match_basis": "verbatim_token+domain_route:DM"}, {"md_atom_id": "md_dmDM_ex_a034", "md_file": "knowledge_base/domains/DM/examples.md", "md_atom_type": "TABLE_ROW", "md_parent_section": "§DM.2 [Example 2]", "md_verbatim": "| 3 | ABC | SE | 001 | 3 | A | Drug A | 2006-06-21 | 2006-07-05 |", "score": 0.4947, "match_basis": "verbatim_token+domain_route:DM"}], "candidate_count": 5, "zero_candidate": false}
{"pdf_atom_id": "ig34_p0069_a001", "pdf_atom_type": "HEADING", "pdf_source": "SDTMIG_v3.4", "pdf_page": 69, "pdf_parent_section": "§5.2 [DM – Examples]", "pdf_verbatim": "Example 3", "figure_ref": null, "candidates": [{"md_atom_id": "md_dmDM_ex_a002", "md_file": "knowledge_base/domains/DM/examples.md", "md_atom_type": "HEADING", "md_parent_section": "§DM [DM — Examples]", "md_verbatim": "## Example 1", "score": 1.0, "match_basis": "verbatim_token+domain_route:DM"}, {"md_atom_id": "md_dmDM_ex_a011", "md_file": "knowledge_base/domains/DM/examples.md", "md_atom_type": "HEADING", "md_parent_section": "§DM [DM — Examples]", "md_verbatim": "## Example 2", "score": 1.0, "match_basis": "verbatim_token+domain_route:DM"}, {"md_atom_id": "md_dmDM_ex_a043", "md_file": "knowledge_base/domains/DM/examples.md", "md_atom_type": "HEADING", "md_parent_section": "§DM [DM — Examples]", "md_verbatim": "## Example 3", "score": 1.0, "match_basis": "verbatim_token+domain_route:DM"}, {"md_atom_id": "md_dmDM_ex_a066", "md_file": "knowledge_base/domains/DM/examples.md", "md_atom_type": "HEADING", "md_parent_section": "§DM [DM — Examples]", "md_verbatim": "## Example 4", "score": 1.0, "match_basis": "verbatim_token+domain_route:DM"}, {"md_atom_id": "md_dmDM_ex_a117", "md_file": "knowledge_base/domains/DM/examples.md", "md_atom_type": "HEADING", "md_parent_section": "§DM [DM — Examples]", "md_verbatim": "## Example 5", "score": 1.0, "match_basis": "verbatim_token+domain_route:DM"}, {"md_atom_id": "md_dmDM_ex_a135", "md_file": "knowledge_base/domains/DM/examples.md", "md_atom_type": "HEADING", "md_parent_section": "§DM [DM — Examples]", "md_verbatim": "## Example 6", "score": 1.0, "match_basis": "verbatim_token+domain_route:DM"}, {"md_atom_id": "md_dmDM_ex_a173", "md_file": "knowledge_base/domains/DM/examples.md", "md_atom_type": "HEADING", "md_parent_section": "§DM [DM — Examples]", "md_verbatim": "## Example 7", "score": 1.0, "match_basis": "verbatim_token+domain_route:DM"}, {"md_atom_id": "md_dmDM_ex_a001", "md_file": "knowledge_base/domains/DM/examples.md", "md_atom_type": "HEADING", "md_parent_section": "§DM [DM — Examples]", "md_verbatim": "# DM — Examples", "score": 0.9, "match_basis": "verbatim_token+domain_route:DM"}, {"md_atom_id": "md_dmDM_assn_a001", "md_file": "knowledge_base/domains/DM/assumptions.md", "md_atom_type": "HEADING", "md_parent_section": "§DM [DM — Assumptions]", "md_verbatim": "# DM — Assumptions", "score": 0.4, "match_basis": "verbatim_token+domain_route:DM"}], "candidate_count": 9, "zero_candidate": false}
{"pdf_atom_id": "ig34_p0069_a002", "pdf_atom_type": "SENTENCE", "pdf_source": "SDTMIG_v3.4", "pdf_page": 69, "pdf_parent_section": "§5.2 [DM – Examples]", "pdf_verbatim": "Row 1: Subject 001 was randomized to arm A.", "figure_ref": null, "candidates": [{"md_atom_id": "md_dmDM_ex_a013", "md_file": "knowledge_base/domains/DM/examples.md", "md_atom_type": "SENTENCE", "md_parent_section": "§DM.2 [Example 2]", "md_verbatim": "**Row 1:** Subject 001 was randomized to arm \"Drug A\". As shown in the SE dataset, this subject completed the \"Drug A\" element, so their actual arm was also \"Drug A\".", "score": 0.604, "match_basis": "verbatim_token+domain_route:DM"}, {"md_atom_id": "md_dmDM_ex_a014", "md_file": "knowledge_base/domains/DM/examples.md", "md_atom_type": "SENTENCE", "md_parent_section": "§DM.2 [Example 2]", "md_verbatim": "**Row 2:** Subject 002 was randomized to arm \"Drug B\". As shown in the SE dataset, their actual arm was consistent with their randomization.", "score": 0.592, "match_basis": "verbatim_token+domain_route:DM"}, {"md_atom_id": "md_dmDM_ex_a028", "md_file": "knowledge_base/domains/DM/examples.md", "md_atom_type": "SENTENCE", "md_parent_section": "§DM.2 [Example 2]", "md_verbatim": "**Rows 8-9:** Subject 004 withdrew during the \"Run-in\" element, before they could be randomized.", "score": 0.5909, "match_basis": "verbatim_token+domain_route:DM"}, {"md_atom_id": "md_dmDM_ex_a029", "md_file": "knowledge_base/domains/DM/examples.md", "md_atom_type": "SENTENCE", "md_parent_section": "§DM.2 [Example 2]", "md_verbatim": "**Rows 10-11:** Subject 005 withdrew after they were randomized, but did not start treatment.", "score": 0.5867, "match_basis": "verbatim_token+domain_route:DM"}, {"md_atom_id": "md_dmDM_ex_a017", "md_file": "knowledge_base/domains/DM/examples.md", "md_atom_type": "SENTENCE", "md_parent_section": "§DM.2 [Example 2]", "md_verbatim": "**Row 5:** Subject 005 was randomized but dropped out before being treated. Thus, the actual arm variables are not populated and ARMNRS=\"ASSIGNED, NOT TREATED\".", "score": 0.5433, "match_basis": "verbatim_token+domain_route:DM"}], "candidate_count": 5, "zero_candidate": false}
{"pdf_atom_id": "ig34_p0069_a003", "pdf_atom_type": "SENTENCE", "pdf_source": "SDTMIG_v3.4", "pdf_page": 69, "pdf_parent_section": "§5.2 [DM – Examples]", "pdf_verbatim": "At the end of the double-blind treatment epoch, they were assigned to open label A; thus, their ARMCD is \"AA\".", "figure_ref": null, "candidates": [{"md_atom_id": "md_dmDM_ex_a044", "md_file": "knowledge_base/domains/DM/examples.md", "md_atom_type": "SENTENCE", "md_parent_section": "§DM.3 [Example 3]", "md_verbatim": "**Row 1:** Subject 001 was randomized to drug A. At the end of the double-blind treatment epoch, they were assigned to open label A; thus, their ARMCD is \"AA\". They received the treatment to which they were assigned, so ACTRMCD is also \"AA\".", "score": 0.7333, "match_basis": "verbatim_token+domain_route:DM"}, {"md_atom_id": "md_dmDM_ex_a046", "md_file": "knowledge_base/domains/DM/examples.md", "md_atom_type": "SENTENCE", "md_parent_section": "§DM.3 [Example 3]", "md_verbatim": "**Row 3:** Subject \"003\" was randomized to drug A, but received drug B. At the end of the double-blind treatment epoch, they were assigned to rescue treatment. ARMCD shows the result of their assignments, \"AR\"; ACTARMCD shows their actual treatment, \"BR\".", "score": 0.6357, "match_basis": "verbatim_token+domain_route:DM"}, {"md_atom_id": "md_dmDM_ex_a045", "md_file": "knowledge_base/domains/DM/examples.md", "md_atom_type": "SENTENCE", "md_parent_section": "§DM.3 [Example 3]", "md_verbatim": "**Row 2:** Subject 002 was randomized to drug A. They were lost to follow-up during the double-blind treatment epoch, so never reached the open label epoch, when they would have been assigned to either drug A or the rescue element. Their ARMCD is \"A\". This case illustrates the exception to the rule that ARMCD, ARM, ACTARMCD, and ACTARM must be populated with values from the TA dataset.", "score": 0.5597, "match_basis": "verbatim_token+domain_route:DM"}, {"md_atom_id": "md_dmDM_ex_a015", "md_file": "knowledge_base/domains/DM/examples.md", "md_atom_type": "SENTENCE", "md_parent_section": "§DM.2 [Example 2]", "md_verbatim": "**Row 3:** Subject 003 was a screen failure, so they were not assigned to an arm or treated. The arm actual arm variables are null, and ARMNRS=\"SCREEN FAILURE\".", "score": 0.5169, "match_basis": "verbatim_token+domain_route:DM"}, {"md_atom_id": "md_dmDM_ex_a016", "md_file": "knowledge_base/domains/DM/examples.md", "md_atom_type": "SENTENCE", "md_parent_section": "§DM.2 [Example 2]", "md_verbatim": "**Row 4:** Subject 004 withdrew during the run-in element. Like subject 003, they were not assigned to an arm or treated. However, they were not considered a screen failure, and ARMNRS=\"NOT ASSIGNED\".", "score": 0.5043, "match_basis": "verbatim_token+domain_route:DM"}], "candidate_count": 5, "zero_candidate": false}
{"pdf_atom_id": "ig34_p0069_a004", "pdf_atom_type": "SENTENCE", "pdf_source": "SDTMIG_v3.4", "pdf_page": 69, "pdf_parent_section": "§5.2 [DM – Examples]", "pdf_verbatim": "They received the treatment to which they were assigned, so ACTRMD is also \"AA\".", "figure_ref": null, "candidates": [{"md_atom_id": "md_dmDM_ex_a044", "md_file": "knowledge_base/domains/DM/examples.md", "md_atom_type": "SENTENCE", "md_parent_section": "§DM.3 [Example 3]", "md_verbatim": "**Row 1:** Subject 001 was randomized to drug A. At the end of the double-blind treatment epoch, they were assigned to open label A; thus, their ARMCD is \"AA\". They received the treatment to which they were assigned, so ACTRMCD is also \"AA\".", "score": 0.6548, "match_basis": "verbatim_token+domain_route:DM"}, {"md_atom_id": "md_dmDM_ex_a046", "md_file": "knowledge_base/domains/DM/examples.md", "md_atom_type": "SENTENCE", "md_parent_section": "§DM.3 [Example 3]", "md_verbatim": "**Row 3:** Subject \"003\" was randomized to drug A, but received drug B. At the end of the double-blind treatment epoch, they were assigned to rescue treatment. ARMCD shows the result of their assignments, \"AR\"; ACTARMCD shows their actual treatment, \"BR\".", "score": 0.5694, "match_basis": "verbatim_token+domain_route:DM"}, {"md_atom_id": "md_dmDM_assn_a016", "md_file": "knowledge_base/domains/DM/assumptions.md", "md_atom_type": "LIST_ITEM", "md_parent_section": "§DM [DM — Assumptions]", "md_verbatim": "         2. Section 5.3, Subject Elements, Example 1 illustrates a situation for a subject who received a treatment that was not the one to which they were assigned.", "score": 0.5297, "match_basis": "verbatim_token+domain_route:DM"}, {"md_atom_id": "md_dmDM_ex_a015", "md_file": "knowledge_base/domains/DM/examples.md", "md_atom_type": "SENTENCE", "md_parent_section": "§DM.2 [Example 2]", "md_verbatim": "**Row 3:** Subject 003 was a screen failure, so they were not assigned to an arm or treated. The arm actual arm variables are null, and ARMNRS=\"SCREEN FAILURE\".", "score": 0.52, "match_basis": "verbatim_token+domain_route:DM"}, {"md_atom_id": "md_dmDM_ex_a016", "md_file": "knowledge_base/domains/DM/examples.md", "md_atom_type": "SENTENCE", "md_parent_section": "§DM.2 [Example 2]", "md_verbatim": "**Row 4:** Subject 004 withdrew during the run-in element. Like subject 003, they were not assigned to an arm or treated. However, they were not considered a screen failure, and ARMNRS=\"NOT ASSIGNED\".", "score": 0.5059, "match_basis": "verbatim_token+domain_route:DM"}], "candidate_count": 5, "zero_candidate": false}
{"pdf_atom_id": "ig34_p0069_a005", "pdf_atom_type": "SENTENCE", "pdf_source": "SDTMIG_v3.4", "pdf_page": 69, "pdf_parent_section": "§5.2 [DM – Examples]", "pdf_verbatim": "Row 2: Subject 002 was randomized to drug A.", "figure_ref": null, "candidates": [{"md_atom_id": "md_dmDM_ex_a014", "md_file": "knowledge_base/domains/DM/examples.md", "md_atom_type": "SENTENCE", "md_parent_section": "§DM.2 [Example 2]", "md_verbatim": "**Row 2:** Subject 002 was randomized to arm \"Drug B\". As shown in the SE dataset, their actual arm was consistent with their randomization.", "score": 0.6204, "match_basis": "verbatim_token+domain_route:DM"}, {"md_atom_id": "md_dmDM_ex_a013", "md_file": "knowledge_base/domains/DM/examples.md", "md_atom_type": "SENTENCE", "md_parent_section": "§DM.2 [Example 2]", "md_verbatim": "**Row 1:** Subject 001 was randomized to arm \"Drug A\". As shown in the SE dataset, this subject completed the \"Drug A\" element, so their actual arm was also \"Drug A\".", "score": 0.6, "match_basis": "verbatim_token+domain_route:DM"}, {"md_atom_id": "md_dmDM_ex_a028", "md_file": "knowledge_base/domains/DM/examples.md", "md_atom_type": "SENTENCE", "md_parent_section": "§DM.2 [Example 2]", "md_verbatim": "**Rows 8-9:** Subject 004 withdrew during the \"Run-in\" element, before they could be randomized.", "score": 0.5867, "match_basis": "verbatim_token+domain_route:DM"}, {"md_atom_id": "md_dmDM_ex_a029", "md_file": "knowledge_base/domains/DM/examples.md", "md_atom_type": "SENTENCE", "md_parent_section": "§DM.2 [Example 2]", "md_verbatim": "**Rows 10-11:** Subject 005 withdrew after they were randomized, but did not start treatment.", "score": 0.5826, "match_basis": "verbatim_token+domain_route:DM"}, {"md_atom_id": "md_dmDM_ex_a044", "md_file": "knowledge_base/domains/DM/examples.md", "md_atom_type": "SENTENCE", "md_parent_section": "§DM.3 [Example 3]", "md_verbatim": "**Row 1:** Subject 001 was randomized to drug A. At the end of the double-blind treatment epoch, they were assigned to open label A; thus, their ARMCD is \"AA\". They received the treatment to which they were assigned, so ACTRMCD is also \"AA\".", "score": 0.5397, "match_basis": "verbatim_token+domain_route:DM"}], "candidate_count": 5, "zero_candidate": false}
{"pdf_atom_id": "ig34_p0069_a006", "pdf_atom_type": "SENTENCE", "pdf_source": "SDTMIG_v3.4", "pdf_page": 69, "pdf_parent_section": "§5.2 [DM – Examples]", "pdf_verbatim": "They were lost to follow-up during the double-blind treatment epoch, so never reached the open label epoch, when they would have been assigned to either the open drug A or the rescue element.", "figure_ref": null, "candidates": [{"md_atom_id": "md_dmDM_ex_a045", "md_file": "knowledge_base/domains/DM/examples.md", "md_atom_type": "SENTENCE", "md_parent_section": "§DM.3 [Example 3]", "md_verbatim": "**Row 2:** Subject 002 was randomized to drug A. They were lost to follow-up during the double-blind treatment epoch, so never reached the open label epoch, when they would have been assigned to either drug A or the rescue element. Their ARMCD is \"A\". This case illustrates the exception to the rule that ARMCD, ARM, ACTARMCD, and ACTARM must be populated with values from the TA dataset.", "score": 0.7088, "match_basis": "verbatim_token+domain_route:DM"}, {"md_atom_id": "md_dmDM_ex_a044", "md_file": "knowledge_base/domains/DM/examples.md", "md_atom_type": "SENTENCE", "md_parent_section": "§DM.3 [Example 3]", "md_verbatim": "**Row 1:** Subject 001 was randomized to drug A. At the end of the double-blind treatment epoch, they were assigned to open label A; thus, their ARMCD is \"AA\". They received the treatment to which they were assigned, so ACTRMCD is also \"AA\".", "score": 0.5889, "match_basis": "verbatim_token+domain_route:DM"}, {"md_atom_id": "md_dmDM_ex_a046", "md_file": "knowledge_base/domains/DM/examples.md", "md_atom_type": "SENTENCE", "md_parent_section": "§DM.3 [Example 3]", "md_verbatim": "**Row 3:** Subject \"003\" was randomized to drug A, but received drug B. At the end of the double-blind treatment epoch, they were assigned to rescue treatment. ARMCD shows the result of their assignments, \"AR\"; ACTARMCD shows their actual treatment, \"BR\".", "score": 0.5737, "match_basis": "verbatim_token+domain_route:DM"}, {"md_atom_id": "md_dmDM_ex_a016", "md_file": "knowledge_base/domains/DM/examples.md", "md_atom_type": "SENTENCE", "md_parent_section": "§DM.2 [Example 2]", "md_verbatim": "**Row 4:** Subject 004 withdrew during the run-in element. Like subject 003, they were not assigned to an arm or treated. However, they were not considered a screen failure, and ARMNRS=\"NOT ASSIGNED\".", "score": 0.5393, "match_basis": "verbatim_token+domain_route:DM"}, {"md_atom_id": "md_dmDM_ex_a028", "md_file": "knowledge_base/domains/DM/examples.md", "md_atom_type": "SENTENCE", "md_parent_section": "§DM.2 [Example 2]", "md_verbatim": "**Rows 8-9:** Subject 004 withdrew during the \"Run-in\" element, before they could be randomized.", "score": 0.4866, "match_basis": "verbatim_token+domain_route:DM"}], "candidate_count": 5, "zero_candidate": false}
{"pdf_atom_id": "ig34_p0069_a007", "pdf_atom_type": "SENTENCE", "pdf_source": "SDTMIG_v3.4", "pdf_page": 69, "pdf_parent_section": "§5.2 [DM – Examples]", "pdf_verbatim": "Their ARMCD is \"A\".", "figure_ref": null, "candidates": [{"md_atom_id": "md_dmDM_ex_a044", "md_file": "knowledge_base/domains/DM/examples.md", "md_atom_type": "SENTENCE", "md_parent_section": "§DM.3 [Example 3]", "md_verbatim": "**Row 1:** Subject 001 was randomized to drug A. At the end of the double-blind treatment epoch, they were assigned to open label A; thus, their ARMCD is \"AA\". They received the treatment to which they were assigned, so ACTRMCD is also \"AA\".", "score": 0.45, "match_basis": "verbatim_token+domain_route:DM"}, {"md_atom_id": "md_dmDM_ex_a014", "md_file": "knowledge_base/domains/DM/examples.md", "md_atom_type": "SENTENCE", "md_parent_section": "§DM.2 [Example 2]", "md_verbatim": "**Row 2:** Subject 002 was randomized to arm \"Drug B\". As shown in the SE dataset, their actual arm was consistent with their randomization.", "score": 0.4471, "match_basis": "verbatim_token+domain_route:DM"}, {"md_atom_id": "md_dmDM_ex_a046", "md_file": "knowledge_base/domains/DM/examples.md", "md_atom_type": "SENTENCE", "md_parent_section": "§DM.3 [Example 3]", "md_verbatim": "**Row 3:** Subject \"003\" was randomized to drug A, but received drug B. At the end of the double-blind treatment epoch, they were assigned to rescue treatment. ARMCD shows the result of their assignments, \"AR\"; ACTARMCD shows their actual treatment, \"BR\".", "score": 0.4468, "match_basis": "verbatim_token+domain_route:DM"}, {"md_atom_id": "md_dmDM_ex_a013", "md_file": "knowledge_base/domains/DM/examples.md", "md_atom_type": "SENTENCE", "md_parent_section": "§DM.2 [Example 2]", "md_verbatim": "**Row 1:** Subject 001 was randomized to arm \"Drug A\". As shown in the SE dataset, this subject completed the \"Drug A\" element, so their actual arm was also \"Drug A\".", "score": 0.4462, "match_basis": "verbatim_token+domain_route:DM"}, {"md_atom_id": "md_dmDM_ex_a052", "md_file": "knowledge_base/domains/DM/examples.md", "md_atom_type": "SENTENCE", "md_parent_section": "§DM.3 [Example 3]", "md_verbatim": "The following example illustrates values of ARMCD for subjects in Example Trial 3, described in Section 7.2.1, Trial Arms.", "score": 0.4453, "match_basis": "verbatim_token+domain_route:DM"}], "candidate_count": 5, "zero_candidate": false}
{"pdf_atom_id": "ig34_p0069_a008", "pdf_atom_type": "SENTENCE", "pdf_source": "SDTMIG_v3.4", "pdf_page": 69, "pdf_parent_section": "§5.2 [DM – Examples]", "pdf_verbatim": "This case illustrates the exception to the rule that ARMCD, ARM, ACTARMCD, and ACTARM must be populated with values from the TA dataset.", "figure_ref": null, "candidates": [{"md_atom_id": "md_dmDM_ex_a045", "md_file": "knowledge_base/domains/DM/examples.md", "md_atom_type": "SENTENCE", "md_parent_section": "§DM.3 [Example 3]", "md_verbatim": "**Row 2:** Subject 002 was randomized to drug A. They were lost to follow-up during the double-blind treatment epoch, so never reached the open label epoch, when they would have been assigned to either drug A or the rescue element. Their ARMCD is \"A\". This case illustrates the exception to the rule that ARMCD, ARM, ACTARMCD, and ACTARM must be populated with values from the TA dataset.", "score": 0.625, "match_basis": "verbatim_token+domain_route:DM"}, {"md_atom_id": "md_dmDM_ex_a052", "md_file": "knowledge_base/domains/DM/examples.md", "md_atom_type": "SENTENCE", "md_parent_section": "§DM.3 [Example 3]", "md_verbatim": "The following example illustrates values of ARMCD for subjects in Example Trial 3, described in Section 7.2.1, Trial Arms.", "score": 0.5373, "match_basis": "verbatim_token+domain_route:DM"}, {"md_atom_id": "md_dmDM_ex_a186", "md_file": "knowledge_base/domains/DM/examples.md", "md_atom_type": "SENTENCE", "md_parent_section": "§DM.7 [Example 7]", "md_verbatim": "**Row 3:** Subject did not self-identify to 1 of the existing race options and selected \"Other\". RACE was populated with \"OTHER\" in this case.", "score": 0.5301, "match_basis": "verbatim_token+domain_route:DM"}, {"md_atom_id": "md_dmDM_assn_a005", "md_file": "knowledge_base/domains/DM/assumptions.md", "md_atom_type": "LIST_ITEM", "md_parent_section": "§DM [DM — Assumptions]", "md_verbatim": "4. With the exception of trials that use multistage processes to assign subjects to arms as described below, ARM and ACTARM must be populated with ARM values from the Trial Arms (TA) dataset and ARMCD and ACTARMCD must be populated with ARMCD values from the TA dataset or be null. The ARM and ARMCD values in the TA dataset have a one-to-one relationship, and that one-to-one relationship must be preserved in the values used to populate ARM and ARMCD in DM, and to populate the values of ACTARM and ACTARMCD in DM.", "score": 0.5189, "match_basis": "verbatim_token+domain_route:DM"}, {"md_atom_id": "md_dmDM_ex_a187", "md_file": "knowledge_base/domains/DM/examples.md", "md_atom_type": "SENTENCE", "md_parent_section": "§DM.7 [Example 7]", "md_verbatim": "**Row 4:** Subject could not self-identify to any of the race options including identification of an \"Other\". RACE was populated with \"UNKNOWN\" in this case.", "score": 0.5085, "match_basis": "verbatim_token+domain_route:DM"}], "candidate_count": 5, "zero_candidate": false}
{"pdf_atom_id": "ig34_p0069_a009", "pdf_atom_type": "SENTENCE", "pdf_source": "SDTMIG_v3.4", "pdf_page": 69, "pdf_parent_section": "§5.2 [DM – Examples]", "pdf_verbatim": "Row 3: Subject \"003\" was randomized to drug A, but received drug B.", "figure_ref": null, "candidates": [{"md_atom_id": "md_dmDM_ex_a046", "md_file": "knowledge_base/domains/DM/examples.md", "md_atom_type": "SENTENCE", "md_parent_section": "§DM.3 [Example 3]", "md_verbatim": "**Row 3:** Subject \"003\" was randomized to drug A, but received drug B. At the end of the double-blind treatment epoch, they were assigned to rescue treatment. ARMCD shows the result of their assignments, \"AR\"; ACTARMCD shows their actual treatment, \"BR\".", "score": 0.5948, "match_basis": "verbatim_token+domain_route:DM"}, {"md_atom_id": "md_dmDM_ex_a044", "md_file": "knowledge_base/domains/DM/examples.md", "md_atom_type": "SENTENCE", "md_parent_section": "§DM.3 [Example 3]", "md_verbatim": "**Row 1:** Subject 001 was randomized to drug A. At the end of the double-blind treatment epoch, they were assigned to open label A; thus, their ARMCD is \"AA\". They received the treatment to which they were assigned, so ACTRMCD is also \"AA\".", "score": 0.5865, "match_basis": "verbatim_token+domain_route:DM"}, {"md_atom_id": "md_dmDM_ex_a014", "md_file": "knowledge_base/domains/DM/examples.md", "md_atom_type": "SENTENCE", "md_parent_section": "§DM.2 [Example 2]", "md_verbatim": "**Row 2:** Subject 002 was randomized to arm \"Drug B\". As shown in the SE dataset, their actual arm was consistent with their randomization.", "score": 0.5789, "match_basis": "verbatim_token+domain_route:DM"}, {"md_atom_id": "md_dmDM_ex_a013", "md_file": "knowledge_base/domains/DM/examples.md", "md_atom_type": "SENTENCE", "md_parent_section": "§DM.2 [Example 2]", "md_verbatim": "**Row 1:** Subject 001 was randomized to arm \"Drug A\". As shown in the SE dataset, this subject completed the \"Drug A\" element, so their actual arm was also \"Drug A\".", "score": 0.5759, "match_basis": "verbatim_token+domain_route:DM"}, {"md_atom_id": "md_dmDM_ex_a029", "md_file": "knowledge_base/domains/DM/examples.md", "md_atom_type": "SENTENCE", "md_parent_section": "§DM.2 [Example 2]", "md_verbatim": "**Rows 10-11:** Subject 005 withdrew after they were randomized, but did not start treatment.", "score": 0.5731, "match_basis": "verbatim_token+domain_route:DM"}], "candidate_count": 5, "zero_candidate": false}
{"pdf_atom_id": "ig34_p0069_a010", "pdf_atom_type": "SENTENCE", "pdf_source": "SDTMIG_v3.4", "pdf_page": 69, "pdf_parent_section": "§5.2 [DM – Examples]", "pdf_verbatim": "At the end of the double-blind treatment epoch, they were assigned to rescue treatment.", "figure_ref": null, "candidates": [{"md_atom_id": "md_dmDM_ex_a046", "md_file": "knowledge_base/domains/DM/examples.md", "md_atom_type": "SENTENCE", "md_parent_section": "§DM.3 [Example 3]", "md_verbatim": "**Row 3:** Subject \"003\" was randomized to drug A, but received drug B. At the end of the double-blind treatment epoch, they were assigned to rescue treatment. ARMCD shows the result of their assignments, \"AR\"; ACTARMCD shows their actual treatment, \"BR\".", "score": 0.6494, "match_basis": "verbatim_token+domain_route:DM"}, {"md_atom_id": "md_dmDM_ex_a044", "md_file": "knowledge_base/domains/DM/examples.md", "md_atom_type": "SENTENCE", "md_parent_section": "§DM.3 [Example 3]", "md_verbatim": "**Row 1:** Subject 001 was randomized to drug A. At the end of the double-blind treatment epoch, they were assigned to open label A; thus, their ARMCD is \"AA\". They received the treatment to which they were assigned, so ACTRMCD is also \"AA\".", "score": 0.6211, "match_basis": "verbatim_token+domain_route:DM"}, {"md_atom_id": "md_dmDM_ex_a045", "md_file": "knowledge_base/domains/DM/examples.md", "md_atom_type": "SENTENCE", "md_parent_section": "§DM.3 [Example 3]", "md_verbatim": "**Row 2:** Subject 002 was randomized to drug A. They were lost to follow-up during the double-blind treatment epoch, so never reached the open label epoch, when they would have been assigned to either drug A or the rescue element. Their ARMCD is \"A\". This case illustrates the exception to the rule that ARMCD, ARM, ACTARMCD, and ACTARM must be populated with values from the TA dataset.", "score": 0.5358, "match_basis": "verbatim_token+domain_route:DM"}, {"md_atom_id": "md_dmDM_ex_a015", "md_file": "knowledge_base/domains/DM/examples.md", "md_atom_type": "SENTENCE", "md_parent_section": "§DM.2 [Example 2]", "md_verbatim": "**Row 3:** Subject 003 was a screen failure, so they were not assigned to an arm or treated. The arm actual arm variables are null, and ARMNRS=\"SCREEN FAILURE\".", "score": 0.52, "match_basis": "verbatim_token+domain_route:DM"}, {"md_atom_id": "md_dmDM_ex_a016", "md_file": "knowledge_base/domains/DM/examples.md", "md_atom_type": "SENTENCE", "md_parent_section": "§DM.2 [Example 2]", "md_verbatim": "**Row 4:** Subject 004 withdrew during the run-in element. Like subject 003, they were not assigned to an arm or treated. However, they were not considered a screen failure, and ARMNRS=\"NOT ASSIGNED\".", "score": 0.5059, "match_basis": "verbatim_token+domain_route:DM"}], "candidate_count": 5, "zero_candidate": false}
{"pdf_atom_id": "ig34_p0069_a011", "pdf_atom_type": "SENTENCE", "pdf_source": "SDTMIG_v3.4", "pdf_page": 69, "pdf_parent_section": "§5.2 [DM – Examples]", "pdf_verbatim": "ARMCD shows the result of their assignment, \"AR\"; ACTARMCD shows their actual treatment, \"BR\".", "figure_ref": null, "candidates": [{"md_atom_id": "md_dmDM_ex_a046", "md_file": "knowledge_base/domains/DM/examples.md", "md_atom_type": "SENTENCE", "md_parent_section": "§DM.3 [Example 3]", "md_verbatim": "**Row 3:** Subject \"003\" was randomized to drug A, but received drug B. At the end of the double-blind treatment epoch, they were assigned to rescue treatment. ARMCD shows the result of their assignments, \"AR\"; ACTARMCD shows their actual treatment, \"BR\".", "score": 0.6494, "match_basis": "verbatim_token+domain_route:DM"}, {"md_atom_id": "md_dmDM_ex_a054", "md_file": "knowledge_base/domains/DM/examples.md", "md_atom_type": "SENTENCE", "md_parent_section": "§DM.3 [Example 3]", "md_verbatim": "**Rows 4-5:** Show the 2 elements (\"Screen\" and \"Treatment A\") the subject passed through.", "score": 0.5309, "match_basis": "verbatim_token+domain_route:DM"}, {"md_atom_id": "md_dmDM_ex_a044", "md_file": "knowledge_base/domains/DM/examples.md", "md_atom_type": "SENTENCE", "md_parent_section": "§DM.3 [Example 3]", "md_verbatim": "**Row 1:** Subject 001 was randomized to drug A. At the end of the double-blind treatment epoch, they were assigned to open label A; thus, their ARMCD is \"AA\". They received the treatment to which they were assigned, so ACTRMCD is also \"AA\".", "score": 0.5256, "match_basis": "verbatim_token+domain_route:DM"}, {"md_atom_id": "md_dmDM_ex_a015", "md_file": "knowledge_base/domains/DM/examples.md", "md_atom_type": "SENTENCE", "md_parent_section": "§DM.2 [Example 2]", "md_verbatim": "**Row 3:** Subject 003 was a screen failure, so they were not assigned to an arm or treated. The arm actual arm variables are null, and ARMNRS=\"SCREEN FAILURE\".", "score": 0.5099, "match_basis": "verbatim_token+domain_route:DM"}, {"md_atom_id": "md_dmDM_ex_a013", "md_file": "knowledge_base/domains/DM/examples.md", "md_atom_type": "SENTENCE", "md_parent_section": "§DM.2 [Example 2]", "md_verbatim": "**Row 1:** Subject 001 was randomized to arm \"Drug A\". As shown in the SE dataset, this subject completed the \"Drug A\" element, so their actual arm was also \"Drug A\".", "score": 0.5029, "match_basis": "verbatim_token+domain_route:DM"}], "candidate_count": 5, "zero_candidate": false}
{"pdf_atom_id": "ig34_p0069_a012", "pdf_atom_type": "CODE_LITERAL", "pdf_source": "SDTMIG_v3.4", "pdf_page": 69, "pdf_parent_section": "§5.2 [DM – Examples]", "pdf_verbatim": "dm.xpt", "figure_ref": null, "candidates": [{"md_atom_id": "md_dmDM_ex_a003", "md_file": "knowledge_base/domains/DM/examples.md", "md_atom_type": "SENTENCE", "md_parent_section": "§DM.1 [Example 1]", "md_verbatim": "**dm.xpt**", "score": 0.79, "match_basis": "verbatim_token+domain_route:DM"}, {"md_atom_id": "md_dmDM_ex_a018", "md_file": "knowledge_base/domains/DM/examples.md", "md_atom_type": "SENTENCE", "md_parent_section": "§DM.2 [Example 2]", "md_verbatim": "**dm.xpt**", "score": 0.79, "match_basis": "verbatim_token+domain_route:DM"}, {"md_atom_id": "md_dmDM_ex_a030", "md_file": "knowledge_base/domains/DM/examples.md", "md_atom_type": "SENTENCE", "md_parent_section": "§DM.2 [Example 2]", "md_verbatim": "**se.xpt**", "score": 0.79, "match_basis": "verbatim_token+domain_route:DM"}, {"md_atom_id": "md_dmDM_ex_a047", "md_file": "knowledge_base/domains/DM/examples.md", "md_atom_type": "SENTENCE", "md_parent_section": "§DM.3 [Example 3]", "md_verbatim": "**dm.xpt**", "score": 0.79, "match_basis": "verbatim_token+domain_route:DM"}, {"md_atom_id": "md_dmDM_ex_a056", "md_file": "knowledge_base/domains/DM/examples.md", "md_atom_type": "SENTENCE", "md_parent_section": "§DM.3 [Example 3]", "md_verbatim": "**se.xpt**", "score": 0.79, "match_basis": "verbatim_token+domain_route:DM"}, {"md_atom_id": "md_dmDM_ex_a102", "md_file": "knowledge_base/domains/DM/examples.md", "md_atom_type": "SENTENCE", "md_parent_section": "§DM.4 [Example 4]", "md_verbatim": "**dm.xpt**", "score": 0.79, "match_basis": "verbatim_token+domain_route:DM"}, {"md_atom_id": "md_dmDM_ex_a124", "md_file": "knowledge_base/domains/DM/examples.md", "md_atom_type": "SENTENCE", "md_parent_section": "§DM.5 [Example 5]", "md_verbatim": "**dm.xpt**", "score": 0.79, "match_basis": "verbatim_token+domain_route:DM"}, {"md_atom_id": "md_dmDM_ex_a159", "md_file": "knowledge_base/domains/DM/examples.md", "md_atom_type": "SENTENCE", "md_parent_section": "§DM.6 [Example 6]", "md_verbatim": "**dm.xpt**", "score": 0.79, "match_basis": "verbatim_token+domain_route:DM"}, {"md_atom_id": "md_dmDM_ex_a189", "md_file": "knowledge_base/domains/DM/examples.md", "md_atom_type": "SENTENCE", "md_parent_section": "§DM.7 [Example 7]", "md_verbatim": "**dm.xpt**", "score": 0.79, "match_basis": "verbatim_token+domain_route:DM"}, {"md_atom_id": "md_dmDM_ex_a110", "md_file": "knowledge_base/domains/DM/examples.md", "md_atom_type": "SENTENCE", "md_parent_section": "§DM.4 [Example 4]", "md_verbatim": "**suppdm.xpt**", "score": 0.31, "match_basis": "verbatim_token+domain_route:DM"}], "candidate_count": 10, "zero_candidate": false}
{"pdf_atom_id": "ig34_p0069_a013", "pdf_atom_type": "TABLE_HEADER", "pdf_source": "SDTMIG_v3.4", "pdf_page": 69, "pdf_parent_section": "§5.2 [DM – Examples]", "pdf_verbatim": "DM table with columns: Row, STUDYID, DOMAIN, USUBJID, ARMCD, ARM, ACTARMCD, ACTARM, ARMNRS, ACTARMNRS", "figure_ref": "pdf_p0069+middle", "candidates": [{"md_atom_id": "md_dmDM_ex_a019", "md_file": "knowledge_base/domains/DM/examples.md", "md_atom_type": "TABLE_HEADER", "md_parent_section": "§DM.2 [Example 2]", "md_verbatim": "| Row | STUDYID | DOMAIN | USUBJID | ARMCD | ARM | ACTARMCD | ACTARM | ARMNRS | ACTARMUD |\n|-----|---------|--------|---------|-------|-----|----------|--------|--------|----------|", "score": 0.8, "match_basis": "verbatim_token+domain_route:DM"}, {"md_atom_id": "md_dmDM_ex_a048", "md_file": "knowledge_base/domains/DM/examples.md", "md_atom_type": "TABLE_HEADER", "md_parent_section": "§DM.3 [Example 3]", "md_verbatim": "| Row | STUDYID | DOMAIN | USUBJID | ARMCD | ARM | ACTARMCD | ACTARM | ARMNRS | ACTARMUD |\n|-----|---------|--------|---------|-------|-----|----------|--------|--------|----------|", "score": 0.8, "match_basis": "verbatim_token+domain_route:DM"}, {"md_atom_id": "md_dmDM_ex_a103", "md_file": "knowledge_base/domains/DM/examples.md", "md_atom_type": "TABLE_HEADER", "md_parent_section": "§DM.4 [Example 4]", "md_verbatim": "| Row | STUDYID | DOMAIN | USUBJID | SUBJID | RACE |\n|-----|---------|--------|---------|--------|------|", "score": 0.65, "match_basis": "verbatim_token+domain_route:DM"}, {"md_atom_id": "md_dmDM_ex_a160", "md_file": "knowledge_base/domains/DM/examples.md", "md_atom_type": "TABLE_HEADER", "md_parent_section": "§DM.6 [Example 6]", "md_verbatim": "| Row | STUDYID | DOMAIN | USUBJID | SUBJID | RACE |\n|-----|---------|--------|---------|--------|------|", "score": 0.65, "match_basis": "verbatim_token+domain_route:DM"}, {"md_atom_id": "md_dmDM_ex_a125", "md_file": "knowledge_base/domains/DM/examples.md", "md_atom_type": "TABLE_HEADER", "md_parent_section": "§DM.5 [Example 5]", "md_verbatim": "| Row | STUDYID | DOMAIN | USUBJID | SUBJID | AGE | AGEU | SEX | RACE | ETHNIC |\n|-----|---------|--------|---------|--------|-----|------|-----|------|--------|", "score": 0.6093, "match_basis": "verbatim_token+domain_route:DM"}], "candidate_count": 5, "zero_candidate": false}
{"pdf_atom_id": "ig34_p0069_a014", "pdf_atom_type": "TABLE_ROW", "pdf_source": "SDTMIG_v3.4", "pdf_page": 69, "pdf_parent_section": "§5.2 [DM – Examples]", "pdf_verbatim": "1 | DEF | DM | 001 | AA | A-OPEN A | AA | A-OPEN A | |", "figure_ref": null, "candidates": [{"md_atom_id": "md_dmDM_ex_a049", "md_file": "knowledge_base/domains/DM/examples.md", "md_atom_type": "TABLE_ROW", "md_parent_section": "§DM.3 [Example 3]", "md_verbatim": "| 1 | DEF | DM | 001 | AA | A-OPEN A | AA | A-OPEN A | | |", "score": 1.0, "match_basis": "verbatim_token+domain_route:DM"}, {"md_atom_id": "md_dmDM_ex_a060", "md_file": "knowledge_base/domains/DM/examples.md", "md_atom_type": "TABLE_ROW", "md_parent_section": "§DM.3 [Example 3]", "md_verbatim": "| 3 | DEF | SE | 001 | 3 | OA | Open Drug A | 2006-04-10 | 2006-07-05 |", "score": 0.7, "match_basis": "verbatim_token+domain_route:DM"}, {"md_atom_id": "md_dmDM_ex_a050", "md_file": "knowledge_base/domains/DM/examples.md", "md_atom_type": "TABLE_ROW", "md_parent_section": "§DM.3 [Example 3]", "md_verbatim": "| 2 | DEF | DM | 002 | A | A | A | A | | |", "score": 0.52, "match_basis": "verbatim_token+domain_route:DM"}, {"md_atom_id": "md_dmDM_ex_a058", "md_file": "knowledge_base/domains/DM/examples.md", "md_atom_type": "TABLE_ROW", "md_parent_section": "§DM.3 [Example 3]", "md_verbatim": "| 1 | DEF | SE | 001 | 1 | SCRN | Screen | 2006-01-07 | 2006-01-12 |", "score": 0.5091, "match_basis": "verbatim_token+domain_route:DM"}, {"md_atom_id": "md_dmDM_ex_a020", "md_file": "knowledge_base/domains/DM/examples.md", "md_atom_type": "TABLE_ROW", "md_parent_section": "§DM.2 [Example 2]", "md_verbatim": "| 1 | ABC | DM | 001 | A | Drug A | A | Drug A | | |", "score": 0.4857, "match_basis": "verbatim_token+domain_route:DM"}, {"md_atom_id": "md_dmDM_ex_a059", "md_file": "knowledge_base/domains/DM/examples.md", "md_atom_type": "TABLE_ROW", "md_parent_section": "§DM.3 [Example 3]", "md_verbatim": "| 2 | DEF | SE | 001 | 2 | DBA | Treatment A | 2006-01-12 | 2006-04-10 |", "score": 0.4857, "match_basis": "verbatim_token+domain_route:DM"}, {"md_atom_id": "md_dmDM_ex_a033", "md_file": "knowledge_base/domains/DM/examples.md", "md_atom_type": "TABLE_ROW", "md_parent_section": "§DM.2 [Example 2]", "md_verbatim": "| 2 | ABC | SE | 001 | 2 | RI | Run-In | 2006-06-07 | 2006-06-21 |", "score": 0.475, "match_basis": "verbatim_token+domain_route:DM"}, {"md_atom_id": "md_dmDM_ex_a034", "md_file": "knowledge_base/domains/DM/examples.md", "md_atom_type": "TABLE_ROW", "md_parent_section": "§DM.2 [Example 2]", "md_verbatim": "| 3 | ABC | SE | 001 | 3 | A | Drug A | 2006-06-21 | 2006-07-05 |", "score": 0.4667, "match_basis": "verbatim_token+domain_route:DM"}, {"md_atom_id": "md_dmDM_ex_a051", "md_file": "knowledge_base/domains/DM/examples.md", "md_atom_type": "TABLE_ROW", "md_parent_section": "§DM.3 [Example 3]", "md_verbatim": "| 3 | DEF | DM | 003 | AR | A-RESCUE | BR | B-RESCUE | | |", "score": 0.4667, "match_basis": "verbatim_token+domain_route:DM"}, {"md_atom_id": "md_dmDM_ex_a032", "md_file": "knowledge_base/domains/DM/examples.md", "md_atom_type": "TABLE_ROW", "md_parent_section": "§DM.2 [Example 2]", "md_verbatim": "| 1 | ABC | SE | 001 | 1 | SCRN | Screen | 2006-06-01 | 2006-06-07 |", "score": 0.45, "match_basis": "verbatim_token+domain_route:DM"}], "candidate_count": 10, "zero_candidate": false}
{"pdf_atom_id": "ig34_p0069_a015", "pdf_atom_type": "TABLE_ROW", "pdf_source": "SDTMIG_v3.4", "pdf_page": 69, "pdf_parent_section": "§5.2 [DM – Examples]", "pdf_verbatim": "2 | DEF | DM | 002 | A | A | A | A |", "figure_ref": null, "candidates": [{"md_atom_id": "md_dmDM_ex_a050", "md_file": "knowledge_base/domains/DM/examples.md", "md_atom_type": "TABLE_ROW", "md_parent_section": "§DM.3 [Example 3]", "md_verbatim": "| 2 | DEF | DM | 002 | A | A | A | A | | |", "score": 1.0, "match_basis": "verbatim_token+domain_route:DM"}, {"md_atom_id": "md_dmDM_ex_a061", "md_file": "knowledge_base/domains/DM/examples.md", "md_atom_type": "TABLE_ROW", "md_parent_section": "§DM.3 [Example 3]", "md_verbatim": "| 4 | DEF | SE | 002 | 1 | SCRN | Screen | 2006-02-03 | 2006-02-10 |", "score": 0.5333, "match_basis": "verbatim_token+domain_route:DM"}, {"md_atom_id": "md_dmDM_ex_a021", "md_file": "knowledge_base/domains/DM/examples.md", "md_atom_type": "TABLE_ROW", "md_parent_section": "§DM.2 [Example 2]", "md_verbatim": "| 2 | ABC | DM | 002 | B | Drug B | B | Drug B | | |", "score": 0.52, "match_basis": "verbatim_token+domain_route:DM"}, {"md_atom_id": "md_dmDM_ex_a049", "md_file": "knowledge_base/domains/DM/examples.md", "md_atom_type": "TABLE_ROW", "md_parent_section": "§DM.3 [Example 3]", "md_verbatim": "| 1 | DEF | DM | 001 | AA | A-OPEN A | AA | A-OPEN A | | |", "score": 0.52, "match_basis": "verbatim_token+domain_route:DM"}, {"md_atom_id": "md_dmDM_ex_a036", "md_file": "knowledge_base/domains/DM/examples.md", "md_atom_type": "TABLE_ROW", "md_parent_section": "§DM.2 [Example 2]", "md_verbatim": "| 5 | ABC | SE | 002 | 2 | RI | Run-In | 2006-05-10 | 2006-05-24 |", "score": 0.5, "match_basis": "verbatim_token+domain_route:DM"}, {"md_atom_id": "md_dmDM_ex_a062", "md_file": "knowledge_base/domains/DM/examples.md", "md_atom_type": "TABLE_ROW", "md_parent_section": "§DM.3 [Example 3]", "md_verbatim": "| 5 | DEF | SE | 002 | 2 | DBA | Treatment A | 2006-02-10 | 2006-03-24 |", "score": 0.5, "match_basis": "verbatim_token+domain_route:DM"}, {"md_atom_id": "md_dmDM_ex_a037", "md_file": "knowledge_base/domains/DM/examples.md", "md_atom_type": "TABLE_ROW", "md_parent_section": "§DM.2 [Example 2]", "md_verbatim": "| 6 | ABC | SE | 002 | 3 | B | Drug B | 2006-05-24 | 2006-06-07 |", "score": 0.4857, "match_basis": "verbatim_token+domain_route:DM"}, {"md_atom_id": "md_dmDM_ex_a051", "md_file": "knowledge_base/domains/DM/examples.md", "md_atom_type": "TABLE_ROW", "md_parent_section": "§DM.3 [Example 3]", "md_verbatim": "| 3 | DEF | DM | 003 | AR | A-RESCUE | BR | B-RESCUE | | |", "score": 0.4857, "match_basis": "verbatim_token+domain_route:DM"}, {"md_atom_id": "md_dmDM_ex_a060", "md_file": "knowledge_base/domains/DM/examples.md", "md_atom_type": "TABLE_ROW", "md_parent_section": "§DM.3 [Example 3]", "md_verbatim": "| 3 | DEF | SE | 001 | 3 | OA | Open Drug A | 2006-04-10 | 2006-07-05 |", "score": 0.4667, "match_basis": "verbatim_token+domain_route:DM"}, {"md_atom_id": "md_dmDM_ex_a035", "md_file": "knowledge_base/domains/DM/examples.md", "md_atom_type": "TABLE_ROW", "md_parent_section": "§DM.2 [Example 2]", "md_verbatim": "| 4 | ABC | SE | 002 | 1 | SCRN | Screen | 2006-05-03 | 2006-05-10 |", "score": 0.46, "match_basis": "verbatim_token+domain_route:DM"}], "candidate_count": 10, "zero_candidate": false}
{"pdf_atom_id": "ig34_p0069_a016", "pdf_atom_type": "TABLE_ROW", "pdf_source": "SDTMIG_v3.4", "pdf_page": 69, "pdf_parent_section": "§5.2 [DM – Examples]", "pdf_verbatim": "3 | DEF | DM | 003 | AR | A-RESCUE | BR | B-RESCUE |", "figure_ref": null, "candidates": [{"md_atom_id": "md_dmDM_ex_a051", "md_file": "knowledge_base/domains/DM/examples.md", "md_atom_type": "TABLE_ROW", "md_parent_section": "§DM.3 [Example 3]", "md_verbatim": "| 3 | DEF | DM | 003 | AR | A-RESCUE | BR | B-RESCUE | | |", "score": 1.0, "match_basis": "verbatim_token+domain_route:DM"}, {"md_atom_id": "md_dmDM_ex_a065", "md_file": "knowledge_base/domains/DM/examples.md", "md_atom_type": "TABLE_ROW", "md_parent_section": "§DM.3 [Example 3]", "md_verbatim": "| 8 | DEF | SE | 003 | 3 | RSC | Rescue | 2006-06-27 | 2006-09-24 |", "score": 0.8, "match_basis": "verbatim_token+domain_route:DM"}, {"md_atom_id": "md_dmDM_ex_a063", "md_file": "knowledge_base/domains/DM/examples.md", "md_atom_type": "TABLE_ROW", "md_parent_section": "§DM.3 [Example 3]", "md_verbatim": "| 6 | DEF | SE | 003 | 1 | SCRN | Screen | 2006-02-22 | 2006-03-01 |", "score": 0.4923, "match_basis": "verbatim_token+domain_route:DM"}, {"md_atom_id": "md_dmDM_ex_a050", "md_file": "knowledge_base/domains/DM/examples.md", "md_atom_type": "TABLE_ROW", "md_parent_section": "§DM.3 [Example 3]", "md_verbatim": "| 2 | DEF | DM | 002 | A | A | A | A | | |", "score": 0.4857, "match_basis": "verbatim_token+domain_route:DM"}, {"md_atom_id": "md_dmDM_ex_a064", "md_file": "knowledge_base/domains/DM/examples.md", "md_atom_type": "TABLE_ROW", "md_parent_section": "§DM.3 [Example 3]", "md_verbatim": "| 7 | DEF | SE | 003 | 2 | DBB | Treatment B | 2006-03-01 | 2006-06-27 |", "score": 0.475, "match_basis": "verbatim_token+domain_route:DM"}], "candidate_count": 5, "zero_candidate": false}
{"pdf_atom_id": "ig34_p0069_a017", "pdf_atom_type": "SENTENCE", "pdf_source": "SDTMIG_v3.4", "pdf_page": 69, "pdf_parent_section": "§5.2 [DM – Examples]", "pdf_verbatim": "The following example illustrates values of ARMCD for subjects in Example Trial 3, described in Section 7.2.1, Trial Arms.", "figure_ref": null, "candidates": [{"md_atom_id": "md_dmDM_ex_a052", "md_file": "knowledge_base/domains/DM/examples.md", "md_atom_type": "SENTENCE", "md_parent_section": "§DM.3 [Example 3]", "md_verbatim": "The following example illustrates values of ARMCD for subjects in Example Trial 3, described in Section 7.2.1, Trial Arms.", "score": 1.0, "match_basis": "verbatim_token+domain_route:DM"}, {"md_atom_id": "md_dmDM_ex_a012", "md_file": "knowledge_base/domains/DM/examples.md", "md_atom_type": "SENTENCE", "md_parent_section": "§DM.2 [Example 2]", "md_verbatim": "This example Demographics dataset does not include all the DM required and expected variables, only those that illustrate the variables that represent arm information. The following example illustrates values of ARMCD for subjects in Example Trial 1, described in Section 7.2.1, Trial Arms. This study included 2 elements, screen and run-in, before subjects were randomized to treatment. For this study, the sponsor submitted data on all subjects, including screen-failure subjects.", "score": 0.5889, "match_basis": "verbatim_token+domain_route:DM"}, {"md_atom_id": "md_dmDM_ex_a045", "md_file": "knowledge_base/domains/DM/examples.md", "md_atom_type": "SENTENCE", "md_parent_section": "§DM.3 [Example 3]", "md_verbatim": "**Row 2:** Subject 002 was randomized to drug A. They were lost to follow-up during the double-blind treatment epoch, so never reached the open label epoch, when they would have been assigned to either drug A or the rescue element. Their ARMCD is \"A\". This case illustrates the exception to the rule that ARMCD, ARM, ACTARMCD, and ACTARM must be populated with values from the TA dataset.", "score": 0.5146, "match_basis": "verbatim_token+domain_route:DM"}, {"md_atom_id": "md_dmDM_ex_a154", "md_file": "knowledge_base/domains/DM/examples.md", "md_atom_type": "SENTENCE", "md_parent_section": "§DM.6 [Example 6]", "md_verbatim": "The value of RACE is used to represent the high-level racial designation as a single collected value per CDISC Controlled Terminology in dm.xpt. In this example, subjects chose to select 1 high-level racial designation.", "score": 0.5145, "match_basis": "verbatim_token+domain_route:DM"}, {"md_atom_id": "md_dmDM_assn_a014", "md_file": "knowledge_base/domains/DM/assumptions.md", "md_atom_type": "LIST_ITEM", "md_parent_section": "§DM [DM — Assumptions]", "md_verbatim": "      ii. The Subject Elements (SE) dataset records the series of elements a subject passed through in the course of a trial, and these determine the value of ACTARMCD. The following examples include sample data for both datasets to illustrate this relationship.", "score": 0.5049, "match_basis": "verbatim_token+domain_route:DM"}], "candidate_count": 5, "zero_candidate": false}
{"pdf_atom_id": "ig34_p0069_a018", "pdf_atom_type": "HEADING", "pdf_source": "SDTMIG_v3.4", "pdf_page": 69, "pdf_parent_section": "§5.2 [DM – Examples]", "pdf_verbatim": "Rows 1-3: Show that the subject passed through all 3 elements for the AA arm.", "figure_ref": null, "candidates": [{"md_atom_id": "md_dmDM_assn_a001", "md_file": "knowledge_base/domains/DM/assumptions.md", "md_atom_type": "HEADING", "md_parent_section": "§DM [DM — Assumptions]", "md_verbatim": "# DM — Assumptions", "score": 0.4158, "match_basis": "verbatim_token+domain_route:DM"}, {"md_atom_id": "md_dmDM_ex_a001", "md_file": "knowledge_base/domains/DM/examples.md", "md_atom_type": "HEADING", "md_parent_section": "§DM [DM — Examples]", "md_verbatim": "# DM — Examples", "score": 0.4, "match_basis": "verbatim_token+domain_route:DM"}, {"md_atom_id": "md_dmDM_ex_a002", "md_file": "knowledge_base/domains/DM/examples.md", "md_atom_type": "HEADING", "md_parent_section": "§DM [DM — Examples]", "md_verbatim": "## Example 1", "score": 0.4, "match_basis": "verbatim_token+domain_route:DM"}, {"md_atom_id": "md_dmDM_ex_a011", "md_file": "knowledge_base/domains/DM/examples.md", "md_atom_type": "HEADING", "md_parent_section": "§DM [DM — Examples]", "md_verbatim": "## Example 2", "score": 0.4, "match_basis": "verbatim_token+domain_route:DM"}, {"md_atom_id": "md_dmDM_ex_a043", "md_file": "knowledge_base/domains/DM/examples.md", "md_atom_type": "HEADING", "md_parent_section": "§DM [DM — Examples]", "md_verbatim": "## Example 3", "score": 0.4, "match_basis": "verbatim_token+domain_route:DM"}], "candidate_count": 5, "zero_candidate": false}
{"pdf_atom_id": "ig34_p0069_a019", "pdf_atom_type": "HEADING", "pdf_source": "SDTMIG_v3.4", "pdf_page": 69, "pdf_parent_section": "§5.2 [DM – Examples]", "pdf_verbatim": "Rows 4-5: Show the 2 elements (\"Screen\" and \"Treatment A\") the subject passed through.", "figure_ref": null, "candidates": [{"md_atom_id": "md_dmDM_assn_a001", "md_file": "knowledge_base/domains/DM/assumptions.md", "md_atom_type": "HEADING", "md_parent_section": "§DM [DM — Assumptions]", "md_verbatim": "# DM — Assumptions", "score": 0.414, "match_basis": "verbatim_token+domain_route:DM"}, {"md_atom_id": "md_dmDM_ex_a001", "md_file": "knowledge_base/domains/DM/examples.md", "md_atom_type": "HEADING", "md_parent_section": "§DM [DM — Examples]", "md_verbatim": "# DM — Examples", "score": 0.4, "match_basis": "verbatim_token+domain_route:DM"}, {"md_atom_id": "md_dmDM_ex_a002", "md_file": "knowledge_base/domains/DM/examples.md", "md_atom_type": "HEADING", "md_parent_section": "§DM [DM — Examples]", "md_verbatim": "## Example 1", "score": 0.4, "match_basis": "verbatim_token+domain_route:DM"}, {"md_atom_id": "md_dmDM_ex_a011", "md_file": "knowledge_base/domains/DM/examples.md", "md_atom_type": "HEADING", "md_parent_section": "§DM [DM — Examples]", "md_verbatim": "## Example 2", "score": 0.4, "match_basis": "verbatim_token+domain_route:DM"}, {"md_atom_id": "md_dmDM_ex_a043", "md_file": "knowledge_base/domains/DM/examples.md", "md_atom_type": "HEADING", "md_parent_section": "§DM [DM — Examples]", "md_verbatim": "## Example 3", "score": 0.4, "match_basis": "verbatim_token+domain_route:DM"}], "candidate_count": 5, "zero_candidate": false}
{"pdf_atom_id": "ig34_p0069_a020", "pdf_atom_type": "HEADING", "pdf_source": "SDTMIG_v3.4", "pdf_page": 69, "pdf_parent_section": "§5.2 [DM – Examples]", "pdf_verbatim": "Rows 6-8: Show that the subject passed through the 3 elements associated with the \"B-Rescue\" arm.", "figure_ref": null, "candidates": [{"md_atom_id": "md_dmDM_assn_a001", "md_file": "knowledge_base/domains/DM/assumptions.md", "md_atom_type": "HEADING", "md_parent_section": "§DM [DM — Assumptions]", "md_verbatim": "# DM — Assumptions", "score": 0.4122, "match_basis": "verbatim_token+domain_route:DM"}, {"md_atom_id": "md_dmDM_ex_a001", "md_file": "knowledge_base/domains/DM/examples.md", "md_atom_type": "HEADING", "md_parent_section": "§DM [DM — Examples]", "md_verbatim": "# DM — Examples", "score": 0.4, "match_basis": "verbatim_token+domain_route:DM"}, {"md_atom_id": "md_dmDM_ex_a002", "md_file": "knowledge_base/domains/DM/examples.md", "md_atom_type": "HEADING", "md_parent_section": "§DM [DM — Examples]", "md_verbatim": "## Example 1", "score": 0.4, "match_basis": "verbatim_token+domain_route:DM"}, {"md_atom_id": "md_dmDM_ex_a011", "md_file": "knowledge_base/domains/DM/examples.md", "md_atom_type": "HEADING", "md_parent_section": "§DM [DM — Examples]", "md_verbatim": "## Example 2", "score": 0.4, "match_basis": "verbatim_token+domain_route:DM"}, {"md_atom_id": "md_dmDM_ex_a043", "md_file": "knowledge_base/domains/DM/examples.md", "md_atom_type": "HEADING", "md_parent_section": "§DM [DM — Examples]", "md_verbatim": "## Example 3", "score": 0.4, "match_basis": "verbatim_token+domain_route:DM"}], "candidate_count": 5, "zero_candidate": false}
{"pdf_atom_id": "ig34_p0069_a021", "pdf_atom_type": "CODE_LITERAL", "pdf_source": "SDTMIG_v3.4", "pdf_page": 69, "pdf_parent_section": "§5.2 [DM – Examples]", "pdf_verbatim": "se.xpt", "figure_ref": null, "candidates": [{"md_atom_id": "md_dmDM_ex_a003", "md_file": "knowledge_base/domains/DM/examples.md", "md_atom_type": "SENTENCE", "md_parent_section": "§DM.1 [Example 1]", "md_verbatim": "**dm.xpt**", "score": 0.79, "match_basis": "verbatim_token+domain_route:DM"}, {"md_atom_id": "md_dmDM_ex_a018", "md_file": "knowledge_base/domains/DM/examples.md", "md_atom_type": "SENTENCE", "md_parent_section": "§DM.2 [Example 2]", "md_verbatim": "**dm.xpt**", "score": 0.79, "match_basis": "verbatim_token+domain_route:DM"}, {"md_atom_id": "md_dmDM_ex_a030", "md_file": "knowledge_base/domains/DM/examples.md", "md_atom_type": "SENTENCE", "md_parent_section": "§DM.2 [Example 2]", "md_verbatim": "**se.xpt**", "score": 0.79, "match_basis": "verbatim_token+domain_route:DM"}, {"md_atom_id": "md_dmDM_ex_a047", "md_file": "knowledge_base/domains/DM/examples.md", "md_atom_type": "SENTENCE", "md_parent_section": "§DM.3 [Example 3]", "md_verbatim": "**dm.xpt**", "score": 0.79, "match_basis": "verbatim_token+domain_route:DM"}, {"md_atom_id": "md_dmDM_ex_a056", "md_file": "knowledge_base/domains/DM/examples.md", "md_atom_type": "SENTENCE", "md_parent_section": "§DM.3 [Example 3]", "md_verbatim": "**se.xpt**", "score": 0.79, "match_basis": "verbatim_token+domain_route:DM"}, {"md_atom_id": "md_dmDM_ex_a102", "md_file": "knowledge_base/domains/DM/examples.md", "md_atom_type": "SENTENCE", "md_parent_section": "§DM.4 [Example 4]", "md_verbatim": "**dm.xpt**", "score": 0.79, "match_basis": "verbatim_token+domain_route:DM"}, {"md_atom_id": "md_dmDM_ex_a124", "md_file": "knowledge_base/domains/DM/examples.md", "md_atom_type": "SENTENCE", "md_parent_section": "§DM.5 [Example 5]", "md_verbatim": "**dm.xpt**", "score": 0.79, "match_basis": "verbatim_token+domain_route:DM"}, {"md_atom_id": "md_dmDM_ex_a159", "md_file": "knowledge_base/domains/DM/examples.md", "md_atom_type": "SENTENCE", "md_parent_section": "§DM.6 [Example 6]", "md_verbatim": "**dm.xpt**", "score": 0.79, "match_basis": "verbatim_token+domain_route:DM"}, {"md_atom_id": "md_dmDM_ex_a189", "md_file": "knowledge_base/domains/DM/examples.md", "md_atom_type": "SENTENCE", "md_parent_section": "§DM.7 [Example 7]", "md_verbatim": "**dm.xpt**", "score": 0.79, "match_basis": "verbatim_token+domain_route:DM"}, {"md_atom_id": "md_dmDM_ex_a110", "md_file": "knowledge_base/domains/DM/examples.md", "md_atom_type": "SENTENCE", "md_parent_section": "§DM.4 [Example 4]", "md_verbatim": "**suppdm.xpt**", "score": 0.31, "match_basis": "verbatim_token+domain_route:DM"}], "candidate_count": 10, "zero_candidate": false}
{"pdf_atom_id": "ig34_p0069_a022", "pdf_atom_type": "TABLE_HEADER", "pdf_source": "SDTMIG_v3.4", "pdf_page": 69, "pdf_parent_section": "§5.2 [DM – Examples]", "pdf_verbatim": "SE table with columns: Row, STUDYID, DOMAIN, USUBJID, SESEO, ETCD, ELEMENT, SESTDTC, SEENDTC", "figure_ref": "pdf_p0069+bottom", "candidates": [{"md_atom_id": "md_dmDM_ex_a031", "md_file": "knowledge_base/domains/DM/examples.md", "md_atom_type": "TABLE_HEADER", "md_parent_section": "§DM.2 [Example 2]", "md_verbatim": "| Row | STUDYID | DOMAIN | USUBJID | SESEQ | ETCD | ELEMENT | SESTDTC | SEENDTC |\n|-----|---------|--------|---------|-------|------|---------|---------|---------|", "score": 0.8364, "match_basis": "verbatim_token+domain_route:DM"}, {"md_atom_id": "md_dmDM_ex_a057", "md_file": "knowledge_base/domains/DM/examples.md", "md_atom_type": "TABLE_HEADER", "md_parent_section": "§DM.3 [Example 3]", "md_verbatim": "| Row | STUDYID | DOMAIN | USUBJID | SESEQ | ETCD | ELEMENT | SESTDTC | SEENDTC |\n|-----|---------|--------|---------|-------|------|---------|---------|---------|", "score": 0.8364, "match_basis": "verbatim_token+domain_route:DM"}, {"md_atom_id": "md_dmDM_ex_a103", "md_file": "knowledge_base/domains/DM/examples.md", "md_atom_type": "TABLE_HEADER", "md_parent_section": "§DM.4 [Example 4]", "md_verbatim": "| Row | STUDYID | DOMAIN | USUBJID | SUBJID | RACE |\n|-----|---------|--------|---------|--------|------|", "score": 0.6, "match_basis": "verbatim_token+domain_route:DM"}, {"md_atom_id": "md_dmDM_ex_a160", "md_file": "knowledge_base/domains/DM/examples.md", "md_atom_type": "TABLE_HEADER", "md_parent_section": "§DM.6 [Example 6]", "md_verbatim": "| Row | STUDYID | DOMAIN | USUBJID | SUBJID | RACE |\n|-----|---------|--------|---------|--------|------|", "score": 0.6, "match_basis": "verbatim_token+domain_route:DM"}, {"md_atom_id": "md_dmDM_ex_a125", "md_file": "knowledge_base/domains/DM/examples.md", "md_atom_type": "TABLE_HEADER", "md_parent_section": "§DM.5 [Example 5]", "md_verbatim": "| Row | STUDYID | DOMAIN | USUBJID | SUBJID | AGE | AGEU | SEX | RACE | ETHNIC |\n|-----|---------|--------|---------|--------|-----|------|-----|------|--------|", "score": 0.5731, "match_basis": "verbatim_token+domain_route:DM"}], "candidate_count": 5, "zero_candidate": false}
{"pdf_atom_id": "ig34_p0069_a023", "pdf_atom_type": "TABLE_ROW", "pdf_source": "SDTMIG_v3.4", "pdf_page": 69, "pdf_parent_section": "§5.2 [DM – Examples]", "pdf_verbatim": "1 | ABC | SE | 001 | 1 | SCRN | Screen | 2006-01-07 | 2006-01-12", "figure_ref": null, "candidates": [{"md_atom_id": "md_dmDM_ex_a032", "md_file": "knowledge_base/domains/DM/examples.md", "md_atom_type": "TABLE_ROW", "md_parent_section": "§DM.2 [Example 2]", "md_verbatim": "| 1 | ABC | SE | 001 | 1 | SCRN | Screen | 2006-06-01 | 2006-06-07 |", "score": 1.0, "match_basis": "verbatim_token+domain_route:DM"}, {"md_atom_id": "md_dmDM_ex_a035", "md_file": "knowledge_base/domains/DM/examples.md", "md_atom_type": "TABLE_ROW", "md_parent_section": "§DM.2 [Example 2]", "md_verbatim": "| 4 | ABC | SE | 002 | 1 | SCRN | Screen | 2006-05-03 | 2006-05-10 |", "score": 0.88, "match_basis": "verbatim_token+domain_route:DM"}, {"md_atom_id": "md_dmDM_ex_a038", "md_file": "knowledge_base/domains/DM/examples.md", "md_atom_type": "TABLE_ROW", "md_parent_section": "§DM.2 [Example 2]", "md_verbatim": "| 7 | ABC | SE | 003 | 1 | SCRN | Screen | 2006-06-27 | 2006-06-30 |", "score": 0.88, "match_basis": "verbatim_token+domain_route:DM"}, {"md_atom_id": "md_dmDM_ex_a039", "md_file": "knowledge_base/domains/DM/examples.md", "md_atom_type": "TABLE_ROW", "md_parent_section": "§DM.2 [Example 2]", "md_verbatim": "| 8 | ABC | SE | 004 | 1 | SCRN | Screen | 2006-05-14 | 2006-05-21 |", "score": 0.88, "match_basis": "verbatim_token+domain_route:DM"}, {"md_atom_id": "md_dmDM_ex_a041", "md_file": "knowledge_base/domains/DM/examples.md", "md_atom_type": "TABLE_ROW", "md_parent_section": "§DM.2 [Example 2]", "md_verbatim": "| 10 | ABC | SE | 005 | 1 | SCRN | Screen | 2006-05-14 | 2006-05-21 |", "score": 0.88, "match_basis": "verbatim_token+domain_route:DM"}], "candidate_count": 5, "zero_candidate": false}
{"pdf_atom_id": "ig34_p0069_a024", "pdf_atom_type": "TABLE_ROW", "pdf_source": "SDTMIG_v3.4", "pdf_page": 69, "pdf_parent_section": "§5.2 [DM – Examples]", "pdf_verbatim": "2 | ABC | SE | 001 | 2 | DBA | Treatment A | 2006-01-12 | 2006-06-21", "figure_ref": null, "candidates": [{"md_atom_id": "md_dmDM_ex_a059", "md_file": "knowledge_base/domains/DM/examples.md", "md_atom_type": "TABLE_ROW", "md_parent_section": "§DM.3 [Example 3]", "md_verbatim": "| 2 | DEF | SE | 001 | 2 | DBA | Treatment A | 2006-01-12 | 2006-04-10 |", "score": 0.9077, "match_basis": "verbatim_token+domain_route:DM"}, {"md_atom_id": "md_dmDM_ex_a062", "md_file": "knowledge_base/domains/DM/examples.md", "md_atom_type": "TABLE_ROW", "md_parent_section": "§DM.3 [Example 3]", "md_verbatim": "| 5 | DEF | SE | 002 | 2 | DBA | Treatment A | 2006-02-10 | 2006-03-24 |", "score": 0.8286, "match_basis": "verbatim_token+domain_route:DM"}, {"md_atom_id": "md_dmDM_ex_a064", "md_file": "knowledge_base/domains/DM/examples.md", "md_atom_type": "TABLE_ROW", "md_parent_section": "§DM.3 [Example 3]", "md_verbatim": "| 7 | DEF | SE | 003 | 2 | DBB | Treatment B | 2006-03-01 | 2006-06-27 |", "score": 0.76, "match_basis": "verbatim_token+domain_route:DM"}, {"md_atom_id": "md_dmDM_ex_a033", "md_file": "knowledge_base/domains/DM/examples.md", "md_atom_type": "TABLE_ROW", "md_parent_section": "§DM.2 [Example 2]", "md_verbatim": "| 2 | ABC | SE | 001 | 2 | RI | Run-In | 2006-06-07 | 2006-06-21 |", "score": 0.5846, "match_basis": "verbatim_token+domain_route:DM"}, {"md_atom_id": "md_dmDM_ex_a034", "md_file": "knowledge_base/domains/DM/examples.md", "md_atom_type": "TABLE_ROW", "md_parent_section": "§DM.2 [Example 2]", "md_verbatim": "| 3 | ABC | SE | 001 | 3 | A | Drug A | 2006-06-21 | 2006-07-05 |", "score": 0.5714, "match_basis": "verbatim_token+domain_route:DM"}], "candidate_count": 5, "zero_candidate": false}
{"pdf_atom_id": "ig34_p0069_a025", "pdf_atom_type": "TABLE_ROW", "pdf_source": "SDTMIG_v3.4", "pdf_page": 69, "pdf_parent_section": "§5.2 [DM – Examples]", "pdf_verbatim": "3 | ABC | SE | 001 | 3 | OA | Drug A | 2006-06-21 | 2006-07-05", "figure_ref": null, "candidates": [{"md_atom_id": "md_dmDM_ex_a034", "md_file": "knowledge_base/domains/DM/examples.md", "md_atom_type": "TABLE_ROW", "md_parent_section": "§DM.2 [Example 2]", "md_verbatim": "| 3 | ABC | SE | 001 | 3 | A | Drug A | 2006-06-21 | 2006-07-05 |", "score": 1.0, "match_basis": "verbatim_token+domain_route:DM"}, {"md_atom_id": "md_dmDM_ex_a037", "md_file": "knowledge_base/domains/DM/examples.md", "md_atom_type": "TABLE_ROW", "md_parent_section": "§DM.2 [Example 2]", "md_verbatim": "| 6 | ABC | SE | 002 | 3 | B | Drug B | 2006-05-24 | 2006-06-07 |", "score": 0.8286, "match_basis": "verbatim_token+domain_route:DM"}, {"md_atom_id": "md_dmDM_ex_a020", "md_file": "knowledge_base/domains/DM/examples.md", "md_atom_type": "TABLE_ROW", "md_parent_section": "§DM.2 [Example 2]", "md_verbatim": "| 1 | ABC | DM | 001 | A | Drug A | A | Drug A | | |", "score": 0.8, "match_basis": "verbatim_token+domain_route:DM"}, {"md_atom_id": "md_dmDM_ex_a033", "md_file": "knowledge_base/domains/DM/examples.md", "md_atom_type": "TABLE_ROW", "md_parent_section": "§DM.2 [Example 2]", "md_verbatim": "| 2 | ABC | SE | 001 | 2 | RI | Run-In | 2006-06-07 | 2006-06-21 |", "score": 0.7429, "match_basis": "verbatim_token+domain_route:DM"}, {"md_atom_id": "md_dmDM_ex_a060", "md_file": "knowledge_base/domains/DM/examples.md", "md_atom_type": "TABLE_ROW", "md_parent_section": "§DM.3 [Example 3]", "md_verbatim": "| 3 | DEF | SE | 001 | 3 | OA | Open Drug A | 2006-04-10 | 2006-07-05 |", "score": 0.7333, "match_basis": "verbatim_token+domain_route:DM"}], "candidate_count": 5, "zero_candidate": false}
{"pdf_atom_id": "ig34_p0069_a026", "pdf_atom_type": "TABLE_ROW", "pdf_source": "SDTMIG_v3.4", "pdf_page": 69, "pdf_parent_section": "§5.2 [DM – Examples]", "pdf_verbatim": "4 | ABC | SE | 002 | 1 | SCRN | Screen | 2006-05-03 | 2006-05-10", "figure_ref": null, "candidates": [{"md_atom_id": "md_dmDM_ex_a035", "md_file": "knowledge_base/domains/DM/examples.md", "md_atom_type": "TABLE_ROW", "md_parent_section": "§DM.2 [Example 2]", "md_verbatim": "| 4 | ABC | SE | 002 | 1 | SCRN | Screen | 2006-05-03 | 2006-05-10 |", "score": 1.0, "match_basis": "verbatim_token+domain_route:DM"}, {"md_atom_id": "md_dmDM_ex_a032", "md_file": "knowledge_base/domains/DM/examples.md", "md_atom_type": "TABLE_ROW", "md_parent_section": "§DM.2 [Example 2]", "md_verbatim": "| 1 | ABC | SE | 001 | 1 | SCRN | Screen | 2006-06-01 | 2006-06-07 |", "score": 0.88, "match_basis": "verbatim_token+domain_route:DM"}, {"md_atom_id": "md_dmDM_ex_a038", "md_file": "knowledge_base/domains/DM/examples.md", "md_atom_type": "TABLE_ROW", "md_parent_section": "§DM.2 [Example 2]", "md_verbatim": "| 7 | ABC | SE | 003 | 1 | SCRN | Screen | 2006-06-27 | 2006-06-30 |", "score": 0.88, "match_basis": "verbatim_token+domain_route:DM"}, {"md_atom_id": "md_dmDM_ex_a039", "md_file": "knowledge_base/domains/DM/examples.md", "md_atom_type": "TABLE_ROW", "md_parent_section": "§DM.2 [Example 2]", "md_verbatim": "| 8 | ABC | SE | 004 | 1 | SCRN | Screen | 2006-05-14 | 2006-05-21 |", "score": 0.88, "match_basis": "verbatim_token+domain_route:DM"}, {"md_atom_id": "md_dmDM_ex_a041", "md_file": "knowledge_base/domains/DM/examples.md", "md_atom_type": "TABLE_ROW", "md_parent_section": "§DM.2 [Example 2]", "md_verbatim": "| 10 | ABC | SE | 005 | 1 | SCRN | Screen | 2006-05-14 | 2006-05-21 |", "score": 0.88, "match_basis": "verbatim_token+domain_route:DM"}], "candidate_count": 5, "zero_candidate": false}
{"pdf_atom_id": "ig34_p0069_a027", "pdf_atom_type": "TABLE_ROW", "pdf_source": "SDTMIG_v3.4", "pdf_page": 69, "pdf_parent_section": "§5.2 [DM – Examples]", "pdf_verbatim": "5 | ABC | SE | 002 | 2 | DBA | Treatment A | 2006-05-10 | 2006-05-24", "figure_ref": null, "candidates": [{"md_atom_id": "md_dmDM_ex_a062", "md_file": "knowledge_base/domains/DM/examples.md", "md_atom_type": "TABLE_ROW", "md_parent_section": "§DM.3 [Example 3]", "md_verbatim": "| 5 | DEF | SE | 002 | 2 | DBA | Treatment A | 2006-02-10 | 2006-03-24 |", "score": 0.9077, "match_basis": "verbatim_token+domain_route:DM"}, {"md_atom_id": "md_dmDM_ex_a059", "md_file": "knowledge_base/domains/DM/examples.md", "md_atom_type": "TABLE_ROW", "md_parent_section": "§DM.3 [Example 3]", "md_verbatim": "| 2 | DEF | SE | 001 | 2 | DBA | Treatment A | 2006-01-12 | 2006-04-10 |", "score": 0.8286, "match_basis": "verbatim_token+domain_route:DM"}, {"md_atom_id": "md_dmDM_ex_a064", "md_file": "knowledge_base/domains/DM/examples.md", "md_atom_type": "TABLE_ROW", "md_parent_section": "§DM.3 [Example 3]", "md_verbatim": "| 7 | DEF | SE | 003 | 2 | DBB | Treatment B | 2006-03-01 | 2006-06-27 |", "score": 0.76, "match_basis": "verbatim_token+domain_route:DM"}, {"md_atom_id": "md_dmDM_ex_a036", "md_file": "knowledge_base/domains/DM/examples.md", "md_atom_type": "TABLE_ROW", "md_parent_section": "§DM.2 [Example 2]", "md_verbatim": "| 5 | ABC | SE | 002 | 2 | RI | Run-In | 2006-05-10 | 2006-05-24 |", "score": 0.5846, "match_basis": "verbatim_token+domain_route:DM"}, {"md_atom_id": "md_dmDM_ex_a037", "md_file": "knowledge_base/domains/DM/examples.md", "md_atom_type": "TABLE_ROW", "md_parent_section": "§DM.2 [Example 2]", "md_verbatim": "| 6 | ABC | SE | 002 | 3 | B | Drug B | 2006-05-24 | 2006-06-07 |", "score": 0.5714, "match_basis": "verbatim_token+domain_route:DM"}], "candidate_count": 5, "zero_candidate": false}
{"pdf_atom_id": "ig34_p0069_a028", "pdf_atom_type": "TABLE_ROW", "pdf_source": "SDTMIG_v3.4", "pdf_page": 69, "pdf_parent_section": "§5.2 [DM – Examples]", "pdf_verbatim": "6 | ABC | SE | 002 | 3 | B | Drug B | 2006-05-24 | 2006-06-07", "figure_ref": null, "candidates": [{"md_atom_id": "md_dmDM_ex_a037", "md_file": "knowledge_base/domains/DM/examples.md", "md_atom_type": "TABLE_ROW", "md_parent_section": "§DM.2 [Example 2]", "md_verbatim": "| 6 | ABC | SE | 002 | 3 | B | Drug B | 2006-05-24 | 2006-06-07 |", "score": 1.0, "match_basis": "verbatim_token+domain_route:DM"}, {"md_atom_id": "md_dmDM_ex_a034", "md_file": "knowledge_base/domains/DM/examples.md", "md_atom_type": "TABLE_ROW", "md_parent_section": "§DM.2 [Example 2]", "md_verbatim": "| 3 | ABC | SE | 001 | 3 | A | Drug A | 2006-06-21 | 2006-07-05 |", "score": 0.8286, "match_basis": "verbatim_token+domain_route:DM"}, {"md_atom_id": "md_dmDM_ex_a021", "md_file": "knowledge_base/domains/DM/examples.md", "md_atom_type": "TABLE_ROW", "md_parent_section": "§DM.2 [Example 2]", "md_verbatim": "| 2 | ABC | DM | 002 | B | Drug B | B | Drug B | | |", "score": 0.8, "match_basis": "verbatim_token+domain_route:DM"}, {"md_atom_id": "md_dmDM_ex_a036", "md_file": "knowledge_base/domains/DM/examples.md", "md_atom_type": "TABLE_ROW", "md_parent_section": "§DM.2 [Example 2]", "md_verbatim": "| 5 | ABC | SE | 002 | 2 | RI | Run-In | 2006-05-10 | 2006-05-24 |", "score": 0.7429, "match_basis": "verbatim_token+domain_route:DM"}, {"md_atom_id": "md_dmDM_ex_a020", "md_file": "knowledge_base/domains/DM/examples.md", "md_atom_type": "TABLE_ROW", "md_parent_section": "§DM.2 [Example 2]", "md_verbatim": "| 1 | ABC | DM | 001 | A | Drug A | A | Drug A | | |", "score": 0.6571, "match_basis": "verbatim_token+domain_route:DM"}], "candidate_count": 5, "zero_candidate": false}
{"pdf_atom_id": "ig34_p0069_a029", "pdf_atom_type": "TABLE_ROW", "pdf_source": "SDTMIG_v3.4", "pdf_page": 69, "pdf_parent_section": "§5.2 [DM – Examples]", "pdf_verbatim": "7 | ABC | SE | 003 | 1 | SCRN | Screen | 2006-05-27 | 2006-06-30", "figure_ref": null, "candidates": [{"md_atom_id": "md_dmDM_ex_a038", "md_file": "knowledge_base/domains/DM/examples.md", "md_atom_type": "TABLE_ROW", "md_parent_section": "§DM.2 [Example 2]", "md_verbatim": "| 7 | ABC | SE | 003 | 1 | SCRN | Screen | 2006-06-27 | 2006-06-30 |", "score": 1.0, "match_basis": "verbatim_token+domain_route:DM"}, {"md_atom_id": "md_dmDM_ex_a032", "md_file": "knowledge_base/domains/DM/examples.md", "md_atom_type": "TABLE_ROW", "md_parent_section": "§DM.2 [Example 2]", "md_verbatim": "| 1 | ABC | SE | 001 | 1 | SCRN | Screen | 2006-06-01 | 2006-06-07 |", "score": 0.88, "match_basis": "verbatim_token+domain_route:DM"}, {"md_atom_id": "md_dmDM_ex_a035", "md_file": "knowledge_base/domains/DM/examples.md", "md_atom_type": "TABLE_ROW", "md_parent_section": "§DM.2 [Example 2]", "md_verbatim": "| 4 | ABC | SE | 002 | 1 | SCRN | Screen | 2006-05-03 | 2006-05-10 |", "score": 0.88, "match_basis": "verbatim_token+domain_route:DM"}, {"md_atom_id": "md_dmDM_ex_a039", "md_file": "knowledge_base/domains/DM/examples.md", "md_atom_type": "TABLE_ROW", "md_parent_section": "§DM.2 [Example 2]", "md_verbatim": "| 8 | ABC | SE | 004 | 1 | SCRN | Screen | 2006-05-14 | 2006-05-21 |", "score": 0.88, "match_basis": "verbatim_token+domain_route:DM"}, {"md_atom_id": "md_dmDM_ex_a041", "md_file": "knowledge_base/domains/DM/examples.md", "md_atom_type": "TABLE_ROW", "md_parent_section": "§DM.2 [Example 2]", "md_verbatim": "| 10 | ABC | SE | 005 | 1 | SCRN | Screen | 2006-05-14 | 2006-05-21 |", "score": 0.88, "match_basis": "verbatim_token+domain_route:DM"}], "candidate_count": 5, "zero_candidate": false}
{"pdf_atom_id": "ig34_p0069_a030", "pdf_atom_type": "TABLE_ROW", "pdf_source": "SDTMIG_v3.4", "pdf_page": 69, "pdf_parent_section": "§5.2 [DM – Examples]", "pdf_verbatim": "8 | ABC | SE | 004 | 2 | RI | Run-in | 2006-05-21 | 2006-05-26", "figure_ref": null, "candidates": [{"md_atom_id": "md_dmDM_ex_a040", "md_file": "knowledge_base/domains/DM/examples.md", "md_atom_type": "TABLE_ROW", "md_parent_section": "§DM.2 [Example 2]", "md_verbatim": "| 9 | ABC | SE | 004 | 2 | RI | Run-In | 2006-05-21 | 2006-05-26 |", "score": 1.0, "match_basis": "verbatim_token+domain_route:DM"}, {"md_atom_id": "md_dmDM_ex_a033", "md_file": "knowledge_base/domains/DM/examples.md", "md_atom_type": "TABLE_ROW", "md_parent_section": "§DM.2 [Example 2]", "md_verbatim": "| 2 | ABC | SE | 001 | 2 | RI | Run-In | 2006-06-07 | 2006-06-21 |", "score": 0.8, "match_basis": "verbatim_token+domain_route:DM"}, {"md_atom_id": "md_dmDM_ex_a036", "md_file": "knowledge_base/domains/DM/examples.md", "md_atom_type": "TABLE_ROW", "md_parent_section": "§DM.2 [Example 2]", "md_verbatim": "| 5 | ABC | SE | 002 | 2 | RI | Run-In | 2006-05-10 | 2006-05-24 |", "score": 0.8, "match_basis": "verbatim_token+domain_route:DM"}, {"md_atom_id": "md_dmDM_ex_a042", "md_file": "knowledge_base/domains/DM/examples.md", "md_atom_type": "TABLE_ROW", "md_parent_section": "§DM.2 [Example 2]", "md_verbatim": "| 11 | ABC | SE | 005 | 2 | RI | Run-In | 2006-05-21 | 2006-05-26 |", "score": 0.8, "match_basis": "verbatim_token+domain_route:DM"}, {"md_atom_id": "md_dmDM_ex_a039", "md_file": "knowledge_base/domains/DM/examples.md", "md_atom_type": "TABLE_ROW", "md_parent_section": "§DM.2 [Example 2]", "md_verbatim": "| 8 | ABC | SE | 004 | 1 | SCRN | Screen | 2006-05-14 | 2006-05-21 |", "score": 0.64, "match_basis": "verbatim_token+domain_route:DM"}, {"md_atom_id": "md_dmDM_ex_a034", "md_file": "knowledge_base/domains/DM/examples.md", "md_atom_type": "TABLE_ROW", "md_parent_section": "§DM.2 [Example 2]", "md_verbatim": "| 3 | ABC | SE | 001 | 3 | A | Drug A | 2006-06-21 | 2006-07-05 |", "score": 0.625, "match_basis": "verbatim_token+domain_route:DM"}, {"md_atom_id": "md_dmDM_ex_a037", "md_file": "knowledge_base/domains/DM/examples.md", "md_atom_type": "TABLE_ROW", "md_parent_section": "§DM.2 [Example 2]", "md_verbatim": "| 6 | ABC | SE | 002 | 3 | B | Drug B | 2006-05-24 | 2006-06-07 |", "score": 0.625, "match_basis": "verbatim_token+domain_route:DM"}, {"md_atom_id": "md_dmDM_ex_a032", "md_file": "knowledge_base/domains/DM/examples.md", "md_atom_type": "TABLE_ROW", "md_parent_section": "§DM.2 [Example 2]", "md_verbatim": "| 1 | ABC | SE | 001 | 1 | SCRN | Screen | 2006-06-01 | 2006-06-07 |", "score": 0.5636, "match_basis": "verbatim_token+domain_route:DM"}, {"md_atom_id": "md_dmDM_ex_a035", "md_file": "knowledge_base/domains/DM/examples.md", "md_atom_type": "TABLE_ROW", "md_parent_section": "§DM.2 [Example 2]", "md_verbatim": "| 4 | ABC | SE | 002 | 1 | SCRN | Screen | 2006-05-03 | 2006-05-10 |", "score": 0.5636, "match_basis": "verbatim_token+domain_route:DM"}, {"md_atom_id": "md_dmDM_ex_a038", "md_file": "knowledge_base/domains/DM/examples.md", "md_atom_type": "TABLE_ROW", "md_parent_section": "§DM.2 [Example 2]", "md_verbatim": "| 7 | ABC | SE | 003 | 1 | SCRN | Screen | 2006-06-27 | 2006-06-30 |", "score": 0.5636, "match_basis": "verbatim_token+domain_route:DM"}], "candidate_count": 10, "zero_candidate": false}
{"pdf_atom_id": "ig34_p0069_a031", "pdf_atom_type": "TABLE_ROW", "pdf_source": "SDTMIG_v3.4", "pdf_page": 69, "pdf_parent_section": "§5.2 [DM – Examples]", "pdf_verbatim": "9 | ABC | SE | 004 | 2 | RI | Run-in | 2006-05-14 | 2006-05-26", "figure_ref": null, "candidates": [{"md_atom_id": "md_dmDM_ex_a040", "md_file": "knowledge_base/domains/DM/examples.md", "md_atom_type": "TABLE_ROW", "md_parent_section": "§DM.2 [Example 2]", "md_verbatim": "| 9 | ABC | SE | 004 | 2 | RI | Run-In | 2006-05-21 | 2006-05-26 |", "score": 1.0, "match_basis": "verbatim_token+domain_route:DM"}, {"md_atom_id": "md_dmDM_ex_a033", "md_file": "knowledge_base/domains/DM/examples.md", "md_atom_type": "TABLE_ROW", "md_parent_section": "§DM.2 [Example 2]", "md_verbatim": "| 2 | ABC | SE | 001 | 2 | RI | Run-In | 2006-06-07 | 2006-06-21 |", "score": 0.8, "match_basis": "verbatim_token+domain_route:DM"}, {"md_atom_id": "md_dmDM_ex_a036", "md_file": "knowledge_base/domains/DM/examples.md", "md_atom_type": "TABLE_ROW", "md_parent_section": "§DM.2 [Example 2]", "md_verbatim": "| 5 | ABC | SE | 002 | 2 | RI | Run-In | 2006-05-10 | 2006-05-24 |", "score": 0.8, "match_basis": "verbatim_token+domain_route:DM"}, {"md_atom_id": "md_dmDM_ex_a042", "md_file": "knowledge_base/domains/DM/examples.md", "md_atom_type": "TABLE_ROW", "md_parent_section": "§DM.2 [Example 2]", "md_verbatim": "| 11 | ABC | SE | 005 | 2 | RI | Run-In | 2006-05-21 | 2006-05-26 |", "score": 0.8, "match_basis": "verbatim_token+domain_route:DM"}, {"md_atom_id": "md_dmDM_ex_a039", "md_file": "knowledge_base/domains/DM/examples.md", "md_atom_type": "TABLE_ROW", "md_parent_section": "§DM.2 [Example 2]", "md_verbatim": "| 8 | ABC | SE | 004 | 1 | SCRN | Screen | 2006-05-14 | 2006-05-21 |", "score": 0.64, "match_basis": "verbatim_token+domain_route:DM"}, {"md_atom_id": "md_dmDM_ex_a034", "md_file": "knowledge_base/domains/DM/examples.md", "md_atom_type": "TABLE_ROW", "md_parent_section": "§DM.2 [Example 2]", "md_verbatim": "| 3 | ABC | SE | 001 | 3 | A | Drug A | 2006-06-21 | 2006-07-05 |", "score": 0.625, "match_basis": "verbatim_token+domain_route:DM"}, {"md_atom_id": "md_dmDM_ex_a037", "md_file": "knowledge_base/domains/DM/examples.md", "md_atom_type": "TABLE_ROW", "md_parent_section": "§DM.2 [Example 2]", "md_verbatim": "| 6 | ABC | SE | 002 | 3 | B | Drug B | 2006-05-24 | 2006-06-07 |", "score": 0.625, "match_basis": "verbatim_token+domain_route:DM"}, {"md_atom_id": "md_dmDM_ex_a032", "md_file": "knowledge_base/domains/DM/examples.md", "md_atom_type": "TABLE_ROW", "md_parent_section": "§DM.2 [Example 2]", "md_verbatim": "| 1 | ABC | SE | 001 | 1 | SCRN | Screen | 2006-06-01 | 2006-06-07 |", "score": 0.5636, "match_basis": "verbatim_token+domain_route:DM"}, {"md_atom_id": "md_dmDM_ex_a035", "md_file": "knowledge_base/domains/DM/examples.md", "md_atom_type": "TABLE_ROW", "md_parent_section": "§DM.2 [Example 2]", "md_verbatim": "| 4 | ABC | SE | 002 | 1 | SCRN | Screen | 2006-05-03 | 2006-05-10 |", "score": 0.5636, "match_basis": "verbatim_token+domain_route:DM"}, {"md_atom_id": "md_dmDM_ex_a038", "md_file": "knowledge_base/domains/DM/examples.md", "md_atom_type": "TABLE_ROW", "md_parent_section": "§DM.2 [Example 2]", "md_verbatim": "| 7 | ABC | SE | 003 | 1 | SCRN | Screen | 2006-06-27 | 2006-06-30 |", "score": 0.5636, "match_basis": "verbatim_token+domain_route:DM"}], "candidate_count": 10, "zero_candidate": false}
{"pdf_atom_id": "ig34_p0069_a032", "pdf_atom_type": "TABLE_ROW", "pdf_source": "SDTMIG_v3.4", "pdf_page": 69, "pdf_parent_section": "§5.2 [DM – Examples]", "pdf_verbatim": "10 | ABC | SE | 004 | 1 | RI | Run-in | 2006-05-14 | 2006-05-26", "figure_ref": null, "candidates": [{"md_atom_id": "md_dmDM_ex_a040", "md_file": "knowledge_base/domains/DM/examples.md", "md_atom_type": "TABLE_ROW", "md_parent_section": "§DM.2 [Example 2]", "md_verbatim": "| 9 | ABC | SE | 004 | 2 | RI | Run-In | 2006-05-21 | 2006-05-26 |", "score": 1.0, "match_basis": "verbatim_token+domain_route:DM"}, {"md_atom_id": "md_dmDM_ex_a033", "md_file": "knowledge_base/domains/DM/examples.md", "md_atom_type": "TABLE_ROW", "md_parent_section": "§DM.2 [Example 2]", "md_verbatim": "| 2 | ABC | SE | 001 | 2 | RI | Run-In | 2006-06-07 | 2006-06-21 |", "score": 0.8, "match_basis": "verbatim_token+domain_route:DM"}, {"md_atom_id": "md_dmDM_ex_a036", "md_file": "knowledge_base/domains/DM/examples.md", "md_atom_type": "TABLE_ROW", "md_parent_section": "§DM.2 [Example 2]", "md_verbatim": "| 5 | ABC | SE | 002 | 2 | RI | Run-In | 2006-05-10 | 2006-05-24 |", "score": 0.8, "match_basis": "verbatim_token+domain_route:DM"}, {"md_atom_id": "md_dmDM_ex_a042", "md_file": "knowledge_base/domains/DM/examples.md", "md_atom_type": "TABLE_ROW", "md_parent_section": "§DM.2 [Example 2]", "md_verbatim": "| 11 | ABC | SE | 005 | 2 | RI | Run-In | 2006-05-21 | 2006-05-26 |", "score": 0.8, "match_basis": "verbatim_token+domain_route:DM"}, {"md_atom_id": "md_dmDM_ex_a039", "md_file": "knowledge_base/domains/DM/examples.md", "md_atom_type": "TABLE_ROW", "md_parent_section": "§DM.2 [Example 2]", "md_verbatim": "| 8 | ABC | SE | 004 | 1 | SCRN | Screen | 2006-05-14 | 2006-05-21 |", "score": 0.64, "match_basis": "verbatim_token+domain_route:DM"}, {"md_atom_id": "md_dmDM_ex_a034", "md_file": "knowledge_base/domains/DM/examples.md", "md_atom_type": "TABLE_ROW", "md_parent_section": "§DM.2 [Example 2]", "md_verbatim": "| 3 | ABC | SE | 001 | 3 | A | Drug A | 2006-06-21 | 2006-07-05 |", "score": 0.625, "match_basis": "verbatim_token+domain_route:DM"}, {"md_atom_id": "md_dmDM_ex_a037", "md_file": "knowledge_base/domains/DM/examples.md", "md_atom_type": "TABLE_ROW", "md_parent_section": "§DM.2 [Example 2]", "md_verbatim": "| 6 | ABC | SE | 002 | 3 | B | Drug B | 2006-05-24 | 2006-06-07 |", "score": 0.625, "match_basis": "verbatim_token+domain_route:DM"}, {"md_atom_id": "md_dmDM_ex_a032", "md_file": "knowledge_base/domains/DM/examples.md", "md_atom_type": "TABLE_ROW", "md_parent_section": "§DM.2 [Example 2]", "md_verbatim": "| 1 | ABC | SE | 001 | 1 | SCRN | Screen | 2006-06-01 | 2006-06-07 |", "score": 0.5636, "match_basis": "verbatim_token+domain_route:DM"}, {"md_atom_id": "md_dmDM_ex_a035", "md_file": "knowledge_base/domains/DM/examples.md", "md_atom_type": "TABLE_ROW", "md_parent_section": "§DM.2 [Example 2]", "md_verbatim": "| 4 | ABC | SE | 002 | 1 | SCRN | Screen | 2006-05-03 | 2006-05-10 |", "score": 0.5636, "match_basis": "verbatim_token+domain_route:DM"}, {"md_atom_id": "md_dmDM_ex_a038", "md_file": "knowledge_base/domains/DM/examples.md", "md_atom_type": "TABLE_ROW", "md_parent_section": "§DM.2 [Example 2]", "md_verbatim": "| 7 | ABC | SE | 003 | 1 | SCRN | Screen | 2006-06-27 | 2006-06-30 |", "score": 0.5636, "match_basis": "verbatim_token+domain_route:DM"}], "candidate_count": 10, "zero_candidate": false}
{"pdf_atom_id": "ig34_p0070_a001", "pdf_atom_type": "HEADING", "pdf_source": "SDTMIG_v3.4", "pdf_page": 70, "pdf_parent_section": "§5.2 [DM – Examples]", "pdf_verbatim": "Example 4", "figure_ref": null, "candidates": [{"md_atom_id": "md_dmDM_ex_a002", "md_file": "knowledge_base/domains/DM/examples.md", "md_atom_type": "HEADING", "md_parent_section": "§DM [DM — Examples]", "md_verbatim": "## Example 1", "score": 1.0, "match_basis": "verbatim_token+domain_route:DM"}, {"md_atom_id": "md_dmDM_ex_a011", "md_file": "knowledge_base/domains/DM/examples.md", "md_atom_type": "HEADING", "md_parent_section": "§DM [DM — Examples]", "md_verbatim": "## Example 2", "score": 1.0, "match_basis": "verbatim_token+domain_route:DM"}, {"md_atom_id": "md_dmDM_ex_a043", "md_file": "knowledge_base/domains/DM/examples.md", "md_atom_type": "HEADING", "md_parent_section": "§DM [DM — Examples]", "md_verbatim": "## Example 3", "score": 1.0, "match_basis": "verbatim_token+domain_route:DM"}, {"md_atom_id": "md_dmDM_ex_a066", "md_file": "knowledge_base/domains/DM/examples.md", "md_atom_type": "HEADING", "md_parent_section": "§DM [DM — Examples]", "md_verbatim": "## Example 4", "score": 1.0, "match_basis": "verbatim_token+domain_route:DM"}, {"md_atom_id": "md_dmDM_ex_a117", "md_file": "knowledge_base/domains/DM/examples.md", "md_atom_type": "HEADING", "md_parent_section": "§DM [DM — Examples]", "md_verbatim": "## Example 5", "score": 1.0, "match_basis": "verbatim_token+domain_route:DM"}, {"md_atom_id": "md_dmDM_ex_a135", "md_file": "knowledge_base/domains/DM/examples.md", "md_atom_type": "HEADING", "md_parent_section": "§DM [DM — Examples]", "md_verbatim": "## Example 6", "score": 1.0, "match_basis": "verbatim_token+domain_route:DM"}, {"md_atom_id": "md_dmDM_ex_a173", "md_file": "knowledge_base/domains/DM/examples.md", "md_atom_type": "HEADING", "md_parent_section": "§DM [DM — Examples]", "md_verbatim": "## Example 7", "score": 1.0, "match_basis": "verbatim_token+domain_route:DM"}, {"md_atom_id": "md_dmDM_ex_a001", "md_file": "knowledge_base/domains/DM/examples.md", "md_atom_type": "HEADING", "md_parent_section": "§DM [DM — Examples]", "md_verbatim": "# DM — Examples", "score": 0.9, "match_basis": "verbatim_token+domain_route:DM"}, {"md_atom_id": "md_dmDM_assn_a001", "md_file": "knowledge_base/domains/DM/assumptions.md", "md_atom_type": "HEADING", "md_parent_section": "§DM [DM — Assumptions]", "md_verbatim": "# DM — Assumptions", "score": 0.4, "match_basis": "verbatim_token+domain_route:DM"}], "candidate_count": 9, "zero_candidate": false}
{"pdf_atom_id": "ig34_p0070_a002", "pdf_atom_type": "SENTENCE", "pdf_source": "SDTMIG_v3.4", "pdf_page": 70, "pdf_parent_section": "§5.2 [DM – Examples]", "pdf_verbatim": "The CRF in this example is annotated to show the CDASH variable name and the target SDTMIG variable.", "figure_ref": null, "candidates": [{"md_atom_id": "md_dmDM_ex_a067", "md_file": "knowledge_base/domains/DM/examples.md", "md_atom_type": "SENTENCE", "md_parent_section": "§DM.4 [Example 4]", "md_verbatim": "The CRF in this example is annotated to show the CDASH variable name and the target SDTMIG variable. Data that are collected using the same variable name as defined in the SDTMIG are in RED. If the CDASHIG variable differs from the one defined in the SDTMIG, the CDASHIG variable is in GREY.", "score": 0.7211, "match_basis": "verbatim_token+domain_route:DM"}, {"md_atom_id": "md_dmDM_ex_a136", "md_file": "knowledge_base/domains/DM/examples.md", "md_atom_type": "SENTENCE", "md_parent_section": "§DM.6 [Example 6]", "md_verbatim": "The CRF in this example is annotated to show the CDASH variable name and the target SDTMIG variable. Data that are collected using the same variable name as defined in the SDTMIG are in RED. If the CDASHIG variable differs from the one defined in the SDTMIG, the CDASHIG variable is in GREY.", "score": 0.7211, "match_basis": "verbatim_token+domain_route:DM"}, {"md_atom_id": "md_dmDM_ex_a071", "md_file": "knowledge_base/domains/DM/examples.md", "md_atom_type": "SENTENCE", "md_parent_section": "§DM.4 [Example 4]", "md_verbatim": "> Variable annotation: CDASHIG variables (RACE01–RACE07, CRACE01–CRACE21) in grey; SDTMIG target variable (RACE) in red.", "score": 0.64, "match_basis": "verbatim_token+domain_route:DM"}, {"md_atom_id": "md_dmDM_ex_a140", "md_file": "knowledge_base/domains/DM/examples.md", "md_atom_type": "SENTENCE", "md_parent_section": "§DM.6 [Example 6]", "md_verbatim": "> Variable annotation: CDASHIG variables (RACE01–RACE07, CRACE05–CRACE17) in grey; SDTMIG target variable (RACE) in red.", "score": 0.6357, "match_basis": "verbatim_token+domain_route:DM"}, {"md_atom_id": "md_dmDM_ex_a138", "md_file": "knowledge_base/domains/DM/examples.md", "md_atom_type": "SENTENCE", "md_parent_section": "§DM.6 [Example 6]", "md_verbatim": "This example shows race categories and subcategories. Only a subset of options are shown for this instrument due to space constraints. For a complete aCRF example see the CDASHIG v2.1, Section 7.3.", "score": 0.5043, "match_basis": "verbatim_token+domain_route:DM"}], "candidate_count": 5, "zero_candidate": false}
{"pdf_atom_id": "ig34_p0070_a003", "pdf_atom_type": "SENTENCE", "pdf_source": "SDTMIG_v3.4", "pdf_page": 70, "pdf_parent_section": "§5.2 [DM – Examples]", "pdf_verbatim": "Data that are collected using the same variable name as defined in the SDTMIG are in RED.", "figure_ref": null, "candidates": [{"md_atom_id": "md_dmDM_ex_a067", "md_file": "knowledge_base/domains/DM/examples.md", "md_atom_type": "SENTENCE", "md_parent_section": "§DM.4 [Example 4]", "md_verbatim": "The CRF in this example is annotated to show the CDASH variable name and the target SDTMIG variable. Data that are collected using the same variable name as defined in the SDTMIG are in RED. If the CDASHIG variable differs from the one defined in the SDTMIG, the CDASHIG variable is in GREY.", "score": 0.6958, "match_basis": "verbatim_token+domain_route:DM"}, {"md_atom_id": "md_dmDM_ex_a136", "md_file": "knowledge_base/domains/DM/examples.md", "md_atom_type": "SENTENCE", "md_parent_section": "§DM.6 [Example 6]", "md_verbatim": "The CRF in this example is annotated to show the CDASH variable name and the target SDTMIG variable. Data that are collected using the same variable name as defined in the SDTMIG are in RED. If the CDASHIG variable differs from the one defined in the SDTMIG, the CDASHIG variable is in GREY.", "score": 0.6958, "match_basis": "verbatim_token+domain_route:DM"}, {"md_atom_id": "md_dmDM_ex_a071", "md_file": "knowledge_base/domains/DM/examples.md", "md_atom_type": "SENTENCE", "md_parent_section": "§DM.4 [Example 4]", "md_verbatim": "> Variable annotation: CDASHIG variables (RACE01–RACE07, CRACE01–CRACE21) in grey; SDTMIG target variable (RACE) in red.", "score": 0.5048, "match_basis": "verbatim_token+domain_route:DM"}, {"md_atom_id": "md_dmDM_ex_a140", "md_file": "knowledge_base/domains/DM/examples.md", "md_atom_type": "SENTENCE", "md_parent_section": "§DM.6 [Example 6]", "md_verbatim": "> Variable annotation: CDASHIG variables (RACE01–RACE07, CRACE05–CRACE17) in grey; SDTMIG target variable (RACE) in red.", "score": 0.5031, "match_basis": "verbatim_token+domain_route:DM"}, {"md_atom_id": "md_dmDM_ex_a015", "md_file": "knowledge_base/domains/DM/examples.md", "md_atom_type": "SENTENCE", "md_parent_section": "§DM.2 [Example 2]", "md_verbatim": "**Row 3:** Subject 003 was a screen failure, so they were not assigned to an arm or treated. The arm actual arm variables are null, and ARMNRS=\"SCREEN FAILURE\".", "score": 0.4868, "match_basis": "verbatim_token+domain_route:DM"}], "candidate_count": 5, "zero_candidate": false}
{"pdf_atom_id": "ig34_p0070_a004", "pdf_atom_type": "SENTENCE", "pdf_source": "SDTMIG_v3.4", "pdf_page": 70, "pdf_parent_section": "§5.2 [DM – Examples]", "pdf_verbatim": "If the CDASHIG variable differs from the one defined in the SDTMIG, the CDASHIG variable is in GREY.", "figure_ref": null, "candidates": [{"md_atom_id": "md_dmDM_ex_a067", "md_file": "knowledge_base/domains/DM/examples.md", "md_atom_type": "SENTENCE", "md_parent_section": "§DM.4 [Example 4]", "md_verbatim": "The CRF in this example is annotated to show the CDASH variable name and the target SDTMIG variable. Data that are collected using the same variable name as defined in the SDTMIG are in RED. If the CDASHIG variable differs from the one defined in the SDTMIG, the CDASHIG variable is in GREY.", "score": 0.662, "match_basis": "verbatim_token+domain_route:DM"}, {"md_atom_id": "md_dmDM_ex_a136", "md_file": "knowledge_base/domains/DM/examples.md", "md_atom_type": "SENTENCE", "md_parent_section": "§DM.6 [Example 6]", "md_verbatim": "The CRF in this example is annotated to show the CDASH variable name and the target SDTMIG variable. Data that are collected using the same variable name as defined in the SDTMIG are in RED. If the CDASHIG variable differs from the one defined in the SDTMIG, the CDASHIG variable is in GREY.", "score": 0.662, "match_basis": "verbatim_token+domain_route:DM"}, {"md_atom_id": "md_dmDM_ex_a071", "md_file": "knowledge_base/domains/DM/examples.md", "md_atom_type": "SENTENCE", "md_parent_section": "§DM.4 [Example 4]", "md_verbatim": "> Variable annotation: CDASHIG variables (RACE01–RACE07, CRACE01–CRACE21) in grey; SDTMIG target variable (RACE) in red.", "score": 0.5925, "match_basis": "verbatim_token+domain_route:DM"}, {"md_atom_id": "md_dmDM_ex_a140", "md_file": "knowledge_base/domains/DM/examples.md", "md_atom_type": "SENTENCE", "md_parent_section": "§DM.6 [Example 6]", "md_verbatim": "> Variable annotation: CDASHIG variables (RACE01–RACE07, CRACE05–CRACE17) in grey; SDTMIG target variable (RACE) in red.", "score": 0.5889, "match_basis": "verbatim_token+domain_route:DM"}, {"md_atom_id": "md_dmDM_ex_a015", "md_file": "knowledge_base/domains/DM/examples.md", "md_atom_type": "SENTENCE", "md_parent_section": "§DM.2 [Example 2]", "md_verbatim": "**Row 3:** Subject 003 was a screen failure, so they were not assigned to an arm or treated. The arm actual arm variables are null, and ARMNRS=\"SCREEN FAILURE\".", "score": 0.464, "match_basis": "verbatim_token+domain_route:DM"}], "candidate_count": 5, "zero_candidate": false}
{"pdf_atom_id": "ig34_p0070_a005", "pdf_atom_type": "SENTENCE", "pdf_source": "SDTMIG_v3.4", "pdf_page": 70, "pdf_parent_section": "§5.2 [DM – Examples]", "pdf_verbatim": "See the CDASH Model and Implementation Guide for additional information: https://www.cdisc.org/standards/foundational/cdash.", "figure_ref": null, "candidates": [{"md_atom_id": "md_dmDM_ex_a068", "md_file": "knowledge_base/domains/DM/examples.md", "md_atom_type": "SENTENCE", "md_parent_section": "§DM.4 [Example 4]", "md_verbatim": "See the CDASH Model and Implementation Guide for additional information: https://www.cdisc.org/standards/foundational/cdash.", "score": 1.0, "match_basis": "verbatim_token+domain_route:DM"}, {"md_atom_id": "md_dmDM_ex_a137", "md_file": "knowledge_base/domains/DM/examples.md", "md_atom_type": "SENTENCE", "md_parent_section": "§DM.6 [Example 6]", "md_verbatim": "See the CDASH Model and Implementation Guide for additional information: https://www.cdisc.org/standards/foundational/cdash.", "score": 1.0, "match_basis": "verbatim_token+domain_route:DM"}, {"md_atom_id": "md_dmDM_ex_a070", "md_file": "knowledge_base/domains/DM/examples.md", "md_atom_type": "SENTENCE", "md_parent_section": "§DM.4 [Example 4]", "md_verbatim": "**Demographics Sample aCRF for Race with Additional Granularity**", "score": 0.4825, "match_basis": "verbatim_token+domain_route:DM"}, {"md_atom_id": "md_dmDM_ex_a139", "md_file": "knowledge_base/domains/DM/examples.md", "md_atom_type": "SENTENCE", "md_parent_section": "§DM.6 [Example 6]", "md_verbatim": "**Demographics Sample aCRF for Race with Additional Granularity**", "score": 0.4825, "match_basis": "verbatim_token+domain_route:DM"}, {"md_atom_id": "md_dmDM_ex_a184", "md_file": "knowledge_base/domains/DM/examples.md", "md_atom_type": "SENTENCE", "md_parent_section": "§DM.7 [Example 7]", "md_verbatim": "Additional fields: \"What was the other race?\" (RACEOTH → SUPPDM.QVAL where SUPPDM.QNAM = \"RACEOTH\") and \"If Unknown, please specify:\" (RACEREAS → SUPPDM.QVAL where SUPPDM.QNAM = \"RACEREAS\").", "score": 0.4717, "match_basis": "verbatim_token+domain_route:DM"}], "candidate_count": 5, "zero_candidate": false}
{"pdf_atom_id": "ig34_p0070_a006", "pdf_atom_type": "SENTENCE", "pdf_source": "SDTMIG_v3.4", "pdf_page": 70, "pdf_parent_section": "§5.2 [DM – Examples]", "pdf_verbatim": "This example shows multiple race categories and subcategories.", "figure_ref": null, "candidates": [{"md_atom_id": "md_dmDM_ex_a069", "md_file": "knowledge_base/domains/DM/examples.md", "md_atom_type": "SENTENCE", "md_parent_section": "§DM.4 [Example 4]", "md_verbatim": "This example shows multiple race categories and subcategories. Only a subset of options is shown for this instrument due to space constraints.", "score": 0.7, "match_basis": "verbatim_token+domain_route:DM"}, {"md_atom_id": "md_dmDM_ex_a138", "md_file": "knowledge_base/domains/DM/examples.md", "md_atom_type": "SENTENCE", "md_parent_section": "§DM.6 [Example 6]", "md_verbatim": "This example shows race categories and subcategories. Only a subset of options are shown for this instrument due to space constraints. For a complete aCRF example see the CDASHIG v2.1, Section 7.3.", "score": 0.592, "match_basis": "verbatim_token+domain_route:DM"}, {"md_atom_id": "md_dmDM_ex_a118", "md_file": "knowledge_base/domains/DM/examples.md", "md_atom_type": "SENTENCE", "md_parent_section": "§DM.5 [Example 5]", "md_verbatim": "This example shows different Chinese regional ethnicity subcategorizations (majority and minority).", "score": 0.5791, "match_basis": "verbatim_token+domain_route:DM"}, {"md_atom_id": "md_dmDM_ex_a122", "md_file": "knowledge_base/domains/DM/examples.md", "md_atom_type": "SENTENCE", "md_parent_section": "§DM.5 [Example 5]", "md_verbatim": "In this CRF example, subcategorizations of ethnicity are made available.", "score": 0.5778, "match_basis": "verbatim_token+domain_route:DM"}, {"md_atom_id": "md_dmDM_ex_a142", "md_file": "knowledge_base/domains/DM/examples.md", "md_atom_type": "SENTENCE", "md_parent_section": "§DM.6 [Example 6]", "md_verbatim": "The CRF presents 7 race questions (RACE01-RACE07) with the same structure as Example 4, plus subcategory questions for ASIAN (CRACE05-CRACE10), BLACK OR AFRICAN AMERICAN (CRACE11-CRACE17), and other categories.", "score": 0.5373, "match_basis": "verbatim_token+domain_route:DM"}], "candidate_count": 5, "zero_candidate": false}
{"pdf_atom_id": "ig34_p0070_a007", "pdf_atom_type": "SENTENCE", "pdf_source": "SDTMIG_v3.4", "pdf_page": 70, "pdf_parent_section": "§5.2 [DM – Examples]", "pdf_verbatim": "Only a subset of options is shown for this instrument due to space constraints.", "figure_ref": null, "candidates": [{"md_atom_id": "md_dmDM_ex_a069", "md_file": "knowledge_base/domains/DM/examples.md", "md_atom_type": "SENTENCE", "md_parent_section": "§DM.4 [Example 4]", "md_verbatim": "This example shows multiple race categories and subcategories. Only a subset of options is shown for this instrument due to space constraints.", "score": 0.7621, "match_basis": "verbatim_token+domain_route:DM"}, {"md_atom_id": "md_dmDM_ex_a138", "md_file": "knowledge_base/domains/DM/examples.md", "md_atom_type": "SENTENCE", "md_parent_section": "§DM.6 [Example 6]", "md_verbatim": "This example shows race categories and subcategories. Only a subset of options are shown for this instrument due to space constraints. For a complete aCRF example see the CDASHIG v2.1, Section 7.3.", "score": 0.7, "match_basis": "verbatim_token+domain_route:DM"}, {"md_atom_id": "md_dmDM_ex_a185", "md_file": "knowledge_base/domains/DM/examples.md", "md_atom_type": "SENTENCE", "md_parent_section": "§DM.7 [Example 7]", "md_verbatim": "**Rows 1-2:** Subjects self-identify to 1 of the first 5 race options on the CRF form.", "score": 0.4964, "match_basis": "verbatim_token+domain_route:DM"}, {"md_atom_id": "md_dmDM_ex_a073", "md_file": "knowledge_base/domains/DM/examples.md", "md_atom_type": "SENTENCE", "md_parent_section": "§DM.4 [Example 4]", "md_verbatim": "The CRF presents 7 race questions (RACE01-RACE07) with checkbox options:", "score": 0.4842, "match_basis": "verbatim_token+domain_route:DM"}, {"md_atom_id": "md_dmDM_ex_a014", "md_file": "knowledge_base/domains/DM/examples.md", "md_atom_type": "SENTENCE", "md_parent_section": "§DM.2 [Example 2]", "md_verbatim": "**Row 2:** Subject 002 was randomized to arm \"Drug B\". As shown in the SE dataset, their actual arm was consistent with their randomization.", "score": 0.4811, "match_basis": "verbatim_token+domain_route:DM"}], "candidate_count": 5, "zero_candidate": false}
{"pdf_atom_id": "ig34_p0070_a008", "pdf_atom_type": "HEADING", "pdf_source": "SDTMIG_v3.4", "pdf_page": 70, "pdf_parent_section": "§5.2 [DM – Examples]", "pdf_verbatim": "Demographics Sample CRF for Race with Additional Granularity", "figure_ref": null, "candidates": [{"md_atom_id": "md_dmDM_ex_a002", "md_file": "knowledge_base/domains/DM/examples.md", "md_atom_type": "HEADING", "md_parent_section": "§DM [DM — Examples]", "md_verbatim": "## Example 1", "score": 0.4474, "match_basis": "verbatim_token+domain_route:DM"}, {"md_atom_id": "md_dmDM_ex_a011", "md_file": "knowledge_base/domains/DM/examples.md", "md_atom_type": "HEADING", "md_parent_section": "§DM [DM — Examples]", "md_verbatim": "## Example 2", "score": 0.4474, "match_basis": "verbatim_token+domain_route:DM"}, {"md_atom_id": "md_dmDM_ex_a043", "md_file": "knowledge_base/domains/DM/examples.md", "md_atom_type": "HEADING", "md_parent_section": "§DM [DM — Examples]", "md_verbatim": "## Example 3", "score": 0.4474, "match_basis": "verbatim_token+domain_route:DM"}, {"md_atom_id": "md_dmDM_ex_a066", "md_file": "knowledge_base/domains/DM/examples.md", "md_atom_type": "HEADING", "md_parent_section": "§DM [DM — Examples]", "md_verbatim": "## Example 4", "score": 0.4474, "match_basis": "verbatim_token+domain_route:DM"}, {"md_atom_id": "md_dmDM_ex_a117", "md_file": "knowledge_base/domains/DM/examples.md", "md_atom_type": "HEADING", "md_parent_section": "§DM [DM — Examples]", "md_verbatim": "## Example 5", "score": 0.4474, "match_basis": "verbatim_token+domain_route:DM"}], "candidate_count": 5, "zero_candidate": false}
{"pdf_atom_id": "ig34_p0070_a009", "pdf_atom_type": "SENTENCE", "pdf_source": "SDTMIG_v3.4", "pdf_page": 70, "pdf_parent_section": "§5.2 [DM – Examples]", "pdf_verbatim": "Study participants should self-report race, with race being asked about after ethnicity.", "figure_ref": null, "candidates": [{"md_atom_id": "md_dmDM_ex_a084", "md_file": "knowledge_base/domains/DM/examples.md", "md_atom_type": "SENTENCE", "md_parent_section": "§DM.4 [Example 4]", "md_verbatim": "If the study participant answered WHITE, subcategories (CRACE18-CRACE21) are presented: ARAB, EUROPEAN, MIDDLE EASTERN, RUSSIAN.", "score": 0.49, "match_basis": "verbatim_token+domain_route:DM"}, {"md_atom_id": "md_dmDM_ex_a081", "md_file": "knowledge_base/domains/DM/examples.md", "md_atom_type": "SENTENCE", "md_parent_section": "§DM.4 [Example 4]", "md_verbatim": "If the study participant answered AMERICAN INDIAN OR ALASKA NATIVE, subcategories (CRACE01-CRACE04) from the RACEC codelist are presented: ALASKA NATIVE, AMERICAN INDIAN, CARIBBEAN INDIAN, CENTRAL AMERICAN INDIAN.", "score": 0.4804, "match_basis": "verbatim_token+domain_route:DM"}, {"md_atom_id": "md_dmDM_ex_a082", "md_file": "knowledge_base/domains/DM/examples.md", "md_atom_type": "SENTENCE", "md_parent_section": "§DM.4 [Example 4]", "md_verbatim": "If the study participant answered ASIAN, subcategories (CRACE05-CRACE10) are presented: ASIAN AMERICAN, ASIAN INDIAN, BANGLADESHI, CHINESE, JAPANESE, KOREAN.", "score": 0.4778, "match_basis": "verbatim_token+domain_route:DM"}, {"md_atom_id": "md_dmDM_ex_a083", "md_file": "knowledge_base/domains/DM/examples.md", "md_atom_type": "SENTENCE", "md_parent_section": "§DM.4 [Example 4]", "md_verbatim": "If the study participant answered BLACK OR AFRICAN AMERICAN, subcategories (CRACE11-CRACE17) are presented: AFRICAN, AFRICAN AMERICAN, AFRICAN CARIBBEAN, BAHAMIAN, BARBADIAN, BLACK, BLACK CENTRAL AMERICAN.", "score": 0.4771, "match_basis": "verbatim_token+domain_route:DM"}, {"md_atom_id": "md_dmDM_ex_a128", "md_file": "knowledge_base/domains/DM/examples.md", "md_atom_type": "SENTENCE", "md_parent_section": "§DM.5 [Example 5]", "md_verbatim": "**Row 1:** Ethnicity subcategorization of subject self-identification being \"HAN CHINESE\". CDASH recommended QNAM-QLABEL values have been provided.", "score": 0.4661, "match_basis": "verbatim_token+domain_route:DM"}], "candidate_count": 5, "zero_candidate": false}
{"pdf_atom_id": "ig34_p0070_a010", "pdf_atom_type": "SENTENCE", "pdf_source": "SDTMIG_v3.4", "pdf_page": 70, "pdf_parent_section": "§5.2 [DM – Examples]", "pdf_verbatim": "Which of the following racial designations best describes you?", "figure_ref": null, "candidates": [{"md_atom_id": "md_dmDM_ex_a176", "md_file": "knowledge_base/domains/DM/examples.md", "md_atom_type": "SENTENCE", "md_parent_section": "§DM.7 [Example 7]", "md_verbatim": "The CRF presents 5 racial designations plus \"Unknown\" and \"Other\" options:", "score": 0.5731, "match_basis": "verbatim_token+domain_route:DM"}, {"md_atom_id": "md_dmDM_ex_a099", "md_file": "knowledge_base/domains/DM/examples.md", "md_atom_type": "SENTENCE", "md_parent_section": "§DM.4 [Example 4]", "md_verbatim": "**Row 1:** Shows that USUBJID ABC789-010-045 designated 1 race, \"WHITE\", as the value that best describes their race.", "score": 0.56, "match_basis": "verbatim_token+domain_route:DM"}, {"md_atom_id": "md_dmDM_ex_a052", "md_file": "knowledge_base/domains/DM/examples.md", "md_atom_type": "SENTENCE", "md_parent_section": "§DM.3 [Example 3]", "md_verbatim": "The following example illustrates values of ARMCD for subjects in Example Trial 3, described in Section 7.2.1, Trial Arms.", "score": 0.5522, "match_basis": "verbatim_token+domain_route:DM"}, {"md_atom_id": "md_dmDM_ex_a100", "md_file": "knowledge_base/domains/DM/examples.md", "md_atom_type": "SENTENCE", "md_parent_section": "§DM.4 [Example 4]", "md_verbatim": "**Row 2:** Shows that USUBJID ABC789-010-046 designated 1 race, \"ASIAN\", as the value that best describes their race.", "score": 0.5475, "match_basis": "verbatim_token+domain_route:DM"}, {"md_atom_id": "md_dmDM_ex_a156", "md_file": "knowledge_base/domains/DM/examples.md", "md_atom_type": "SENTENCE", "md_parent_section": "§DM.6 [Example 6]", "md_verbatim": "**Row 1:** Shows that USUBJID ABC789-010-001 designated 1 race, \"ASIAN\", as the value that best describes their race.", "score": 0.5475, "match_basis": "verbatim_token+domain_route:DM"}], "candidate_count": 5, "zero_candidate": false}
{"pdf_atom_id": "ig34_p0070_a011", "pdf_atom_type": "SENTENCE", "pdf_source": "SDTMIG_v3.4", "pdf_page": 70, "pdf_parent_section": "§5.2 [DM – Examples]", "pdf_verbatim": "(More than one choice is acceptable.)", "figure_ref": null, "candidates": [{"md_atom_id": "md_dmDM_ex_a098", "md_file": "knowledge_base/domains/DM/examples.md", "md_atom_type": "SENTENCE", "md_parent_section": "§DM.4 [Example 4]", "md_verbatim": "The value of RACE is used to represent the high-level racial designation as a single collected value per CDISC Controlled Terminology in dm.xpt. When more than 1 choice is selected, the value is represented with \"MULTIPLE\" as shown in this example. **Note:** Only those variables relevant to this example are shown.", "score": 0.4504, "match_basis": "verbatim_token+domain_route:DM"}, {"md_atom_id": "md_dmDM_ex_a067", "md_file": "knowledge_base/domains/DM/examples.md", "md_atom_type": "SENTENCE", "md_parent_section": "§DM.4 [Example 4]", "md_verbatim": "The CRF in this example is annotated to show the CDASH variable name and the target SDTMIG variable. Data that are collected using the same variable name as defined in the SDTMIG are in RED. If the CDASHIG variable differs from the one defined in the SDTMIG, the CDASHIG variable is in GREY.", "score": 0.4286, "match_basis": "verbatim_token+domain_route:DM"}, {"md_atom_id": "md_dmDM_ex_a136", "md_file": "knowledge_base/domains/DM/examples.md", "md_atom_type": "SENTENCE", "md_parent_section": "§DM.6 [Example 6]", "md_verbatim": "The CRF in this example is annotated to show the CDASH variable name and the target SDTMIG variable. Data that are collected using the same variable name as defined in the SDTMIG are in RED. If the CDASHIG variable differs from the one defined in the SDTMIG, the CDASHIG variable is in GREY.", "score": 0.4286, "match_basis": "verbatim_token+domain_route:DM"}, {"md_atom_id": "md_dmDM_ex_a017", "md_file": "knowledge_base/domains/DM/examples.md", "md_atom_type": "SENTENCE", "md_parent_section": "§DM.2 [Example 2]", "md_verbatim": "**Row 5:** Subject 005 was randomized but dropped out before being treated. Thus, the actual arm variables are not populated and ARMNRS=\"ASSIGNED, NOT TREATED\".", "score": 0.4225, "match_basis": "verbatim_token+domain_route:DM"}, {"md_atom_id": "md_dmDM_ex_a071", "md_file": "knowledge_base/domains/DM/examples.md", "md_atom_type": "SENTENCE", "md_parent_section": "§DM.4 [Example 4]", "md_verbatim": "> Variable annotation: CDASHIG variables (RACE01–RACE07, CRACE01–CRACE21) in grey; SDTMIG target variable (RACE) in red.", "score": 0.4222, "match_basis": "verbatim_token+domain_route:DM"}], "candidate_count": 5, "zero_candidate": false}
{"pdf_atom_id": "ig34_p0070_a012", "pdf_atom_type": "LIST_ITEM", "pdf_source": "SDTMIG_v3.4", "pdf_page": 70, "pdf_parent_section": "§5.2 [DM – Examples]", "pdf_verbatim": "RAC601 BAC - AMERICAN INDIAN OR ALASKA NATIVE <RACE codelist>", "figure_ref": null, "candidates": [{"md_atom_id": "md_dmDM_ex_a074", "md_file": "knowledge_base/domains/DM/examples.md", "md_atom_type": "LIST_ITEM", "md_parent_section": "§DM.4 [Example 4]", "md_verbatim": "- RACE01: AMERICAN INDIAN OR ALASKA NATIVE", "score": 0.775, "match_basis": "verbatim_token+domain_route:DM"}, {"md_atom_id": "md_dmDM_ex_a177", "md_file": "knowledge_base/domains/DM/examples.md", "md_atom_type": "LIST_ITEM", "md_parent_section": "§DM.7 [Example 7]", "md_verbatim": "- American Indian or Alaska Native", "score": 0.76, "match_basis": "verbatim_token+domain_route:DM"}, {"md_atom_id": "md_dmDM_ex_a076", "md_file": "knowledge_base/domains/DM/examples.md", "md_atom_type": "LIST_ITEM", "md_parent_section": "§DM.4 [Example 4]", "md_verbatim": "- RACE03: BLACK OR AFRICAN AMERICAN", "score": 0.5297, "match_basis": "verbatim_token+domain_route:DM"}, {"md_atom_id": "md_dmDM_ex_a179", "md_file": "knowledge_base/domains/DM/examples.md", "md_atom_type": "LIST_ITEM", "md_parent_section": "§DM.7 [Example 7]", "md_verbatim": "- Black or African American", "score": 0.5029, "match_basis": "verbatim_token+domain_route:DM"}, {"md_atom_id": "md_dmDM_ex_a081", "md_file": "knowledge_base/domains/DM/examples.md", "md_atom_type": "SENTENCE", "md_parent_section": "§DM.4 [Example 4]", "md_verbatim": "If the study participant answered AMERICAN INDIAN OR ALASKA NATIVE, subcategories (CRACE01-CRACE04) from the RACEC codelist are presented: ALASKA NATIVE, AMERICAN INDIAN, CARIBBEAN INDIAN, CENTRAL AMERICAN INDIAN.", "score": 0.4914, "match_basis": "verbatim_token+domain_route:DM"}], "candidate_count": 5, "zero_candidate": false}
{"pdf_atom_id": "ig34_p0070_a013", "pdf_atom_type": "LIST_ITEM", "pdf_source": "SDTMIG_v3.4", "pdf_page": 70, "pdf_parent_section": "§5.2 [DM – Examples]", "pdf_verbatim": "RAC602 BAC - ASIAN <RACE codelist>", "figure_ref": null, "candidates": [{"md_atom_id": "md_dmDM_ex_a075", "md_file": "knowledge_base/domains/DM/examples.md", "md_atom_type": "LIST_ITEM", "md_parent_section": "§DM.4 [Example 4]", "md_verbatim": "- RACE02: ASIAN", "score": 0.5765, "match_basis": "verbatim_token+domain_route:DM"}, {"md_atom_id": "md_dmDM_ex_a178", "md_file": "knowledge_base/domains/DM/examples.md", "md_atom_type": "LIST_ITEM", "md_parent_section": "§DM.7 [Example 7]", "md_verbatim": "- Asian", "score": 0.52, "match_basis": "verbatim_token+domain_route:DM"}, {"md_atom_id": "md_dmDM_ex_a078", "md_file": "knowledge_base/domains/DM/examples.md", "md_atom_type": "LIST_ITEM", "md_parent_section": "§DM.4 [Example 4]", "md_verbatim": "- RACE05: WHITE", "score": 0.46, "match_basis": "verbatim_token+domain_route:DM"}, {"md_atom_id": "md_dmDM_ex_a080", "md_file": "knowledge_base/domains/DM/examples.md", "md_atom_type": "LIST_ITEM", "md_parent_section": "§DM.4 [Example 4]", "md_verbatim": "- RACE07: UNKNOWN", "score": 0.4545, "match_basis": "verbatim_token+domain_route:DM"}, {"md_atom_id": "md_dmDM_ex_a074", "md_file": "knowledge_base/domains/DM/examples.md", "md_atom_type": "LIST_ITEM", "md_parent_section": "§DM.4 [Example 4]", "md_verbatim": "- RACE01: AMERICAN INDIAN OR ALASKA NATIVE", "score": 0.4529, "match_basis": "verbatim_token+domain_route:DM"}], "candidate_count": 5, "zero_candidate": false}
{"pdf_atom_id": "ig34_p0070_a014", "pdf_atom_type": "LIST_ITEM", "pdf_source": "SDTMIG_v3.4", "pdf_page": 70, "pdf_parent_section": "§5.2 [DM – Examples]", "pdf_verbatim": "RAC603 BAC - BLACK OR AFRICAN AMERICAN <RACE codelist>", "figure_ref": null, "candidates": [{"md_atom_id": "md_dmDM_ex_a076", "md_file": "knowledge_base/domains/DM/examples.md", "md_atom_type": "LIST_ITEM", "md_parent_section": "§DM.4 [Example 4]", "md_verbatim": "- RACE03: BLACK OR AFRICAN AMERICAN", "score": 0.712, "match_basis": "verbatim_token+domain_route:DM"}, {"md_atom_id": "md_dmDM_ex_a179", "md_file": "knowledge_base/domains/DM/examples.md", "md_atom_type": "LIST_ITEM", "md_parent_section": "§DM.7 [Example 7]", "md_verbatim": "- Black or African American", "score": 0.687, "match_basis": "verbatim_token+domain_route:DM"}, {"md_atom_id": "md_dmDM_ex_a074", "md_file": "knowledge_base/domains/DM/examples.md", "md_atom_type": "LIST_ITEM", "md_parent_section": "§DM.4 [Example 4]", "md_verbatim": "- RACE01: AMERICAN INDIAN OR ALASKA NATIVE", "score": 0.5297, "match_basis": "verbatim_token+domain_route:DM"}, {"md_atom_id": "md_dmDM_ex_a177", "md_file": "knowledge_base/domains/DM/examples.md", "md_atom_type": "LIST_ITEM", "md_parent_section": "§DM.7 [Example 7]", "md_verbatim": "- American Indian or Alaska Native", "score": 0.5029, "match_basis": "verbatim_token+domain_route:DM"}, {"md_atom_id": "md_dmDM_ex_a089", "md_file": "knowledge_base/domains/DM/examples.md", "md_atom_type": "TABLE_ROW", "md_parent_section": "§DM.4 [Example 4]", "md_verbatim": "| RACE03 | 3 | (same) | Race | (same) | Text | RACE | | (RACE) | BLACK OR AFRICAN AMERICAN | | | checkbox | |", "score": 0.4794, "match_basis": "verbatim_token+domain_route:DM"}], "candidate_count": 5, "zero_candidate": false}
{"pdf_atom_id": "ig34_p0070_a015", "pdf_atom_type": "LIST_ITEM", "pdf_source": "SDTMIG_v3.4", "pdf_page": 70, "pdf_parent_section": "§5.2 [DM – Examples]", "pdf_verbatim": "RAC604 BAC - NATIVE HAWAIIAN OR OTHER PACIFIC ISLANDER <RACE codelist>", "figure_ref": null, "candidates": [{"md_atom_id": "md_dmDM_ex_a077", "md_file": "knowledge_base/domains/DM/examples.md", "md_atom_type": "LIST_ITEM", "md_parent_section": "§DM.4 [Example 4]", "md_verbatim": "- RACE04: NATIVE HAWAIIAN OR OTHER PACIFIC ISLANDER", "score": 0.8105, "match_basis": "verbatim_token+domain_route:DM"}, {"md_atom_id": "md_dmDM_ex_a180", "md_file": "knowledge_base/domains/DM/examples.md", "md_atom_type": "LIST_ITEM", "md_parent_section": "§DM.7 [Example 7]", "md_verbatim": "- Native Hawaiian or Other Pacific Islander", "score": 0.8, "match_basis": "verbatim_token+domain_route:DM"}, {"md_atom_id": "md_dmDM_ex_a090", "md_file": "knowledge_base/domains/DM/examples.md", "md_atom_type": "TABLE_ROW", "md_parent_section": "§DM.4 [Example 4]", "md_verbatim": "| RACE04 | 4 | (same) | Race | (same) | Text | RACE | | (RACE) | NATIVE HAWAIIAN OR OTHER PACIFIC ISLANDER | | | checkbox | |", "score": 0.575, "match_basis": "verbatim_token+domain_route:DM"}, {"md_atom_id": "md_dmDM_ex_a148", "md_file": "knowledge_base/domains/DM/examples.md", "md_atom_type": "TABLE_ROW", "md_parent_section": "§DM.6 [Example 6]", "md_verbatim": "| RACE04 | 6 | (same) | Race | (same) | Text | RACE | | (RACE) | NATIVE HAWAIIAN OR OTHER PACIFIC ISLANDER | | | checkbox | |", "score": 0.575, "match_basis": "verbatim_token+domain_route:DM"}, {"md_atom_id": "md_dmDM_ex_a074", "md_file": "knowledge_base/domains/DM/examples.md", "md_atom_type": "LIST_ITEM", "md_parent_section": "§DM.4 [Example 4]", "md_verbatim": "- RACE01: AMERICAN INDIAN OR ALASKA NATIVE", "score": 0.4824, "match_basis": "verbatim_token+domain_route:DM"}], "candidate_count": 5, "zero_candidate": false}
{"pdf_atom_id": "ig34_p0070_a016", "pdf_atom_type": "LIST_ITEM", "pdf_source": "SDTMIG_v3.4", "pdf_page": 70, "pdf_parent_section": "§5.2 [DM – Examples]", "pdf_verbatim": "RAC605 BAC - WHITE <RACE codelist>", "figure_ref": null, "candidates": [{"md_atom_id": "md_dmDM_ex_a078", "md_file": "knowledge_base/domains/DM/examples.md", "md_atom_type": "LIST_ITEM", "md_parent_section": "§DM.4 [Example 4]", "md_verbatim": "- RACE05: WHITE", "score": 0.5765, "match_basis": "verbatim_token+domain_route:DM"}, {"md_atom_id": "md_dmDM_ex_a181", "md_file": "knowledge_base/domains/DM/examples.md", "md_atom_type": "LIST_ITEM", "md_parent_section": "§DM.7 [Example 7]", "md_verbatim": "- White", "score": 0.52, "match_basis": "verbatim_token+domain_route:DM"}, {"md_atom_id": "md_dmDM_ex_a075", "md_file": "knowledge_base/domains/DM/examples.md", "md_atom_type": "LIST_ITEM", "md_parent_section": "§DM.4 [Example 4]", "md_verbatim": "- RACE02: ASIAN", "score": 0.46, "match_basis": "verbatim_token+domain_route:DM"}, {"md_atom_id": "md_dmDM_ex_a080", "md_file": "knowledge_base/domains/DM/examples.md", "md_atom_type": "LIST_ITEM", "md_parent_section": "§DM.4 [Example 4]", "md_verbatim": "- RACE07: UNKNOWN", "score": 0.4545, "match_basis": "verbatim_token+domain_route:DM"}, {"md_atom_id": "md_dmDM_ex_a079", "md_file": "knowledge_base/domains/DM/examples.md", "md_atom_type": "LIST_ITEM", "md_parent_section": "§DM.4 [Example 4]", "md_verbatim": "- RACE06: NOT REPORTED", "score": 0.45, "match_basis": "verbatim_token+domain_route:DM"}], "candidate_count": 5, "zero_candidate": false}
{"pdf_atom_id": "ig34_p0070_a017", "pdf_atom_type": "LIST_ITEM", "pdf_source": "SDTMIG_v3.4", "pdf_page": 70, "pdf_parent_section": "§5.2 [DM – Examples]", "pdf_verbatim": "RAC606 BAC - NOT REPORTED <RACE codelist>", "figure_ref": null, "candidates": [{"md_atom_id": "md_dmDM_ex_a079", "md_file": "knowledge_base/domains/DM/examples.md", "md_atom_type": "LIST_ITEM", "md_parent_section": "§DM.4 [Example 4]", "md_verbatim": "- RACE06: NOT REPORTED", "score": 0.6571, "match_basis": "verbatim_token+domain_route:DM"}, {"md_atom_id": "md_dmDM_ex_a075", "md_file": "knowledge_base/domains/DM/examples.md", "md_atom_type": "LIST_ITEM", "md_parent_section": "§DM.4 [Example 4]", "md_verbatim": "- RACE02: ASIAN", "score": 0.45, "match_basis": "verbatim_token+domain_route:DM"}, {"md_atom_id": "md_dmDM_ex_a078", "md_file": "knowledge_base/domains/DM/examples.md", "md_atom_type": "LIST_ITEM", "md_parent_section": "§DM.4 [Example 4]", "md_verbatim": "- RACE05: WHITE", "score": 0.45, "match_basis": "verbatim_token+domain_route:DM"}, {"md_atom_id": "md_dmDM_ex_a080", "md_file": "knowledge_base/domains/DM/examples.md", "md_atom_type": "LIST_ITEM", "md_parent_section": "§DM.4 [Example 4]", "md_verbatim": "- RACE07: UNKNOWN", "score": 0.4462, "match_basis": "verbatim_token+domain_route:DM"}, {"md_atom_id": "md_dmDM_assn_a020", "md_file": "knowledge_base/domains/DM/assumptions.md", "md_atom_type": "LIST_ITEM", "md_parent_section": "§DM [DM — Assumptions]", "md_verbatim": "   a. The Racec-Ethnicc Codetable (available at https://www.cdisc.org/standards/terminology/controlled-terminology) represents associations between collected race values and published race Controlled Terminology, as well as collected ethnicity values and published ethnicity Controlled Terminology.", "score": 0.4385, "match_basis": "verbatim_token+domain_route:DM"}], "candidate_count": 5, "zero_candidate": false}
{"pdf_atom_id": "ig34_p0070_a018", "pdf_atom_type": "LIST_ITEM", "pdf_source": "SDTMIG_v3.4", "pdf_page": 70, "pdf_parent_section": "§5.2 [DM – Examples]", "pdf_verbatim": "RAC607 BAC - UNKNOWN <RACE codelist>", "figure_ref": null, "candidates": [{"md_atom_id": "md_dmDM_ex_a080", "md_file": "knowledge_base/domains/DM/examples.md", "md_atom_type": "LIST_ITEM", "md_parent_section": "§DM.4 [Example 4]", "md_verbatim": "- RACE07: UNKNOWN", "score": 0.6211, "match_basis": "verbatim_token+domain_route:DM"}, {"md_atom_id": "md_dmDM_ex_a182", "md_file": "knowledge_base/domains/DM/examples.md", "md_atom_type": "LIST_ITEM", "md_parent_section": "§DM.7 [Example 7]", "md_verbatim": "- Unknown", "score": 0.5765, "match_basis": "verbatim_token+domain_route:DM"}, {"md_atom_id": "md_dmDM_ex_a075", "md_file": "knowledge_base/domains/DM/examples.md", "md_atom_type": "LIST_ITEM", "md_parent_section": "§DM.4 [Example 4]", "md_verbatim": "- RACE02: ASIAN", "score": 0.4545, "match_basis": "verbatim_token+domain_route:DM"}, {"md_atom_id": "md_dmDM_ex_a078", "md_file": "knowledge_base/domains/DM/examples.md", "md_atom_type": "LIST_ITEM", "md_parent_section": "§DM.4 [Example 4]", "md_verbatim": "- RACE05: WHITE", "score": 0.4545, "match_basis": "verbatim_token+domain_route:DM"}, {"md_atom_id": "md_dmDM_ex_a079", "md_file": "knowledge_base/domains/DM/examples.md", "md_atom_type": "LIST_ITEM", "md_parent_section": "§DM.4 [Example 4]", "md_verbatim": "- RACE06: NOT REPORTED", "score": 0.4462, "match_basis": "verbatim_token+domain_route:DM"}], "candidate_count": 5, "zero_candidate": false}
{"pdf_atom_id": "ig34_p0070_a019", "pdf_atom_type": "SENTENCE", "pdf_source": "SDTMIG_v3.4", "pdf_page": 70, "pdf_parent_section": "§5.2 [DM – Examples]", "pdf_verbatim": "If the study participant answered: AMERICAN INDIAN OR ALASKA NATIVE", "figure_ref": null, "candidates": [{"md_atom_id": "md_dmDM_ex_a081", "md_file": "knowledge_base/domains/DM/examples.md", "md_atom_type": "SENTENCE", "md_parent_section": "§DM.4 [Example 4]", "md_verbatim": "If the study participant answered AMERICAN INDIAN OR ALASKA NATIVE, subcategories (CRACE01-CRACE04) from the RACEC codelist are presented: ALASKA NATIVE, AMERICAN INDIAN, CARIBBEAN INDIAN, CENTRAL AMERICAN INDIAN.", "score": 0.6707, "match_basis": "verbatim_token+domain_route:DM"}, {"md_atom_id": "md_dmDM_ex_a082", "md_file": "knowledge_base/domains/DM/examples.md", "md_atom_type": "SENTENCE", "md_parent_section": "§DM.4 [Example 4]", "md_verbatim": "If the study participant answered ASIAN, subcategories (CRACE05-CRACE10) are presented: ASIAN AMERICAN, ASIAN INDIAN, BANGLADESHI, CHINESE, JAPANESE, KOREAN.", "score": 0.6047, "match_basis": "verbatim_token+domain_route:DM"}, {"md_atom_id": "md_dmDM_ex_a177", "md_file": "knowledge_base/domains/DM/examples.md", "md_atom_type": "LIST_ITEM", "md_parent_section": "§DM.7 [Example 7]", "md_verbatim": "- American Indian or Alaska Native", "score": 0.6019, "match_basis": "verbatim_token+domain_route:DM"}, {"md_atom_id": "md_dmDM_ex_a083", "md_file": "knowledge_base/domains/DM/examples.md", "md_atom_type": "SENTENCE", "md_parent_section": "§DM.4 [Example 4]", "md_verbatim": "If the study participant answered BLACK OR AFRICAN AMERICAN, subcategories (CRACE11-CRACE17) are presented: AFRICAN, AFRICAN AMERICAN, AFRICAN CARIBBEAN, BAHAMIAN, BARBADIAN, BLACK, BLACK CENTRAL AMERICAN.", "score": 0.5841, "match_basis": "verbatim_token+domain_route:DM"}, {"md_atom_id": "md_dmDM_ex_a074", "md_file": "knowledge_base/domains/DM/examples.md", "md_atom_type": "LIST_ITEM", "md_parent_section": "§DM.4 [Example 4]", "md_verbatim": "- RACE01: AMERICAN INDIAN OR ALASKA NATIVE", "score": 0.5734, "match_basis": "verbatim_token+domain_route:DM"}], "candidate_count": 5, "zero_candidate": false}
{"pdf_atom_id": "ig34_p0070_a020", "pdf_atom_type": "SENTENCE", "pdf_source": "SDTMIG_v3.4", "pdf_page": 70, "pdf_parent_section": "§5.2 [DM – Examples]", "pdf_verbatim": "Select each value that applies if the subject answered \"AMERICAN INDIAN OR ALASKA NATIVE\".", "figure_ref": null, "candidates": [{"md_atom_id": "md_dmDM_ex_a081", "md_file": "knowledge_base/domains/DM/examples.md", "md_atom_type": "SENTENCE", "md_parent_section": "§DM.4 [Example 4]", "md_verbatim": "If the study participant answered AMERICAN INDIAN OR ALASKA NATIVE, subcategories (CRACE01-CRACE04) from the RACEC codelist are presented: ALASKA NATIVE, AMERICAN INDIAN, CARIBBEAN INDIAN, CENTRAL AMERICAN INDIAN.", "score": 0.562, "match_basis": "verbatim_token+domain_route:DM"}, {"md_atom_id": "md_dmDM_ex_a177", "md_file": "knowledge_base/domains/DM/examples.md", "md_atom_type": "LIST_ITEM", "md_parent_section": "§DM.7 [Example 7]", "md_verbatim": "- American Indian or Alaska Native", "score": 0.55, "match_basis": "verbatim_token+domain_route:DM"}, {"md_atom_id": "md_dmDM_ex_a074", "md_file": "knowledge_base/domains/DM/examples.md", "md_atom_type": "LIST_ITEM", "md_parent_section": "§DM.4 [Example 4]", "md_verbatim": "- RACE01: AMERICAN INDIAN OR ALASKA NATIVE", "score": 0.5304, "match_basis": "verbatim_token+domain_route:DM"}, {"md_atom_id": "md_dmDM_ex_a157", "md_file": "knowledge_base/domains/DM/examples.md", "md_atom_type": "SENTENCE", "md_parent_section": "§DM.6 [Example 6]", "md_verbatim": "**Row 2:** Shows that USUBJID ABC789-010-002 designated 1 race, \"BLACK OR AFRICAN AMERICAN\", as the value that best describes their race.", "score": 0.5111, "match_basis": "verbatim_token+domain_route:DM"}, {"md_atom_id": "md_dmDM_ex_a158", "md_file": "knowledge_base/domains/DM/examples.md", "md_atom_type": "SENTENCE", "md_parent_section": "§DM.6 [Example 6]", "md_verbatim": "**Row 3:** Shows that USUBJID ABC789-010-003 designated 1 race, \"BLACK OR AFRICAN AMERICAN\", as the value that best describes their race.", "score": 0.5111, "match_basis": "verbatim_token+domain_route:DM"}], "candidate_count": 5, "zero_candidate": false}
{"pdf_atom_id": "ig34_p0070_a021", "pdf_atom_type": "SENTENCE", "pdf_source": "SDTMIG_v3.4", "pdf_page": 70, "pdf_parent_section": "§5.2 [DM – Examples]", "pdf_verbatim": "Which of the following racial designations best describes you?", "figure_ref": null, "candidates": [{"md_atom_id": "md_dmDM_ex_a176", "md_file": "knowledge_base/domains/DM/examples.md", "md_atom_type": "SENTENCE", "md_parent_section": "§DM.7 [Example 7]", "md_verbatim": "The CRF presents 5 racial designations plus \"Unknown\" and \"Other\" options:", "score": 0.5731, "match_basis": "verbatim_token+domain_route:DM"}, {"md_atom_id": "md_dmDM_ex_a099", "md_file": "knowledge_base/domains/DM/examples.md", "md_atom_type": "SENTENCE", "md_parent_section": "§DM.4 [Example 4]", "md_verbatim": "**Row 1:** Shows that USUBJID ABC789-010-045 designated 1 race, \"WHITE\", as the value that best describes their race.", "score": 0.56, "match_basis": "verbatim_token+domain_route:DM"}, {"md_atom_id": "md_dmDM_ex_a052", "md_file": "knowledge_base/domains/DM/examples.md", "md_atom_type": "SENTENCE", "md_parent_section": "§DM.3 [Example 3]", "md_verbatim": "The following example illustrates values of ARMCD for subjects in Example Trial 3, described in Section 7.2.1, Trial Arms.", "score": 0.5522, "match_basis": "verbatim_token+domain_route:DM"}, {"md_atom_id": "md_dmDM_ex_a100", "md_file": "knowledge_base/domains/DM/examples.md", "md_atom_type": "SENTENCE", "md_parent_section": "§DM.4 [Example 4]", "md_verbatim": "**Row 2:** Shows that USUBJID ABC789-010-046 designated 1 race, \"ASIAN\", as the value that best describes their race.", "score": 0.5475, "match_basis": "verbatim_token+domain_route:DM"}, {"md_atom_id": "md_dmDM_ex_a156", "md_file": "knowledge_base/domains/DM/examples.md", "md_atom_type": "SENTENCE", "md_parent_section": "§DM.6 [Example 6]", "md_verbatim": "**Row 1:** Shows that USUBJID ABC789-010-001 designated 1 race, \"ASIAN\", as the value that best describes their race.", "score": 0.5475, "match_basis": "verbatim_token+domain_route:DM"}], "candidate_count": 5, "zero_candidate": false}
{"pdf_atom_id": "ig34_p0070_a022", "pdf_atom_type": "NOTE", "pdf_source": "SDTMIG_v3.4", "pdf_page": 70, "pdf_parent_section": "§5.2 [DM – Examples]", "pdf_verbatim": "For each value that applies, SUPPQUAL where SUPPQUAL.QNAM = \"<RACEC\" and SUPPQUAL.QLABEL is the choice value.", "figure_ref": null, "candidates": [{"md_atom_id": "md_dmDM_ex_a197", "md_file": "knowledge_base/domains/DM/examples.md", "md_atom_type": "NOTE", "md_parent_section": "§DM.7 [Example 7]", "md_verbatim": "**Note:** Recommended QNAM-QLABEL values have been provided.", "score": 0.4931, "match_basis": "verbatim_token+domain_route:DM"}, {"md_atom_id": "md_dmDM_ex_a184", "md_file": "knowledge_base/domains/DM/examples.md", "md_atom_type": "SENTENCE", "md_parent_section": "§DM.7 [Example 7]", "md_verbatim": "Additional fields: \"What was the other race?\" (RACEOTH → SUPPDM.QVAL where SUPPDM.QNAM = \"RACEOTH\") and \"If Unknown, please specify:\" (RACEREAS → SUPPDM.QVAL where SUPPDM.QNAM = \"RACEREAS\").", "score": 0.4168, "match_basis": "verbatim_token+domain_route:DM"}, {"md_atom_id": "md_dmDM_ex_a108", "md_file": "knowledge_base/domains/DM/examples.md", "md_atom_type": "SENTENCE", "md_parent_section": "§DM.4 [Example 4]", "md_verbatim": "**Rows 1, 2:** Show that USUBJID ABC789-010-047 selected 2 RACE values, \"ASIAN\" and \"WHITE\". CDASH recommended QNAM-QLABEL values have been provided.", "score": 0.4077, "match_basis": "verbatim_token+domain_route:DM"}, {"md_atom_id": "md_dmDM_ex_a155", "md_file": "knowledge_base/domains/DM/examples.md", "md_atom_type": "NOTE", "md_parent_section": "§DM.6 [Example 6]", "md_verbatim": "**Note:** Only those variables relevant to this example are shown.", "score": 0.4, "match_basis": "verbatim_token+domain_route:DM"}, {"md_atom_id": "md_dmDM_ex_a188", "md_file": "knowledge_base/domains/DM/examples.md", "md_atom_type": "NOTE", "md_parent_section": "§DM.7 [Example 7]", "md_verbatim": "**Note:** Not all DM variables are shown.", "score": 0.4, "match_basis": "verbatim_token+domain_route:DM"}], "candidate_count": 5, "zero_candidate": false}
{"pdf_atom_id": "ig34_p0070_a023", "pdf_atom_type": "LIST_ITEM", "pdf_source": "SDTMIG_v3.4", "pdf_page": 70, "pdf_parent_section": "§5.2 [DM – Examples]", "pdf_verbatim": "ALASKA NATIVE", "figure_ref": null, "candidates": [{"md_atom_id": "md_dmDM_ex_a177", "md_file": "knowledge_base/domains/DM/examples.md", "md_atom_type": "LIST_ITEM", "md_parent_section": "§DM.7 [Example 7]", "md_verbatim": "- American Indian or Alaska Native", "score": 0.6667, "match_basis": "verbatim_token+domain_route:DM"}, {"md_atom_id": "md_dmDM_ex_a074", "md_file": "knowledge_base/domains/DM/examples.md", "md_atom_type": "LIST_ITEM", "md_parent_section": "§DM.4 [Example 4]", "md_verbatim": "- RACE01: AMERICAN INDIAN OR ALASKA NATIVE", "score": 0.6182, "match_basis": "verbatim_token+domain_route:DM"}, {"md_atom_id": "md_dmDM_ex_a180", "md_file": "knowledge_base/domains/DM/examples.md", "md_atom_type": "LIST_ITEM", "md_parent_section": "§DM.7 [Example 7]", "md_verbatim": "- Native Hawaiian or Other Pacific Islander", "score": 0.4857, "match_basis": "verbatim_token+domain_route:DM"}, {"md_atom_id": "md_dmDM_ex_a077", "md_file": "knowledge_base/domains/DM/examples.md", "md_atom_type": "LIST_ITEM", "md_parent_section": "§DM.4 [Example 4]", "md_verbatim": "- RACE04: NATIVE HAWAIIAN OR OTHER PACIFIC ISLANDER", "score": 0.475, "match_basis": "verbatim_token+domain_route:DM"}, {"md_atom_id": "md_dmDM_assn_a023", "md_file": "knowledge_base/domains/DM/assumptions.md", "md_atom_type": "LIST_ITEM", "md_parent_section": "§DM [DM — Assumptions]", "md_verbatim": "   a. Only the following timing variables are permissible and may be added as appropriate: VISITNUM, VISIT, VISITDY. The record qualifier DMXFN (External File Name) is the only additional qualifier variable that may be added, which is adopted from the Findings general observation class, may also be used to refer to an external file, such as a patient narrative.", "score": 0.4178, "match_basis": "verbatim_token+domain_route:DM"}], "candidate_count": 5, "zero_candidate": false}
{"pdf_atom_id": "ig34_p0070_a024", "pdf_atom_type": "LIST_ITEM", "pdf_source": "SDTMIG_v3.4", "pdf_page": 70, "pdf_parent_section": "§5.2 [DM – Examples]", "pdf_verbatim": "AMERICAN INDIAN", "figure_ref": null, "candidates": [{"md_atom_id": "md_dmDM_ex_a177", "md_file": "knowledge_base/domains/DM/examples.md", "md_atom_type": "LIST_ITEM", "md_parent_section": "§DM.7 [Example 7]", "md_verbatim": "- American Indian or Alaska Native", "score": 0.7333, "match_basis": "verbatim_token+domain_route:DM"}, {"md_atom_id": "md_dmDM_ex_a074", "md_file": "knowledge_base/domains/DM/examples.md", "md_atom_type": "LIST_ITEM", "md_parent_section": "§DM.4 [Example 4]", "md_verbatim": "- RACE01: AMERICAN INDIAN OR ALASKA NATIVE", "score": 0.6727, "match_basis": "verbatim_token+domain_route:DM"}, {"md_atom_id": "md_dmDM_ex_a179", "md_file": "knowledge_base/domains/DM/examples.md", "md_atom_type": "LIST_ITEM", "md_parent_section": "§DM.7 [Example 7]", "md_verbatim": "- Black or African American", "score": 0.64, "match_basis": "verbatim_token+domain_route:DM"}, {"md_atom_id": "md_dmDM_ex_a076", "md_file": "knowledge_base/domains/DM/examples.md", "md_atom_type": "LIST_ITEM", "md_parent_section": "§DM.4 [Example 4]", "md_verbatim": "- RACE03: BLACK OR AFRICAN AMERICAN", "score": 0.5895, "match_basis": "verbatim_token+domain_route:DM"}, {"md_atom_id": "md_dmDM_ex_a178", "md_file": "knowledge_base/domains/DM/examples.md", "md_atom_type": "LIST_ITEM", "md_parent_section": "§DM.7 [Example 7]", "md_verbatim": "- Asian", "score": 0.45, "match_basis": "verbatim_token+domain_route:DM"}], "candidate_count": 5, "zero_candidate": false}
{"pdf_atom_id": "ig34_p0070_a025", "pdf_atom_type": "LIST_ITEM", "pdf_source": "SDTMIG_v3.4", "pdf_page": 70, "pdf_parent_section": "§5.2 [DM – Examples]", "pdf_verbatim": "CARIBBEAN INDIAN", "figure_ref": null, "candidates": [{"md_atom_id": "md_dmDM_ex_a177", "md_file": "knowledge_base/domains/DM/examples.md", "md_atom_type": "LIST_ITEM", "md_parent_section": "§DM.7 [Example 7]", "md_verbatim": "- American Indian or Alaska Native", "score": 0.496, "match_basis": "verbatim_token+domain_route:DM"}, {"md_atom_id": "md_dmDM_ex_a074", "md_file": "knowledge_base/domains/DM/examples.md", "md_atom_type": "LIST_ITEM", "md_parent_section": "§DM.4 [Example 4]", "md_verbatim": "- RACE01: AMERICAN INDIAN OR ALASKA NATIVE", "score": 0.4828, "match_basis": "verbatim_token+domain_route:DM"}, {"md_atom_id": "md_dmDM_ex_a178", "md_file": "knowledge_base/domains/DM/examples.md", "md_atom_type": "LIST_ITEM", "md_parent_section": "§DM.7 [Example 7]", "md_verbatim": "- Asian", "score": 0.4462, "match_basis": "verbatim_token+domain_route:DM"}, {"md_atom_id": "md_dmDM_ex_a075", "md_file": "knowledge_base/domains/DM/examples.md", "md_atom_type": "LIST_ITEM", "md_parent_section": "§DM.4 [Example 4]", "md_verbatim": "- RACE02: ASIAN", "score": 0.4353, "match_basis": "verbatim_token+domain_route:DM"}, {"md_atom_id": "md_dmDM_assn_a006", "md_file": "knowledge_base/domains/DM/assumptions.md", "md_atom_type": "LIST_ITEM", "md_parent_section": "§DM [DM — Assumptions]", "md_verbatim": "   a. Rules for the arm-related variables:", "score": 0.4222, "match_basis": "verbatim_token+domain_route:DM"}], "candidate_count": 5, "zero_candidate": false}
{"pdf_atom_id": "ig34_p0070_a026", "pdf_atom_type": "LIST_ITEM", "pdf_source": "SDTMIG_v3.4", "pdf_page": 70, "pdf_parent_section": "§5.2 [DM – Examples]", "pdf_verbatim": "CENTRAL AMERICAN INDIAN", "figure_ref": null, "candidates": [{"md_atom_id": "md_dmDM_ex_a177", "md_file": "knowledge_base/domains/DM/examples.md", "md_atom_type": "LIST_ITEM", "md_parent_section": "§DM.7 [Example 7]", "md_verbatim": "- American Indian or Alaska Native", "score": 0.6609, "match_basis": "verbatim_token+domain_route:DM"}, {"md_atom_id": "md_dmDM_ex_a074", "md_file": "knowledge_base/domains/DM/examples.md", "md_atom_type": "LIST_ITEM", "md_parent_section": "§DM.4 [Example 4]", "md_verbatim": "- RACE01: AMERICAN INDIAN OR ALASKA NATIVE", "score": 0.6222, "match_basis": "verbatim_token+domain_route:DM"}, {"md_atom_id": "md_dmDM_ex_a179", "md_file": "knowledge_base/domains/DM/examples.md", "md_atom_type": "LIST_ITEM", "md_parent_section": "§DM.7 [Example 7]", "md_verbatim": "- Black or African American", "score": 0.58, "match_basis": "verbatim_token+domain_route:DM"}, {"md_atom_id": "md_dmDM_ex_a076", "md_file": "knowledge_base/domains/DM/examples.md", "md_atom_type": "LIST_ITEM", "md_parent_section": "§DM.4 [Example 4]", "md_verbatim": "- RACE03: BLACK OR AFRICAN AMERICAN", "score": 0.55, "match_basis": "verbatim_token+domain_route:DM"}, {"md_atom_id": "md_dmDM_ex_a178", "md_file": "knowledge_base/domains/DM/examples.md", "md_atom_type": "LIST_ITEM", "md_parent_section": "§DM.7 [Example 7]", "md_verbatim": "- Asian", "score": 0.4353, "match_basis": "verbatim_token+domain_route:DM"}], "candidate_count": 5, "zero_candidate": false}
{"pdf_atom_id": "ig34_p0070_a027", "pdf_atom_type": "LIST_ITEM", "pdf_source": "SDTMIG_v3.4", "pdf_page": 70, "pdf_parent_section": "§5.2 [DM – Examples]", "pdf_verbatim": "<RACEC codelist>", "figure_ref": null, "candidates": [{"md_atom_id": "md_dmDM_ex_a075", "md_file": "knowledge_base/domains/DM/examples.md", "md_atom_type": "LIST_ITEM", "md_parent_section": "§DM.4 [Example 4]", "md_verbatim": "- RACE02: ASIAN", "score": 0.4857, "match_basis": "verbatim_token+domain_route:DM"}, {"md_atom_id": "md_dmDM_ex_a078", "md_file": "knowledge_base/domains/DM/examples.md", "md_atom_type": "LIST_ITEM", "md_parent_section": "§DM.4 [Example 4]", "md_verbatim": "- RACE05: WHITE", "score": 0.4857, "match_basis": "verbatim_token+domain_route:DM"}, {"md_atom_id": "md_dmDM_ex_a080", "md_file": "knowledge_base/domains/DM/examples.md", "md_atom_type": "LIST_ITEM", "md_parent_section": "§DM.4 [Example 4]", "md_verbatim": "- RACE07: UNKNOWN", "score": 0.475, "match_basis": "verbatim_token+domain_route:DM"}, {"md_atom_id": "md_dmDM_ex_a079", "md_file": "knowledge_base/domains/DM/examples.md", "md_atom_type": "LIST_ITEM", "md_parent_section": "§DM.4 [Example 4]", "md_verbatim": "- RACE06: NOT REPORTED", "score": 0.4667, "match_basis": "verbatim_token+domain_route:DM"}, {"md_atom_id": "md_dmDM_ex_a076", "md_file": "knowledge_base/domains/DM/examples.md", "md_atom_type": "LIST_ITEM", "md_parent_section": "§DM.4 [Example 4]", "md_verbatim": "- RACE03: BLACK OR AFRICAN AMERICAN", "score": 0.4545, "match_basis": "verbatim_token+domain_route:DM"}], "candidate_count": 5, "zero_candidate": false}
{"pdf_atom_id": "ig34_p0071_a001", "pdf_atom_type": "HEADING", "pdf_source": "SDTMIG_v3.4", "pdf_page": 71, "pdf_parent_section": "§5.2 [Demographics (DM)]", "pdf_verbatim": "If the study participant answered: ASIAN", "figure_ref": null, "candidates": [{"md_atom_id": "md_dmDM_assn_a001", "md_file": "knowledge_base/domains/DM/assumptions.md", "md_atom_type": "HEADING", "md_parent_section": "§DM [DM — Assumptions]", "md_verbatim": "# DM — Assumptions", "score": 0.4, "match_basis": "verbatim_token+domain_route:DM"}, {"md_atom_id": "md_dmDM_ex_a001", "md_file": "knowledge_base/domains/DM/examples.md", "md_atom_type": "HEADING", "md_parent_section": "§DM [DM — Examples]", "md_verbatim": "# DM — Examples", "score": 0.4, "match_basis": "verbatim_token+domain_route:DM"}, {"md_atom_id": "md_dmDM_ex_a002", "md_file": "knowledge_base/domains/DM/examples.md", "md_atom_type": "HEADING", "md_parent_section": "§DM [DM — Examples]", "md_verbatim": "## Example 1", "score": 0.4, "match_basis": "verbatim_token+domain_route:DM"}, {"md_atom_id": "md_dmDM_ex_a011", "md_file": "knowledge_base/domains/DM/examples.md", "md_atom_type": "HEADING", "md_parent_section": "§DM [DM — Examples]", "md_verbatim": "## Example 2", "score": 0.4, "match_basis": "verbatim_token+domain_route:DM"}, {"md_atom_id": "md_dmDM_ex_a043", "md_file": "knowledge_base/domains/DM/examples.md", "md_atom_type": "HEADING", "md_parent_section": "§DM [DM — Examples]", "md_verbatim": "## Example 3", "score": 0.4, "match_basis": "verbatim_token+domain_route:DM"}], "candidate_count": 5, "zero_candidate": false}
{"pdf_atom_id": "ig34_p0071_a002", "pdf_atom_type": "TABLE_HEADER", "pdf_source": "SDTMIG_v3.4", "pdf_page": 71, "pdf_parent_section": "§5.2 [Demographics (DM)]", "pdf_verbatim": "Select each value that applies if the subject answered \"ASIAN\". Check all that apply. | Which of the following racial designations best describes you? | [checkboxes]", "figure_ref": null, "candidates": [{"md_atom_id": "md_dmDM_ex_a094", "md_file": "knowledge_base/domains/DM/examples.md", "md_atom_type": "TABLE_ROW", "md_parent_section": "§DM.4 [Example 4]", "md_verbatim": "| CRACE01-CRACE04 | 10 | (same) | Race | Select each value that applies if the subject answered \"AMERICAN INDIAN OR ALASKA NATIVE\". Check all that apply. | Text | SUPPDM.QVAL | For each value that applies, SUPPDM.QVAL where SUPPDM.QNAM =\"CRACEn\" and SUPPDM.QLABEL = \"Collected Race n\" where n is the choice value. | (RACEC) | ALASKA NATIVE; AMERICAN INDIAN; CARIBBEAN INDIAN; CENTRAL AMERICAN INDIAN | | | checkbox | |", "score": 0.5292, "match_basis": "verbatim_token+domain_route:DM"}, {"md_atom_id": "md_dmDM_ex_a097", "md_file": "knowledge_base/domains/DM/examples.md", "md_atom_type": "TABLE_ROW", "md_parent_section": "§DM.4 [Example 4]", "md_verbatim": "| CRACE18-CRACE21 | 13 | (same) | Race | Select each value that applies if the subject answered \"WHITE\". Check all that apply. | Text | SUPPDM.QVAL | For each value that applies, SUPPDM.QVAL where SUPPDM.QNAM =\"CRACEn\" and SUPPDM.QLABEL = \"Collected Race n\" where n is the choice value. | (RACEC) | ARAB; EUROPEAN; MIDDLE EASTERN; RUSSIAN | | | checkbox | |", "score": 0.526, "match_basis": "verbatim_token+domain_route:DM"}, {"md_atom_id": "md_dmDM_ex_a095", "md_file": "knowledge_base/domains/DM/examples.md", "md_atom_type": "TABLE_ROW", "md_parent_section": "§DM.4 [Example 4]", "md_verbatim": "| CRACE05-CRACE10 | 11 | (same) | Race | Select each value that applies if the subject answered \"ASIAN\". Check all that apply. | Text | SUPPDM.QVAL | For each value that applies, SUPPDM.QVAL where SUPPDM.QNAM =\"CRACEn\" and SUPPDM.QLABEL = \"Collected Race n\" where n is the choice value. | (RACEC) | ASIAN AMERICAN; ASIAN INDIAN; BANGLADESHI; CHINESE; JAPANESE; KOREAN | | | checkbox | CRACE05-CRACE10 |", "score": 0.5209, "match_basis": "verbatim_token+domain_route:DM"}, {"md_atom_id": "md_dmDM_ex_a152", "md_file": "knowledge_base/domains/DM/examples.md", "md_atom_type": "TABLE_ROW", "md_parent_section": "§DM.6 [Example 6]", "md_verbatim": "| CRACE05-CRACE10 | 11 | (same) | Race | Select each value that applies if the subject answered \"ASIAN\". Check all that apply. | Text | SUPPDM.QVAL | For each value that applies, SUPPDM.QVAL where SUPPDM.QNAM =\"CRACEn\" and SUPPDM.QLABEL = \"Collected Race n\" where n is the choice value. | (RACEC) | ASIAN AMERICAN; ASIAN INDIAN; BANGLADESHI; CHINESE; JAPANESE; KOREAN | | | checkbox | |", "score": 0.5209, "match_basis": "verbatim_token+domain_route:DM"}, {"md_atom_id": "md_dmDM_ex_a096", "md_file": "knowledge_base/domains/DM/examples.md", "md_atom_type": "TABLE_ROW", "md_parent_section": "§DM.4 [Example 4]", "md_verbatim": "| CRACE11-CRACE17 | 12 | (same) | Race | Select each value that applies if the subject answered \"BLACK OR AFRICAN AMERICAN\". Check all that apply. | Text | SUPPDM.QVAL | For each value that applies, SUPPDM.QVAL where SUPPDM.QNAM =\"CRACEn\" and SUPPDM.QLABEL = \"Collected Race n\" where n is the choice value. | (RACEC) | AFRICAN; AFRICAN AMERICAN; AFRICAN CARIBBEAN; BAHAMIAN; BARBADIAN; BLACK; BLACK CENTRAL AMERICAN | | | checkbox | |", "score": 0.5108, "match_basis": "verbatim_token+domain_route:DM"}], "candidate_count": 5, "zero_candidate": false}
{"pdf_atom_id": "ig34_p0071_a003", "pdf_atom_type": "CODE_LITERAL", "pdf_source": "SDTMIG_v3.4", "pdf_page": 71, "pdf_parent_section": "§5.2 [Demographics (DM)]", "pdf_verbatim": "CRACE05-CRACE10", "figure_ref": null, "candidates": [{"md_atom_id": "md_dmDM_ex_a078", "md_file": "knowledge_base/domains/DM/examples.md", "md_atom_type": "LIST_ITEM", "md_parent_section": "§DM.4 [Example 4]", "md_verbatim": "- RACE05: WHITE", "score": 0.43, "match_basis": "verbatim_token+domain_route:DM"}, {"md_atom_id": "md_dmDM_ex_a075", "md_file": "knowledge_base/domains/DM/examples.md", "md_atom_type": "LIST_ITEM", "md_parent_section": "§DM.4 [Example 4]", "md_verbatim": "- RACE02: ASIAN", "score": 0.3536, "match_basis": "verbatim_token+domain_route:DM"}, {"md_atom_id": "md_dmDM_ex_a080", "md_file": "knowledge_base/domains/DM/examples.md", "md_atom_type": "LIST_ITEM", "md_parent_section": "§DM.4 [Example 4]", "md_verbatim": "- RACE07: UNKNOWN", "score": 0.3285, "match_basis": "verbatim_token+domain_route:DM"}, {"md_atom_id": "md_dmDM_ex_a079", "md_file": "knowledge_base/domains/DM/examples.md", "md_atom_type": "LIST_ITEM", "md_parent_section": "§DM.4 [Example 4]", "md_verbatim": "- RACE06: NOT REPORTED", "score": 0.31, "match_basis": "verbatim_token+domain_route:DM"}, {"md_atom_id": "md_dmDM_ex_a091", "md_file": "knowledge_base/domains/DM/examples.md", "md_atom_type": "TABLE_ROW", "md_parent_section": "§DM.4 [Example 4]", "md_verbatim": "| RACE05 | 5 | (same) | Race | (same) | Text | RACE | | (RACE) | WHITE | | | checkbox | |", "score": 0.31, "match_basis": "verbatim_token+domain_route:DM"}], "candidate_count": 5, "zero_candidate": false}
{"pdf_atom_id": "ig34_p0071_a004", "pdf_atom_type": "NOTE", "pdf_source": "SDTMIG_v3.4", "pdf_page": 71, "pdf_parent_section": "§5.2 [Demographics (DM)]", "pdf_verbatim": "For each value that applies, SUPPDM.QVAL where SUPPDM.QNAM =\"CRACEn\" and SUPPDM.QLABEL = \"Collected Race n\" where n is the choice value.", "figure_ref": null, "candidates": [{"md_atom_id": "md_dmDM_ex_a197", "md_file": "knowledge_base/domains/DM/examples.md", "md_atom_type": "NOTE", "md_parent_section": "§DM.7 [Example 7]", "md_verbatim": "**Note:** Recommended QNAM-QLABEL values have been provided.", "score": 0.4831, "match_basis": "verbatim_token+domain_route:DM"}, {"md_atom_id": "md_dmDM_ex_a097", "md_file": "knowledge_base/domains/DM/examples.md", "md_atom_type": "TABLE_ROW", "md_parent_section": "§DM.4 [Example 4]", "md_verbatim": "| CRACE18-CRACE21 | 13 | (same) | Race | Select each value that applies if the subject answered \"WHITE\". Check all that apply. | Text | SUPPDM.QVAL | For each value that applies, SUPPDM.QVAL where SUPPDM.QNAM =\"CRACEn\" and SUPPDM.QLABEL = \"Collected Race n\" where n is the choice value. | (RACEC) | ARAB; EUROPEAN; MIDDLE EASTERN; RUSSIAN | | | checkbox | |", "score": 0.4622, "match_basis": "verbatim_token+domain_route:DM"}, {"md_atom_id": "md_dmDM_ex_a094", "md_file": "knowledge_base/domains/DM/examples.md", "md_atom_type": "TABLE_ROW", "md_parent_section": "§DM.4 [Example 4]", "md_verbatim": "| CRACE01-CRACE04 | 10 | (same) | Race | Select each value that applies if the subject answered \"AMERICAN INDIAN OR ALASKA NATIVE\". Check all that apply. | Text | SUPPDM.QVAL | For each value that applies, SUPPDM.QVAL where SUPPDM.QNAM =\"CRACEn\" and SUPPDM.QLABEL = \"Collected Race n\" where n is the choice value. | (RACEC) | ALASKA NATIVE; AMERICAN INDIAN; CARIBBEAN INDIAN; CENTRAL AMERICAN INDIAN | | | checkbox | |", "score": 0.4567, "match_basis": "verbatim_token+domain_route:DM"}, {"md_atom_id": "md_dmDM_ex_a109", "md_file": "knowledge_base/domains/DM/examples.md", "md_atom_type": "SENTENCE", "md_parent_section": "§DM.4 [Example 4]", "md_verbatim": "**Rows 3-5:** Show that USUBJID ABC789-010-047 selected 3 collected race (CRACE) values, \"CHINESE\", \"KOREAN\", and \"RUSSIAN\". CDASH recommended QNAM-QLABEL values have been provided.", "score": 0.4461, "match_basis": "verbatim_token+domain_route:DM"}, {"md_atom_id": "md_dmDM_ex_a096", "md_file": "knowledge_base/domains/DM/examples.md", "md_atom_type": "TABLE_ROW", "md_parent_section": "§DM.4 [Example 4]", "md_verbatim": "| CRACE11-CRACE17 | 12 | (same) | Race | Select each value that applies if the subject answered \"BLACK OR AFRICAN AMERICAN\". Check all that apply. | Text | SUPPDM.QVAL | For each value that applies, SUPPDM.QVAL where SUPPDM.QNAM =\"CRACEn\" and SUPPDM.QLABEL = \"Collected Race n\" where n is the choice value. | (RACEC) | AFRICAN; AFRICAN AMERICAN; AFRICAN CARIBBEAN; BAHAMIAN; BARBADIAN; BLACK; BLACK CENTRAL AMERICAN | | | checkbox | |", "score": 0.4438, "match_basis": "verbatim_token+domain_route:DM"}], "candidate_count": 5, "zero_candidate": false}
{"pdf_atom_id": "ig34_p0071_a005", "pdf_atom_type": "LIST_ITEM", "pdf_source": "SDTMIG_v3.4", "pdf_page": 71, "pdf_parent_section": "§5.2 [Demographics (DM)]", "pdf_verbatim": "ASIAN AMERICAN", "figure_ref": null, "candidates": [{"md_atom_id": "md_dmDM_ex_a179", "md_file": "knowledge_base/domains/DM/examples.md", "md_atom_type": "LIST_ITEM", "md_parent_section": "§DM.7 [Example 7]", "md_verbatim": "- Black or African American", "score": 0.6571, "match_basis": "verbatim_token+domain_route:DM"}, {"md_atom_id": "md_dmDM_ex_a177", "md_file": "knowledge_base/domains/DM/examples.md", "md_atom_type": "LIST_ITEM", "md_parent_section": "§DM.7 [Example 7]", "md_verbatim": "- American Indian or Alaska Native", "score": 0.61, "match_basis": "verbatim_token+domain_route:DM"}, {"md_atom_id": "md_dmDM_ex_a076", "md_file": "knowledge_base/domains/DM/examples.md", "md_atom_type": "LIST_ITEM", "md_parent_section": "§DM.4 [Example 4]", "md_verbatim": "- RACE03: BLACK OR AFRICAN AMERICAN", "score": 0.6, "match_basis": "verbatim_token+domain_route:DM"}, {"md_atom_id": "md_dmDM_ex_a178", "md_file": "knowledge_base/domains/DM/examples.md", "md_atom_type": "LIST_ITEM", "md_parent_section": "§DM.7 [Example 7]", "md_verbatim": "- Asian", "score": 0.6, "match_basis": "verbatim_token+domain_route:DM"}, {"md_atom_id": "md_dmDM_ex_a074", "md_file": "knowledge_base/domains/DM/examples.md", "md_atom_type": "LIST_ITEM", "md_parent_section": "§DM.4 [Example 4]", "md_verbatim": "- RACE01: AMERICAN INDIAN OR ALASKA NATIVE", "score": 0.575, "match_basis": "verbatim_token+domain_route:DM"}], "candidate_count": 5, "zero_candidate": false}
{"pdf_atom_id": "ig34_p0071_a006", "pdf_atom_type": "LIST_ITEM", "pdf_source": "SDTMIG_v3.4", "pdf_page": 71, "pdf_parent_section": "§5.2 [Demographics (DM)]", "pdf_verbatim": "ASIAN INDIAN", "figure_ref": null, "candidates": [{"md_atom_id": "md_dmDM_ex_a178", "md_file": "knowledge_base/domains/DM/examples.md", "md_atom_type": "LIST_ITEM", "md_parent_section": "§DM.7 [Example 7]", "md_verbatim": "- Asian", "score": 0.7, "match_basis": "verbatim_token+domain_route:DM"}, {"md_atom_id": "md_dmDM_ex_a075", "md_file": "knowledge_base/domains/DM/examples.md", "md_atom_type": "LIST_ITEM", "md_parent_section": "§DM.4 [Example 4]", "md_verbatim": "- RACE02: ASIAN", "score": 0.58, "match_basis": "verbatim_token+domain_route:DM"}, {"md_atom_id": "md_dmDM_ex_a177", "md_file": "knowledge_base/domains/DM/examples.md", "md_atom_type": "LIST_ITEM", "md_parent_section": "§DM.7 [Example 7]", "md_verbatim": "- American Indian or Alaska Native", "score": 0.52, "match_basis": "verbatim_token+domain_route:DM"}, {"md_atom_id": "md_dmDM_ex_a074", "md_file": "knowledge_base/domains/DM/examples.md", "md_atom_type": "LIST_ITEM", "md_parent_section": "§DM.4 [Example 4]", "md_verbatim": "- RACE01: AMERICAN INDIAN OR ALASKA NATIVE", "score": 0.5, "match_basis": "verbatim_token+domain_route:DM"}, {"md_atom_id": "md_dmDM_ex_a180", "md_file": "knowledge_base/domains/DM/examples.md", "md_atom_type": "LIST_ITEM", "md_parent_section": "§DM.7 [Example 7]", "md_verbatim": "- Native Hawaiian or Other Pacific Islander", "score": 0.4207, "match_basis": "verbatim_token+domain_route:DM"}], "candidate_count": 5, "zero_candidate": false}
{"pdf_atom_id": "ig34_p0071_a007", "pdf_atom_type": "LIST_ITEM", "pdf_source": "SDTMIG_v3.4", "pdf_page": 71, "pdf_parent_section": "§5.2 [Demographics (DM)]", "pdf_verbatim": "BANGLADESHI", "figure_ref": null, "candidates": [{"md_atom_id": "md_dmDM_assn_a005", "md_file": "knowledge_base/domains/DM/assumptions.md", "md_atom_type": "LIST_ITEM", "md_parent_section": "§DM [DM — Assumptions]", "md_verbatim": "4. With the exception of trials that use multistage processes to assign subjects to arms as described below, ARM and ACTARM must be populated with ARM values from the Trial Arms (TA) dataset and ARMCD and ACTARMCD must be populated with ARMCD values from the TA dataset or be null. The ARM and ARMCD values in the TA dataset have a one-to-one relationship, and that one-to-one relationship must be preserved in the values used to populate ARM and ARMCD in DM, and to populate the values of ACTARM and ACTARMCD in DM.", "score": 0.4112, "match_basis": "verbatim_token+domain_route:DM"}, {"md_atom_id": "md_dmDM_assn_a010", "md_file": "knowledge_base/domains/DM/assumptions.md", "md_atom_type": "LIST_ITEM", "md_parent_section": "§DM [DM — Assumptions]", "md_verbatim": "      iv. If ARMNRS is populated with \"UNPLANNED TREATMENT\", ACTARMUD should be populated with a description of the unplanned treatment received.", "score": 0.41, "match_basis": "verbatim_token+domain_route:DM"}, {"md_atom_id": "md_dmDM_assn_a024", "md_file": "knowledge_base/domains/DM/assumptions.md", "md_atom_type": "LIST_ITEM", "md_parent_section": "§DM [DM — Assumptions]", "md_verbatim": "   b. The order of these additional variables within the domain should follow the rules as described in Section 4.1.4, Order of the Variables, and the order described in Section 4.2, General Variable Assumptions.", "score": 0.4086, "match_basis": "verbatim_token+domain_route:DM"}, {"md_atom_id": "md_dmDM_assn_a011", "md_file": "knowledge_base/domains/DM/assumptions.md", "md_atom_type": "LIST_ITEM", "md_parent_section": "§DM [DM — Assumptions]", "md_verbatim": "   b. Multistage assignment to treatment: Some trials use a multistage process for assigning a subject to an arm (see Section 7.2.1, Trial Arms, Example Trial 3). In such a case, best practice is to create ARMCD values composed of codes representing the results of the multiple stages of the treatment assignment process. If a subject is partially assigned, then truncated codes representing the stages completed can be used in ARMCD, and similar truncated codes can be used in ACTARMCD. The descriptions used to populate ARM and ACTARM should be similarly truncated, and the one-to-one relationship between these truncated codes should be maintained for all affected subjects in the trial. Example 3 below provides an example of this situation; see also Section 5.3, Subject Elements, Example 2. Note that this use of values not in the TA dataset is allowable only for trials with multistage assignment to arms and to subjects in those trials who do not complete all stages of the assignment.", "score": 0.4057, "match_basis": "verbatim_token+domain_route:DM"}, {"md_atom_id": "md_dmDM_assn_a014", "md_file": "knowledge_base/domains/DM/assumptions.md", "md_atom_type": "LIST_ITEM", "md_parent_section": "§DM [DM — Assumptions]", "md_verbatim": "      ii. The Subject Elements (SE) dataset records the series of elements a subject passed through in the course of a trial, and these determine the value of ACTARMCD. The following examples include sample data for both datasets to illustrate this relationship.", "score": 0.4054, "match_basis": "verbatim_token+domain_route:DM"}], "candidate_count": 5, "zero_candidate": false}
{"pdf_atom_id": "ig34_p0071_a008", "pdf_atom_type": "LIST_ITEM", "pdf_source": "SDTMIG_v3.4", "pdf_page": 71, "pdf_parent_section": "§5.2 [Demographics (DM)]", "pdf_verbatim": "CHINESE", "figure_ref": null, "candidates": [{"md_atom_id": "md_dmDM_assn_a024", "md_file": "knowledge_base/domains/DM/assumptions.md", "md_atom_type": "LIST_ITEM", "md_parent_section": "§DM [DM — Assumptions]", "md_verbatim": "   b. The order of these additional variables within the domain should follow the rules as described in Section 4.1.4, Order of the Variables, and the order described in Section 4.2, General Variable Assumptions.", "score": 0.4185, "match_basis": "verbatim_token+domain_route:DM"}, {"md_atom_id": "md_dmDM_assn_a014", "md_file": "knowledge_base/domains/DM/assumptions.md", "md_atom_type": "LIST_ITEM", "md_parent_section": "§DM [DM — Assumptions]", "md_verbatim": "      ii. The Subject Elements (SE) dataset records the series of elements a subject passed through in the course of a trial, and these determine the value of ACTARMCD. The following examples include sample data for both datasets to illustrate this relationship.", "score": 0.4112, "match_basis": "verbatim_token+domain_route:DM"}, {"md_atom_id": "md_dmDM_assn_a028", "md_file": "knowledge_base/domains/DM/assumptions.md", "md_atom_type": "LIST_ITEM", "md_parent_section": "§DM [DM — Assumptions]", "md_verbatim": "    b. RFXSTDTC and RFXENDTC: This pair of variables defines a consistent reference period for all interventional studies and is not open to customization. RFXSTDTC and RFXENDTC always represent the date/time of first and last study exposure. The study reference period often duplicates the reference period defined in RFSTDTC and RFENDTC, but not always. Therefore, this pair of variables is important as they guarantee that a reviewer will always be able to reference the first and last study exposure reference period. RFXSTDTC should be the same as SESTDTC for the first treatment element described in the SE dataset. RFXENDTC may often be the same as the SEENDTC for the last treatment element described in the SE dataset.", "score": 0.4102, "match_basis": "verbatim_token+domain_route:DM"}, {"md_atom_id": "md_dmDM_assn_a002", "md_file": "knowledge_base/domains/DM/assumptions.md", "md_atom_type": "LIST_ITEM", "md_parent_section": "§DM [DM — Assumptions]", "md_verbatim": "1. Investigator and site identification: Companies use different methods to distinguish sites and investigators. CDISC assumes that SITEID will always be present, with INVID and INVNAM used as necessary. This should be done consistently and the meaning of the variable made clear in the Define-XML document.", "score": 0.409, "match_basis": "verbatim_token+domain_route:DM"}, {"md_atom_id": "md_dmDM_assn_a004", "md_file": "knowledge_base/domains/DM/assumptions.md", "md_atom_type": "LIST_ITEM", "md_parent_section": "§DM [DM — Assumptions]", "md_verbatim": "3. Concerns for subject privacy suggest caution regarding the collection of variables like BRTHDTC. This variable is included in the Demographics model in the event that a sponsor intends to submit it; however, sponsors should follow regulatory guidelines and guidance as appropriate.", "score": 0.409, "match_basis": "verbatim_token+domain_route:DM"}, {"md_atom_id": "md_dmDM_assn_a020", "md_file": "knowledge_base/domains/DM/assumptions.md", "md_atom_type": "LIST_ITEM", "md_parent_section": "§DM [DM — Assumptions]", "md_verbatim": "   a. The Racec-Ethnicc Codetable (available at https://www.cdisc.org/standards/terminology/controlled-terminology) represents associations between collected race values and published race Controlled Terminology, as well as collected ethnicity values and published ethnicity Controlled Terminology.", "score": 0.4059, "match_basis": "verbatim_token+domain_route:DM"}, {"md_atom_id": "md_dmDM_assn_a011", "md_file": "knowledge_base/domains/DM/assumptions.md", "md_atom_type": "LIST_ITEM", "md_parent_section": "§DM [DM — Assumptions]", "md_verbatim": "   b. Multistage assignment to treatment: Some trials use a multistage process for assigning a subject to an arm (see Section 7.2.1, Trial Arms, Example Trial 3). In such a case, best practice is to create ARMCD values composed of codes representing the results of the multiple stages of the treatment assignment process. If a subject is partially assigned, then truncated codes representing the stages completed can be used in ARMCD, and similar truncated codes can be used in ACTARMCD. The descriptions used to populate ARM and ACTARM should be similarly truncated, and the one-to-one relationship between these truncated codes should be maintained for all affected subjects in the trial. Example 3 below provides an example of this situation; see also Section 5.3, Subject Elements, Example 2. Note that this use of values not in the TA dataset is allowable only for trials with multistage assignment to arms and to subjects in those trials who do not complete all stages of the assignment.", "score": 0.4058, "match_basis": "verbatim_token+domain_route:DM"}, {"md_atom_id": "md_dmDM_assn_a027", "md_file": "knowledge_base/domains/DM/assumptions.md", "md_atom_type": "LIST_ITEM", "md_parent_section": "§DM [DM — Assumptions]", "md_verbatim": "    a. RFSTDTC and RFENDTC: This pair of variables is sponsor-defined, but usually represents the date/time of first and last study exposure. However, there are certain study designs where the start of the reference period is defined differently, such as studies that have a washout period before randomization or have a medical procedure required during screening (e.g., biopsy). In these cases, RFSTDTC may be the enrollment date, which is prior to first dose. Because study day values are calculated using RFSTDTC, in this case study days would not be based on the date of first dose.", "score": 0.4058, "match_basis": "verbatim_token+domain_route:DM"}, {"md_atom_id": "md_dmDM_assn_a005", "md_file": "knowledge_base/domains/DM/assumptions.md", "md_atom_type": "LIST_ITEM", "md_parent_section": "§DM [DM — Assumptions]", "md_verbatim": "4. With the exception of trials that use multistage processes to assign subjects to arms as described below, ARM and ACTARM must be populated with ARM values from the Trial Arms (TA) dataset and ARMCD and ACTARMCD must be populated with ARMCD values from the TA dataset or be null. The ARM and ARMCD values in the TA dataset have a one-to-one relationship, and that one-to-one relationship must be preserved in the values used to populate ARM and ARMCD in DM, and to populate the values of ACTARM and ACTARMCD in DM.", "score": 0.4058, "match_basis": "verbatim_token+domain_route:DM"}, {"md_atom_id": "md_dmDM_assn_a021", "md_file": "knowledge_base/domains/DM/assumptions.md", "md_atom_type": "LIST_ITEM", "md_parent_section": "§DM [DM — Assumptions]", "md_verbatim": "7. RFSTDTC, RFENDTC, RFXSTDTC, RFXENDTC, RFCSTDTC, RFCENDTC, RFICDTC, RFPENDTC, DTHDTC, and BRTHDTC represent date/time values, but they are considered to have a record qualifier role in DM. They are not considered to be timing variables because they are not intended for use in the general observation classes.", "score": 0.405, "match_basis": "verbatim_token+domain_route:DM"}], "candidate_count": 10, "zero_candidate": false}
{"pdf_atom_id": "ig34_p0071_a009", "pdf_atom_type": "LIST_ITEM", "pdf_source": "SDTMIG_v3.4", "pdf_page": 71, "pdf_parent_section": "§5.2 [Demographics (DM)]", "pdf_verbatim": "JAPANESE", "figure_ref": null, "candidates": [{"md_atom_id": "md_dmDM_assn_a002", "md_file": "knowledge_base/domains/DM/assumptions.md", "md_atom_type": "LIST_ITEM", "md_parent_section": "§DM [DM — Assumptions]", "md_verbatim": "1. Investigator and site identification: Companies use different methods to distinguish sites and investigators. CDISC assumes that SITEID will always be present, with INVID and INVNAM used as necessary. This should be done consistently and the meaning of the variable made clear in the Define-XML document.", "score": 0.409, "match_basis": "verbatim_token+domain_route:DM"}, {"md_atom_id": "md_dmDM_assn_a024", "md_file": "knowledge_base/domains/DM/assumptions.md", "md_atom_type": "LIST_ITEM", "md_parent_section": "§DM [DM — Assumptions]", "md_verbatim": "   b. The order of these additional variables within the domain should follow the rules as described in Section 4.1.4, Order of the Variables, and the order described in Section 4.2, General Variable Assumptions.", "score": 0.409, "match_basis": "verbatim_token+domain_route:DM"}, {"md_atom_id": "md_dmDM_assn_a028", "md_file": "knowledge_base/domains/DM/assumptions.md", "md_atom_type": "LIST_ITEM", "md_parent_section": "§DM [DM — Assumptions]", "md_verbatim": "    b. RFXSTDTC and RFXENDTC: This pair of variables defines a consistent reference period for all interventional studies and is not open to customization. RFXSTDTC and RFXENDTC always represent the date/time of first and last study exposure. The study reference period often duplicates the reference period defined in RFSTDTC and RFENDTC, but not always. Therefore, this pair of variables is important as they guarantee that a reviewer will always be able to reference the first and last study exposure reference period. RFXSTDTC should be the same as SESTDTC for the first treatment element described in the SE dataset. RFXENDTC may often be the same as the SEENDTC for the last treatment element described in the SE dataset.", "score": 0.4067, "match_basis": "verbatim_token+domain_route:DM"}, {"md_atom_id": "md_dmDM_assn_a020", "md_file": "knowledge_base/domains/DM/assumptions.md", "md_atom_type": "LIST_ITEM", "md_parent_section": "§DM [DM — Assumptions]", "md_verbatim": "   a. The Racec-Ethnicc Codetable (available at https://www.cdisc.org/standards/terminology/controlled-terminology) represents associations between collected race values and published race Controlled Terminology, as well as collected ethnicity values and published ethnicity Controlled Terminology.", "score": 0.4059, "match_basis": "verbatim_token+domain_route:DM"}, {"md_atom_id": "md_dmDM_assn_a005", "md_file": "knowledge_base/domains/DM/assumptions.md", "md_atom_type": "LIST_ITEM", "md_parent_section": "§DM [DM — Assumptions]", "md_verbatim": "4. With the exception of trials that use multistage processes to assign subjects to arms as described below, ARM and ACTARM must be populated with ARM values from the Trial Arms (TA) dataset and ARMCD and ACTARMCD must be populated with ARMCD values from the TA dataset or be null. The ARM and ARMCD values in the TA dataset have a one-to-one relationship, and that one-to-one relationship must be preserved in the values used to populate ARM and ARMCD in DM, and to populate the values of ACTARM and ACTARMCD in DM.", "score": 0.4057, "match_basis": "verbatim_token+domain_route:DM"}], "candidate_count": 5, "zero_candidate": false}
{"pdf_atom_id": "ig34_p0071_a010", "pdf_atom_type": "LIST_ITEM", "pdf_source": "SDTMIG_v3.4", "pdf_page": 71, "pdf_parent_section": "§5.2 [Demographics (DM)]", "pdf_verbatim": "KOREAN", "figure_ref": null, "candidates": [{"md_atom_id": "md_dmDM_assn_a007", "md_file": "knowledge_base/domains/DM/assumptions.md", "md_atom_type": "LIST_ITEM", "md_parent_section": "§DM [DM — Assumptions]", "md_verbatim": "      i. If ARMCD is null, then ARM must be null and ARMNRS must be populated with the reason ARMCD is null.", "score": 0.4207, "match_basis": "verbatim_token+domain_route:DM"}, {"md_atom_id": "md_dmDM_assn_a013", "md_file": "knowledge_base/domains/DM/assumptions.md", "md_atom_type": "LIST_ITEM", "md_parent_section": "§DM [DM — Assumptions]", "md_verbatim": "      i. Example 1 below shows how to handle a subject who was a screen failure and was never treated.", "score": 0.4143, "match_basis": "verbatim_token+domain_route:DM"}, {"md_atom_id": "md_dmDM_assn_a010", "md_file": "knowledge_base/domains/DM/assumptions.md", "md_atom_type": "LIST_ITEM", "md_parent_section": "§DM [DM — Assumptions]", "md_verbatim": "      iv. If ARMNRS is populated with \"UNPLANNED TREATMENT\", ACTARMUD should be populated with a description of the unplanned treatment received.", "score": 0.4109, "match_basis": "verbatim_token+domain_route:DM"}, {"md_atom_id": "md_dmDM_assn_a016", "md_file": "knowledge_base/domains/DM/assumptions.md", "md_atom_type": "LIST_ITEM", "md_parent_section": "§DM [DM — Assumptions]", "md_verbatim": "         2. Section 5.3, Subject Elements, Example 1 illustrates a situation for a subject who received a treatment that was not the one to which they were assigned.", "score": 0.4088, "match_basis": "verbatim_token+domain_route:DM"}, {"md_atom_id": "md_dmDM_assn_a008", "md_file": "knowledge_base/domains/DM/assumptions.md", "md_atom_type": "LIST_ITEM", "md_parent_section": "§DM [DM — Assumptions]", "md_verbatim": "      ii. If ACTARMCD is null, then ACTARM must be null and ARMNRS must be populated with the reason ACTARMCD is null. Both ARMCD and ACTARMCD will be null for subjects who were not assigned to treatment. The same reason will provide the reason that both are null.", "score": 0.4087, "match_basis": "verbatim_token+domain_route:DM"}, {"md_atom_id": "md_dmDM_assn_a017", "md_file": "knowledge_base/domains/DM/assumptions.md", "md_atom_type": "LIST_ITEM", "md_parent_section": "§DM [DM — Assumptions]", "md_verbatim": "         3. Section 5.3, Subject Elements, Example 2 illustrates a situation in which a subject received a set of treatments different from that for any of the planned arms.", "score": 0.4083, "match_basis": "verbatim_token+domain_route:DM"}, {"md_atom_id": "md_dmDM_assn_a028", "md_file": "knowledge_base/domains/DM/assumptions.md", "md_atom_type": "LIST_ITEM", "md_parent_section": "§DM [DM — Assumptions]", "md_verbatim": "    b. RFXSTDTC and RFXENDTC: This pair of variables defines a consistent reference period for all interventional studies and is not open to customization. RFXSTDTC and RFXENDTC always represent the date/time of first and last study exposure. The study reference period often duplicates the reference period defined in RFSTDTC and RFENDTC, but not always. Therefore, this pair of variables is important as they guarantee that a reviewer will always be able to reference the first and last study exposure reference period. RFXSTDTC should be the same as SESTDTC for the first treatment element described in the SE dataset. RFXENDTC may often be the same as the SEENDTC for the last treatment element described in the SE dataset.", "score": 0.4068, "match_basis": "verbatim_token+domain_route:DM"}, {"md_atom_id": "md_dmDM_assn_a009", "md_file": "knowledge_base/domains/DM/assumptions.md", "md_atom_type": "LIST_ITEM", "md_parent_section": "§DM [DM — Assumptions]", "md_verbatim": "      iii. ARMNRS may not be populated if both ARMCD and ACTARMCD are populated. ARMCD and ACTARMCD will be populated if the subject was assigned to an arm and received treatment consistent with 1 of the arms in the TA dataset. If ARMCD and ACTARMCD are not the same, that is sufficient to explain the situation; ARMNRS should not be populated.", "score": 0.4062, "match_basis": "verbatim_token+domain_route:DM"}, {"md_atom_id": "md_dmDM_assn_a029", "md_file": "knowledge_base/domains/DM/assumptions.md", "md_atom_type": "LIST_ITEM", "md_parent_section": "§DM [DM — Assumptions]", "md_verbatim": "    c. RFCSTDTC and RFCENDTC: This pair of variables is used only when the study uses a protocol-specified challenge agent to induce a condition that the investigational treatment is intended to cure, mitigate, treat, or prevent. RFCSTDTC and RFCENDTC always represent the date/time of first and last exposure to the challenge agent.", "score": 0.4048, "match_basis": "verbatim_token+domain_route:DM"}, {"md_atom_id": "md_dmDM_assn_a002", "md_file": "knowledge_base/domains/DM/assumptions.md", "md_atom_type": "LIST_ITEM", "md_parent_section": "§DM [DM — Assumptions]", "md_verbatim": "1. Investigator and site identification: Companies use different methods to distinguish sites and investigators. CDISC assumes that SITEID will always be present, with INVID and INVNAM used as necessary. This should be done consistently and the meaning of the variable made clear in the Define-XML document.", "score": 0.4045, "match_basis": "verbatim_token+domain_route:DM"}], "candidate_count": 10, "zero_candidate": false}
{"pdf_atom_id": "ig34_p0071_a011", "pdf_atom_type": "LIST_ITEM", "pdf_source": "SDTMIG_v3.4", "pdf_page": 71, "pdf_parent_section": "§5.2 [Demographics (DM)]", "pdf_verbatim": "<RACEC codelist>", "figure_ref": null, "candidates": [{"md_atom_id": "md_dmDM_ex_a075", "md_file": "knowledge_base/domains/DM/examples.md", "md_atom_type": "LIST_ITEM", "md_parent_section": "§DM.4 [Example 4]", "md_verbatim": "- RACE02: ASIAN", "score": 0.4857, "match_basis": "verbatim_token+domain_route:DM"}, {"md_atom_id": "md_dmDM_ex_a078", "md_file": "knowledge_base/domains/DM/examples.md", "md_atom_type": "LIST_ITEM", "md_parent_section": "§DM.4 [Example 4]", "md_verbatim": "- RACE05: WHITE", "score": 0.4857, "match_basis": "verbatim_token+domain_route:DM"}, {"md_atom_id": "md_dmDM_ex_a080", "md_file": "knowledge_base/domains/DM/examples.md", "md_atom_type": "LIST_ITEM", "md_parent_section": "§DM.4 [Example 4]", "md_verbatim": "- RACE07: UNKNOWN", "score": 0.475, "match_basis": "verbatim_token+domain_route:DM"}, {"md_atom_id": "md_dmDM_ex_a079", "md_file": "knowledge_base/domains/DM/examples.md", "md_atom_type": "LIST_ITEM", "md_parent_section": "§DM.4 [Example 4]", "md_verbatim": "- RACE06: NOT REPORTED", "score": 0.4667, "match_basis": "verbatim_token+domain_route:DM"}, {"md_atom_id": "md_dmDM_ex_a076", "md_file": "knowledge_base/domains/DM/examples.md", "md_atom_type": "LIST_ITEM", "md_parent_section": "§DM.4 [Example 4]", "md_verbatim": "- RACE03: BLACK OR AFRICAN AMERICAN", "score": 0.4545, "match_basis": "verbatim_token+domain_route:DM"}], "candidate_count": 5, "zero_candidate": false}
{"pdf_atom_id": "ig34_p0071_a012", "pdf_atom_type": "HEADING", "pdf_source": "SDTMIG_v3.4", "pdf_page": 71, "pdf_parent_section": "§5.2 [Demographics (DM)]", "pdf_verbatim": "If the study participant answered: BLACK OR AFRICAN AMERICAN", "figure_ref": null, "candidates": [{"md_atom_id": "md_dmDM_assn_a001", "md_file": "knowledge_base/domains/DM/assumptions.md", "md_atom_type": "HEADING", "md_parent_section": "§DM [DM — Assumptions]", "md_verbatim": "# DM — Assumptions", "score": 0.4, "match_basis": "verbatim_token+domain_route:DM"}, {"md_atom_id": "md_dmDM_ex_a001", "md_file": "knowledge_base/domains/DM/examples.md", "md_atom_type": "HEADING", "md_parent_section": "§DM [DM — Examples]", "md_verbatim": "# DM — Examples", "score": 0.4, "match_basis": "verbatim_token+domain_route:DM"}, {"md_atom_id": "md_dmDM_ex_a002", "md_file": "knowledge_base/domains/DM/examples.md", "md_atom_type": "HEADING", "md_parent_section": "§DM [DM — Examples]", "md_verbatim": "## Example 1", "score": 0.4, "match_basis": "verbatim_token+domain_route:DM"}, {"md_atom_id": "md_dmDM_ex_a011", "md_file": "knowledge_base/domains/DM/examples.md", "md_atom_type": "HEADING", "md_parent_section": "§DM [DM — Examples]", "md_verbatim": "## Example 2", "score": 0.4, "match_basis": "verbatim_token+domain_route:DM"}, {"md_atom_id": "md_dmDM_ex_a043", "md_file": "knowledge_base/domains/DM/examples.md", "md_atom_type": "HEADING", "md_parent_section": "§DM [DM — Examples]", "md_verbatim": "## Example 3", "score": 0.4, "match_basis": "verbatim_token+domain_route:DM"}], "candidate_count": 5, "zero_candidate": false}
{"pdf_atom_id": "ig34_p0071_a013", "pdf_atom_type": "TABLE_HEADER", "pdf_source": "SDTMIG_v3.4", "pdf_page": 71, "pdf_parent_section": "§5.2 [Demographics (DM)]", "pdf_verbatim": "Select each value that applies if the subject answered \"BLACK OR AFRICAN AMERICAN\". Check all that apply. | Which of the following racial designations best describes you? | [checkboxes]", "figure_ref": null, "candidates": [{"md_atom_id": "md_dmDM_ex_a096", "md_file": "knowledge_base/domains/DM/examples.md", "md_atom_type": "TABLE_ROW", "md_parent_section": "§DM.4 [Example 4]", "md_verbatim": "| CRACE11-CRACE17 | 12 | (same) | Race | Select each value that applies if the subject answered \"BLACK OR AFRICAN AMERICAN\". Check all that apply. | Text | SUPPDM.QVAL | For each value that applies, SUPPDM.QVAL where SUPPDM.QNAM =\"CRACEn\" and SUPPDM.QLABEL = \"Collected Race n\" where n is the choice value. | (RACEC) | AFRICAN; AFRICAN AMERICAN; AFRICAN CARIBBEAN; BAHAMIAN; BARBADIAN; BLACK; BLACK CENTRAL AMERICAN | | | checkbox | |", "score": 0.5578, "match_basis": "verbatim_token+domain_route:DM"}, {"md_atom_id": "md_dmDM_ex_a153", "md_file": "knowledge_base/domains/DM/examples.md", "md_atom_type": "TABLE_ROW", "md_parent_section": "§DM.6 [Example 6]", "md_verbatim": "| CRACE11-CRACE17 | 12 | (same) | Race | Select each value that applies if the subject answered \"BLACK OR AFRICAN AMERICAN\". Check all that apply. | Text | SUPPDM.QVAL | For each value that applies, SUPPDM.QVAL where SUPPDM.QNAM =\"CRACEn\" and SUPPDM.QLABEL = \"Collected Race n\" where n is the choice value. | (RACEC) | AFRICAN; AFRICAN AMERICAN; AFRICAN CARIBBEAN; BAHAMIAN; BARBADIAN; BLACK; BLACK CENTRAL AMERICAN | | | checkbox | |", "score": 0.5578, "match_basis": "verbatim_token+domain_route:DM"}, {"md_atom_id": "md_dmDM_ex_a094", "md_file": "knowledge_base/domains/DM/examples.md", "md_atom_type": "TABLE_ROW", "md_parent_section": "§DM.4 [Example 4]", "md_verbatim": "| CRACE01-CRACE04 | 10 | (same) | Race | Select each value that applies if the subject answered \"AMERICAN INDIAN OR ALASKA NATIVE\". Check all that apply. | Text | SUPPDM.QVAL | For each value that applies, SUPPDM.QVAL where SUPPDM.QNAM =\"CRACEn\" and SUPPDM.QLABEL = \"Collected Race n\" where n is the choice value. | (RACEC) | ALASKA NATIVE; AMERICAN INDIAN; CARIBBEAN INDIAN; CENTRAL AMERICAN INDIAN | | | checkbox | |", "score": 0.5475, "match_basis": "verbatim_token+domain_route:DM"}, {"md_atom_id": "md_dmDM_ex_a095", "md_file": "knowledge_base/domains/DM/examples.md", "md_atom_type": "TABLE_ROW", "md_parent_section": "§DM.4 [Example 4]", "md_verbatim": "| CRACE05-CRACE10 | 11 | (same) | Race | Select each value that applies if the subject answered \"ASIAN\". Check all that apply. | Text | SUPPDM.QVAL | For each value that applies, SUPPDM.QVAL where SUPPDM.QNAM =\"CRACEn\" and SUPPDM.QLABEL = \"Collected Race n\" where n is the choice value. | (RACEC) | ASIAN AMERICAN; ASIAN INDIAN; BANGLADESHI; CHINESE; JAPANESE; KOREAN | | | checkbox | CRACE05-CRACE10 |", "score": 0.5272, "match_basis": "verbatim_token+domain_route:DM"}, {"md_atom_id": "md_dmDM_ex_a152", "md_file": "knowledge_base/domains/DM/examples.md", "md_atom_type": "TABLE_ROW", "md_parent_section": "§DM.6 [Example 6]", "md_verbatim": "| CRACE05-CRACE10 | 11 | (same) | Race | Select each value that applies if the subject answered \"ASIAN\". Check all that apply. | Text | SUPPDM.QVAL | For each value that applies, SUPPDM.QVAL where SUPPDM.QNAM =\"CRACEn\" and SUPPDM.QLABEL = \"Collected Race n\" where n is the choice value. | (RACEC) | ASIAN AMERICAN; ASIAN INDIAN; BANGLADESHI; CHINESE; JAPANESE; KOREAN | | | checkbox | |", "score": 0.5272, "match_basis": "verbatim_token+domain_route:DM"}], "candidate_count": 5, "zero_candidate": false}
{"pdf_atom_id": "ig34_p0071_a014", "pdf_atom_type": "CODE_LITERAL", "pdf_source": "SDTMIG_v3.4", "pdf_page": 71, "pdf_parent_section": "§5.2 [Demographics (DM)]", "pdf_verbatim": "CRACE11-CRACE17", "figure_ref": null, "candidates": [{"md_atom_id": "md_dmDM_ex_a075", "md_file": "knowledge_base/domains/DM/examples.md", "md_atom_type": "LIST_ITEM", "md_parent_section": "§DM.4 [Example 4]", "md_verbatim": "- RACE02: ASIAN", "score": 0.2991, "match_basis": "verbatim_token+domain_route:DM"}, {"md_atom_id": "md_dmDM_ex_a078", "md_file": "knowledge_base/domains/DM/examples.md", "md_atom_type": "LIST_ITEM", "md_parent_section": "§DM.4 [Example 4]", "md_verbatim": "- RACE05: WHITE", "score": 0.2991, "match_basis": "verbatim_token+domain_route:DM"}, {"md_atom_id": "md_dmDM_ex_a115", "md_file": "knowledge_base/domains/DM/examples.md", "md_atom_type": "TABLE_ROW", "md_parent_section": "§DM.4 [Example 4]", "md_verbatim": "| 4 | ABC789 | DM | ABC789-010-047 | | | CRACE10 | Collected Race 10 | KOREAN | CRF | |", "score": 0.286, "match_basis": "verbatim_token+domain_route:DM"}, {"md_atom_id": "md_dmDM_ex_a080", "md_file": "knowledge_base/domains/DM/examples.md", "md_atom_type": "LIST_ITEM", "md_parent_section": "§DM.4 [Example 4]", "md_verbatim": "- RACE07: UNKNOWN", "score": 0.2823, "match_basis": "verbatim_token+domain_route:DM"}, {"md_atom_id": "md_dmDM_ex_a079", "md_file": "knowledge_base/domains/DM/examples.md", "md_atom_type": "LIST_ITEM", "md_parent_section": "§DM.4 [Example 4]", "md_verbatim": "- RACE06: NOT REPORTED", "score": 0.27, "match_basis": "verbatim_token+domain_route:DM"}], "candidate_count": 5, "zero_candidate": false}
{"pdf_atom_id": "ig34_p0071_a015", "pdf_atom_type": "NOTE", "pdf_source": "SDTMIG_v3.4", "pdf_page": 71, "pdf_parent_section": "§5.2 [Demographics (DM)]", "pdf_verbatim": "For each value that applies, SUPPDM.QVAL where SUPPDM.QNAM =\"CRACEn\" and SUPPDM.QLABEL = \"Collected Race n\" where n is the choice value.", "figure_ref": null, "candidates": [{"md_atom_id": "md_dmDM_ex_a197", "md_file": "knowledge_base/domains/DM/examples.md", "md_atom_type": "NOTE", "md_parent_section": "§DM.7 [Example 7]", "md_verbatim": "**Note:** Recommended QNAM-QLABEL values have been provided.", "score": 0.4831, "match_basis": "verbatim_token+domain_route:DM"}, {"md_atom_id": "md_dmDM_ex_a097", "md_file": "knowledge_base/domains/DM/examples.md", "md_atom_type": "TABLE_ROW", "md_parent_section": "§DM.4 [Example 4]", "md_verbatim": "| CRACE18-CRACE21 | 13 | (same) | Race | Select each value that applies if the subject answered \"WHITE\". Check all that apply. | Text | SUPPDM.QVAL | For each value that applies, SUPPDM.QVAL where SUPPDM.QNAM =\"CRACEn\" and SUPPDM.QLABEL = \"Collected Race n\" where n is the choice value. | (RACEC) | ARAB; EUROPEAN; MIDDLE EASTERN; RUSSIAN | | | checkbox | |", "score": 0.4622, "match_basis": "verbatim_token+domain_route:DM"}, {"md_atom_id": "md_dmDM_ex_a094", "md_file": "knowledge_base/domains/DM/examples.md", "md_atom_type": "TABLE_ROW", "md_parent_section": "§DM.4 [Example 4]", "md_verbatim": "| CRACE01-CRACE04 | 10 | (same) | Race | Select each value that applies if the subject answered \"AMERICAN INDIAN OR ALASKA NATIVE\". Check all that apply. | Text | SUPPDM.QVAL | For each value that applies, SUPPDM.QVAL where SUPPDM.QNAM =\"CRACEn\" and SUPPDM.QLABEL = \"Collected Race n\" where n is the choice value. | (RACEC) | ALASKA NATIVE; AMERICAN INDIAN; CARIBBEAN INDIAN; CENTRAL AMERICAN INDIAN | | | checkbox | |", "score": 0.4567, "match_basis": "verbatim_token+domain_route:DM"}, {"md_atom_id": "md_dmDM_ex_a109", "md_file": "knowledge_base/domains/DM/examples.md", "md_atom_type": "SENTENCE", "md_parent_section": "§DM.4 [Example 4]", "md_verbatim": "**Rows 3-5:** Show that USUBJID ABC789-010-047 selected 3 collected race (CRACE) values, \"CHINESE\", \"KOREAN\", and \"RUSSIAN\". CDASH recommended QNAM-QLABEL values have been provided.", "score": 0.4461, "match_basis": "verbatim_token+domain_route:DM"}, {"md_atom_id": "md_dmDM_ex_a096", "md_file": "knowledge_base/domains/DM/examples.md", "md_atom_type": "TABLE_ROW", "md_parent_section": "§DM.4 [Example 4]", "md_verbatim": "| CRACE11-CRACE17 | 12 | (same) | Race | Select each value that applies if the subject answered \"BLACK OR AFRICAN AMERICAN\". Check all that apply. | Text | SUPPDM.QVAL | For each value that applies, SUPPDM.QVAL where SUPPDM.QNAM =\"CRACEn\" and SUPPDM.QLABEL = \"Collected Race n\" where n is the choice value. | (RACEC) | AFRICAN; AFRICAN AMERICAN; AFRICAN CARIBBEAN; BAHAMIAN; BARBADIAN; BLACK; BLACK CENTRAL AMERICAN | | | checkbox | |", "score": 0.4438, "match_basis": "verbatim_token+domain_route:DM"}], "candidate_count": 5, "zero_candidate": false}
{"pdf_atom_id": "ig34_p0071_a016", "pdf_atom_type": "LIST_ITEM", "pdf_source": "SDTMIG_v3.4", "pdf_page": 71, "pdf_parent_section": "§5.2 [Demographics (DM)]", "pdf_verbatim": "AFRICAN", "figure_ref": null, "candidates": [{"md_atom_id": "md_dmDM_ex_a179", "md_file": "knowledge_base/domains/DM/examples.md", "md_atom_type": "LIST_ITEM", "md_parent_section": "§DM.7 [Example 7]", "md_verbatim": "- Black or African American", "score": 0.6727, "match_basis": "verbatim_token+domain_route:DM"}, {"md_atom_id": "md_dmDM_ex_a076", "md_file": "knowledge_base/domains/DM/examples.md", "md_atom_type": "LIST_ITEM", "md_parent_section": "§DM.4 [Example 4]", "md_verbatim": "- RACE03: BLACK OR AFRICAN AMERICAN", "score": 0.6, "match_basis": "verbatim_token+domain_route:DM"}, {"md_atom_id": "md_dmDM_ex_a177", "md_file": "knowledge_base/domains/DM/examples.md", "md_atom_type": "LIST_ITEM", "md_parent_section": "§DM.7 [Example 7]", "md_verbatim": "- American Indian or Alaska Native", "score": 0.49, "match_basis": "verbatim_token+domain_route:DM"}, {"md_atom_id": "md_dmDM_ex_a074", "md_file": "knowledge_base/domains/DM/examples.md", "md_atom_type": "LIST_ITEM", "md_parent_section": "§DM.4 [Example 4]", "md_verbatim": "- RACE01: AMERICAN INDIAN OR ALASKA NATIVE", "score": 0.475, "match_basis": "verbatim_token+domain_route:DM"}, {"md_atom_id": "md_dmDM_ex_a162", "md_file": "knowledge_base/domains/DM/examples.md", "md_atom_type": "TABLE_ROW", "md_parent_section": "§DM.6 [Example 6]", "md_verbatim": "| 2 | ABC789 | DM | ABC789-010-002 | 010-002 | BLACK OR AFRICAN AMERICAN |", "score": 0.4265, "match_basis": "verbatim_token+domain_route:DM"}, {"md_atom_id": "md_dmDM_ex_a163", "md_file": "knowledge_base/domains/DM/examples.md", "md_atom_type": "TABLE_ROW", "md_parent_section": "§DM.6 [Example 6]", "md_verbatim": "| 3 | ABC789 | DM | ABC789-010-003 | 010-003 | BLACK OR AFRICAN AMERICAN |", "score": 0.4265, "match_basis": "verbatim_token+domain_route:DM"}, {"md_atom_id": "md_dmDM_assn_a002", "md_file": "knowledge_base/domains/DM/assumptions.md", "md_atom_type": "LIST_ITEM", "md_parent_section": "§DM [DM — Assumptions]", "md_verbatim": "1. Investigator and site identification: Companies use different methods to distinguish sites and investigators. CDISC assumes that SITEID will always be present, with INVID and INVNAM used as necessary. This should be done consistently and the meaning of the variable made clear in the Define-XML document.", "score": 0.4045, "match_basis": "verbatim_token+domain_route:DM"}, {"md_atom_id": "md_dmDM_assn_a028", "md_file": "knowledge_base/domains/DM/assumptions.md", "md_atom_type": "LIST_ITEM", "md_parent_section": "§DM [DM — Assumptions]", "md_verbatim": "    b. RFXSTDTC and RFXENDTC: This pair of variables defines a consistent reference period for all interventional studies and is not open to customization. RFXSTDTC and RFXENDTC always represent the date/time of first and last study exposure. The study reference period often duplicates the reference period defined in RFSTDTC and RFENDTC, but not always. Therefore, this pair of variables is important as they guarantee that a reviewer will always be able to reference the first and last study exposure reference period. RFXSTDTC should be the same as SESTDTC for the first treatment element described in the SE dataset. RFXENDTC may often be the same as the SEENDTC for the last treatment element described in the SE dataset.", "score": 0.4034, "match_basis": "verbatim_token+domain_route:DM"}, {"md_atom_id": "md_dmDM_assn_a011", "md_file": "knowledge_base/domains/DM/assumptions.md", "md_atom_type": "LIST_ITEM", "md_parent_section": "§DM [DM — Assumptions]", "md_verbatim": "   b. Multistage assignment to treatment: Some trials use a multistage process for assigning a subject to an arm (see Section 7.2.1, Trial Arms, Example Trial 3). In such a case, best practice is to create ARMCD values composed of codes representing the results of the multiple stages of the treatment assignment process. If a subject is partially assigned, then truncated codes representing the stages completed can be used in ARMCD, and similar truncated codes can be used in ACTARMCD. The descriptions used to populate ARM and ACTARM should be similarly truncated, and the one-to-one relationship between these truncated codes should be maintained for all affected subjects in the trial. Example 3 below provides an example of this situation; see also Section 5.3, Subject Elements, Example 2. Note that this use of values not in the TA dataset is allowable only for trials with multistage assignment to arms and to subjects in those trials who do not complete all stages of the assignment.", "score": 0.4029, "match_basis": "verbatim_token+domain_route:DM"}, {"md_atom_id": "md_dmDM_assn_a027", "md_file": "knowledge_base/domains/DM/assumptions.md", "md_atom_type": "LIST_ITEM", "md_parent_section": "§DM [DM — Assumptions]", "md_verbatim": "    a. RFSTDTC and RFENDTC: This pair of variables is sponsor-defined, but usually represents the date/time of first and last study exposure. However, there are certain study designs where the start of the reference period is defined differently, such as studies that have a washout period before randomization or have a medical procedure required during screening (e.g., biopsy). In these cases, RFSTDTC may be the enrollment date, which is prior to first dose. Because study day values are calculated using RFSTDTC, in this case study days would not be based on the date of first dose.", "score": 0.4029, "match_basis": "verbatim_token+domain_route:DM"}], "candidate_count": 10, "zero_candidate": false}
