{"pdf_atom_id": "ig34_p0258_a016", "pdf_atom_type": "LIST_ITEM", "pdf_source": "SDTMIG_v3.4", "pdf_page": 258, "pdf_parent_section": "§6.3.5.7.3 Microbiology Specimen/Microbiology Susceptibility Examples", "pdf_verbatim": "Row 8: Shows that microbial culture of a third subject sample at the third visit indicated \"NO GROWTH\" (MBORRES) of any organisms.", "figure_ref": null, "candidates": [{"md_atom_id": "md_dmMB_ex_a052", "md_file": "knowledge_base/domains/MB/examples.md", "md_atom_type": "SENTENCE", "md_parent_section": "§MB.2 [Example 2]", "md_verbatim": "**Row 8:** Shows that microbial culture of a third subject sample at the third visit indicated \"NO GROWTH\" (MBORRES) of any organisms.", "score": 0.81, "match_basis": "verbatim_token+global_search"}, {"md_atom_id": "md_dmMB_ex_a051", "md_file": "knowledge_base/domains/MB/examples.md", "md_atom_type": "SENTENCE", "md_parent_section": "§MB.2 [Example 2]", "md_verbatim": "**Row 7:** Shows that microbial culture of a subsequent sample at a later visit indicated only the presence of \"KLEBSIELLA PNEUMONIAE\" (MBORRES).", "score": 0.4729, "match_basis": "verbatim_token+global_search"}, {"md_atom_id": "md_dmMB_ex_a050", "md_file": "knowledge_base/domains/MB/examples.md", "md_atom_type": "SENTENCE", "md_parent_section": "§MB.2 [Example 2]", "md_verbatim": "**Rows 5-6:** Show that microbial culture of the same sample was used at the same visit to identify the presence of two organisms, \"STREPTOCOCCUS PNEUMONIAE\" and \"KLEBSIELLA PNEUMONIAE\" (MBORRES).", "score": 0.4357, "match_basis": "verbatim_token+global_search"}, {"md_atom_id": "md_dmGF_assn_a005", "md_file": "knowledge_base/domains/GF/assumptions.md", "md_atom_type": "LIST_ITEM", "md_parent_section": "§GF [GF — Assumptions]", "md_verbatim": "   b. If the purpose of the test is to detect or determine the identity of a viable, non-host organism or infectious agent in a subject sample, data should be represented in the Microbiology Specimen (MB) domain.", "score": 0.42, "match_basis": "verbatim_token+global_search"}, {"md_atom_id": "md_ch04_a842", "md_file": "knowledge_base/chapters/ch04_general_assumptions.md", "md_atom_type": "LIST_ITEM", "md_parent_section": "§4.5.1.3 [Examples of Original and Standard Units and Test Not Done]", "md_verbatim": "- **Row 8:** A result for LBTEST = \"HCT\" is missing for visit 2, as indicated by LBSTAT = \"NOT DONE\"; neither LBORRES nor LBSTRESC is populated.", "score": 0.4121, "match_basis": "verbatim_token+global_search"}], "candidate_count": 5, "zero_candidate": false}
{"pdf_atom_id": "ig34_p0258_a017", "pdf_atom_type": "CODE_LITERAL", "pdf_source": "SDTMIG_v3.4", "pdf_page": 258, "pdf_parent_section": "§6.3.5.7.3 Microbiology Specimen/Microbiology Susceptibility Examples", "pdf_verbatim": "mb.xpt", "figure_ref": null, "candidates": [{"md_atom_id": "md_ch04_a207", "md_file": "knowledge_base/chapters/ch04_general_assumptions.md", "md_atom_type": "CODE_LITERAL", "md_parent_section": "§4.2.3 [Use of \"Subject\" and USUBJID]", "md_verbatim": "dm.xpt:", "score": 0.69, "match_basis": "verbatim_token+global_search"}, {"md_atom_id": "md_ch04_a210", "md_file": "knowledge_base/chapters/ch04_general_assumptions.md", "md_atom_type": "CODE_LITERAL", "md_parent_section": "§4.2.3 [Use of \"Subject\" and USUBJID]", "md_verbatim": "dm.xpt:", "score": 0.69, "match_basis": "verbatim_token+global_search"}, {"md_atom_id": "md_dmCM_ex_a010", "md_file": "knowledge_base/domains/CM/examples.md", "md_atom_type": "NOTE", "md_parent_section": "§CM.1 [Example 1]", "md_verbatim": "**cm.xpt**", "score": 0.69, "match_basis": "verbatim_token+global_search"}, {"md_atom_id": "md_dmCM_ex_a025", "md_file": "knowledge_base/domains/CM/examples.md", "md_atom_type": "NOTE", "md_parent_section": "§CM.2 [Example 2]", "md_verbatim": "**cm.xpt**", "score": 0.69, "match_basis": "verbatim_token+global_search"}, {"md_atom_id": "md_dmCM_ex_a042", "md_file": "knowledge_base/domains/CM/examples.md", "md_atom_type": "NOTE", "md_parent_section": "§CM.3 [Example 3]", "md_verbatim": "**cm.xpt**", "score": 0.69, "match_basis": "verbatim_token+global_search"}, {"md_atom_id": "md_dmCM_ex_a052", "md_file": "knowledge_base/domains/CM/examples.md", "md_atom_type": "NOTE", "md_parent_section": "§CM.4 [Example 4]", "md_verbatim": "**cm.xpt**", "score": 0.69, "match_basis": "verbatim_token+global_search"}, {"md_atom_id": "md_dmCM_ex_a070", "md_file": "knowledge_base/domains/CM/examples.md", "md_atom_type": "NOTE", "md_parent_section": "§CM.5 [Example 5]", "md_verbatim": "**cm.xpt**", "score": 0.69, "match_basis": "verbatim_token+global_search"}, {"md_atom_id": "md_ch04_a368", "md_file": "knowledge_base/chapters/ch04_general_assumptions.md", "md_atom_type": "CODE_LITERAL", "md_parent_section": "§4.2.8.3 [Multiple Values for a Non-result Qualifier Variable]", "md_verbatim": "ae.xpt:", "score": 0.69, "match_basis": "verbatim_token+global_search"}, {"md_atom_id": "md_ch04_a378", "md_file": "knowledge_base/chapters/ch04_general_assumptions.md", "md_atom_type": "CODE_LITERAL", "md_parent_section": "§4.2.8.3 [Multiple Values for a Non-result Qualifier Variable]", "md_verbatim": "ae.xpt:", "score": 0.69, "match_basis": "verbatim_token+global_search"}, {"md_atom_id": "md_ch04_a391", "md_file": "knowledge_base/chapters/ch04_general_assumptions.md", "md_atom_type": "CODE_LITERAL", "md_parent_section": "§4.2.8.3 [Multiple Values for a Non-result Qualifier Variable]", "md_verbatim": "ae.xpt:", "score": 0.69, "match_basis": "verbatim_token+global_search"}], "candidate_count": 10, "zero_candidate": false}
{"pdf_atom_id": "ig34_p0258_a018", "pdf_atom_type": "TABLE_HEADER", "pdf_source": "SDTMIG_v3.4", "pdf_page": 258, "pdf_parent_section": "§6.3.5.7.3 Microbiology Specimen/Microbiology Susceptibility Examples", "pdf_verbatim": "Row | STUDYID | DOMAIN | USUBJID | MBSEQ | MBREFID | MBTESTCD | MBTEST | MBTSTDTL | MBORRES | MBRSLSCL | MBSTRESC | MBLOC | MBMETHOD | VISITNUM | VISIT | MBDTC", "figure_ref": null, "candidates": [{"md_atom_id": "md_dmMB_ex_a054", "md_file": "knowledge_base/domains/MB/examples.md", "md_atom_type": "TABLE_HEADER", "md_parent_section": "§MB.2 [Example 2]", "md_verbatim": "| Row | STUDYID | DOMAIN | USUBJID | MBSEQ | MBREFID | MBTESTCD | MBTEST | MBTSTDTL | MBORRES | MBRSLSCL | MBSTRESC | MBSPEC | MBLOC | MBMETHOD | VISITNUM | VISIT | MBDTC |\n|-----|---------|--------|---------|-------|---------|----------|--------|----------|---------|----------|----------|--------|-------|----------|----------|-------|-------|", "score": 0.8739, "match_basis": "verbatim_token+global_search"}, {"md_atom_id": "md_dmGF_ex_a087", "md_file": "knowledge_base/domains/GF/examples.md", "md_atom_type": "TABLE_HEADER", "md_parent_section": "§GF.5 [Example 5]", "md_verbatim": "| Row | STUDYID | DOMAIN | USUBJID | MBSEQ | MBREFID | MBTESTCD | MBTEST | MBORRES | MBSTRESC | MBSPEC | MBLOC | MBMETHOD | VISITNUM | VISIT | MBDTC |\n|-----|---------|--------|---------|-------|---------|----------|--------|---------|----------|--------|-------|----------|----------|-------|-------|", "score": 0.787, "match_basis": "verbatim_token+global_search"}, {"md_atom_id": "md_dmMB_ex_a019", "md_file": "knowledge_base/domains/MB/examples.md", "md_atom_type": "TABLE_HEADER", "md_parent_section": "§MB.1 [Example 1]", "md_verbatim": "| Row | STUDYID | DOMAIN | USUBJID | MBSEQ | MBREFID | MBLNKID | MBTESTCD | MBTEST | MBTSTDTL | MBORRES | MBSTRESC | MBSPEC | MBLOC | MBMETHOD | MBNAM | VISITNUM | VISIT | MBDTC |\n|-----|---------|--------|---------|-------|---------|---------|----------|--------|----------|---------|----------|--------|-------|----------|-------|----------|-------|-------|", "score": 0.7816, "match_basis": "verbatim_token+global_search"}, {"md_atom_id": "md_dmMB_ex_a134", "md_file": "knowledge_base/domains/MB/examples.md", "md_atom_type": "TABLE_HEADER", "md_parent_section": "§MB.3 [Example 3]", "md_verbatim": "| Row | STUDYID | DOMAIN | USUBJID | SPDEVID | MBSEQ | MBGRPID | MBREFID | MBLNKGRP | MBTESTCD | MBTEST | MBTSTDTL | MBORRES | MBRSLSCL | MBSTRESC | MBSTRESN | MBSTRESU | MBSPCND | MBSPEC | MBLOC | MBMETHOD | VISITNUM | VISIT | MBDTC |\n|-----|---------|--------|---------|---------|-------|---------|---------|----------|----------|--------|----------|---------|----------|----------|----------|----------|---------|--------|-------|----------|----------|-------|-------|", "score": 0.75, "match_basis": "verbatim_token+global_search"}, {"md_atom_id": "md_dmLB_ex_a052", "md_file": "knowledge_base/domains/LB/examples.md", "md_atom_type": "TABLE_HEADER", "md_parent_section": "§LB.5 [Example 5]", "md_verbatim": "| Row | STUDYID | DOMAIN | USUBJID | LBSEQ | LBTESTCD | LBTEST | LBBDAGNT | LBCAT | LBORRES | LBORRESU | LBSTRESC | LBSTRESN | LBSTRESU | LBSPEC | LBMETHOD | LBDTC | VISITNUM | VISIT |\n|-----|---------|--------|---------|-------|----------|--------|----------|-------|---------|----------|----------|----------|----------|--------|----------|-------|----------|-------|", "score": 0.6035, "match_basis": "verbatim_token+global_search"}], "candidate_count": 5, "zero_candidate": false}
{"pdf_atom_id": "ig34_p0258_a019", "pdf_atom_type": "TABLE_ROW", "pdf_source": "SDTMIG_v3.4", "pdf_page": 258, "pdf_parent_section": "§6.3.5.7.3 Microbiology Specimen/Microbiology Susceptibility Examples", "pdf_verbatim": "1 | ABC | MB | ABC-001-001 | 1 | SP01 | GMNCOC | Gram Negative Cocci | DETECTION | PRESENT | Ord | PRESENT | LUNG | GRAM STAIN | 1 | VISIT | 2005-06-19T08:00", "figure_ref": null, "candidates": [{"md_atom_id": "md_dmMB_ex_a055", "md_file": "knowledge_base/domains/MB/examples.md", "md_atom_type": "TABLE_ROW", "md_parent_section": "§MB.2 [Example 2]", "md_verbatim": "| 1 | ABC | MB | ABC-001-001 | 1 | SP01 | GMNCOC | Gram Negative Cocci | DETECTION | PRESENT | Ord | PRESENT | LUNG | | GRAM STAIN | 1 | VISIT 1 | 2005-06-19T08:00 |", "score": 0.9, "match_basis": "verbatim_token+global_search"}, {"md_atom_id": "md_dmMB_ex_a057", "md_file": "knowledge_base/domains/MB/examples.md", "md_atom_type": "TABLE_ROW", "md_parent_section": "§MB.2 [Example 2]", "md_verbatim": "| 3 | ABC | MB | ABC-001-001 | 3 | SP01 | GMNROD | Gram Negative Rods | DETECTION | PRESENT | Ord | PRESENT | LUNG | | GRAM STAIN | 1 | VISIT 1 | 2005-06-19T08:00 |", "score": 0.7875, "match_basis": "verbatim_token+global_search"}, {"md_atom_id": "md_dmMB_ex_a056", "md_file": "knowledge_base/domains/MB/examples.md", "md_atom_type": "TABLE_ROW", "md_parent_section": "§MB.2 [Example 2]", "md_verbatim": "| 2 | ABC | MB | ABC-001-001 | 2 | SP01 | GMNCOC | Gram Negative Cocci | CELL COUNT | 2+ | Ord | FEW | LUNG | | GRAM STAIN | 1 | VISIT 1 | 2005-06-19T08:00 |", "score": 0.684, "match_basis": "verbatim_token+global_search"}, {"md_atom_id": "md_dmMB_ex_a058", "md_file": "knowledge_base/domains/MB/examples.md", "md_atom_type": "TABLE_ROW", "md_parent_section": "§MB.2 [Example 2]", "md_verbatim": "| 4 | ABC | MB | ABC-001-001 | 4 | SP01 | GMNROD | Gram Negative Rods | CELL COUNT | 2+ | Ord | FEW | LUNG | | GRAM STAIN | 1 | VISIT 1 | 2005-06-19T08:00 |", "score": 0.6, "match_basis": "verbatim_token+global_search"}, {"md_atom_id": "md_dmMB_ex_a020", "md_file": "knowledge_base/domains/MB/examples.md", "md_atom_type": "TABLE_ROW", "md_parent_section": "§MB.1 [Example 1]", "md_verbatim": "| 1 | ABC | MB | ABC-001-002 | 1 | SPEC01 | | MCORGIDN | Microbial Organism Identification | DETECTION | PRESENT | PRESENT | FLUID | SKIN | MICROBIAL CULTURE, SOLID | CENTRAL LAB ABC | 1 | VISIT 1 | 2005-06-19T08:00 |", "score": 0.4484, "match_basis": "verbatim_token+global_search"}], "candidate_count": 5, "zero_candidate": false}
{"pdf_atom_id": "ig34_p0258_a020", "pdf_atom_type": "TABLE_ROW", "pdf_source": "SDTMIG_v3.4", "pdf_page": 258, "pdf_parent_section": "§6.3.5.7.3 Microbiology Specimen/Microbiology Susceptibility Examples", "pdf_verbatim": "2 | ABC | MB | ABC-001-001 | 2 | SP01 | GMNCOC | Gram Negative Cocci | CELL COUNT | 2+ | Ord | FEW | LUNG | GRAM STAIN | 1 | VISIT | 2005-06-19T08:00", "figure_ref": null, "candidates": [{"md_atom_id": "md_dmMB_ex_a056", "md_file": "knowledge_base/domains/MB/examples.md", "md_atom_type": "TABLE_ROW", "md_parent_section": "§MB.2 [Example 2]", "md_verbatim": "| 2 | ABC | MB | ABC-001-001 | 2 | SP01 | GMNCOC | Gram Negative Cocci | CELL COUNT | 2+ | Ord | FEW | LUNG | | GRAM STAIN | 1 | VISIT 1 | 2005-06-19T08:00 |", "score": 0.9, "match_basis": "verbatim_token+global_search"}, {"md_atom_id": "md_dmMB_ex_a058", "md_file": "knowledge_base/domains/MB/examples.md", "md_atom_type": "TABLE_ROW", "md_parent_section": "§MB.2 [Example 2]", "md_verbatim": "| 4 | ABC | MB | ABC-001-001 | 4 | SP01 | GMNROD | Gram Negative Rods | CELL COUNT | 2+ | Ord | FEW | LUNG | | GRAM STAIN | 1 | VISIT 1 | 2005-06-19T08:00 |", "score": 0.7714, "match_basis": "verbatim_token+global_search"}, {"md_atom_id": "md_dmMB_ex_a055", "md_file": "knowledge_base/domains/MB/examples.md", "md_atom_type": "TABLE_ROW", "md_parent_section": "§MB.2 [Example 2]", "md_verbatim": "| 1 | ABC | MB | ABC-001-001 | 1 | SP01 | GMNCOC | Gram Negative Cocci | DETECTION | PRESENT | Ord | PRESENT | LUNG | | GRAM STAIN | 1 | VISIT 1 | 2005-06-19T08:00 |", "score": 0.684, "match_basis": "verbatim_token+global_search"}, {"md_atom_id": "md_dmMB_ex_a057", "md_file": "knowledge_base/domains/MB/examples.md", "md_atom_type": "TABLE_ROW", "md_parent_section": "§MB.2 [Example 2]", "md_verbatim": "| 3 | ABC | MB | ABC-001-001 | 3 | SP01 | GMNROD | Gram Negative Rods | DETECTION | PRESENT | Ord | PRESENT | LUNG | | GRAM STAIN | 1 | VISIT 1 | 2005-06-19T08:00 |", "score": 0.6, "match_basis": "verbatim_token+global_search"}, {"md_atom_id": "md_dmMB_ex_a034", "md_file": "knowledge_base/domains/MB/examples.md", "md_atom_type": "TABLE_ROW", "md_parent_section": "§MB.2 [Example 2]", "md_verbatim": "| 1 | ABC | BE | ABC-01-001 | 1 | SP01 | Collecting | 2005-06-19T08:00 |", "score": 0.4174, "match_basis": "verbatim_token+global_search"}], "candidate_count": 5, "zero_candidate": false}
{"pdf_atom_id": "ig34_p0258_a021", "pdf_atom_type": "TABLE_ROW", "pdf_source": "SDTMIG_v3.4", "pdf_page": 258, "pdf_parent_section": "§6.3.5.7.3 Microbiology Specimen/Microbiology Susceptibility Examples", "pdf_verbatim": "3 | ABC | MB | ABC-001-001 | 3 | SP01 | GMNROD | Gram Negative Rods | DETECTION | PRESENT | Ord | PRESENT | LUNG | GRAM STAIN | 1 | VISIT | 2005-06-19T08:00", "figure_ref": null, "candidates": [{"md_atom_id": "md_dmMB_ex_a057", "md_file": "knowledge_base/domains/MB/examples.md", "md_atom_type": "TABLE_ROW", "md_parent_section": "§MB.2 [Example 2]", "md_verbatim": "| 3 | ABC | MB | ABC-001-001 | 3 | SP01 | GMNROD | Gram Negative Rods | DETECTION | PRESENT | Ord | PRESENT | LUNG | | GRAM STAIN | 1 | VISIT 1 | 2005-06-19T08:00 |", "score": 0.9, "match_basis": "verbatim_token+global_search"}, {"md_atom_id": "md_dmMB_ex_a055", "md_file": "knowledge_base/domains/MB/examples.md", "md_atom_type": "TABLE_ROW", "md_parent_section": "§MB.2 [Example 2]", "md_verbatim": "| 1 | ABC | MB | ABC-001-001 | 1 | SP01 | GMNCOC | Gram Negative Cocci | DETECTION | PRESENT | Ord | PRESENT | LUNG | | GRAM STAIN | 1 | VISIT 1 | 2005-06-19T08:00 |", "score": 0.7875, "match_basis": "verbatim_token+global_search"}, {"md_atom_id": "md_dmMB_ex_a058", "md_file": "knowledge_base/domains/MB/examples.md", "md_atom_type": "TABLE_ROW", "md_parent_section": "§MB.2 [Example 2]", "md_verbatim": "| 4 | ABC | MB | ABC-001-001 | 4 | SP01 | GMNROD | Gram Negative Rods | CELL COUNT | 2+ | Ord | FEW | LUNG | | GRAM STAIN | 1 | VISIT 1 | 2005-06-19T08:00 |", "score": 0.6796, "match_basis": "verbatim_token+global_search"}, {"md_atom_id": "md_dmMB_ex_a056", "md_file": "knowledge_base/domains/MB/examples.md", "md_atom_type": "TABLE_ROW", "md_parent_section": "§MB.2 [Example 2]", "md_verbatim": "| 2 | ABC | MB | ABC-001-001 | 2 | SP01 | GMNCOC | Gram Negative Cocci | CELL COUNT | 2+ | Ord | FEW | LUNG | | GRAM STAIN | 1 | VISIT 1 | 2005-06-19T08:00 |", "score": 0.6, "match_basis": "verbatim_token+global_search"}, {"md_atom_id": "md_dmMB_ex_a020", "md_file": "knowledge_base/domains/MB/examples.md", "md_atom_type": "TABLE_ROW", "md_parent_section": "§MB.1 [Example 1]", "md_verbatim": "| 1 | ABC | MB | ABC-001-002 | 1 | SPEC01 | | MCORGIDN | Microbial Organism Identification | DETECTION | PRESENT | PRESENT | FLUID | SKIN | MICROBIAL CULTURE, SOLID | CENTRAL LAB ABC | 1 | VISIT 1 | 2005-06-19T08:00 |", "score": 0.45, "match_basis": "verbatim_token+global_search"}], "candidate_count": 5, "zero_candidate": false}
{"pdf_atom_id": "ig34_p0258_a022", "pdf_atom_type": "TABLE_ROW", "pdf_source": "SDTMIG_v3.4", "pdf_page": 258, "pdf_parent_section": "§6.3.5.7.3 Microbiology Specimen/Microbiology Susceptibility Examples", "pdf_verbatim": "4 | ABC | MB | ABC-001-001 | 4 | SP01 | GMNROD | Gram Negative Rods | CELL COUNT | 2+ | Ord | FEW | LUNG | GRAM STAIN | 1 | VISIT | 2005-06-19T08:00", "figure_ref": null, "candidates": [{"md_atom_id": "md_dmMB_ex_a058", "md_file": "knowledge_base/domains/MB/examples.md", "md_atom_type": "TABLE_ROW", "md_parent_section": "§MB.2 [Example 2]", "md_verbatim": "| 4 | ABC | MB | ABC-001-001 | 4 | SP01 | GMNROD | Gram Negative Rods | CELL COUNT | 2+ | Ord | FEW | LUNG | | GRAM STAIN | 1 | VISIT 1 | 2005-06-19T08:00 |", "score": 0.9, "match_basis": "verbatim_token+global_search"}, {"md_atom_id": "md_dmMB_ex_a056", "md_file": "knowledge_base/domains/MB/examples.md", "md_atom_type": "TABLE_ROW", "md_parent_section": "§MB.2 [Example 2]", "md_verbatim": "| 2 | ABC | MB | ABC-001-001 | 2 | SP01 | GMNCOC | Gram Negative Cocci | CELL COUNT | 2+ | Ord | FEW | LUNG | | GRAM STAIN | 1 | VISIT 1 | 2005-06-19T08:00 |", "score": 0.7714, "match_basis": "verbatim_token+global_search"}, {"md_atom_id": "md_dmMB_ex_a057", "md_file": "knowledge_base/domains/MB/examples.md", "md_atom_type": "TABLE_ROW", "md_parent_section": "§MB.2 [Example 2]", "md_verbatim": "| 3 | ABC | MB | ABC-001-001 | 3 | SP01 | GMNROD | Gram Negative Rods | DETECTION | PRESENT | Ord | PRESENT | LUNG | | GRAM STAIN | 1 | VISIT 1 | 2005-06-19T08:00 |", "score": 0.6796, "match_basis": "verbatim_token+global_search"}, {"md_atom_id": "md_dmMB_ex_a055", "md_file": "knowledge_base/domains/MB/examples.md", "md_atom_type": "TABLE_ROW", "md_parent_section": "§MB.2 [Example 2]", "md_verbatim": "| 1 | ABC | MB | ABC-001-001 | 1 | SP01 | GMNCOC | Gram Negative Cocci | DETECTION | PRESENT | Ord | PRESENT | LUNG | | GRAM STAIN | 1 | VISIT 1 | 2005-06-19T08:00 |", "score": 0.6, "match_basis": "verbatim_token+global_search"}, {"md_atom_id": "md_dmMB_ex_a034", "md_file": "knowledge_base/domains/MB/examples.md", "md_atom_type": "TABLE_ROW", "md_parent_section": "§MB.2 [Example 2]", "md_verbatim": "| 1 | ABC | BE | ABC-01-001 | 1 | SP01 | Collecting | 2005-06-19T08:00 |", "score": 0.42, "match_basis": "verbatim_token+global_search"}], "candidate_count": 5, "zero_candidate": false}
{"pdf_atom_id": "ig34_p0258_a023", "pdf_atom_type": "TABLE_ROW", "pdf_source": "SDTMIG_v3.4", "pdf_page": 258, "pdf_parent_section": "§6.3.5.7.3 Microbiology Specimen/Microbiology Susceptibility Examples", "pdf_verbatim": "5 | ABC | MB | ABC-001-001 | 5 | SP01 | MCORGIDN | Microbial Organism Identification | | STREPTOCOCCUS PNEUMONIAE | Nom | STREPTOCOCCUS PNEUMONIAE | LUNG | MICROBIAL CULTURE, SOLID | 1 | VISIT | 2005-06-19T08:00", "figure_ref": null, "candidates": [{"md_atom_id": "md_dmMB_ex_a059", "md_file": "knowledge_base/domains/MB/examples.md", "md_atom_type": "TABLE_ROW", "md_parent_section": "§MB.2 [Example 2]", "md_verbatim": "| 5 | ABC | MB | ABC-001-001 | 5 | SP01 | MCORGIDN | Microbial Organism Identification | | STREPTOCOCCUS PNEUMONIAE | Nom | STREPTOCOCCUS PNEUMONIAE | LUNG | | MICROBIAL CULTURE, SOLID | 1 | VISIT 1 | 2005-06-19T08:00 |", "score": 0.9, "match_basis": "verbatim_token+global_search"}, {"md_atom_id": "md_dmMB_ex_a060", "md_file": "knowledge_base/domains/MB/examples.md", "md_atom_type": "TABLE_ROW", "md_parent_section": "§MB.2 [Example 2]", "md_verbatim": "| 6 | ABC | MB | ABC-001-001 | 6 | SP01 | MCORGIDN | Microbial Organism Identification | | KLEBSIELLA PNEUMONIAE | Nom | KLEBSIELLA PNEUMONIAE | LUNG | | MICROBIAL CULTURE, SOLID | 1 | VISIT 1 | 2005-06-19T08:00 |", "score": 0.7575, "match_basis": "verbatim_token+global_search"}, {"md_atom_id": "md_dmMB_ex_a061", "md_file": "knowledge_base/domains/MB/examples.md", "md_atom_type": "TABLE_ROW", "md_parent_section": "§MB.2 [Example 2]", "md_verbatim": "| 7 | ABC | MB | ABC-001-001 | 7 | SP02 | MCORGIDN | Microbial Organism Identification | | KLEBSIELLA PNEUMONIAE | Nom | KLEBSIELLA PNEUMONIAE | LUNG | | MICROBIAL CULTURE, SOLID | 2 | VISIT 2 | 2005-06-26T08:00 |", "score": 0.7193, "match_basis": "verbatim_token+global_search"}, {"md_atom_id": "md_dmMB_ex_a062", "md_file": "knowledge_base/domains/MB/examples.md", "md_atom_type": "TABLE_ROW", "md_parent_section": "§MB.2 [Example 2]", "md_verbatim": "| 8 | ABC | MB | ABC-001-001 | 8 | SP03 | MCORGIDN | Microbial Organism Identification | | NO GROWTH | Nom | NO GROWTH | LUNG | | MICROBIAL CULTURE, SOLID | 3 | VISIT 3 | 2005-07-06T08:00 |", "score": 0.6797, "match_basis": "verbatim_token+global_search"}, {"md_atom_id": "md_dmMB_ex_a020", "md_file": "knowledge_base/domains/MB/examples.md", "md_atom_type": "TABLE_ROW", "md_parent_section": "§MB.1 [Example 1]", "md_verbatim": "| 1 | ABC | MB | ABC-001-002 | 1 | SPEC01 | | MCORGIDN | Microbial Organism Identification | DETECTION | PRESENT | PRESENT | FLUID | SKIN | MICROBIAL CULTURE, SOLID | CENTRAL LAB ABC | 1 | VISIT 1 | 2005-06-19T08:00 |", "score": 0.6, "match_basis": "verbatim_token+global_search"}], "candidate_count": 5, "zero_candidate": false}
{"pdf_atom_id": "ig34_p0258_a024", "pdf_atom_type": "TABLE_ROW", "pdf_source": "SDTMIG_v3.4", "pdf_page": 258, "pdf_parent_section": "§6.3.5.7.3 Microbiology Specimen/Microbiology Susceptibility Examples", "pdf_verbatim": "6 | ABC | MB | ABC-001-001 | 6 | SP01 | MCORGIDN | Microbial Organism Identification | | KLEBSIELLA PNEUMONIAE | Nom | KLEBSIELLA PNEUMONIAE | LUNG | MICROBIAL CULTURE, SOLID | 1 | VISIT | 2005-06-19T08:00", "figure_ref": null, "candidates": [{"md_atom_id": "md_dmMB_ex_a060", "md_file": "knowledge_base/domains/MB/examples.md", "md_atom_type": "TABLE_ROW", "md_parent_section": "§MB.2 [Example 2]", "md_verbatim": "| 6 | ABC | MB | ABC-001-001 | 6 | SP01 | MCORGIDN | Microbial Organism Identification | | KLEBSIELLA PNEUMONIAE | Nom | KLEBSIELLA PNEUMONIAE | LUNG | | MICROBIAL CULTURE, SOLID | 1 | VISIT 1 | 2005-06-19T08:00 |", "score": 0.9, "match_basis": "verbatim_token+global_search"}, {"md_atom_id": "md_dmMB_ex_a061", "md_file": "knowledge_base/domains/MB/examples.md", "md_atom_type": "TABLE_ROW", "md_parent_section": "§MB.2 [Example 2]", "md_verbatim": "| 7 | ABC | MB | ABC-001-001 | 7 | SP02 | MCORGIDN | Microbial Organism Identification | | KLEBSIELLA PNEUMONIAE | Nom | KLEBSIELLA PNEUMONIAE | LUNG | | MICROBIAL CULTURE, SOLID | 2 | VISIT 2 | 2005-06-26T08:00 |", "score": 0.85, "match_basis": "verbatim_token+global_search"}, {"md_atom_id": "md_dmMB_ex_a059", "md_file": "knowledge_base/domains/MB/examples.md", "md_atom_type": "TABLE_ROW", "md_parent_section": "§MB.2 [Example 2]", "md_verbatim": "| 5 | ABC | MB | ABC-001-001 | 5 | SP01 | MCORGIDN | Microbial Organism Identification | | STREPTOCOCCUS PNEUMONIAE | Nom | STREPTOCOCCUS PNEUMONIAE | LUNG | | MICROBIAL CULTURE, SOLID | 1 | VISIT 1 | 2005-06-19T08:00 |", "score": 0.7575, "match_basis": "verbatim_token+global_search"}, {"md_atom_id": "md_dmMB_ex_a062", "md_file": "knowledge_base/domains/MB/examples.md", "md_atom_type": "TABLE_ROW", "md_parent_section": "§MB.2 [Example 2]", "md_verbatim": "| 8 | ABC | MB | ABC-001-001 | 8 | SP03 | MCORGIDN | Microbial Organism Identification | | NO GROWTH | Nom | NO GROWTH | LUNG | | MICROBIAL CULTURE, SOLID | 3 | VISIT 3 | 2005-07-06T08:00 |", "score": 0.6947, "match_basis": "verbatim_token+global_search"}, {"md_atom_id": "md_dmMB_ex_a020", "md_file": "knowledge_base/domains/MB/examples.md", "md_atom_type": "TABLE_ROW", "md_parent_section": "§MB.1 [Example 1]", "md_verbatim": "| 1 | ABC | MB | ABC-001-002 | 1 | SPEC01 | | MCORGIDN | Microbial Organism Identification | DETECTION | PRESENT | PRESENT | FLUID | SKIN | MICROBIAL CULTURE, SOLID | CENTRAL LAB ABC | 1 | VISIT 1 | 2005-06-19T08:00 |", "score": 0.6097, "match_basis": "verbatim_token+global_search"}], "candidate_count": 5, "zero_candidate": false}
{"pdf_atom_id": "ig34_p0258_a025", "pdf_atom_type": "TABLE_ROW", "pdf_source": "SDTMIG_v3.4", "pdf_page": 258, "pdf_parent_section": "§6.3.5.7.3 Microbiology Specimen/Microbiology Susceptibility Examples", "pdf_verbatim": "7 | ABC | MB | ABC-001-001 | 7 | SP02 | MCORGIDN | Microbial Organism Identification | | KLEBSIELLA PNEUMONIAE | Nom | KLEBSIELLA PNEUMONIAE | LUNG | MICROBIAL CULTURE, SOLID | 2 | VISIT 2 | 2005-06-26T08:00", "figure_ref": null, "candidates": [{"md_atom_id": "md_dmMB_ex_a061", "md_file": "knowledge_base/domains/MB/examples.md", "md_atom_type": "TABLE_ROW", "md_parent_section": "§MB.2 [Example 2]", "md_verbatim": "| 7 | ABC | MB | ABC-001-001 | 7 | SP02 | MCORGIDN | Microbial Organism Identification | | KLEBSIELLA PNEUMONIAE | Nom | KLEBSIELLA PNEUMONIAE | LUNG | | MICROBIAL CULTURE, SOLID | 2 | VISIT 2 | 2005-06-26T08:00 |", "score": 0.9, "match_basis": "verbatim_token+global_search"}, {"md_atom_id": "md_dmMB_ex_a060", "md_file": "knowledge_base/domains/MB/examples.md", "md_atom_type": "TABLE_ROW", "md_parent_section": "§MB.2 [Example 2]", "md_verbatim": "| 6 | ABC | MB | ABC-001-001 | 6 | SP01 | MCORGIDN | Microbial Organism Identification | | KLEBSIELLA PNEUMONIAE | Nom | KLEBSIELLA PNEUMONIAE | LUNG | | MICROBIAL CULTURE, SOLID | 1 | VISIT 1 | 2005-06-19T08:00 |", "score": 0.85, "match_basis": "verbatim_token+global_search"}, {"md_atom_id": "md_dmMB_ex_a059", "md_file": "knowledge_base/domains/MB/examples.md", "md_atom_type": "TABLE_ROW", "md_parent_section": "§MB.2 [Example 2]", "md_verbatim": "| 5 | ABC | MB | ABC-001-001 | 5 | SP01 | MCORGIDN | Microbial Organism Identification | | STREPTOCOCCUS PNEUMONIAE | Nom | STREPTOCOCCUS PNEUMONIAE | LUNG | | MICROBIAL CULTURE, SOLID | 1 | VISIT 1 | 2005-06-19T08:00 |", "score": 0.7193, "match_basis": "verbatim_token+global_search"}, {"md_atom_id": "md_dmMB_ex_a062", "md_file": "knowledge_base/domains/MB/examples.md", "md_atom_type": "TABLE_ROW", "md_parent_section": "§MB.2 [Example 2]", "md_verbatim": "| 8 | ABC | MB | ABC-001-001 | 8 | SP03 | MCORGIDN | Microbial Organism Identification | | NO GROWTH | Nom | NO GROWTH | LUNG | | MICROBIAL CULTURE, SOLID | 3 | VISIT 3 | 2005-07-06T08:00 |", "score": 0.708, "match_basis": "verbatim_token+global_search"}, {"md_atom_id": "md_dmMB_ex_a020", "md_file": "knowledge_base/domains/MB/examples.md", "md_atom_type": "TABLE_ROW", "md_parent_section": "§MB.1 [Example 1]", "md_verbatim": "| 1 | ABC | MB | ABC-001-002 | 1 | SPEC01 | | MCORGIDN | Microbial Organism Identification | DETECTION | PRESENT | PRESENT | FLUID | SKIN | MICROBIAL CULTURE, SOLID | CENTRAL LAB ABC | 1 | VISIT 1 | 2005-06-19T08:00 |", "score": 0.5905, "match_basis": "verbatim_token+global_search"}], "candidate_count": 5, "zero_candidate": false}
{"pdf_atom_id": "ig34_p0258_a026", "pdf_atom_type": "TABLE_ROW", "pdf_source": "SDTMIG_v3.4", "pdf_page": 258, "pdf_parent_section": "§6.3.5.7.3 Microbiology Specimen/Microbiology Susceptibility Examples", "pdf_verbatim": "8 | ABC | MB | ABC-001-001 | 8 | SP03 | MCORGIDN | Microbial Organism Identification | | NO GROWTH | Nom | NO GROWTH | LUNG | MICROBIAL CULTURE, SOLID | 3 | VISIT 3 | 2005-07-06T08:00", "figure_ref": null, "candidates": [{"md_atom_id": "md_dmMB_ex_a062", "md_file": "knowledge_base/domains/MB/examples.md", "md_atom_type": "TABLE_ROW", "md_parent_section": "§MB.2 [Example 2]", "md_verbatim": "| 8 | ABC | MB | ABC-001-001 | 8 | SP03 | MCORGIDN | Microbial Organism Identification | | NO GROWTH | Nom | NO GROWTH | LUNG | | MICROBIAL CULTURE, SOLID | 3 | VISIT 3 | 2005-07-06T08:00 |", "score": 0.9, "match_basis": "verbatim_token+global_search"}, {"md_atom_id": "md_dmMB_ex_a061", "md_file": "knowledge_base/domains/MB/examples.md", "md_atom_type": "TABLE_ROW", "md_parent_section": "§MB.2 [Example 2]", "md_verbatim": "| 7 | ABC | MB | ABC-001-001 | 7 | SP02 | MCORGIDN | Microbial Organism Identification | | KLEBSIELLA PNEUMONIAE | Nom | KLEBSIELLA PNEUMONIAE | LUNG | | MICROBIAL CULTURE, SOLID | 2 | VISIT 2 | 2005-06-26T08:00 |", "score": 0.708, "match_basis": "verbatim_token+global_search"}, {"md_atom_id": "md_dmMB_ex_a060", "md_file": "knowledge_base/domains/MB/examples.md", "md_atom_type": "TABLE_ROW", "md_parent_section": "§MB.2 [Example 2]", "md_verbatim": "| 6 | ABC | MB | ABC-001-001 | 6 | SP01 | MCORGIDN | Microbial Organism Identification | | KLEBSIELLA PNEUMONIAE | Nom | KLEBSIELLA PNEUMONIAE | LUNG | | MICROBIAL CULTURE, SOLID | 1 | VISIT 1 | 2005-06-19T08:00 |", "score": 0.6947, "match_basis": "verbatim_token+global_search"}, {"md_atom_id": "md_dmMB_ex_a059", "md_file": "knowledge_base/domains/MB/examples.md", "md_atom_type": "TABLE_ROW", "md_parent_section": "§MB.2 [Example 2]", "md_verbatim": "| 5 | ABC | MB | ABC-001-001 | 5 | SP01 | MCORGIDN | Microbial Organism Identification | | STREPTOCOCCUS PNEUMONIAE | Nom | STREPTOCOCCUS PNEUMONIAE | LUNG | | MICROBIAL CULTURE, SOLID | 1 | VISIT 1 | 2005-06-19T08:00 |", "score": 0.6797, "match_basis": "verbatim_token+global_search"}, {"md_atom_id": "md_dmMB_ex_a020", "md_file": "knowledge_base/domains/MB/examples.md", "md_atom_type": "TABLE_ROW", "md_parent_section": "§MB.1 [Example 1]", "md_verbatim": "| 1 | ABC | MB | ABC-001-002 | 1 | SPEC01 | | MCORGIDN | Microbial Organism Identification | DETECTION | PRESENT | PRESENT | FLUID | SKIN | MICROBIAL CULTURE, SOLID | CENTRAL LAB ABC | 1 | VISIT 1 | 2005-06-19T08:00 |", "score": 0.6325, "match_basis": "verbatim_token+global_search"}], "candidate_count": 5, "zero_candidate": false}
{"pdf_atom_id": "ig34_p0258_a027", "pdf_atom_type": "CODE_LITERAL", "pdf_source": "SDTMIG_v3.4", "pdf_page": 258, "pdf_parent_section": "§6.3.5.7.3 Microbiology Specimen/Microbiology Susceptibility Examples", "pdf_verbatim": "suppmb.xpt", "figure_ref": null, "candidates": [{"md_atom_id": "md_dmMB_ex_a063", "md_file": "knowledge_base/domains/MB/examples.md", "md_atom_type": "SENTENCE", "md_parent_section": "§MB.2 [Example 2]", "md_verbatim": "**suppmb.xpt**", "score": 0.69, "match_basis": "verbatim_token+global_search"}, {"md_atom_id": "md_dmMB_ex_a141", "md_file": "knowledge_base/domains/MB/examples.md", "md_atom_type": "SENTENCE", "md_parent_section": "§MB.3 [Example 3]", "md_verbatim": "**suppmb.xpt**", "score": 0.69, "match_basis": "verbatim_token+global_search"}, {"md_atom_id": "md_ch04_a918", "md_file": "knowledge_base/chapters/ch04_general_assumptions.md", "md_atom_type": "CODE_LITERAL", "md_parent_section": "§4.5.3.2 [Text Strings Greater than 200 Characters in Other Variables]", "md_verbatim": "suppmh.xpt", "score": 0.49, "match_basis": "verbatim_token+global_search"}, {"md_atom_id": "md_ch04_a922", "md_file": "knowledge_base/chapters/ch04_general_assumptions.md", "md_atom_type": "SENTENCE", "md_parent_section": "§4.5.3.2 [Text Strings Greater than 200 Characters in Other Variables]", "md_verbatim": "suppmh.xpt:", "score": 0.49, "match_basis": "verbatim_token+global_search"}, {"md_atom_id": "md_dmCE_ex_a083", "md_file": "knowledge_base/domains/CE/examples.md", "md_atom_type": "SENTENCE", "md_parent_section": "§CE.3 [Example 3]", "md_verbatim": "**suppmh.xpt**", "score": 0.49, "match_basis": "verbatim_token+global_search"}, {"md_atom_id": "md_dmFA_ex_a079", "md_file": "knowledge_base/domains/FA/examples.md", "md_atom_type": "SENTENCE", "md_parent_section": "§FA.3 [Example 3]", "md_verbatim": "**suppmh.xpt**", "score": 0.49, "match_basis": "verbatim_token+global_search"}, {"md_atom_id": "md_dmMI_ex_a029", "md_file": "knowledge_base/domains/MI/examples.md", "md_atom_type": "SENTENCE", "md_parent_section": "§MI.2 [Example 2]", "md_verbatim": "**suppmi.xpt**", "score": 0.49, "match_basis": "verbatim_token+global_search"}, {"md_atom_id": "md_dmMI_ex_a047", "md_file": "knowledge_base/domains/MI/examples.md", "md_atom_type": "SENTENCE", "md_parent_section": "§MI.3 [Example 3]", "md_verbatim": "**suppmi.xpt**", "score": 0.49, "match_basis": "verbatim_token+global_search"}, {"md_atom_id": "md_dmMS_ex_a048", "md_file": "knowledge_base/domains/MS/examples.md", "md_atom_type": "SENTENCE", "md_parent_section": "§MS.3 [Example 3]", "md_verbatim": "**suppms.xpt**", "score": 0.49, "match_basis": "verbatim_token+global_search"}, {"md_atom_id": "md_dmPP_ex_a035", "md_file": "knowledge_base/domains/PP/examples.md", "md_atom_type": "SENTENCE", "md_parent_section": "§PP.1 [Example 1]", "md_verbatim": "**supppp.xpt**", "score": 0.39, "match_basis": "verbatim_token+global_search"}], "candidate_count": 10, "zero_candidate": false}
{"pdf_atom_id": "ig34_p0258_a028", "pdf_atom_type": "TABLE_HEADER", "pdf_source": "SDTMIG_v3.4", "pdf_page": 258, "pdf_parent_section": "§6.3.5.7.3 Microbiology Specimen/Microbiology Susceptibility Examples", "pdf_verbatim": "Row | STUDYID | RDOMAIN | USUBJID | IDVAR | IDVARVAL | QNAM | QLABEL | QVAL | QORIG", "figure_ref": null, "candidates": [{"md_atom_id": "md_ch04_a923", "md_file": "knowledge_base/chapters/ch04_general_assumptions.md", "md_atom_type": "TABLE_HEADER", "md_parent_section": "§4.5.3.2 [Text Strings Greater than 200 Characters in Other Variables]", "md_verbatim": "| Row | STUDYID | RDOMAIN | USUBJID | IDVAR | IDVARVAL | QNAM | QLABEL | QVAL | QORIG |\n|-----|---------|---------|---------|-------|----------|------|--------|------|-------|", "score": 0.9, "match_basis": "verbatim_token+global_search"}, {"md_atom_id": "md_ch04_a933", "md_file": "knowledge_base/chapters/ch04_general_assumptions.md", "md_atom_type": "TABLE_HEADER", "md_parent_section": "§4.5.3.2 [Text Strings Greater than 200 Characters in Other Variables]", "md_verbatim": "| Row | STUDYID | RDOMAIN | USUBJID | IDVAR | IDVARVAL | QNAM | QLABEL | QVAL | QORIG |\n|-----|---------|---------|---------|-------|----------|------|--------|------|-------|", "score": 0.9, "match_basis": "verbatim_token+global_search"}, {"md_atom_id": "md_ch04_a942", "md_file": "knowledge_base/chapters/ch04_general_assumptions.md", "md_atom_type": "TABLE_HEADER", "md_parent_section": "§4.5.3.2 [Text Strings Greater than 200 Characters in Other Variables]", "md_verbatim": "| Row | STUDYID | RDOMAIN | USUBJID | IDVAR | IDVARVAL | QNAM | QLABEL | QVAL | QORIG |\n|-----|---------|---------|---------|-------|----------|------|--------|------|-------|", "score": 0.9, "match_basis": "verbatim_token+global_search"}, {"md_atom_id": "md_ch04_a985", "md_file": "knowledge_base/chapters/ch04_general_assumptions.md", "md_atom_type": "TABLE_HEADER", "md_parent_section": "§4.5.6 [Supplemental Reason Variables]", "md_verbatim": "| Row | STUDYID | RDOMAIN | USUBJID | IDVAR | IDVARVAL | QNAM | QLABEL | QVAL | QORIG |\n|-----|---------|---------|---------|-------|----------|------|--------|------|-------|", "score": 0.9, "match_basis": "verbatim_token+global_search"}, {"md_atom_id": "md_dmMB_ex_a041", "md_file": "knowledge_base/domains/MB/examples.md", "md_atom_type": "TABLE_HEADER", "md_parent_section": "§MB.2 [Example 2]", "md_verbatim": "| Row | STUDYID | RDOMAIN | USUBJID | IDVAR | IDVARVAL | QNAM | QLABEL | QVAL | QORIG |\n|-----|---------|---------|---------|-------|----------|------|--------|------|-------|", "score": 0.9, "match_basis": "verbatim_token+global_search"}], "candidate_count": 5, "zero_candidate": false}
{"pdf_atom_id": "ig34_p0258_a029", "pdf_atom_type": "TABLE_ROW", "pdf_source": "SDTMIG_v3.4", "pdf_page": 258, "pdf_parent_section": "§6.3.5.7.3 Microbiology Specimen/Microbiology Susceptibility Examples", "pdf_verbatim": "1 | ABC | MB | ABC-01-101 | MBTSTDTL | CELL COUNT | MBQSCAL | Quantification Scale | CDC semi-quantitative score for gram staining | CRF", "figure_ref": null, "candidates": [{"md_atom_id": "md_dmMB_ex_a065", "md_file": "knowledge_base/domains/MB/examples.md", "md_atom_type": "TABLE_ROW", "md_parent_section": "§MB.2 [Example 2]", "md_verbatim": "| 1 | ABC | MB | ABC-01-101 | MBSEQ | 2 | MBQSCAL | Quantification Scale | CDC semi-quantitative score for gram staining | CRF |", "score": 0.7473, "match_basis": "verbatim_token+global_search"}, {"md_atom_id": "md_dmMB_ex_a143", "md_file": "knowledge_base/domains/MB/examples.md", "md_atom_type": "TABLE_ROW", "md_parent_section": "§MB.3 [Example 3]", "md_verbatim": "| 1 | ABC | MB | ABC-01-101 | MBSEQ | 2 | MBQSCAL | Quantification Scale | Smear Quantitation: Centers for Disease Control Method for Carbol Fuchsin Staining (1000X) | Collected |", "score": 0.4875, "match_basis": "verbatim_token+global_search"}, {"md_atom_id": "md_dmMB_ex_a148", "md_file": "knowledge_base/domains/MB/examples.md", "md_atom_type": "TABLE_ROW", "md_parent_section": "§MB.3 [Example 3]", "md_verbatim": "| 6 | ABC | MB | ABC-01-101 | MBSEQ | 6 | MBQSCAL | Quantification Scale | Solid Media Result: Centers for Disease Control (CDC) Quantification Scale | Collected |", "score": 0.4517, "match_basis": "verbatim_token+global_search"}, {"md_atom_id": "md_dmMB_ex_a144", "md_file": "knowledge_base/domains/MB/examples.md", "md_atom_type": "TABLE_ROW", "md_parent_section": "§MB.3 [Example 3]", "md_verbatim": "| 2 | ABC | MB | ABC-01-101 | MBSEQ | 3 | MBMICERT | Microbial Identification Certainty | DEFINITIVE | Collected |", "score": 0.4129, "match_basis": "verbatim_token+global_search"}, {"md_atom_id": "md_dmMB_ex_a058", "md_file": "knowledge_base/domains/MB/examples.md", "md_atom_type": "TABLE_ROW", "md_parent_section": "§MB.2 [Example 2]", "md_verbatim": "| 4 | ABC | MB | ABC-001-001 | 4 | SP01 | GMNROD | Gram Negative Rods | CELL COUNT | 2+ | Ord | FEW | LUNG | | GRAM STAIN | 1 | VISIT 1 | 2005-06-19T08:00 |", "score": 0.412, "match_basis": "verbatim_token+global_search"}], "candidate_count": 5, "zero_candidate": false}
{"pdf_atom_id": "ig34_p0259_a001", "pdf_atom_type": "LIST_ITEM", "pdf_source": "SDTMIG_v3.4", "pdf_page": 259, "pdf_parent_section": "§6.3.5.7.3 Microbiology Specimen/Microbiology Susceptibility Examples", "pdf_verbatim": "Rows 1-2: Show that the sponsor drug (MSAGENT) was tested against \"STREPTOCOCCUS PNEUMONIAE\" (NHOID) from subject sample SP01 and that the drug has a minimum inhibitory concentration (MSTESTCD/MSTEST) of 0.004 mg/L (row 1). This led to the conclusion that this organism is susceptible to that drug (row 2).", "figure_ref": null, "candidates": [{"md_atom_id": "md_dmMS_ex_a022", "md_file": "knowledge_base/domains/MS/examples.md", "md_atom_type": "SENTENCE", "md_parent_section": "§MS.2 [Example 2]", "md_verbatim": "**Rows 1-2:** Show that the sponsor drug (MSAGENT) was tested against \"STREPTOCOCCUS PNEUMONIAE\" (NHOID) from subject sample SP01 and that the drug has a minimum inhibitory concentration (MSTESTCD/MSTEST) of 0.004 mg/L (row 1). This led to the conclusion that this organism is susceptible to that drug (row 2).", "score": 0.81, "match_basis": "verbatim_token+global_search"}, {"md_atom_id": "md_dmMS_ex_a023", "md_file": "knowledge_base/domains/MS/examples.md", "md_atom_type": "SENTENCE", "md_parent_section": "§MS.2 [Example 2]", "md_verbatim": "**Rows 3-4:** Show that penicillin was tested against the same organism from the same sample and found to have a minimum inhibitory concentration of 0.023 mg/L (row 3). This led to the conclusion that \"STREPTOCOCCUS PNEUMONIAE\" is resistant to penicillin (row 4).", "score": 0.5647, "match_basis": "verbatim_token+global_search"}, {"md_atom_id": "md_dmMS_ex_a005", "md_file": "knowledge_base/domains/MS/examples.md", "md_atom_type": "SENTENCE", "md_parent_section": "§MS.1 [Example 1]", "md_verbatim": "**Rows 1-4:** Show the minimum inhibitory concentration and the interpretation result reported from Central Lab ABC from a sample that was tested for susceptibility to the sponsor drug and amoxicillin, using an epsilometer test method.", "score": 0.4285, "match_basis": "verbatim_token+global_search"}, {"md_atom_id": "md_dmMS_assn_a005", "md_file": "knowledge_base/domains/MS/assumptions.md", "md_atom_type": "LIST_ITEM", "md_parent_section": "§MS [MS — Assumptions]", "md_verbatim": "      ii. For studies using quantitative testing methods, MSAGENT is used to represent the drug being tested; MSCONC and MSCONCU are not used. The concentration at which growth is inhibited is the result in these cases (MSORRES, MSSTRESC/MSSTRESN), with units being represented in MSORRESU/MSSTRESU.", "score": 0.4133, "match_basis": "verbatim_token+global_search"}, {"md_atom_id": "md_dmMS_assn_a004", "md_file": "knowledge_base/domains/MS/assumptions.md", "md_atom_type": "LIST_ITEM", "md_parent_section": "§MS [MS — Assumptions]", "md_verbatim": "      i. For studies using qualitative testing methods, MSAGENT, MSCONC, and MSCONCU are used to represent the predefined drug, concentration, and units, respectively. Results are represented with values such as \"SUSCEPTIBLE\" or \"RESISTANT\".", "score": 0.4109, "match_basis": "verbatim_token+global_search"}], "candidate_count": 5, "zero_candidate": false}
{"pdf_atom_id": "ig34_p0259_a002", "pdf_atom_type": "LIST_ITEM", "pdf_source": "SDTMIG_v3.4", "pdf_page": 259, "pdf_parent_section": "§6.3.5.7.3 Microbiology Specimen/Microbiology Susceptibility Examples", "pdf_verbatim": "Rows 3-4: Show that penicillin was tested against the same organism from the same sample and was found to have a minimum inhibitory concentration of 0.023 mg/L (row 3). This led to the conclusion that \"STREPTOCOCCUS PNEUMONIAE\" is resistant to penicillin (row 4).", "figure_ref": null, "candidates": [{"md_atom_id": "md_dmMS_ex_a023", "md_file": "knowledge_base/domains/MS/examples.md", "md_atom_type": "SENTENCE", "md_parent_section": "§MS.2 [Example 2]", "md_verbatim": "**Rows 3-4:** Show that penicillin was tested against the same organism from the same sample and found to have a minimum inhibitory concentration of 0.023 mg/L (row 3). This led to the conclusion that \"STREPTOCOCCUS PNEUMONIAE\" is resistant to penicillin (row 4).", "score": 0.81, "match_basis": "verbatim_token+global_search"}, {"md_atom_id": "md_dmMS_ex_a022", "md_file": "knowledge_base/domains/MS/examples.md", "md_atom_type": "SENTENCE", "md_parent_section": "§MS.2 [Example 2]", "md_verbatim": "**Rows 1-2:** Show that the sponsor drug (MSAGENT) was tested against \"STREPTOCOCCUS PNEUMONIAE\" (NHOID) from subject sample SP01 and that the drug has a minimum inhibitory concentration (MSTESTCD/MSTEST) of 0.004 mg/L (row 1). This led to the conclusion that this organism is susceptible to that drug (row 2).", "score": 0.5647, "match_basis": "verbatim_token+global_search"}, {"md_atom_id": "md_dmMS_ex_a025", "md_file": "knowledge_base/domains/MS/examples.md", "md_atom_type": "SENTENCE", "md_parent_section": "§MS.2 [Example 2]", "md_verbatim": "**Rows 9-10:** A test against \"KLEBSIELLA PNEUMONIAE\" from an additional sample at a later time point showed little change in the minimum inhibitory concentration of penicillin, and that the organism is still classified as having intermediate resistance to penicillin.", "score": 0.4946, "match_basis": "verbatim_token+global_search"}, {"md_atom_id": "md_dmMS_assn_a003", "md_file": "knowledge_base/domains/MS/assumptions.md", "md_atom_type": "LIST_ITEM", "md_parent_section": "§MS [MS — Assumptions]", "md_verbatim": "   a. Phenotypic drug susceptibility testing (qualitative), which may involve determining susceptibility/resistance (qualitative) at a predefined concentration of drug, or determining a specific dose (quantitative) at which a drug inhibits organism growth or some other process associated with virulence.", "score": 0.4133, "match_basis": "verbatim_token+global_search"}, {"md_atom_id": "md_dmMS_ex_a005", "md_file": "knowledge_base/domains/MS/examples.md", "md_atom_type": "SENTENCE", "md_parent_section": "§MS.1 [Example 1]", "md_verbatim": "**Rows 1-4:** Show the minimum inhibitory concentration and the interpretation result reported from Central Lab ABC from a sample that was tested for susceptibility to the sponsor drug and amoxicillin, using an epsilometer test method.", "score": 0.4087, "match_basis": "verbatim_token+global_search"}], "candidate_count": 5, "zero_candidate": false}
{"pdf_atom_id": "ig34_p0259_a003", "pdf_atom_type": "LIST_ITEM", "pdf_source": "SDTMIG_v3.4", "pdf_page": 259, "pdf_parent_section": "§6.3.5.7.3 Microbiology Specimen/Microbiology Susceptibility Examples", "pdf_verbatim": "Rows 5-8: Similar to rows 1-4, the sponsor drug (rows 5-6) and penicillin (rows 7-8) were tested against \" KLEBSIELLA PNEUMONIAE\" from an additional sample from the same subject at a later time point. Results from these tests indicated that the organism was susceptible to sponsor drug, yet had intermediate resistance to penicillin.", "figure_ref": null, "candidates": [{"md_atom_id": "md_dmMS_ex_a024", "md_file": "knowledge_base/domains/MS/examples.md", "md_atom_type": "SENTENCE", "md_parent_section": "§MS.2 [Example 2]", "md_verbatim": "**Rows 5-8:** Similar to rows 1-4, the sponsor drug (rows 5-6) and penicillin (rows 7-8) were tested against \"KLEBSIELLA PNEUMONIAE\" from an additional sample at a later time point. Results from these tests indicated that the organism was susceptible to sponsor drug, yet had intermediate resistance to penicillin.", "score": 0.7814, "match_basis": "verbatim_token+global_search"}, {"md_atom_id": "md_dmMS_ex_a025", "md_file": "knowledge_base/domains/MS/examples.md", "md_atom_type": "SENTENCE", "md_parent_section": "§MS.2 [Example 2]", "md_verbatim": "**Rows 9-10:** A test against \"KLEBSIELLA PNEUMONIAE\" from an additional sample at a later time point showed little change in the minimum inhibitory concentration of penicillin, and that the organism is still classified as having intermediate resistance to penicillin.", "score": 0.4875, "match_basis": "verbatim_token+global_search"}, {"md_atom_id": "md_dmGF_assn_a006", "md_file": "knowledge_base/domains/GF/assumptions.md", "md_atom_type": "LIST_ITEM", "md_parent_section": "§GF [GF — Assumptions]", "md_verbatim": "   c. Tests that are used to determine the resistance/susceptibility of a non-host organism to a drug on a genetic basis should be represented in the Microbiology Susceptibility (MS) domain.", "score": 0.4228, "match_basis": "verbatim_token+global_search"}, {"md_atom_id": "md_dmGF_assn_a004", "md_file": "knowledge_base/domains/GF/assumptions.md", "md_atom_type": "LIST_ITEM", "md_parent_section": "§GF [GF — Assumptions]", "md_verbatim": "   a. Tests that give genetic results (e.g., expressed in terms of genetic variation, specific sequence information) on non-host organisms that have been identified in subject samples should be represented in GF. To distinguish these findings from subject genetic data, the variable NHOID must be populated to identify the non-host organism as the focus of the record (see Section 9.2, Non-host Organism Identifiers, assumption 2 for more information).", "score": 0.4184, "match_basis": "verbatim_token+global_search"}, {"md_atom_id": "md_dmMS_ex_a022", "md_file": "knowledge_base/domains/MS/examples.md", "md_atom_type": "SENTENCE", "md_parent_section": "§MS.2 [Example 2]", "md_verbatim": "**Rows 1-2:** Show that the sponsor drug (MSAGENT) was tested against \"STREPTOCOCCUS PNEUMONIAE\" (NHOID) from subject sample SP01 and that the drug has a minimum inhibitory concentration (MSTESTCD/MSTEST) of 0.004 mg/L (row 1). This led to the conclusion that this organism is susceptible to that drug (row 2).", "score": 0.4089, "match_basis": "verbatim_token+global_search"}], "candidate_count": 5, "zero_candidate": false}
{"pdf_atom_id": "ig34_p0259_a004", "pdf_atom_type": "LIST_ITEM", "pdf_source": "SDTMIG_v3.4", "pdf_page": 259, "pdf_parent_section": "§6.3.5.7.3 Microbiology Specimen/Microbiology Susceptibility Examples", "pdf_verbatim": "Rows 9-10: A test against \"KLEBSIELLA PNEUMONIAE\" from an additional sample at a later time point showed little change in the minimum inhibitory concentration of penicillin, and that the organism was still classified as having intermediate resistance to this drug.", "figure_ref": null, "candidates": [{"md_atom_id": "md_dmMS_ex_a025", "md_file": "knowledge_base/domains/MS/examples.md", "md_atom_type": "SENTENCE", "md_parent_section": "§MS.2 [Example 2]", "md_verbatim": "**Rows 9-10:** A test against \"KLEBSIELLA PNEUMONIAE\" from an additional sample at a later time point showed little change in the minimum inhibitory concentration of penicillin, and that the organism is still classified as having intermediate resistance to penicillin.", "score": 0.7873, "match_basis": "verbatim_token+global_search"}, {"md_atom_id": "md_dmMS_ex_a024", "md_file": "knowledge_base/domains/MS/examples.md", "md_atom_type": "SENTENCE", "md_parent_section": "§MS.2 [Example 2]", "md_verbatim": "**Rows 5-8:** Similar to rows 1-4, the sponsor drug (rows 5-6) and penicillin (rows 7-8) were tested against \"KLEBSIELLA PNEUMONIAE\" from an additional sample at a later time point. Results from these tests indicated that the organism was susceptible to sponsor drug, yet had intermediate resistance to penicillin.", "score": 0.5047, "match_basis": "verbatim_token+global_search"}, {"md_atom_id": "md_dmMS_ex_a023", "md_file": "knowledge_base/domains/MS/examples.md", "md_atom_type": "SENTENCE", "md_parent_section": "§MS.2 [Example 2]", "md_verbatim": "**Rows 3-4:** Show that penicillin was tested against the same organism from the same sample and found to have a minimum inhibitory concentration of 0.023 mg/L (row 3). This led to the conclusion that \"STREPTOCOCCUS PNEUMONIAE\" is resistant to penicillin (row 4).", "score": 0.5024, "match_basis": "verbatim_token+global_search"}, {"md_atom_id": "md_dmMS_assn_a003", "md_file": "knowledge_base/domains/MS/assumptions.md", "md_atom_type": "LIST_ITEM", "md_parent_section": "§MS [MS — Assumptions]", "md_verbatim": "   a. Phenotypic drug susceptibility testing (qualitative), which may involve determining susceptibility/resistance (qualitative) at a predefined concentration of drug, or determining a specific dose (quantitative) at which a drug inhibits organism growth or some other process associated with virulence.", "score": 0.4278, "match_basis": "verbatim_token+global_search"}, {"md_atom_id": "md_dmMS_ex_a022", "md_file": "knowledge_base/domains/MS/examples.md", "md_atom_type": "SENTENCE", "md_parent_section": "§MS.2 [Example 2]", "md_verbatim": "**Rows 1-2:** Show that the sponsor drug (MSAGENT) was tested against \"STREPTOCOCCUS PNEUMONIAE\" (NHOID) from subject sample SP01 and that the drug has a minimum inhibitory concentration (MSTESTCD/MSTEST) of 0.004 mg/L (row 1). This led to the conclusion that this organism is susceptible to that drug (row 2).", "score": 0.4198, "match_basis": "verbatim_token+global_search"}], "candidate_count": 5, "zero_candidate": false}
{"pdf_atom_id": "ig34_p0259_a005", "pdf_atom_type": "CODE_LITERAL", "pdf_source": "SDTMIG_v3.4", "pdf_page": 259, "pdf_parent_section": "§6.3.5.7.3 Microbiology Specimen/Microbiology Susceptibility Examples", "pdf_verbatim": "ms.xpt", "figure_ref": null, "candidates": [{"md_atom_id": "md_ch04_a207", "md_file": "knowledge_base/chapters/ch04_general_assumptions.md", "md_atom_type": "CODE_LITERAL", "md_parent_section": "§4.2.3 [Use of \"Subject\" and USUBJID]", "md_verbatim": "dm.xpt:", "score": 0.69, "match_basis": "verbatim_token+global_search"}, {"md_atom_id": "md_ch04_a210", "md_file": "knowledge_base/chapters/ch04_general_assumptions.md", "md_atom_type": "CODE_LITERAL", "md_parent_section": "§4.2.3 [Use of \"Subject\" and USUBJID]", "md_verbatim": "dm.xpt:", "score": 0.69, "match_basis": "verbatim_token+global_search"}, {"md_atom_id": "md_dmCM_ex_a010", "md_file": "knowledge_base/domains/CM/examples.md", "md_atom_type": "NOTE", "md_parent_section": "§CM.1 [Example 1]", "md_verbatim": "**cm.xpt**", "score": 0.69, "match_basis": "verbatim_token+global_search"}, {"md_atom_id": "md_dmCM_ex_a025", "md_file": "knowledge_base/domains/CM/examples.md", "md_atom_type": "NOTE", "md_parent_section": "§CM.2 [Example 2]", "md_verbatim": "**cm.xpt**", "score": 0.69, "match_basis": "verbatim_token+global_search"}, {"md_atom_id": "md_dmCM_ex_a042", "md_file": "knowledge_base/domains/CM/examples.md", "md_atom_type": "NOTE", "md_parent_section": "§CM.3 [Example 3]", "md_verbatim": "**cm.xpt**", "score": 0.69, "match_basis": "verbatim_token+global_search"}, {"md_atom_id": "md_dmCM_ex_a052", "md_file": "knowledge_base/domains/CM/examples.md", "md_atom_type": "NOTE", "md_parent_section": "§CM.4 [Example 4]", "md_verbatim": "**cm.xpt**", "score": 0.69, "match_basis": "verbatim_token+global_search"}, {"md_atom_id": "md_dmCM_ex_a070", "md_file": "knowledge_base/domains/CM/examples.md", "md_atom_type": "NOTE", "md_parent_section": "§CM.5 [Example 5]", "md_verbatim": "**cm.xpt**", "score": 0.69, "match_basis": "verbatim_token+global_search"}, {"md_atom_id": "md_ch04_a368", "md_file": "knowledge_base/chapters/ch04_general_assumptions.md", "md_atom_type": "CODE_LITERAL", "md_parent_section": "§4.2.8.3 [Multiple Values for a Non-result Qualifier Variable]", "md_verbatim": "ae.xpt:", "score": 0.69, "match_basis": "verbatim_token+global_search"}, {"md_atom_id": "md_ch04_a378", "md_file": "knowledge_base/chapters/ch04_general_assumptions.md", "md_atom_type": "CODE_LITERAL", "md_parent_section": "§4.2.8.3 [Multiple Values for a Non-result Qualifier Variable]", "md_verbatim": "ae.xpt:", "score": 0.69, "match_basis": "verbatim_token+global_search"}, {"md_atom_id": "md_ch04_a391", "md_file": "knowledge_base/chapters/ch04_general_assumptions.md", "md_atom_type": "CODE_LITERAL", "md_parent_section": "§4.2.8.3 [Multiple Values for a Non-result Qualifier Variable]", "md_verbatim": "ae.xpt:", "score": 0.69, "match_basis": "verbatim_token+global_search"}], "candidate_count": 10, "zero_candidate": false}
{"pdf_atom_id": "ig34_p0259_a006", "pdf_atom_type": "TABLE_HEADER", "pdf_source": "SDTMIG_v3.4", "pdf_page": 259, "pdf_parent_section": "§6.3.5.7.3 Microbiology Specimen/Microbiology Susceptibility Examples", "pdf_verbatim": "Row | STUDYID | DOMAIN | USUBJID | NHOID | MSSEQ | MSREFID | MSGRPID | MSTESTCD | MSTEST | MSAGENT | MSORRES | MSORRESU | MSSTRESC | MSSTRESN | MSSTRESU | MSMETHOD | MSDTC", "figure_ref": null, "candidates": [{"md_atom_id": "md_dmMS_ex_a027", "md_file": "knowledge_base/domains/MS/examples.md", "md_atom_type": "TABLE_HEADER", "md_parent_section": "§MS.2 [Example 2]", "md_verbatim": "| Row | STUDYID | DOMAIN | USUBJID | NHOID | MSGRPID | MSSEQ | MSREFID | MSTESTCD | MSTEST | MSAGENT | MSORRES | MSORRESU | MSSTRESC | MSSTRESN | MSSTRESU | MSNAM | MSMETHOD | VISITNUM | VISIT | MSDTC |\n|-----|---------|--------|---------|-------|---------|-------|---------|----------|--------|---------|---------|----------|----------|----------|----------|-------|----------|----------|-------|-------|", "score": 0.8239, "match_basis": "verbatim_token+global_search"}, {"md_atom_id": "md_dmMS_ex_a009", "md_file": "knowledge_base/domains/MS/examples.md", "md_atom_type": "TABLE_HEADER", "md_parent_section": "§MS.1 [Example 1]", "md_verbatim": "| Row | STUDYID | DOMAIN | USUBJID | NHOID | MSGRPID | MSSEQ | MSREFID | MSLNKGRP | MSTESTCD | MSTEST | MSAGENT | MSCONC | MSCONCU | MSORRES | MSORRESU | MSSTRESC | MSSTRESN | MSSTRESU | MSNAM | MSMETHOD | MSDTC |\n|-----|---------|--------|---------|-------|---------|-------|---------|----------|----------|--------|---------|--------|---------|---------|----------|----------|----------|----------|-------|----------|-------|", "score": 0.796, "match_basis": "verbatim_token+global_search"}, {"md_atom_id": "md_dmGF_ex_a102", "md_file": "knowledge_base/domains/GF/examples.md", "md_atom_type": "TABLE_HEADER", "md_parent_section": "§GF.5 [Example 5]", "md_verbatim": "| Row | STUDYID | DOMAIN | USUBJID | MSSEQ | MSREFID | NHOID | MSLNKID | MSTESTCD | MSTEST | MSAGENT | MSORRES | MSSTRESC | MSMETHOD | VISITNUM | VISIT | MSDTC |\n|-----|---------|--------|---------|-------|---------|-------|---------|----------|--------|---------|---------|----------|----------|----------|-------|-------|", "score": 0.7521, "match_basis": "verbatim_token+global_search"}, {"md_atom_id": "md_dmMS_ex_a043", "md_file": "knowledge_base/domains/MS/examples.md", "md_atom_type": "TABLE_HEADER", "md_parent_section": "§MS.3 [Example 3]", "md_verbatim": "| Row | STUDYID | DOMAIN | USUBJID | SPDEVID | NHOID | MSSEQ | MSREFID | MSLNKID | MSTESTCD | MSTEST | MSAGENT | MSCONC | MSCONCU | MSORRES | MSSTRESC | MSSPEC | MSLOC | MSMETHOD | MSDTC |\n|-----|---------|--------|---------|---------|-------|-------|---------|---------|----------|--------|---------|--------|---------|---------|----------|--------|-------|----------|-------|", "score": 0.7024, "match_basis": "verbatim_token+global_search"}, {"md_atom_id": "md_dmIS_ex_a091", "md_file": "knowledge_base/domains/IS/examples.md", "md_atom_type": "TABLE_HEADER", "md_parent_section": "§IS.6 [Example 6]", "md_verbatim": "| Row | STUDYID | DOMAIN | USUBJID | ISSEQ | ISREFID | ISTESTCD | ISTEST | ISMSCBCE | ISCAT | ISSCAT | ISORRES | ISORRESU | ISSTRESC | ISSTRESN | ISSTRESU | ISSPEC | ISMETHOD | ISDTC |\n|-----|---------|--------|---------|-------|---------|----------|--------|----------|-------|--------|---------|----------|----------|----------|----------|--------|----------|-------|", "score": 0.6225, "match_basis": "verbatim_token+global_search"}], "candidate_count": 5, "zero_candidate": false}
{"pdf_atom_id": "ig34_p0259_a007", "pdf_atom_type": "TABLE_ROW", "pdf_source": "SDTMIG_v3.4", "pdf_page": 259, "pdf_parent_section": "§6.3.5.7.3 Microbiology Specimen/Microbiology Susceptibility Examples", "pdf_verbatim": "1 | ABC | MS | ABC-001-001 | STREPTOCOCCUS PNEUMONIAE | 1 | SP01 | 1 | MIC | Minimum Inhibitory Concentration | Sponsor Drug | 0.004 | mg/L | 0.004 | 0.004 | mg/L | EPSILOMETER | 2005-06-19T08:00", "figure_ref": null, "candidates": [{"md_atom_id": "md_dmMS_ex_a028", "md_file": "knowledge_base/domains/MS/examples.md", "md_atom_type": "TABLE_ROW", "md_parent_section": "§MS.2 [Example 2]", "md_verbatim": "| 1 | ABC | MS | ABC-001-001 | STREPTOCOCCUS PNEUMONIAE | | 1 | SP01 | MIC | Minimum Inhibitory Concentration | Sponsor Drug | 0.004 | mg/L | 0.004 | 0.004 | mg/L | | EPSILOMETER | 1 | VISIT 1 | 2005-06-19T08:00 |", "score": 0.8753, "match_basis": "verbatim_token+global_search"}, {"md_atom_id": "md_dmMS_ex_a030", "md_file": "knowledge_base/domains/MS/examples.md", "md_atom_type": "TABLE_ROW", "md_parent_section": "§MS.2 [Example 2]", "md_verbatim": "| 3 | ABC | MS | ABC-001-001 | STREPTOCOCCUS PNEUMONIAE | | 3 | SP01 | MIC | Minimum Inhibitory Concentration | Penicillin | 0.125 | mg/L | 0.125 | 0.125 | mg/L | | EPSILOMETER | 1 | VISIT 1 | 2005-06-19T08:00 |", "score": 0.7537, "match_basis": "verbatim_token+global_search"}, {"md_atom_id": "md_dmMS_ex_a032", "md_file": "knowledge_base/domains/MS/examples.md", "md_atom_type": "TABLE_ROW", "md_parent_section": "§MS.2 [Example 2]", "md_verbatim": "| 5 | ABC | MS | ABC-001-001 | KLEBSIELLA PNEUMONIAE | | 5 | SP02 | MIC | Minimum Inhibitory Concentration | Sponsor Drug | 0.19 | mg/L | 0.19 | 0.19 | mg/L | | EPSILOMETER | 2 | VISIT 2 | 2005-06-26T08:00 |", "score": 0.6929, "match_basis": "verbatim_token+global_search"}, {"md_atom_id": "md_dmMS_ex_a010", "md_file": "knowledge_base/domains/MS/examples.md", "md_atom_type": "TABLE_ROW", "md_parent_section": "§MS.1 [Example 1]", "md_verbatim": "| 1 | ABC | MS | ABC-001-002 | ENTEROCOCCUS FAECALIS | 1 | 1 | SPEC01 | | MIC | Minimum Inhibitory Concentration | Sponsor Drug | 0.25 | ug/dL | 0.25 | ug/dL | | | | CENTRAL LAB ABC | EPSILOMETER | 2005-06-19T08:00 |", "score": 0.6698, "match_basis": "verbatim_token+global_search"}, {"md_atom_id": "md_dmMS_ex_a034", "md_file": "knowledge_base/domains/MS/examples.md", "md_atom_type": "TABLE_ROW", "md_parent_section": "§MS.2 [Example 2]", "md_verbatim": "| 7 | ABC | MS | ABC-001-001 | KLEBSIELLA PNEUMONIAE | | 7 | SP02 | MIC | Minimum Inhibitory Concentration | Penicillin | 4.9 | mg/L | 4.9 | 4.9 | mg/L | | EPSILOMETER | 2 | VISIT 2 | 2005-06-26T08:00 |", "score": 0.613, "match_basis": "verbatim_token+global_search"}], "candidate_count": 5, "zero_candidate": false}
{"pdf_atom_id": "ig34_p0259_a008", "pdf_atom_type": "TABLE_ROW", "pdf_source": "SDTMIG_v3.4", "pdf_page": 259, "pdf_parent_section": "§6.3.5.7.3 Microbiology Specimen/Microbiology Susceptibility Examples", "pdf_verbatim": "2 | ABC | MS | ABC-001-001 | STREPTOCOCCUS PNEUMONIAE | 2 | SP01 | 1 | MICROSUS | Microbial Susceptibility | Sponsor Drug | SUSCEPTIBLE | | SUSCEPTIBLE | | | EPSILOMETER | 2005-06-19T08:00", "figure_ref": null, "candidates": [{"md_atom_id": "md_dmMS_ex_a029", "md_file": "knowledge_base/domains/MS/examples.md", "md_atom_type": "TABLE_ROW", "md_parent_section": "§MS.2 [Example 2]", "md_verbatim": "| 2 | ABC | MS | ABC-001-001 | STREPTOCOCCUS PNEUMONIAE | | 2 | SP01 | MICROSUS | Microbial Susceptibility | Sponsor Drug | SUSCEPTIBLE | | SUSCEPTIBLE | | | | EPSILOMETER | 1 | VISIT 1 | 2005-06-19T08:00 |", "score": 0.8739, "match_basis": "verbatim_token+global_search"}, {"md_atom_id": "md_dmMS_ex_a031", "md_file": "knowledge_base/domains/MS/examples.md", "md_atom_type": "TABLE_ROW", "md_parent_section": "§MS.2 [Example 2]", "md_verbatim": "| 4 | ABC | MS | ABC-001-001 | STREPTOCOCCUS PNEUMONIAE | | 4 | SP01 | MICROSUS | Microbial Susceptibility | Penicillin | RESISTANT | | RESISTANT | | | | EPSILOMETER | 1 | VISIT 1 | 2005-06-19T08:00 |", "score": 0.7071, "match_basis": "verbatim_token+global_search"}, {"md_atom_id": "md_dmMS_ex_a033", "md_file": "knowledge_base/domains/MS/examples.md", "md_atom_type": "TABLE_ROW", "md_parent_section": "§MS.2 [Example 2]", "md_verbatim": "| 6 | ABC | MS | ABC-001-001 | KLEBSIELLA PNEUMONIAE | | 6 | SP02 | MICROSUS | Microbial Susceptibility | Sponsor Drug | SUSCEPTIBLE | | SUSCEPTIBLE | | | | EPSILOMETER | 2 | VISIT 2 | 2005-06-26T08:00 |", "score": 0.6975, "match_basis": "verbatim_token+global_search"}, {"md_atom_id": "md_dmMS_ex_a011", "md_file": "knowledge_base/domains/MS/examples.md", "md_atom_type": "TABLE_ROW", "md_parent_section": "§MS.1 [Example 1]", "md_verbatim": "| 2 | ABC | MS | ABC-001-002 | ENTEROCOCCUS FAECALIS | 1 | 2 | SPEC01 | | MICROSUS | Microbial Susceptibility | Sponsor Drug | | | SUSCEPTIBLE | | SUSCEPTIBLE | | | CENTRAL LAB ABC | EPSILOMETER | 2005-06-19T08:00 |", "score": 0.6558, "match_basis": "verbatim_token+global_search"}, {"md_atom_id": "md_dmMS_ex_a035", "md_file": "knowledge_base/domains/MS/examples.md", "md_atom_type": "TABLE_ROW", "md_parent_section": "§MS.2 [Example 2]", "md_verbatim": "| 8 | ABC | MS | ABC-001-001 | KLEBSIELLA PNEUMONIAE | | 8 | SP02 | MICROSUS | Microbial Susceptibility | Penicillin | SUSCEPTIBLE | | SUSCEPTIBLE | | | | EPSILOMETER | 2 | VISIT 2 | 2005-06-26T08:00 |", "score": 0.6136, "match_basis": "verbatim_token+global_search"}], "candidate_count": 5, "zero_candidate": false}
{"pdf_atom_id": "ig34_p0259_a009", "pdf_atom_type": "TABLE_ROW", "pdf_source": "SDTMIG_v3.4", "pdf_page": 259, "pdf_parent_section": "§6.3.5.7.3 Microbiology Specimen/Microbiology Susceptibility Examples", "pdf_verbatim": "3 | ABC | MS | ABC-001-001 | STREPTOCOCCUS PNEUMONIAE | 3 | SP01 | 2 | MIC | Minimum Inhibitory Concentration | Penicillin | 0.023 | mg/L | 0.023 | 0.023 | mg/L | EPSILOMETER | 2005-06-19T08:00", "figure_ref": null, "candidates": [{"md_atom_id": "md_dmMS_ex_a030", "md_file": "knowledge_base/domains/MS/examples.md", "md_atom_type": "TABLE_ROW", "md_parent_section": "§MS.2 [Example 2]", "md_verbatim": "| 3 | ABC | MS | ABC-001-001 | STREPTOCOCCUS PNEUMONIAE | | 3 | SP01 | MIC | Minimum Inhibitory Concentration | Penicillin | 0.125 | mg/L | 0.125 | 0.125 | mg/L | | EPSILOMETER | 1 | VISIT 1 | 2005-06-19T08:00 |", "score": 0.86, "match_basis": "verbatim_token+global_search"}, {"md_atom_id": "md_dmMS_ex_a028", "md_file": "knowledge_base/domains/MS/examples.md", "md_atom_type": "TABLE_ROW", "md_parent_section": "§MS.2 [Example 2]", "md_verbatim": "| 1 | ABC | MS | ABC-001-001 | STREPTOCOCCUS PNEUMONIAE | | 1 | SP01 | MIC | Minimum Inhibitory Concentration | Sponsor Drug | 0.004 | mg/L | 0.004 | 0.004 | mg/L | | EPSILOMETER | 1 | VISIT 1 | 2005-06-19T08:00 |", "score": 0.7537, "match_basis": "verbatim_token+global_search"}, {"md_atom_id": "md_dmMS_ex_a034", "md_file": "knowledge_base/domains/MS/examples.md", "md_atom_type": "TABLE_ROW", "md_parent_section": "§MS.2 [Example 2]", "md_verbatim": "| 7 | ABC | MS | ABC-001-001 | KLEBSIELLA PNEUMONIAE | | 7 | SP02 | MIC | Minimum Inhibitory Concentration | Penicillin | 4.9 | mg/L | 4.9 | 4.9 | mg/L | | EPSILOMETER | 2 | VISIT 2 | 2005-06-26T08:00 |", "score": 0.6953, "match_basis": "verbatim_token+global_search"}, {"md_atom_id": "md_dmMS_ex_a036", "md_file": "knowledge_base/domains/MS/examples.md", "md_atom_type": "TABLE_ROW", "md_parent_section": "§MS.2 [Example 2]", "md_verbatim": "| 9 | ABC | MS | ABC-001-001 | KLEBSIELLA PNEUMONIAE | | 9 | SP03 | MIC | Minimum Inhibitory Concentration | Penicillin | 4.8 | mg/L | 4.8 | 4.8 | mg/L | | EPSILOMETER | 3 | VISIT 3 | 2005-07-01T08:00 |", "score": 0.6953, "match_basis": "verbatim_token+global_search"}, {"md_atom_id": "md_dmMS_ex_a012", "md_file": "knowledge_base/domains/MS/examples.md", "md_atom_type": "TABLE_ROW", "md_parent_section": "§MS.1 [Example 1]", "md_verbatim": "| 3 | ABC | MS | ABC-001-002 | ENTEROCOCCUS FAECALIS | 2 | 3 | SPEC01 | | MIC | Minimum Inhibitory Concentration | Amoxicillin | 1 | ug/dL | 1 | ug/dL | | | | CENTRAL LAB ABC | EPSILOMETER | 2005-06-19T08:00 |", "score": 0.6363, "match_basis": "verbatim_token+global_search"}], "candidate_count": 5, "zero_candidate": false}
{"pdf_atom_id": "ig34_p0259_a010", "pdf_atom_type": "TABLE_ROW", "pdf_source": "SDTMIG_v3.4", "pdf_page": 259, "pdf_parent_section": "§6.3.5.7.3 Microbiology Specimen/Microbiology Susceptibility Examples", "pdf_verbatim": "4 | ABC | MS | ABC-001-001 | STREPTOCOCCUS PNEUMONIAE | 4 | SP01 | 2 | MICROSUS | Microbial Susceptibility | Penicillin | RESISTANT | | RESISTANT | | | EPSILOMETER | 2005-06-19T08:00", "figure_ref": null, "candidates": [{"md_atom_id": "md_dmMS_ex_a031", "md_file": "knowledge_base/domains/MS/examples.md", "md_atom_type": "TABLE_ROW", "md_parent_section": "§MS.2 [Example 2]", "md_verbatim": "| 4 | ABC | MS | ABC-001-001 | STREPTOCOCCUS PNEUMONIAE | | 4 | SP01 | MICROSUS | Microbial Susceptibility | Penicillin | RESISTANT | | RESISTANT | | | | EPSILOMETER | 1 | VISIT 1 | 2005-06-19T08:00 |", "score": 0.876, "match_basis": "verbatim_token+global_search"}, {"md_atom_id": "md_dmMS_ex_a029", "md_file": "knowledge_base/domains/MS/examples.md", "md_atom_type": "TABLE_ROW", "md_parent_section": "§MS.2 [Example 2]", "md_verbatim": "| 2 | ABC | MS | ABC-001-001 | STREPTOCOCCUS PNEUMONIAE | | 2 | SP01 | MICROSUS | Microbial Susceptibility | Sponsor Drug | SUSCEPTIBLE | | SUSCEPTIBLE | | | | EPSILOMETER | 1 | VISIT 1 | 2005-06-19T08:00 |", "score": 0.7071, "match_basis": "verbatim_token+global_search"}, {"md_atom_id": "md_dmMS_ex_a035", "md_file": "knowledge_base/domains/MS/examples.md", "md_atom_type": "TABLE_ROW", "md_parent_section": "§MS.2 [Example 2]", "md_verbatim": "| 8 | ABC | MS | ABC-001-001 | KLEBSIELLA PNEUMONIAE | | 8 | SP02 | MICROSUS | Microbial Susceptibility | Penicillin | SUSCEPTIBLE | | SUSCEPTIBLE | | | | EPSILOMETER | 2 | VISIT 2 | 2005-06-26T08:00 |", "score": 0.6545, "match_basis": "verbatim_token+global_search"}, {"md_atom_id": "md_dmMS_ex_a037", "md_file": "knowledge_base/domains/MS/examples.md", "md_atom_type": "TABLE_ROW", "md_parent_section": "§MS.2 [Example 2]", "md_verbatim": "| 10 | ABC | MS | ABC-001-001 | KLEBSIELLA PNEUMONIAE | | 10 | SP03 | MICROSUS | Microbial Susceptibility | Penicillin | SUSCEPTIBLE | | SUSCEPTIBLE | | | | EPSILOMETER | 3 | VISIT 3 | 2005-07-01T08:00 |", "score": 0.6545, "match_basis": "verbatim_token+global_search"}, {"md_atom_id": "md_dmMS_ex_a013", "md_file": "knowledge_base/domains/MS/examples.md", "md_atom_type": "TABLE_ROW", "md_parent_section": "§MS.1 [Example 1]", "md_verbatim": "| 4 | ABC | MS | ABC-001-002 | ENTEROCOCCUS FAECALIS | 2 | 4 | SPEC01 | | MICROSUS | Microbial Susceptibility | Amoxicillin | | | RESISTANT | | RESISTANT | | | CENTRAL LAB ABC | EPSILOMETER | 2005-06-19T08:00 |", "score": 0.6375, "match_basis": "verbatim_token+global_search"}], "candidate_count": 5, "zero_candidate": false}
{"pdf_atom_id": "ig34_p0259_a011", "pdf_atom_type": "TABLE_ROW", "pdf_source": "SDTMIG_v3.4", "pdf_page": 259, "pdf_parent_section": "§6.3.5.7.3 Microbiology Specimen/Microbiology Susceptibility Examples", "pdf_verbatim": "5 | ABC | MS | ABC-001-001 | KLEBSIELLA PNEUMONIAE | 5 | SP02 | 3 | MIC | Minimum Inhibitory Concentration | Sponsor Drug | 0.125 | mg/L | 0.125 | 0.125 | mg/L | EPSILOMETER | 2005-06-26T08:00", "figure_ref": null, "candidates": [{"md_atom_id": "md_dmMS_ex_a032", "md_file": "knowledge_base/domains/MS/examples.md", "md_atom_type": "TABLE_ROW", "md_parent_section": "§MS.2 [Example 2]", "md_verbatim": "| 5 | ABC | MS | ABC-001-001 | KLEBSIELLA PNEUMONIAE | | 5 | SP02 | MIC | Minimum Inhibitory Concentration | Sponsor Drug | 0.19 | mg/L | 0.19 | 0.19 | mg/L | | EPSILOMETER | 2 | VISIT 2 | 2005-06-26T08:00 |", "score": 0.8657, "match_basis": "verbatim_token+global_search"}, {"md_atom_id": "md_dmMS_ex_a034", "md_file": "knowledge_base/domains/MS/examples.md", "md_atom_type": "TABLE_ROW", "md_parent_section": "§MS.2 [Example 2]", "md_verbatim": "| 7 | ABC | MS | ABC-001-001 | KLEBSIELLA PNEUMONIAE | | 7 | SP02 | MIC | Minimum Inhibitory Concentration | Penicillin | 4.9 | mg/L | 4.9 | 4.9 | mg/L | | EPSILOMETER | 2 | VISIT 2 | 2005-06-26T08:00 |", "score": 0.7538, "match_basis": "verbatim_token+global_search"}, {"md_atom_id": "md_dmMS_ex_a036", "md_file": "knowledge_base/domains/MS/examples.md", "md_atom_type": "TABLE_ROW", "md_parent_section": "§MS.2 [Example 2]", "md_verbatim": "| 9 | ABC | MS | ABC-001-001 | KLEBSIELLA PNEUMONIAE | | 9 | SP03 | MIC | Minimum Inhibitory Concentration | Penicillin | 4.8 | mg/L | 4.8 | 4.8 | mg/L | | EPSILOMETER | 3 | VISIT 3 | 2005-07-01T08:00 |", "score": 0.7148, "match_basis": "verbatim_token+global_search"}, {"md_atom_id": "md_dmMS_ex_a028", "md_file": "knowledge_base/domains/MS/examples.md", "md_atom_type": "TABLE_ROW", "md_parent_section": "§MS.2 [Example 2]", "md_verbatim": "| 1 | ABC | MS | ABC-001-001 | STREPTOCOCCUS PNEUMONIAE | | 1 | SP01 | MIC | Minimum Inhibitory Concentration | Sponsor Drug | 0.004 | mg/L | 0.004 | 0.004 | mg/L | | EPSILOMETER | 1 | VISIT 1 | 2005-06-19T08:00 |", "score": 0.6882, "match_basis": "verbatim_token+global_search"}, {"md_atom_id": "md_dmMS_ex_a030", "md_file": "knowledge_base/domains/MS/examples.md", "md_atom_type": "TABLE_ROW", "md_parent_section": "§MS.2 [Example 2]", "md_verbatim": "| 3 | ABC | MS | ABC-001-001 | STREPTOCOCCUS PNEUMONIAE | | 3 | SP01 | MIC | Minimum Inhibitory Concentration | Penicillin | 0.125 | mg/L | 0.125 | 0.125 | mg/L | | EPSILOMETER | 1 | VISIT 1 | 2005-06-19T08:00 |", "score": 0.6196, "match_basis": "verbatim_token+global_search"}], "candidate_count": 5, "zero_candidate": false}
{"pdf_atom_id": "ig34_p0259_a012", "pdf_atom_type": "TABLE_ROW", "pdf_source": "SDTMIG_v3.4", "pdf_page": 259, "pdf_parent_section": "§6.3.5.7.3 Microbiology Specimen/Microbiology Susceptibility Examples", "pdf_verbatim": "6 | ABC | MS | ABC-001-001 | KLEBSIELLA PNEUMONIAE | 6 | SP02 | 3 | MICROSUS | Microbial Susceptibility | Sponsor Drug | SUSCEPTIBLE | | SUSCEPTIBLE | | | EPSILOMETER | 2005-06-26T08:00", "figure_ref": null, "candidates": [{"md_atom_id": "md_dmMS_ex_a033", "md_file": "knowledge_base/domains/MS/examples.md", "md_atom_type": "TABLE_ROW", "md_parent_section": "§MS.2 [Example 2]", "md_verbatim": "| 6 | ABC | MS | ABC-001-001 | KLEBSIELLA PNEUMONIAE | | 6 | SP02 | MICROSUS | Microbial Susceptibility | Sponsor Drug | SUSCEPTIBLE | | SUSCEPTIBLE | | | | EPSILOMETER | 2 | VISIT 2 | 2005-06-26T08:00 |", "score": 0.8731, "match_basis": "verbatim_token+global_search"}, {"md_atom_id": "md_dmMS_ex_a035", "md_file": "knowledge_base/domains/MS/examples.md", "md_atom_type": "TABLE_ROW", "md_parent_section": "§MS.2 [Example 2]", "md_verbatim": "| 8 | ABC | MS | ABC-001-001 | KLEBSIELLA PNEUMONIAE | | 8 | SP02 | MICROSUS | Microbial Susceptibility | Penicillin | SUSCEPTIBLE | | SUSCEPTIBLE | | | | EPSILOMETER | 2 | VISIT 2 | 2005-06-26T08:00 |", "score": 0.756, "match_basis": "verbatim_token+global_search"}, {"md_atom_id": "md_dmMS_ex_a037", "md_file": "knowledge_base/domains/MS/examples.md", "md_atom_type": "TABLE_ROW", "md_parent_section": "§MS.2 [Example 2]", "md_verbatim": "| 10 | ABC | MS | ABC-001-001 | KLEBSIELLA PNEUMONIAE | | 10 | SP03 | MICROSUS | Microbial Susceptibility | Penicillin | SUSCEPTIBLE | | SUSCEPTIBLE | | | | EPSILOMETER | 3 | VISIT 3 | 2005-07-01T08:00 |", "score": 0.7154, "match_basis": "verbatim_token+global_search"}, {"md_atom_id": "md_dmMS_ex_a029", "md_file": "knowledge_base/domains/MS/examples.md", "md_atom_type": "TABLE_ROW", "md_parent_section": "§MS.2 [Example 2]", "md_verbatim": "| 2 | ABC | MS | ABC-001-001 | STREPTOCOCCUS PNEUMONIAE | | 2 | SP01 | MICROSUS | Microbial Susceptibility | Sponsor Drug | SUSCEPTIBLE | | SUSCEPTIBLE | | | | EPSILOMETER | 1 | VISIT 1 | 2005-06-19T08:00 |", "score": 0.6975, "match_basis": "verbatim_token+global_search"}, {"md_atom_id": "md_dmMS_ex_a011", "md_file": "knowledge_base/domains/MS/examples.md", "md_atom_type": "TABLE_ROW", "md_parent_section": "§MS.1 [Example 1]", "md_verbatim": "| 2 | ABC | MS | ABC-001-002 | ENTEROCOCCUS FAECALIS | 1 | 2 | SPEC01 | | MICROSUS | Microbial Susceptibility | Sponsor Drug | | | SUSCEPTIBLE | | SUSCEPTIBLE | | | CENTRAL LAB ABC | EPSILOMETER | 2005-06-19T08:00 |", "score": 0.5901, "match_basis": "verbatim_token+global_search"}], "candidate_count": 5, "zero_candidate": false}
{"pdf_atom_id": "ig34_p0259_a013", "pdf_atom_type": "TABLE_ROW", "pdf_source": "SDTMIG_v3.4", "pdf_page": 259, "pdf_parent_section": "§6.3.5.7.3 Microbiology Specimen/Microbiology Susceptibility Examples", "pdf_verbatim": "7 | ABC | MS | ABC-001-001 | KLEBSIELLA PNEUMONIAE | 7 | SP02 | 4 | MIC | Minimum Inhibitory Concentration | Penicillin | 0.023 | mg/L | 0.023 | 0.023 | mg/L | EPSILOMETER | 2005-06-26T08:00", "figure_ref": null, "candidates": [{"md_atom_id": "md_dmMS_ex_a034", "md_file": "knowledge_base/domains/MS/examples.md", "md_atom_type": "TABLE_ROW", "md_parent_section": "§MS.2 [Example 2]", "md_verbatim": "| 7 | ABC | MS | ABC-001-001 | KLEBSIELLA PNEUMONIAE | | 7 | SP02 | MIC | Minimum Inhibitory Concentration | Penicillin | 4.9 | mg/L | 4.9 | 4.9 | mg/L | | EPSILOMETER | 2 | VISIT 2 | 2005-06-26T08:00 |", "score": 0.8662, "match_basis": "verbatim_token+global_search"}, {"md_atom_id": "md_dmMS_ex_a036", "md_file": "knowledge_base/domains/MS/examples.md", "md_atom_type": "TABLE_ROW", "md_parent_section": "§MS.2 [Example 2]", "md_verbatim": "| 9 | ABC | MS | ABC-001-001 | KLEBSIELLA PNEUMONIAE | | 9 | SP03 | MIC | Minimum Inhibitory Concentration | Penicillin | 4.8 | mg/L | 4.8 | 4.8 | mg/L | | EPSILOMETER | 3 | VISIT 3 | 2005-07-01T08:00 |", "score": 0.8189, "match_basis": "verbatim_token+global_search"}, {"md_atom_id": "md_dmMS_ex_a032", "md_file": "knowledge_base/domains/MS/examples.md", "md_atom_type": "TABLE_ROW", "md_parent_section": "§MS.2 [Example 2]", "md_verbatim": "| 5 | ABC | MS | ABC-001-001 | KLEBSIELLA PNEUMONIAE | | 5 | SP02 | MIC | Minimum Inhibitory Concentration | Sponsor Drug | 0.19 | mg/L | 0.19 | 0.19 | mg/L | | EPSILOMETER | 2 | VISIT 2 | 2005-06-26T08:00 |", "score": 0.7538, "match_basis": "verbatim_token+global_search"}, {"md_atom_id": "md_dmMS_ex_a030", "md_file": "knowledge_base/domains/MS/examples.md", "md_atom_type": "TABLE_ROW", "md_parent_section": "§MS.2 [Example 2]", "md_verbatim": "| 3 | ABC | MS | ABC-001-001 | STREPTOCOCCUS PNEUMONIAE | | 3 | SP01 | MIC | Minimum Inhibitory Concentration | Penicillin | 0.125 | mg/L | 0.125 | 0.125 | mg/L | | EPSILOMETER | 1 | VISIT 1 | 2005-06-19T08:00 |", "score": 0.6907, "match_basis": "verbatim_token+global_search"}, {"md_atom_id": "md_dmMS_ex_a028", "md_file": "knowledge_base/domains/MS/examples.md", "md_atom_type": "TABLE_ROW", "md_parent_section": "§MS.2 [Example 2]", "md_verbatim": "| 1 | ABC | MS | ABC-001-001 | STREPTOCOCCUS PNEUMONIAE | | 1 | SP01 | MIC | Minimum Inhibitory Concentration | Sponsor Drug | 0.004 | mg/L | 0.004 | 0.004 | mg/L | | EPSILOMETER | 1 | VISIT 1 | 2005-06-19T08:00 |", "score": 0.6097, "match_basis": "verbatim_token+global_search"}], "candidate_count": 5, "zero_candidate": false}
{"pdf_atom_id": "ig34_p0259_a014", "pdf_atom_type": "TABLE_ROW", "pdf_source": "SDTMIG_v3.4", "pdf_page": 259, "pdf_parent_section": "§6.3.5.7.3 Microbiology Specimen/Microbiology Susceptibility Examples", "pdf_verbatim": "8 | ABC | MS | ABC-001-001 | KLEBSIELLA PNEUMONIAE | 8 | SP02 | 4 | MICROSUS | Microbial Susceptibility | Penicillin | INTERMEDIATE | | INTERMEDIATE | | | EPSILOMETER | 2005-06-26T08:00", "figure_ref": null, "candidates": [{"md_atom_id": "md_dmMS_ex_a035", "md_file": "knowledge_base/domains/MS/examples.md", "md_atom_type": "TABLE_ROW", "md_parent_section": "§MS.2 [Example 2]", "md_verbatim": "| 8 | ABC | MS | ABC-001-001 | KLEBSIELLA PNEUMONIAE | | 8 | SP02 | MICROSUS | Microbial Susceptibility | Penicillin | SUSCEPTIBLE | | SUSCEPTIBLE | | | | EPSILOMETER | 2 | VISIT 2 | 2005-06-26T08:00 |", "score": 0.7909, "match_basis": "verbatim_token+global_search"}, {"md_atom_id": "md_dmMS_ex_a037", "md_file": "knowledge_base/domains/MS/examples.md", "md_atom_type": "TABLE_ROW", "md_parent_section": "§MS.2 [Example 2]", "md_verbatim": "| 10 | ABC | MS | ABC-001-001 | KLEBSIELLA PNEUMONIAE | | 10 | SP03 | MICROSUS | Microbial Susceptibility | Penicillin | SUSCEPTIBLE | | SUSCEPTIBLE | | | | EPSILOMETER | 3 | VISIT 3 | 2005-07-01T08:00 |", "score": 0.75, "match_basis": "verbatim_token+global_search"}, {"md_atom_id": "md_dmMS_ex_a033", "md_file": "knowledge_base/domains/MS/examples.md", "md_atom_type": "TABLE_ROW", "md_parent_section": "§MS.2 [Example 2]", "md_verbatim": "| 6 | ABC | MS | ABC-001-001 | KLEBSIELLA PNEUMONIAE | | 6 | SP02 | MICROSUS | Microbial Susceptibility | Sponsor Drug | SUSCEPTIBLE | | SUSCEPTIBLE | | | | EPSILOMETER | 2 | VISIT 2 | 2005-06-26T08:00 |", "score": 0.6929, "match_basis": "verbatim_token+global_search"}, {"md_atom_id": "md_dmMS_ex_a031", "md_file": "knowledge_base/domains/MS/examples.md", "md_atom_type": "TABLE_ROW", "md_parent_section": "§MS.2 [Example 2]", "md_verbatim": "| 4 | ABC | MS | ABC-001-001 | STREPTOCOCCUS PNEUMONIAE | | 4 | SP01 | MICROSUS | Microbial Susceptibility | Penicillin | RESISTANT | | RESISTANT | | | | EPSILOMETER | 1 | VISIT 1 | 2005-06-19T08:00 |", "score": 0.6284, "match_basis": "verbatim_token+global_search"}, {"md_atom_id": "md_dmMS_ex_a029", "md_file": "knowledge_base/domains/MS/examples.md", "md_atom_type": "TABLE_ROW", "md_parent_section": "§MS.2 [Example 2]", "md_verbatim": "| 2 | ABC | MS | ABC-001-001 | STREPTOCOCCUS PNEUMONIAE | | 2 | SP01 | MICROSUS | Microbial Susceptibility | Sponsor Drug | SUSCEPTIBLE | | SUSCEPTIBLE | | | | EPSILOMETER | 1 | VISIT 1 | 2005-06-19T08:00 |", "score": 0.5722, "match_basis": "verbatim_token+global_search"}], "candidate_count": 5, "zero_candidate": false}
{"pdf_atom_id": "ig34_p0259_a015", "pdf_atom_type": "TABLE_ROW", "pdf_source": "SDTMIG_v3.4", "pdf_page": 259, "pdf_parent_section": "§6.3.5.7.3 Microbiology Specimen/Microbiology Susceptibility Examples", "pdf_verbatim": "9 | ABC | MS | ABC-001-001 | KLEBSIELLA PNEUMONIAE | 9 | SP03 | 5 | MIC | Minimum Inhibitory Concentration | Penicillin | 0.026 | mg/L | 0.026 | 0.026 | mg/L | EPSILOMETER | 2005-07-06T08:00", "figure_ref": null, "candidates": [{"md_atom_id": "md_dmMS_ex_a034", "md_file": "knowledge_base/domains/MS/examples.md", "md_atom_type": "TABLE_ROW", "md_parent_section": "§MS.2 [Example 2]", "md_verbatim": "| 7 | ABC | MS | ABC-001-001 | KLEBSIELLA PNEUMONIAE | | 7 | SP02 | MIC | Minimum Inhibitory Concentration | Penicillin | 4.9 | mg/L | 4.9 | 4.9 | mg/L | | EPSILOMETER | 2 | VISIT 2 | 2005-06-26T08:00 |", "score": 0.8342, "match_basis": "verbatim_token+global_search"}, {"md_atom_id": "md_dmMS_ex_a036", "md_file": "knowledge_base/domains/MS/examples.md", "md_atom_type": "TABLE_ROW", "md_parent_section": "§MS.2 [Example 2]", "md_verbatim": "| 9 | ABC | MS | ABC-001-001 | KLEBSIELLA PNEUMONIAE | | 9 | SP03 | MIC | Minimum Inhibitory Concentration | Penicillin | 4.8 | mg/L | 4.8 | 4.8 | mg/L | | EPSILOMETER | 3 | VISIT 3 | 2005-07-01T08:00 |", "score": 0.8342, "match_basis": "verbatim_token+global_search"}, {"md_atom_id": "md_dmMS_ex_a032", "md_file": "knowledge_base/domains/MS/examples.md", "md_atom_type": "TABLE_ROW", "md_parent_section": "§MS.2 [Example 2]", "md_verbatim": "| 5 | ABC | MS | ABC-001-001 | KLEBSIELLA PNEUMONIAE | | 5 | SP02 | MIC | Minimum Inhibitory Concentration | Sponsor Drug | 0.19 | mg/L | 0.19 | 0.19 | mg/L | | EPSILOMETER | 2 | VISIT 2 | 2005-06-26T08:00 |", "score": 0.7275, "match_basis": "verbatim_token+global_search"}, {"md_atom_id": "md_dmMS_ex_a030", "md_file": "knowledge_base/domains/MS/examples.md", "md_atom_type": "TABLE_ROW", "md_parent_section": "§MS.2 [Example 2]", "md_verbatim": "| 3 | ABC | MS | ABC-001-001 | STREPTOCOCCUS PNEUMONIAE | | 3 | SP01 | MIC | Minimum Inhibitory Concentration | Penicillin | 0.125 | mg/L | 0.125 | 0.125 | mg/L | | EPSILOMETER | 1 | VISIT 1 | 2005-06-19T08:00 |", "score": 0.6907, "match_basis": "verbatim_token+global_search"}, {"md_atom_id": "md_dmMS_ex_a028", "md_file": "knowledge_base/domains/MS/examples.md", "md_atom_type": "TABLE_ROW", "md_parent_section": "§MS.2 [Example 2]", "md_verbatim": "| 1 | ABC | MS | ABC-001-001 | STREPTOCOCCUS PNEUMONIAE | | 1 | SP01 | MIC | Minimum Inhibitory Concentration | Sponsor Drug | 0.004 | mg/L | 0.004 | 0.004 | mg/L | | EPSILOMETER | 1 | VISIT 1 | 2005-06-19T08:00 |", "score": 0.6097, "match_basis": "verbatim_token+global_search"}], "candidate_count": 5, "zero_candidate": false}
{"pdf_atom_id": "ig34_p0259_a016", "pdf_atom_type": "TABLE_ROW", "pdf_source": "SDTMIG_v3.4", "pdf_page": 259, "pdf_parent_section": "§6.3.5.7.3 Microbiology Specimen/Microbiology Susceptibility Examples", "pdf_verbatim": "10 | ABC | MS | ABC-001-001 | KLEBSIELLA PNEUMONIAE | 10 | SP03 | 5 | MICROSUS | Microbial Susceptibility | Penicillin | INTERMEDIATE | | INTERMEDIATE | | | EPSILOMETER | 2005-07-06T08:00", "figure_ref": null, "candidates": [{"md_atom_id": "md_dmMS_ex_a035", "md_file": "knowledge_base/domains/MS/examples.md", "md_atom_type": "TABLE_ROW", "md_parent_section": "§MS.2 [Example 2]", "md_verbatim": "| 8 | ABC | MS | ABC-001-001 | KLEBSIELLA PNEUMONIAE | | 8 | SP02 | MICROSUS | Microbial Susceptibility | Penicillin | SUSCEPTIBLE | | SUSCEPTIBLE | | | | EPSILOMETER | 2 | VISIT 2 | 2005-06-26T08:00 |", "score": 0.7633, "match_basis": "verbatim_token+global_search"}, {"md_atom_id": "md_dmMS_ex_a037", "md_file": "knowledge_base/domains/MS/examples.md", "md_atom_type": "TABLE_ROW", "md_parent_section": "§MS.2 [Example 2]", "md_verbatim": "| 10 | ABC | MS | ABC-001-001 | KLEBSIELLA PNEUMONIAE | | 10 | SP03 | MICROSUS | Microbial Susceptibility | Penicillin | SUSCEPTIBLE | | SUSCEPTIBLE | | | | EPSILOMETER | 3 | VISIT 3 | 2005-07-01T08:00 |", "score": 0.7633, "match_basis": "verbatim_token+global_search"}, {"md_atom_id": "md_dmMS_ex_a033", "md_file": "knowledge_base/domains/MS/examples.md", "md_atom_type": "TABLE_ROW", "md_parent_section": "§MS.2 [Example 2]", "md_verbatim": "| 6 | ABC | MS | ABC-001-001 | KLEBSIELLA PNEUMONIAE | | 6 | SP02 | MICROSUS | Microbial Susceptibility | Sponsor Drug | SUSCEPTIBLE | | SUSCEPTIBLE | | | | EPSILOMETER | 2 | VISIT 2 | 2005-06-26T08:00 |", "score": 0.6698, "match_basis": "verbatim_token+global_search"}, {"md_atom_id": "md_dmMS_ex_a031", "md_file": "knowledge_base/domains/MS/examples.md", "md_atom_type": "TABLE_ROW", "md_parent_section": "§MS.2 [Example 2]", "md_verbatim": "| 4 | ABC | MS | ABC-001-001 | STREPTOCOCCUS PNEUMONIAE | | 4 | SP01 | MICROSUS | Microbial Susceptibility | Penicillin | RESISTANT | | RESISTANT | | | | EPSILOMETER | 1 | VISIT 1 | 2005-06-19T08:00 |", "score": 0.6284, "match_basis": "verbatim_token+global_search"}, {"md_atom_id": "md_dmMS_ex_a029", "md_file": "knowledge_base/domains/MS/examples.md", "md_atom_type": "TABLE_ROW", "md_parent_section": "§MS.2 [Example 2]", "md_verbatim": "| 2 | ABC | MS | ABC-001-001 | STREPTOCOCCUS PNEUMONIAE | | 2 | SP01 | MICROSUS | Microbial Susceptibility | Sponsor Drug | SUSCEPTIBLE | | SUSCEPTIBLE | | | | EPSILOMETER | 1 | VISIT 1 | 2005-06-19T08:00 |", "score": 0.5722, "match_basis": "verbatim_token+global_search"}], "candidate_count": 5, "zero_candidate": false}
{"pdf_atom_id": "ig34_p0259_a017", "pdf_atom_type": "HEADING", "pdf_source": "SDTMIG_v3.4", "pdf_page": 259, "pdf_parent_section": "§6.3.5.7.3 Microbiology Specimen/Microbiology Susceptibility Examples", "pdf_verbatim": "Example 3", "figure_ref": null, "candidates": [{"md_atom_id": "md_dmCM_ex_a002", "md_file": "knowledge_base/domains/CM/examples.md", "md_atom_type": "HEADING", "md_parent_section": "§CM.1 [Example 1]", "md_verbatim": "## Example 1", "score": 0.9, "match_basis": "verbatim_token+global_search"}, {"md_atom_id": "md_dmCM_ex_a022", "md_file": "knowledge_base/domains/CM/examples.md", "md_atom_type": "HEADING", "md_parent_section": "§CM.2 [Example 2]", "md_verbatim": "## Example 2", "score": 0.9, "match_basis": "verbatim_token+global_search"}, {"md_atom_id": "md_dmCM_ex_a029", "md_file": "knowledge_base/domains/CM/examples.md", "md_atom_type": "HEADING", "md_parent_section": "§CM.3 [Example 3]", "md_verbatim": "## Example 3", "score": 0.9, "match_basis": "verbatim_token+global_search"}, {"md_atom_id": "md_dmCM_ex_a047", "md_file": "knowledge_base/domains/CM/examples.md", "md_atom_type": "HEADING", "md_parent_section": "§CM.4 [Example 4]", "md_verbatim": "## Example 4", "score": 0.9, "match_basis": "verbatim_token+global_search"}, {"md_atom_id": "md_dmCM_ex_a060", "md_file": "knowledge_base/domains/CM/examples.md", "md_atom_type": "HEADING", "md_parent_section": "§CM.5 [Example 5]", "md_verbatim": "## Example 5", "score": 0.9, "match_basis": "verbatim_token+global_search"}, {"md_atom_id": "md_ch08_a292", "md_file": "knowledge_base/chapters/ch08_relationships.md", "md_atom_type": "HEADING", "md_parent_section": "§8.7 [Related Subjects (RELSUB)]", "md_verbatim": "### Example", "score": 0.9, "match_basis": "verbatim_token+global_search"}, {"md_atom_id": "md_ch08_a331", "md_file": "knowledge_base/chapters/ch08_relationships.md", "md_atom_type": "HEADING", "md_parent_section": "§8.8 [Related Specimens (RELSPEC)]", "md_verbatim": "### Example", "score": 0.9, "match_basis": "verbatim_token+global_search"}, {"md_atom_id": "md_dmAE_ex_a002", "md_file": "knowledge_base/domains/AE/examples.md", "md_atom_type": "HEADING", "md_parent_section": "§AE.1 [Example 1]", "md_verbatim": "## Example 1", "score": 0.9, "match_basis": "verbatim_token+global_search"}, {"md_atom_id": "md_dmAE_ex_a020", "md_file": "knowledge_base/domains/AE/examples.md", "md_atom_type": "HEADING", "md_parent_section": "§AE.2 [Example 2]", "md_verbatim": "## Example 2", "score": 0.9, "match_basis": "verbatim_token+global_search"}, {"md_atom_id": "md_dmAE_ex_a035", "md_file": "knowledge_base/domains/AE/examples.md", "md_atom_type": "HEADING", "md_parent_section": "§AE.3 [Example 3]", "md_verbatim": "## Example 3", "score": 0.9, "match_basis": "verbatim_token+global_search"}], "candidate_count": 10, "zero_candidate": false}
{"pdf_atom_id": "ig34_p0259_a018", "pdf_atom_type": "SENTENCE", "pdf_source": "SDTMIG_v3.4", "pdf_page": 259, "pdf_parent_section": "§6.3.5.7.3 Microbiology Specimen/Microbiology Susceptibility Examples", "pdf_verbatim": "This example shows the microorganisms detected from a gastric aspirate specimen from a child with suspected tuberculosis (TB). In this example, gastric lavage is only performed once. Three records in the MB domain store detection records for 2 levels of detection: acid-fast bacilli, and Mycobacterium tuberculosis (Mtb). Characteristics from a culture on solid media that support the presumptive detection of Mtb are also represented in MB. The susceptibility results from both the nucleic acid amplification test (NAAT) and the solid culture are represented in the MS domain.", "figure_ref": null, "candidates": [{"md_atom_id": "md_dmMB_ex_a067", "md_file": "knowledge_base/domains/MB/examples.md", "md_atom_type": "SENTENCE", "md_parent_section": "§MB.3 [Example 3]", "md_verbatim": "This example shows the microorganisms detected from a gastric aspirate specimen from a child with suspected tuberculosis (TB).", "score": 0.5021, "match_basis": "verbatim_token+global_search"}, {"md_atom_id": "md_dmMB_ex_a071", "md_file": "knowledge_base/domains/MB/examples.md", "md_atom_type": "SENTENCE", "md_parent_section": "§MB.3 [Example 3]", "md_verbatim": "The susceptibility results from both the nucleic acid amplification test (NAAT) and the solid culture are represented in the MS domain.", "score": 0.5021, "match_basis": "verbatim_token+global_search"}, {"md_atom_id": "md_dmMB_ex_a130", "md_file": "knowledge_base/domains/MB/examples.md", "md_atom_type": "SENTENCE", "md_parent_section": "§MB.3 [Example 3]", "md_verbatim": "**Row 4:** Shows a test targeting the presence or absence of M. tuberculosis performed on a solid culture. The medium type and microbial detection certainty are represented as supplemental qualifier. Because genotyping was not used, the detection is considered to be presumptive. The culture start and stop dates are represented in BE and are connected to the culture results via BELNKID and MBLNKGRP. MBGRPID is used to connect the detection record in MB with the corresponding culture characteristics shown in rows 5-7.", "score": 0.4957, "match_basis": "verbatim_token+global_search"}, {"md_atom_id": "md_dmMB_ex_a070", "md_file": "knowledge_base/domains/MB/examples.md", "md_atom_type": "SENTENCE", "md_parent_section": "§MB.3 [Example 3]", "md_verbatim": "Characteristics from a culture on solid media that support the presumptive detection of Mtb are also represented in MB.", "score": 0.4896, "match_basis": "verbatim_token+global_search"}, {"md_atom_id": "md_dmMB_ex_a069", "md_file": "knowledge_base/domains/MB/examples.md", "md_atom_type": "SENTENCE", "md_parent_section": "§MB.3 [Example 3]", "md_verbatim": "Three records in the MB domain store detection records for 2 levels of detection: acid-fast bacilli, and Mycobacterium tuberculosis (Mtb).", "score": 0.4803, "match_basis": "verbatim_token+global_search"}], "candidate_count": 5, "zero_candidate": false}
{"pdf_atom_id": "ig34_p0259_a019", "pdf_atom_type": "SENTENCE", "pdf_source": "SDTMIG_v3.4", "pdf_page": 259, "pdf_parent_section": "§6.3.5.7.3 Microbiology Specimen/Microbiology Susceptibility Examples", "pdf_verbatim": "Specimen processing events included sample collection, preparation, and culturing; these events are represented in the BE domain. For TB studies, each sample needs a separate identifier to link it to further actions or characteristics of the sample. Therefore, each aliquot is assigned a unique BEREFID value that can be traced to the BEREFID value assigned to the collected \"parent\" sample. BEREFID is also used to connect the BE and Biospecimen Findings (BS) domains (via BSREFID), as well as any results obtained from the sample that are in the MB or MS domains (via MBREFID and MSREFID). If the same sample is used in many tests, the use of --REFID may result in a potentially undesirable many-to-many merge; users may need to make use of additional linking variables such as --LNKID and --LNKGRP. Information about the BE and BS domains including the specification tables, assumptions, and examples can be found in the Sections 6.2.2 and 6.3.5.2 of this document.", "figure_ref": null, "candidates": [{"md_atom_id": "md_dmMB_ex_a076", "md_file": "knowledge_base/domains/MB/examples.md", "md_atom_type": "SENTENCE", "md_parent_section": "§MB.3 [Example 3]", "md_verbatim": "If the same sample is used in many domains, the use of --REFID may result in a potentially undesirable many-to-many merge; users may need to make use of additional linking variables such as --LNKID and --LNKGRP.", "score": 0.4861, "match_basis": "verbatim_token+global_search"}, {"md_atom_id": "md_dmRELREC_ex_a040", "md_file": "knowledge_base/domains/RELREC/examples.md", "md_atom_type": "SENTENCE", "md_parent_section": "§RELREC.2.1 [Example 1]", "md_verbatim": "In the sponsor's operational database, these datasets may have existed as either separate datasets that were merged for analysis, or a single dataset that may have included observations from more than 1 general observation class (e.g., Events and Findings). The value in IDVAR must be the name of the key used to merge/join the 2 datasets. In this example, the --LNKID variable is used as the key to identify the related observations. The values for the --LNKID variable in the 2 datasets are sponsor-defined. Although other variables may also serve as a single merge key when the corresponding values for IDVAR are equal, --GRPID, --SPID, --REFID, --LNKID, or --LNKGRP are typically used for this purpose.", "score": 0.4658, "match_basis": "verbatim_token+global_search"}, {"md_atom_id": "md_dmNV_ex_a026", "md_file": "knowledge_base/domains/NV/examples.md", "md_atom_type": "SENTENCE", "md_parent_section": "§NV.1 [Example 1]", "md_verbatim": "In this example, the sponsor has maintained 2 sets of reference identifiers (REFID values) for the specific purpose of being able to relate records across multiple domains. Because the SDTMIG-MD advocates the use of --REFID to link a group of settings to the results obtained from the reading or interpretation of the test (see SDTMIG-MD, Device-in-Use (DU) domain assumptions), --LNKID has been used to establish the relationships between the procedure, the substance administered during the procedure, and the results obtained from the procedure. --LNKID is unique for each procedure for each subject, so datasets may be related to each other as a whole.", "score": 0.4632, "match_basis": "verbatim_token+global_search"}, {"md_atom_id": "md_dmCP_ex_a006", "md_file": "knowledge_base/domains/CP/examples.md", "md_atom_type": "SENTENCE", "md_parent_section": "§CP.1 [Example 1]", "md_verbatim": "Example 1b, in addition to including the expected CPMRKSTR variable, introduces 2 additional variables: CPGATE and CPGATDEF. These variables convey gating information used in data collection and/or analyses, and are often needed to fully understand a test. Typically, either the full gating strategy or the penultimate gate is identified. Because different gating strategies for the same test can yield somewhat different test results, the CPGATE and CPGATDEF variables provide the means for transmitting this information at the test (i.e., record) level.", "score": 0.462, "match_basis": "verbatim_token+global_search"}, {"md_atom_id": "md_dmMB_ex_a082", "md_file": "knowledge_base/domains/MB/examples.md", "md_atom_type": "SENTENCE", "md_parent_section": "§MB.3 [Example 3]", "md_verbatim": "**Rows 2-6:** Show that the sample was aliquoted (i.e., smaller subsamples were portioned out from the parent sample) and each separate aliquot assigned a unique BEREFID. In such cases, BEREFID is an incremented decimal value with the original sample's BEREFID (when BECAT=\"COLLECTION\") as the base number. (This is not an explicit requirement, but makes tracking the samples easier.) The definitive link between parent-child samples is defined by the PARENT variable shown in the RELSPEC dataset.", "score": 0.4606, "match_basis": "verbatim_token+global_search"}], "candidate_count": 5, "zero_candidate": false}
{"pdf_atom_id": "ig34_p0259_a020", "pdf_atom_type": "SENTENCE", "pdf_source": "SDTMIG_v3.4", "pdf_page": 259, "pdf_parent_section": "§6.3.5.7.3 Microbiology Specimen/Microbiology Susceptibility Examples", "pdf_verbatim": "In the BE, BS, MB, and MS domains, --DTC represents the date of sample collection. --LNKID and --LNKGRP are used to link culture start and stop dates (BE) with culture results (MB and MS).", "figure_ref": null, "candidates": [{"md_atom_id": "md_dmMB_ex_a079", "md_file": "knowledge_base/domains/MB/examples.md", "md_atom_type": "SENTENCE", "md_parent_section": "§MB.3 [Example 3]", "md_verbatim": "--LNKID and --LNKGRP are used to link culture start and stop dates (BE) with culture results in MB and MS.", "score": 0.6263, "match_basis": "verbatim_token+global_search"}, {"md_atom_id": "md_dmMB_ex_a078", "md_file": "knowledge_base/domains/MB/examples.md", "md_atom_type": "SENTENCE", "md_parent_section": "§MB.3 [Example 3]", "md_verbatim": "In the BE, BS, MB, and MS domains, --DTC represents the date of sample collection.", "score": 0.6158, "match_basis": "verbatim_token+global_search"}, {"md_atom_id": "md_dmMB_ex_a121", "md_file": "knowledge_base/domains/MB/examples.md", "md_atom_type": "SENTENCE", "md_parent_section": "§MB.3 [Example 3]", "md_verbatim": "Results from detection tests performed on samples are represented in the MB domain.", "score": 0.5108, "match_basis": "verbatim_token+global_search"}, {"md_atom_id": "md_dmMB_ex_a072", "md_file": "knowledge_base/domains/MB/examples.md", "md_atom_type": "SENTENCE", "md_parent_section": "§MB.3 [Example 3]", "md_verbatim": "Specimen processing events included sample collection, preparation, and culturing; these events are represented in the BE domain.", "score": 0.509, "match_basis": "verbatim_token+global_search"}, {"md_atom_id": "md_dmMK_ex_a009", "md_file": "knowledge_base/domains/MK/examples.md", "md_atom_type": "SENTENCE", "md_parent_section": "§MK.1 [Example 1]", "md_verbatim": "The data collected are represented in the MK domain.", "score": 0.4869, "match_basis": "verbatim_token+global_search"}], "candidate_count": 5, "zero_candidate": false}
{"pdf_atom_id": "ig34_p0259_a021", "pdf_atom_type": "LIST_ITEM", "pdf_source": "SDTMIG_v3.4", "pdf_page": 259, "pdf_parent_section": "§6.3.5.7.3 Microbiology Specimen/Microbiology Susceptibility Examples", "pdf_verbatim": "Row 1: Shows the event of specimen collection. This is the genesis of the sample identified by BEREFID=\"100\"; therefore, BEDTC and BESTDTC are the same. The specimen collection setting, collection method, and specimen type are represented using supplemental qualifiers. Even though the variable Specimen Type is available for use in Findings domains, it is not available for use in Events domains and thus it is represented as supplemental qualifier.", "figure_ref": null, "candidates": [{"md_atom_id": "md_dmMB_ex_a081", "md_file": "knowledge_base/domains/MB/examples.md", "md_atom_type": "SENTENCE", "md_parent_section": "§MB.3 [Example 3]", "md_verbatim": "**Row 1:** Shows the event of specimen collection. This is the genesis of the sample identified by BEREFID=\"100\"; therefore, BEDTC and BESTDTC are the same. The specimen collection setting, collection method, and specimen type are represented using supplemental qualifiers. Even though the variable Specimen Type is available for use in Findings domains, it is not available for use in Events domains and thus it is represented as supplemental qualifier.", "score": 0.81, "match_basis": "verbatim_token+global_search"}, {"md_atom_id": "md_dmHO_assn_a007", "md_file": "knowledge_base/domains/HO/assumptions.md", "md_atom_type": "LIST_ITEM", "md_parent_section": "§HO [HO — Assumptions]", "md_verbatim": "4. If collected data includes the name of the provider or the facility where the encounter took place, this may be represented using the supplemental qualifier with QNAM = \"HONAM\". Note that --NAM is a Findings class variable, so is not a standard variable for HO, which is an Events class domain.", "score": 0.508, "match_basis": "verbatim_token+global_search"}, {"md_atom_id": "md_dmEC_assn_a016", "md_file": "knowledge_base/domains/EC/assumptions.md", "md_atom_type": "LIST_ITEM", "md_parent_section": "§EC [EC — Assumptions]", "md_verbatim": "   a. The record qualifier --OCCUR, with value of \"N\", is available in domains based on the Interventions and Events General Observation Classes as the standard way to represent whether an intervention or event did not happen. In the EC domain, ECOCCUR value of \"N\" indicates a dose was not taken, not given, or missed. For example, if zero tablets are taken within a timeframe or zero mL is infused at a visit, then ECOCCUR = \"N\" is the standard representation of the collected doses not taken, not given, or missed. Dose amount variables (e.g., ECDOSE, ECDOSTXT) must not be set to zero (0) as an alternative method for indicating doses not taken, not given, or missed.", "score": 0.4805, "match_basis": "verbatim_token+global_search"}, {"md_atom_id": "md_model06_a007", "md_file": "knowledge_base/model/06_relationship_datasets.md", "md_atom_type": "LIST_ITEM", "md_parent_section": "§ Overview", "md_verbatim": "- **Supplemental Qualifiers Dataset** — represents dependent relationships where data cannot be represented by a standard variable", "score": 0.464, "match_basis": "verbatim_token+global_search"}, {"md_atom_id": "md_ch08_a274", "md_file": "knowledge_base/chapters/ch08_relationships.md", "md_atom_type": "LIST_ITEM", "md_parent_section": "§8.6.3 [Guidelines for Differentiating Between Interventions, Events, Findings, and Findings About Events or Interventions]", "md_verbatim": "- If the data item contains information about the event, then the choices for representing it are a supplemental qualifier or in an FA record. The data should be represented as a supplemental qualifier unless circumstances rule out the use of a supplemental qualifier. If a supplemental qualifier is not appropriate, the data may be stored in FA. See Section 6.4.1, When to Use Findings About Events or Interventions.", "score": 0.4636, "match_basis": "verbatim_token+global_search"}], "candidate_count": 5, "zero_candidate": false}
{"pdf_atom_id": "ig34_p0260_a001", "pdf_atom_type": "LIST_ITEM", "pdf_source": "SDTMIG_v3.4", "pdf_page": 260, "pdf_parent_section": "§6.3.5.7.3 Microbiology Specimen/Microbiology Susceptibility Examples", "pdf_verbatim": "Rows 2-6: Show that the sample was aliquoted (i.e., smaller subsamples were portioned out from the parent sample) and each separate aliquot assigned a unique BEREFID. In such cases, BEREFID is an incremented decimal value with the original sample's BEREFID (when BECAT=\"COLLECTION\") as the base number. (This is not an explicit requirement, but makes tracking the samples easier.) The definitive link between parent-child samples is defined by the PARENT variable shown in the RELSPEC dataset.", "figure_ref": null, "candidates": [{"md_atom_id": "md_dmMB_ex_a082", "md_file": "knowledge_base/domains/MB/examples.md", "md_atom_type": "SENTENCE", "md_parent_section": "§MB.3 [Example 3]", "md_verbatim": "**Rows 2-6:** Show that the sample was aliquoted (i.e., smaller subsamples were portioned out from the parent sample) and each separate aliquot assigned a unique BEREFID. In such cases, BEREFID is an incremented decimal value with the original sample's BEREFID (when BECAT=\"COLLECTION\") as the base number. (This is not an explicit requirement, but makes tracking the samples easier.) The definitive link between parent-child samples is defined by the PARENT variable shown in the RELSPEC dataset.", "score": 0.81, "match_basis": "verbatim_token+global_search"}, {"md_atom_id": "md_dmMB_assn_a013", "md_file": "knowledge_base/domains/MB/assumptions.md", "md_atom_type": "LIST_ITEM", "md_parent_section": "§MB [MB — Assumptions]", "md_verbatim": "3. If the specimen was cultured, the start and end date of culture are represented in the Biospecimen Events (BE) domain in BESTDTC and BEENDTC respectively. The variable --REFID represents the sample ID as originally assigned in the BE domain. See BE domain assumptions in the SDTMIG v3.4, section 6.2.2, for guidelines on assigning --REFID values to samples and subsamples.", "score": 0.4507, "match_basis": "verbatim_token+global_search"}, {"md_atom_id": "md_dmDM_assn_a025", "md_file": "knowledge_base/domains/DM/assumptions.md", "md_atom_type": "LIST_ITEM", "md_parent_section": "§DM [DM — Assumptions]", "md_verbatim": "9. As described in Section 4.1.4, Order of the Variables, RFSTDTC is used to calculate study day variables. RFSTDTC is usually defined as the date/time when a subject was first exposed to study drug. This definition applies for most interventional studies, when the start of treatment is the natural and preferred starting point for study day variables and thus the logical value for RFSTDTC. In such studies, when data are submitted for subjects who are ineligible for treatment (e.g., screen failures with ARMNRS = \"SCREEN FAILURE\"), subjects who were enrolled but not assigned to an arm (e.g., ARMNRS = \"NOT ASSIGNED\"), or subjects who were randomized but not treated (e.g., ARMNRS = \"NOT TREATED\"), RFSTDTC will be null. For studies with designs that include a substantial portion of subjects who are not expected to be treated, a different protocol milestone may be chosen as the starting point for study day variables. Some examples include non-interventional or observational studies, studies with a no-treatment arm, and studies where there is a delay between randomization and treatment.", "score": 0.4408, "match_basis": "verbatim_token+global_search"}, {"md_atom_id": "md_dmMS_assn_a010", "md_file": "knowledge_base/domains/MS/assumptions.md", "md_atom_type": "LIST_ITEM", "md_parent_section": "§MS [MS — Assumptions]", "md_verbatim": "3. If the specimen was cultured, the start and end date of culture are represented in the Biospecimen Events (BE) domain in BESTDTC and BEENDTC respectively. --REFID represents the sample ID as originally assigned in the BE domain. See BE domain assumptions in the SDTMIG v3.4, Section 6.2.2, for guidelines on assigning --REFID values to samples and subsamples.", "score": 0.4348, "match_basis": "verbatim_token+global_search"}, {"md_atom_id": "md_dmSV_assn_a011", "md_file": "knowledge_base/domains/SV/assumptions.md", "md_atom_type": "LIST_ITEM", "md_parent_section": "§SV [SV — Assumptions]", "md_verbatim": "6. Records for unplanned visits should be included in the SV dataset. For unplanned visits, SVUPDES can be populated with a description of the reason for the unplanned visit. Some judgment may be required to determine what constitutes an unplanned visit. When data are collected outside a planned visit, that act of collecting data may or may not be described as a \"visit.\" The encounter should generally be treated as a visit if data from the encounter are included in any domain for which VISITNUM is included; a record with a missing value for VISITNUM is generally less useful than a record with VISITNUM populated. If the occasion is considered a visit, its date/times must be included in the SV table and a value of VISITNUM must be assigned. Refer to Section 4.4.5, Clinical Encounters and Visits, for information on the population of visit variables for unplanned visits.", "score": 0.4291, "match_basis": "verbatim_token+global_search"}], "candidate_count": 5, "zero_candidate": false}
{"pdf_atom_id": "ig34_p0260_a002", "pdf_atom_type": "LIST_ITEM", "pdf_source": "SDTMIG_v3.4", "pdf_page": 260, "pdf_parent_section": "§6.3.5.7.3 Microbiology Specimen/Microbiology Susceptibility Examples", "pdf_verbatim": "Rows 7-9: Show that 3 of the aliquots (100.3, 100.4, and 100.5) were cultured for detection (row 7) and tested for drug susceptibility (rows 8 and 9). The inoculation and read dates of a culture should be represented in BESTDTC and BEENDTC, respectively. These dates can be linked to the culture results in MB and MS using BELNKID, MBLNKGRP, and MSLNKID.", "figure_ref": null, "candidates": [{"md_atom_id": "md_dmMB_ex_a083", "md_file": "knowledge_base/domains/MB/examples.md", "md_atom_type": "SENTENCE", "md_parent_section": "§MB.3 [Example 3]", "md_verbatim": "**Rows 7-9:** Show that 3 of the aliquots (100.3, 100.4, and 100.5) were cultured for detection (row 7) and tested for drug susceptibility (rows 8 and 9). The inoculation and read dates of a culture should be represented in BESTDTC and BEENDTC, respectively. These dates can be linked to the culture results in MB and MS using BELNKID, MBLNKGRP, and MSLNKID.", "score": 0.81, "match_basis": "verbatim_token+global_search"}, {"md_atom_id": "md_dmMS_assn_a004", "md_file": "knowledge_base/domains/MS/assumptions.md", "md_atom_type": "LIST_ITEM", "md_parent_section": "§MS [MS — Assumptions]", "md_verbatim": "      i. For studies using qualitative testing methods, MSAGENT, MSCONC, and MSCONCU are used to represent the predefined drug, concentration, and units, respectively. Results are represented with values such as \"SUSCEPTIBLE\" or \"RESISTANT\".", "score": 0.4617, "match_basis": "verbatim_token+global_search"}, {"md_atom_id": "md_dmMS_assn_a010", "md_file": "knowledge_base/domains/MS/assumptions.md", "md_atom_type": "LIST_ITEM", "md_parent_section": "§MS [MS — Assumptions]", "md_verbatim": "3. If the specimen was cultured, the start and end date of culture are represented in the Biospecimen Events (BE) domain in BESTDTC and BEENDTC respectively. --REFID represents the sample ID as originally assigned in the BE domain. See BE domain assumptions in the SDTMIG v3.4, Section 6.2.2, for guidelines on assigning --REFID values to samples and subsamples.", "score": 0.4458, "match_basis": "verbatim_token+global_search"}, {"md_atom_id": "md_dmMB_assn_a013", "md_file": "knowledge_base/domains/MB/assumptions.md", "md_atom_type": "LIST_ITEM", "md_parent_section": "§MB [MB — Assumptions]", "md_verbatim": "3. If the specimen was cultured, the start and end date of culture are represented in the Biospecimen Events (BE) domain in BESTDTC and BEENDTC respectively. The variable --REFID represents the sample ID as originally assigned in the BE domain. See BE domain assumptions in the SDTMIG v3.4, section 6.2.2, for guidelines on assigning --REFID values to samples and subsamples.", "score": 0.441, "match_basis": "verbatim_token+global_search"}, {"md_atom_id": "md_dmGF_assn_a007", "md_file": "knowledge_base/domains/GF/assumptions.md", "md_atom_type": "LIST_ITEM", "md_parent_section": "§GF [GF — Assumptions]", "md_verbatim": "   d. If the test provides both genetic data and susceptibility/resistance data, genetic data should be represented in GF and the susceptibility/resistance data should be represented in the MS domain (See Section 6.3.5.7.2, Microbiology Susceptibility, assumption 1b for more information).", "score": 0.4367, "match_basis": "verbatim_token+global_search"}], "candidate_count": 5, "zero_candidate": false}
{"pdf_atom_id": "ig34_p0260_a003", "pdf_atom_type": "LIST_ITEM", "pdf_source": "SDTMIG_v3.4", "pdf_page": 260, "pdf_parent_section": "§6.3.5.7.3 Microbiology Specimen/Microbiology Susceptibility Examples", "pdf_verbatim": "Row 10: Shows that sample 100.1 was concentrated.", "figure_ref": null, "candidates": [{"md_atom_id": "md_dmMB_ex_a084", "md_file": "knowledge_base/domains/MB/examples.md", "md_atom_type": "SENTENCE", "md_parent_section": "§MB.3 [Example 3]", "md_verbatim": "**Row 10:** Shows that sample 100.1 was concentrated.", "score": 0.81, "match_basis": "verbatim_token+global_search"}, {"md_atom_id": "md_dmDM_assn_a013", "md_file": "knowledge_base/domains/DM/assumptions.md", "md_atom_type": "LIST_ITEM", "md_parent_section": "§DM [DM — Assumptions]", "md_verbatim": "      i. Example 1 below shows how to handle a subject who was a screen failure and was never treated.", "score": 0.4038, "match_basis": "verbatim_token+global_search"}, {"md_atom_id": "md_dmPC_ex_a447", "md_file": "knowledge_base/domains/PC/examples.md", "md_atom_type": "LIST_ITEM", "md_parent_section": "§PC [PC — Examples]", "md_verbatim": "2. Do all parameters use the same concentrations, although maybe not all of them (Example 2)? If so, create a single PPGRPID value for all PP records, and 2 PCGRPID values for the PC records: a PCGRPID value for ones that were used and a PCGRPID value for those that were not used. Create records in RELREC for each PCGRPID value and each PPGRPID value (method A). Use RELID to show which PCGRPID and PPGRPID records are related. Consider RELREC methods B, C, and D as applicable.", "score": 0.3982, "match_basis": "verbatim_token+global_search"}, {"md_atom_id": "md_dmDM_assn_a012", "md_file": "knowledge_base/domains/DM/assumptions.md", "md_atom_type": "LIST_ITEM", "md_parent_section": "§DM [DM — Assumptions]", "md_verbatim": "   c. Examples illustrating the arm-related variables", "score": 0.3955, "match_basis": "verbatim_token+global_search"}, {"md_atom_id": "md_ch04_a841", "md_file": "knowledge_base/chapters/ch04_general_assumptions.md", "md_atom_type": "LIST_ITEM", "md_parent_section": "§4.5.1.3 [Examples of Original and Standard Units and Test Not Done]", "md_verbatim": "- **Row 7:** A result was derived from multiple results, so LBDRVFL = \"Y\". Note that the original collected data are not shown in this example.", "score": 0.3909, "match_basis": "verbatim_token+global_search"}], "candidate_count": 5, "zero_candidate": false}
{"pdf_atom_id": "ig34_p0260_a004", "pdf_atom_type": "CODE_LITERAL", "pdf_source": "SDTMIG_v3.4", "pdf_page": 260, "pdf_parent_section": "§6.3.5.7.3 Microbiology Specimen/Microbiology Susceptibility Examples", "pdf_verbatim": "be.xpt", "figure_ref": null, "candidates": [{"md_atom_id": "md_ch04_a207", "md_file": "knowledge_base/chapters/ch04_general_assumptions.md", "md_atom_type": "CODE_LITERAL", "md_parent_section": "§4.2.3 [Use of \"Subject\" and USUBJID]", "md_verbatim": "dm.xpt:", "score": 0.69, "match_basis": "verbatim_token+global_search"}, {"md_atom_id": "md_ch04_a210", "md_file": "knowledge_base/chapters/ch04_general_assumptions.md", "md_atom_type": "CODE_LITERAL", "md_parent_section": "§4.2.3 [Use of \"Subject\" and USUBJID]", "md_verbatim": "dm.xpt:", "score": 0.69, "match_basis": "verbatim_token+global_search"}, {"md_atom_id": "md_dmCM_ex_a010", "md_file": "knowledge_base/domains/CM/examples.md", "md_atom_type": "NOTE", "md_parent_section": "§CM.1 [Example 1]", "md_verbatim": "**cm.xpt**", "score": 0.69, "match_basis": "verbatim_token+global_search"}, {"md_atom_id": "md_dmCM_ex_a025", "md_file": "knowledge_base/domains/CM/examples.md", "md_atom_type": "NOTE", "md_parent_section": "§CM.2 [Example 2]", "md_verbatim": "**cm.xpt**", "score": 0.69, "match_basis": "verbatim_token+global_search"}, {"md_atom_id": "md_dmCM_ex_a042", "md_file": "knowledge_base/domains/CM/examples.md", "md_atom_type": "NOTE", "md_parent_section": "§CM.3 [Example 3]", "md_verbatim": "**cm.xpt**", "score": 0.69, "match_basis": "verbatim_token+global_search"}, {"md_atom_id": "md_dmCM_ex_a052", "md_file": "knowledge_base/domains/CM/examples.md", "md_atom_type": "NOTE", "md_parent_section": "§CM.4 [Example 4]", "md_verbatim": "**cm.xpt**", "score": 0.69, "match_basis": "verbatim_token+global_search"}, {"md_atom_id": "md_dmCM_ex_a070", "md_file": "knowledge_base/domains/CM/examples.md", "md_atom_type": "NOTE", "md_parent_section": "§CM.5 [Example 5]", "md_verbatim": "**cm.xpt**", "score": 0.69, "match_basis": "verbatim_token+global_search"}, {"md_atom_id": "md_ch04_a368", "md_file": "knowledge_base/chapters/ch04_general_assumptions.md", "md_atom_type": "CODE_LITERAL", "md_parent_section": "§4.2.8.3 [Multiple Values for a Non-result Qualifier Variable]", "md_verbatim": "ae.xpt:", "score": 0.69, "match_basis": "verbatim_token+global_search"}, {"md_atom_id": "md_ch04_a378", "md_file": "knowledge_base/chapters/ch04_general_assumptions.md", "md_atom_type": "CODE_LITERAL", "md_parent_section": "§4.2.8.3 [Multiple Values for a Non-result Qualifier Variable]", "md_verbatim": "ae.xpt:", "score": 0.69, "match_basis": "verbatim_token+global_search"}, {"md_atom_id": "md_ch04_a391", "md_file": "knowledge_base/chapters/ch04_general_assumptions.md", "md_atom_type": "CODE_LITERAL", "md_parent_section": "§4.2.8.3 [Multiple Values for a Non-result Qualifier Variable]", "md_verbatim": "ae.xpt:", "score": 0.69, "match_basis": "verbatim_token+global_search"}], "candidate_count": 10, "zero_candidate": false}
{"pdf_atom_id": "ig34_p0260_a005", "pdf_atom_type": "TABLE_HEADER", "pdf_source": "SDTMIG_v3.4", "pdf_page": 260, "pdf_parent_section": "§6.3.5.7.3 Microbiology Specimen/Microbiology Susceptibility Examples", "pdf_verbatim": "Row | STUDYID | DOMAIN | USUBJID | BESEQ | BEREFID | BELNKID | BETERM | BECAT | BEDTC | BESTDTC | BEENDTC", "figure_ref": null, "candidates": [{"md_atom_id": "md_dmMB_ex_a086", "md_file": "knowledge_base/domains/MB/examples.md", "md_atom_type": "TABLE_HEADER", "md_parent_section": "§MB.3 [Example 3]", "md_verbatim": "| Row | STUDYID | DOMAIN | USUBJID | BESEQ | BEREFID | BELNKID | BETERM | BECAT | BEDTC | BESTDTC | BEENDTC |\n|-----|---------|--------|---------|-------|---------|---------|--------|-------|-------|---------|---------|", "score": 0.9, "match_basis": "verbatim_token+global_search"}, {"md_atom_id": "md_dmMB_ex_a033", "md_file": "knowledge_base/domains/MB/examples.md", "md_atom_type": "TABLE_HEADER", "md_parent_section": "§MB.2 [Example 2]", "md_verbatim": "| Row | STUDYID | DOMAIN | USUBJID | BESEQ | BEREFID | BETERM | BEDTC |\n|-----|---------|--------|---------|-------|---------|--------|-------|", "score": 0.7, "match_basis": "verbatim_token+global_search"}, {"md_atom_id": "md_dmBE_ex_a062", "md_file": "knowledge_base/domains/BE/examples.md", "md_atom_type": "TABLE_HEADER", "md_parent_section": "§BE.2 [Example 2]", "md_verbatim": "| Row | STUDYID | DOMAIN | USUBJID | SPDEVID | BESEQ | BEREFID | BETERM | BEDECOD | BEPARTY | BEPRTYID | BECAT | VISITNUM | BEDTC | BESTDTC | BEENDTC |\n|-----|---------|--------|---------|---------|-------|---------|--------|---------|---------|----------|-------|----------|-------|---------|---------|", "score": 0.6529, "match_basis": "verbatim_token+global_search"}, {"md_atom_id": "md_dmBE_ex_a015", "md_file": "knowledge_base/domains/BE/examples.md", "md_atom_type": "TABLE_HEADER", "md_parent_section": "§BE.1 [Example 1]", "md_verbatim": "| Row | STUDYID | DOMAIN | USUBJID | SPDEVID | BESEQ | BEREFID | BETERM | BEDECOD | BEPARTY | BEPRTYID | BECAT | BELOC | VISITNUM | VISIT | BEDTC | BESTDTC | BEENDTC |\n|-----|---------|--------|---------|---------|-------|---------|--------|---------|---------|----------|-------|-------|----------|-------|-------|---------|---------|", "score": 0.6514, "match_basis": "verbatim_token+global_search"}, {"md_atom_id": "md_dmDM_ex_a031", "md_file": "knowledge_base/domains/DM/examples.md", "md_atom_type": "TABLE_HEADER", "md_parent_section": "§DM.2 [Example 2]", "md_verbatim": "| Row | STUDYID | DOMAIN | USUBJID | SESEQ | ETCD | ELEMENT | SESTDTC | SEENDTC |\n|-----|---------|--------|---------|-------|------|---------|---------|---------|", "score": 0.5667, "match_basis": "verbatim_token+global_search"}], "candidate_count": 5, "zero_candidate": false}
{"pdf_atom_id": "ig34_p0260_a006", "pdf_atom_type": "TABLE_ROW", "pdf_source": "SDTMIG_v3.4", "pdf_page": 260, "pdf_parent_section": "§6.3.5.7.3 Microbiology Specimen/Microbiology Susceptibility Examples", "pdf_verbatim": "1 | ABC | BE | ABC-01-101 | 1 | 100 | | Collecting | COLLECTION | 2011-01-17T06:00 | 2011-01-17T06:00 |", "figure_ref": null, "candidates": [{"md_atom_id": "md_dmMB_ex_a087", "md_file": "knowledge_base/domains/MB/examples.md", "md_atom_type": "TABLE_ROW", "md_parent_section": "§MB.3 [Example 3]", "md_verbatim": "| 1 | ABC | BE | ABC-01-101 | 1 | 100 | | Collecting | COLLECTION | 2011-01-17T06:00 | 2011-01-17T05:00 | |", "score": 0.8684, "match_basis": "verbatim_token+global_search"}, {"md_atom_id": "md_dmCE_ex_a059", "md_file": "knowledge_base/domains/CE/examples.md", "md_atom_type": "TABLE_ROW", "md_parent_section": "§CE.3 [Example 3]", "md_verbatim": "| Date of collection | -- / --- / -- |", "score": 0.54, "match_basis": "verbatim_token+global_search"}, {"md_atom_id": "md_ch04_a690", "md_file": "knowledge_base/chapters/ch04_general_assumptions.md", "md_atom_type": "TABLE_ROW", "md_parent_section": "§4.4.8 [Date and Time Reported in a Domain Based on Findings]", "md_verbatim": "| Single-point Collection | X | | |", "score": 0.525, "match_basis": "verbatim_token+global_search"}, {"md_atom_id": "md_dmMB_ex_a088", "md_file": "knowledge_base/domains/MB/examples.md", "md_atom_type": "TABLE_ROW", "md_parent_section": "§MB.3 [Example 3]", "md_verbatim": "| 2 | ABC | BE | ABC-01-101 | 2 | 100.1 | | Aliquoting | PREPARATION | 2011-01-17T06:00 | 2011-01-17T09:00 | |", "score": 0.525, "match_basis": "verbatim_token+global_search"}, {"md_atom_id": "md_dmMB_ex_a089", "md_file": "knowledge_base/domains/MB/examples.md", "md_atom_type": "TABLE_ROW", "md_parent_section": "§MB.3 [Example 3]", "md_verbatim": "| 3 | ABC | BE | ABC-01-101 | 3 | 100.2 | | Aliquoting | PREPARATION | 2011-01-17T06:00 | 2011-01-17T09:00 | |", "score": 0.525, "match_basis": "verbatim_token+global_search"}], "candidate_count": 5, "zero_candidate": false}
{"pdf_atom_id": "ig34_p0260_a007", "pdf_atom_type": "TABLE_ROW", "pdf_source": "SDTMIG_v3.4", "pdf_page": 260, "pdf_parent_section": "§6.3.5.7.3 Microbiology Specimen/Microbiology Susceptibility Examples", "pdf_verbatim": "2 | ABC | BE | ABC-01-101 | 2 | 100.1 | | Aliquoting | PREPARATION | 2011-01-17T06:00 | 2011-01-17T09:00 |", "figure_ref": null, "candidates": [{"md_atom_id": "md_dmMB_ex_a088", "md_file": "knowledge_base/domains/MB/examples.md", "md_atom_type": "TABLE_ROW", "md_parent_section": "§MB.3 [Example 3]", "md_verbatim": "| 2 | ABC | BE | ABC-01-101 | 2 | 100.1 | | Aliquoting | PREPARATION | 2011-01-17T06:00 | 2011-01-17T09:00 | |", "score": 0.9, "match_basis": "verbatim_token+global_search"}, {"md_atom_id": "md_dmMB_ex_a089", "md_file": "knowledge_base/domains/MB/examples.md", "md_atom_type": "TABLE_ROW", "md_parent_section": "§MB.3 [Example 3]", "md_verbatim": "| 3 | ABC | BE | ABC-01-101 | 3 | 100.2 | | Aliquoting | PREPARATION | 2011-01-17T06:00 | 2011-01-17T09:00 | |", "score": 0.9, "match_basis": "verbatim_token+global_search"}, {"md_atom_id": "md_dmMB_ex_a090", "md_file": "knowledge_base/domains/MB/examples.md", "md_atom_type": "TABLE_ROW", "md_parent_section": "§MB.3 [Example 3]", "md_verbatim": "| 4 | ABC | BE | ABC-01-101 | 4 | 100.3 | | Aliquoting | PREPARATION | 2011-01-17T06:00 | 2011-01-17T09:00 | |", "score": 0.9, "match_basis": "verbatim_token+global_search"}, {"md_atom_id": "md_dmMB_ex_a091", "md_file": "knowledge_base/domains/MB/examples.md", "md_atom_type": "TABLE_ROW", "md_parent_section": "§MB.3 [Example 3]", "md_verbatim": "| 5 | ABC | BE | ABC-01-101 | 5 | 100.4 | | Aliquoting | PREPARATION | 2011-01-17T06:00 | 2011-01-17T09:00 | |", "score": 0.9, "match_basis": "verbatim_token+global_search"}, {"md_atom_id": "md_dmMB_ex_a092", "md_file": "knowledge_base/domains/MB/examples.md", "md_atom_type": "TABLE_ROW", "md_parent_section": "§MB.3 [Example 3]", "md_verbatim": "| 6 | ABC | BE | ABC-01-101 | 6 | 100.5 | | Aliquoting | PREPARATION | 2011-01-17T06:00 | 2011-01-17T09:00 | |", "score": 0.9, "match_basis": "verbatim_token+global_search"}], "candidate_count": 5, "zero_candidate": false}
{"pdf_atom_id": "ig34_p0260_a008", "pdf_atom_type": "TABLE_ROW", "pdf_source": "SDTMIG_v3.4", "pdf_page": 260, "pdf_parent_section": "§6.3.5.7.3 Microbiology Specimen/Microbiology Susceptibility Examples", "pdf_verbatim": "3 | ABC | BE | ABC-01-101 | 3 | 100.2 | | Aliquoting | PREPARATION | 2011-01-17T06:00 | 2011-01-17T09:00 |", "figure_ref": null, "candidates": [{"md_atom_id": "md_dmMB_ex_a088", "md_file": "knowledge_base/domains/MB/examples.md", "md_atom_type": "TABLE_ROW", "md_parent_section": "§MB.3 [Example 3]", "md_verbatim": "| 2 | ABC | BE | ABC-01-101 | 2 | 100.1 | | Aliquoting | PREPARATION | 2011-01-17T06:00 | 2011-01-17T09:00 | |", "score": 0.9, "match_basis": "verbatim_token+global_search"}, {"md_atom_id": "md_dmMB_ex_a089", "md_file": "knowledge_base/domains/MB/examples.md", "md_atom_type": "TABLE_ROW", "md_parent_section": "§MB.3 [Example 3]", "md_verbatim": "| 3 | ABC | BE | ABC-01-101 | 3 | 100.2 | | Aliquoting | PREPARATION | 2011-01-17T06:00 | 2011-01-17T09:00 | |", "score": 0.9, "match_basis": "verbatim_token+global_search"}, {"md_atom_id": "md_dmMB_ex_a090", "md_file": "knowledge_base/domains/MB/examples.md", "md_atom_type": "TABLE_ROW", "md_parent_section": "§MB.3 [Example 3]", "md_verbatim": "| 4 | ABC | BE | ABC-01-101 | 4 | 100.3 | | Aliquoting | PREPARATION | 2011-01-17T06:00 | 2011-01-17T09:00 | |", "score": 0.9, "match_basis": "verbatim_token+global_search"}, {"md_atom_id": "md_dmMB_ex_a091", "md_file": "knowledge_base/domains/MB/examples.md", "md_atom_type": "TABLE_ROW", "md_parent_section": "§MB.3 [Example 3]", "md_verbatim": "| 5 | ABC | BE | ABC-01-101 | 5 | 100.4 | | Aliquoting | PREPARATION | 2011-01-17T06:00 | 2011-01-17T09:00 | |", "score": 0.9, "match_basis": "verbatim_token+global_search"}, {"md_atom_id": "md_dmMB_ex_a092", "md_file": "knowledge_base/domains/MB/examples.md", "md_atom_type": "TABLE_ROW", "md_parent_section": "§MB.3 [Example 3]", "md_verbatim": "| 6 | ABC | BE | ABC-01-101 | 6 | 100.5 | | Aliquoting | PREPARATION | 2011-01-17T06:00 | 2011-01-17T09:00 | |", "score": 0.9, "match_basis": "verbatim_token+global_search"}], "candidate_count": 5, "zero_candidate": false}
{"pdf_atom_id": "ig34_p0260_a009", "pdf_atom_type": "TABLE_ROW", "pdf_source": "SDTMIG_v3.4", "pdf_page": 260, "pdf_parent_section": "§6.3.5.7.3 Microbiology Specimen/Microbiology Susceptibility Examples", "pdf_verbatim": "4 | ABC | BE | ABC-01-101 | 4 | 100 | | Aliquoting | PREPARATION | 2011-01-17T06:00 | 2011-01-17T09:00 |", "figure_ref": null, "candidates": [{"md_atom_id": "md_dmMB_ex_a088", "md_file": "knowledge_base/domains/MB/examples.md", "md_atom_type": "TABLE_ROW", "md_parent_section": "§MB.3 [Example 3]", "md_verbatim": "| 2 | ABC | BE | ABC-01-101 | 2 | 100.1 | | Aliquoting | PREPARATION | 2011-01-17T06:00 | 2011-01-17T09:00 | |", "score": 0.9, "match_basis": "verbatim_token+global_search"}, {"md_atom_id": "md_dmMB_ex_a089", "md_file": "knowledge_base/domains/MB/examples.md", "md_atom_type": "TABLE_ROW", "md_parent_section": "§MB.3 [Example 3]", "md_verbatim": "| 3 | ABC | BE | ABC-01-101 | 3 | 100.2 | | Aliquoting | PREPARATION | 2011-01-17T06:00 | 2011-01-17T09:00 | |", "score": 0.9, "match_basis": "verbatim_token+global_search"}, {"md_atom_id": "md_dmMB_ex_a090", "md_file": "knowledge_base/domains/MB/examples.md", "md_atom_type": "TABLE_ROW", "md_parent_section": "§MB.3 [Example 3]", "md_verbatim": "| 4 | ABC | BE | ABC-01-101 | 4 | 100.3 | | Aliquoting | PREPARATION | 2011-01-17T06:00 | 2011-01-17T09:00 | |", "score": 0.9, "match_basis": "verbatim_token+global_search"}, {"md_atom_id": "md_dmMB_ex_a091", "md_file": "knowledge_base/domains/MB/examples.md", "md_atom_type": "TABLE_ROW", "md_parent_section": "§MB.3 [Example 3]", "md_verbatim": "| 5 | ABC | BE | ABC-01-101 | 5 | 100.4 | | Aliquoting | PREPARATION | 2011-01-17T06:00 | 2011-01-17T09:00 | |", "score": 0.9, "match_basis": "verbatim_token+global_search"}, {"md_atom_id": "md_dmMB_ex_a092", "md_file": "knowledge_base/domains/MB/examples.md", "md_atom_type": "TABLE_ROW", "md_parent_section": "§MB.3 [Example 3]", "md_verbatim": "| 6 | ABC | BE | ABC-01-101 | 6 | 100.5 | | Aliquoting | PREPARATION | 2011-01-17T06:00 | 2011-01-17T09:00 | |", "score": 0.9, "match_basis": "verbatim_token+global_search"}], "candidate_count": 5, "zero_candidate": false}
{"pdf_atom_id": "ig34_p0260_a010", "pdf_atom_type": "TABLE_ROW", "pdf_source": "SDTMIG_v3.4", "pdf_page": 260, "pdf_parent_section": "§6.3.5.7.3 Microbiology Specimen/Microbiology Susceptibility Examples", "pdf_verbatim": "5 | ABC | BE | ABC-01-101 | 5 | 100.4 | | Aliquoting | PREPARATION | 2011-01-17T06:00 | 2011-01-17T09:00 |", "figure_ref": null, "candidates": [{"md_atom_id": "md_dmMB_ex_a088", "md_file": "knowledge_base/domains/MB/examples.md", "md_atom_type": "TABLE_ROW", "md_parent_section": "§MB.3 [Example 3]", "md_verbatim": "| 2 | ABC | BE | ABC-01-101 | 2 | 100.1 | | Aliquoting | PREPARATION | 2011-01-17T06:00 | 2011-01-17T09:00 | |", "score": 0.9, "match_basis": "verbatim_token+global_search"}, {"md_atom_id": "md_dmMB_ex_a089", "md_file": "knowledge_base/domains/MB/examples.md", "md_atom_type": "TABLE_ROW", "md_parent_section": "§MB.3 [Example 3]", "md_verbatim": "| 3 | ABC | BE | ABC-01-101 | 3 | 100.2 | | Aliquoting | PREPARATION | 2011-01-17T06:00 | 2011-01-17T09:00 | |", "score": 0.9, "match_basis": "verbatim_token+global_search"}, {"md_atom_id": "md_dmMB_ex_a090", "md_file": "knowledge_base/domains/MB/examples.md", "md_atom_type": "TABLE_ROW", "md_parent_section": "§MB.3 [Example 3]", "md_verbatim": "| 4 | ABC | BE | ABC-01-101 | 4 | 100.3 | | Aliquoting | PREPARATION | 2011-01-17T06:00 | 2011-01-17T09:00 | |", "score": 0.9, "match_basis": "verbatim_token+global_search"}, {"md_atom_id": "md_dmMB_ex_a091", "md_file": "knowledge_base/domains/MB/examples.md", "md_atom_type": "TABLE_ROW", "md_parent_section": "§MB.3 [Example 3]", "md_verbatim": "| 5 | ABC | BE | ABC-01-101 | 5 | 100.4 | | Aliquoting | PREPARATION | 2011-01-17T06:00 | 2011-01-17T09:00 | |", "score": 0.9, "match_basis": "verbatim_token+global_search"}, {"md_atom_id": "md_dmMB_ex_a092", "md_file": "knowledge_base/domains/MB/examples.md", "md_atom_type": "TABLE_ROW", "md_parent_section": "§MB.3 [Example 3]", "md_verbatim": "| 6 | ABC | BE | ABC-01-101 | 6 | 100.5 | | Aliquoting | PREPARATION | 2011-01-17T06:00 | 2011-01-17T09:00 | |", "score": 0.9, "match_basis": "verbatim_token+global_search"}], "candidate_count": 5, "zero_candidate": false}
{"pdf_atom_id": "ig34_p0260_a011", "pdf_atom_type": "TABLE_ROW", "pdf_source": "SDTMIG_v3.4", "pdf_page": 260, "pdf_parent_section": "§6.3.5.7.3 Microbiology Specimen/Microbiology Susceptibility Examples", "pdf_verbatim": "6 | ABC | BE | ABC-01-101 | 6 | 100.5 | | Aliquoting | PREPARATION | 2011-01-17T06:00 | 2011-01-17T09:00 |", "figure_ref": null, "candidates": [{"md_atom_id": "md_dmMB_ex_a088", "md_file": "knowledge_base/domains/MB/examples.md", "md_atom_type": "TABLE_ROW", "md_parent_section": "§MB.3 [Example 3]", "md_verbatim": "| 2 | ABC | BE | ABC-01-101 | 2 | 100.1 | | Aliquoting | PREPARATION | 2011-01-17T06:00 | 2011-01-17T09:00 | |", "score": 0.9, "match_basis": "verbatim_token+global_search"}, {"md_atom_id": "md_dmMB_ex_a089", "md_file": "knowledge_base/domains/MB/examples.md", "md_atom_type": "TABLE_ROW", "md_parent_section": "§MB.3 [Example 3]", "md_verbatim": "| 3 | ABC | BE | ABC-01-101 | 3 | 100.2 | | Aliquoting | PREPARATION | 2011-01-17T06:00 | 2011-01-17T09:00 | |", "score": 0.9, "match_basis": "verbatim_token+global_search"}, {"md_atom_id": "md_dmMB_ex_a090", "md_file": "knowledge_base/domains/MB/examples.md", "md_atom_type": "TABLE_ROW", "md_parent_section": "§MB.3 [Example 3]", "md_verbatim": "| 4 | ABC | BE | ABC-01-101 | 4 | 100.3 | | Aliquoting | PREPARATION | 2011-01-17T06:00 | 2011-01-17T09:00 | |", "score": 0.9, "match_basis": "verbatim_token+global_search"}, {"md_atom_id": "md_dmMB_ex_a091", "md_file": "knowledge_base/domains/MB/examples.md", "md_atom_type": "TABLE_ROW", "md_parent_section": "§MB.3 [Example 3]", "md_verbatim": "| 5 | ABC | BE | ABC-01-101 | 5 | 100.4 | | Aliquoting | PREPARATION | 2011-01-17T06:00 | 2011-01-17T09:00 | |", "score": 0.9, "match_basis": "verbatim_token+global_search"}, {"md_atom_id": "md_dmMB_ex_a092", "md_file": "knowledge_base/domains/MB/examples.md", "md_atom_type": "TABLE_ROW", "md_parent_section": "§MB.3 [Example 3]", "md_verbatim": "| 6 | ABC | BE | ABC-01-101 | 6 | 100.5 | | Aliquoting | PREPARATION | 2011-01-17T06:00 | 2011-01-17T09:00 | |", "score": 0.9, "match_basis": "verbatim_token+global_search"}], "candidate_count": 5, "zero_candidate": false}
{"pdf_atom_id": "ig34_p0260_a012", "pdf_atom_type": "TABLE_ROW", "pdf_source": "SDTMIG_v3.4", "pdf_page": 260, "pdf_parent_section": "§6.3.5.7.3 Microbiology Specimen/Microbiology Susceptibility Examples", "pdf_verbatim": "7 | ABC | BE | ABC-01-101 | 7 | 100.3 | 1 | Culturing | CULTURE | 2011-01-17T06:00 | 2011-01-17T09:30 | 2011-02-02T09:00", "figure_ref": null, "candidates": [{"md_atom_id": "md_dmMB_ex_a093", "md_file": "knowledge_base/domains/MB/examples.md", "md_atom_type": "TABLE_ROW", "md_parent_section": "§MB.3 [Example 3]", "md_verbatim": "| 7 | ABC | BE | ABC-01-101 | 7 | 100.3 | 1 | Culturing | CULTURE | 2011-01-17T06:00 | 2011-01-17T09:30 | 2011-02-02T09:00 |", "score": 0.9, "match_basis": "verbatim_token+global_search"}, {"md_atom_id": "md_dmMB_ex_a095", "md_file": "knowledge_base/domains/MB/examples.md", "md_atom_type": "TABLE_ROW", "md_parent_section": "§MB.3 [Example 3]", "md_verbatim": "| 9 | ABC | BE | ABC-01-101 | 9 | 100.5 | 3 | Culturing | CULTURE | 2011-01-17T06:00 | 2011-02-02T10:00 | 2011-02-22T09:00 |", "score": 0.8182, "match_basis": "verbatim_token+global_search"}, {"md_atom_id": "md_dmMB_ex_a094", "md_file": "knowledge_base/domains/MB/examples.md", "md_atom_type": "TABLE_ROW", "md_parent_section": "§MB.3 [Example 3]", "md_verbatim": "| 8 | ABC | BE | ABC-01-101 | 8 | 100.4 | 2 | Culturing | CULTURE | 2011-01-17T06:00 | 2011-02-21T10:00 | 2011-02-21T09:00 |", "score": 0.7435, "match_basis": "verbatim_token+global_search"}, {"md_atom_id": "md_dmMB_ex_a087", "md_file": "knowledge_base/domains/MB/examples.md", "md_atom_type": "TABLE_ROW", "md_parent_section": "§MB.3 [Example 3]", "md_verbatim": "| 1 | ABC | BE | ABC-01-101 | 1 | 100 | | Collecting | COLLECTION | 2011-01-17T06:00 | 2011-01-17T05:00 | |", "score": 0.4862, "match_basis": "verbatim_token+global_search"}, {"md_atom_id": "md_dmMB_ex_a088", "md_file": "knowledge_base/domains/MB/examples.md", "md_atom_type": "TABLE_ROW", "md_parent_section": "§MB.3 [Example 3]", "md_verbatim": "| 2 | ABC | BE | ABC-01-101 | 2 | 100.1 | | Aliquoting | PREPARATION | 2011-01-17T06:00 | 2011-01-17T09:00 | |", "score": 0.4714, "match_basis": "verbatim_token+global_search"}], "candidate_count": 5, "zero_candidate": false}
{"pdf_atom_id": "ig34_p0260_a013", "pdf_atom_type": "TABLE_ROW", "pdf_source": "SDTMIG_v3.4", "pdf_page": 260, "pdf_parent_section": "§6.3.5.7.3 Microbiology Specimen/Microbiology Susceptibility Examples", "pdf_verbatim": "8 | ABC | BE | ABC-01-101 | 8 | 100.4 | 2 | Culturing | CULTURE | 2011-01-17T06:00 | 2011-02-02T10:00 | 2011-02-21T09:00", "figure_ref": null, "candidates": [{"md_atom_id": "md_dmMB_ex_a094", "md_file": "knowledge_base/domains/MB/examples.md", "md_atom_type": "TABLE_ROW", "md_parent_section": "§MB.3 [Example 3]", "md_verbatim": "| 8 | ABC | BE | ABC-01-101 | 8 | 100.4 | 2 | Culturing | CULTURE | 2011-01-17T06:00 | 2011-02-21T10:00 | 2011-02-21T09:00 |", "score": 0.8217, "match_basis": "verbatim_token+global_search"}, {"md_atom_id": "md_dmMB_ex_a095", "md_file": "knowledge_base/domains/MB/examples.md", "md_atom_type": "TABLE_ROW", "md_parent_section": "§MB.3 [Example 3]", "md_verbatim": "| 9 | ABC | BE | ABC-01-101 | 9 | 100.5 | 3 | Culturing | CULTURE | 2011-01-17T06:00 | 2011-02-02T10:00 | 2011-02-22T09:00 |", "score": 0.8, "match_basis": "verbatim_token+global_search"}, {"md_atom_id": "md_dmMB_ex_a093", "md_file": "knowledge_base/domains/MB/examples.md", "md_atom_type": "TABLE_ROW", "md_parent_section": "§MB.3 [Example 3]", "md_verbatim": "| 7 | ABC | BE | ABC-01-101 | 7 | 100.3 | 1 | Culturing | CULTURE | 2011-01-17T06:00 | 2011-01-17T09:30 | 2011-02-02T09:00 |", "score": 0.7696, "match_basis": "verbatim_token+global_search"}, {"md_atom_id": "md_dmMB_ex_a087", "md_file": "knowledge_base/domains/MB/examples.md", "md_atom_type": "TABLE_ROW", "md_parent_section": "§MB.3 [Example 3]", "md_verbatim": "| 1 | ABC | BE | ABC-01-101 | 1 | 100 | | Collecting | COLLECTION | 2011-01-17T06:00 | 2011-01-17T05:00 | |", "score": 0.4688, "match_basis": "verbatim_token+global_search"}, {"md_atom_id": "md_dmMB_ex_a088", "md_file": "knowledge_base/domains/MB/examples.md", "md_atom_type": "TABLE_ROW", "md_parent_section": "§MB.3 [Example 3]", "md_verbatim": "| 2 | ABC | BE | ABC-01-101 | 2 | 100.1 | | Aliquoting | PREPARATION | 2011-01-17T06:00 | 2011-01-17T09:00 | |", "score": 0.4579, "match_basis": "verbatim_token+global_search"}], "candidate_count": 5, "zero_candidate": false}
{"pdf_atom_id": "ig34_p0260_a014", "pdf_atom_type": "TABLE_ROW", "pdf_source": "SDTMIG_v3.4", "pdf_page": 260, "pdf_parent_section": "§6.3.5.7.3 Microbiology Specimen/Microbiology Susceptibility Examples", "pdf_verbatim": "9 | ABC | BE | ABC-01-101 | 9 | 100.5 | 3 | Culturing | CULTURE | 2011-01-17T06:00 | 2011-02-02T10:00 | 2011-02-22T09:00", "figure_ref": null, "candidates": [{"md_atom_id": "md_dmMB_ex_a095", "md_file": "knowledge_base/domains/MB/examples.md", "md_atom_type": "TABLE_ROW", "md_parent_section": "§MB.3 [Example 3]", "md_verbatim": "| 9 | ABC | BE | ABC-01-101 | 9 | 100.5 | 3 | Culturing | CULTURE | 2011-01-17T06:00 | 2011-02-02T10:00 | 2011-02-22T09:00 |", "score": 0.9, "match_basis": "verbatim_token+global_search"}, {"md_atom_id": "md_dmMB_ex_a093", "md_file": "knowledge_base/domains/MB/examples.md", "md_atom_type": "TABLE_ROW", "md_parent_section": "§MB.3 [Example 3]", "md_verbatim": "| 7 | ABC | BE | ABC-01-101 | 7 | 100.3 | 1 | Culturing | CULTURE | 2011-01-17T06:00 | 2011-01-17T09:30 | 2011-02-02T09:00 |", "score": 0.8182, "match_basis": "verbatim_token+global_search"}, {"md_atom_id": "md_dmMB_ex_a094", "md_file": "knowledge_base/domains/MB/examples.md", "md_atom_type": "TABLE_ROW", "md_parent_section": "§MB.3 [Example 3]", "md_verbatim": "| 8 | ABC | BE | ABC-01-101 | 8 | 100.4 | 2 | Culturing | CULTURE | 2011-01-17T06:00 | 2011-02-21T10:00 | 2011-02-21T09:00 |", "score": 0.732, "match_basis": "verbatim_token+global_search"}, {"md_atom_id": "md_dmMB_ex_a087", "md_file": "knowledge_base/domains/MB/examples.md", "md_atom_type": "TABLE_ROW", "md_parent_section": "§MB.3 [Example 3]", "md_verbatim": "| 1 | ABC | BE | ABC-01-101 | 1 | 100 | | Collecting | COLLECTION | 2011-01-17T06:00 | 2011-01-17T05:00 | |", "score": 0.4688, "match_basis": "verbatim_token+global_search"}, {"md_atom_id": "md_dmMB_ex_a088", "md_file": "knowledge_base/domains/MB/examples.md", "md_atom_type": "TABLE_ROW", "md_parent_section": "§MB.3 [Example 3]", "md_verbatim": "| 2 | ABC | BE | ABC-01-101 | 2 | 100.1 | | Aliquoting | PREPARATION | 2011-01-17T06:00 | 2011-01-17T09:00 | |", "score": 0.4579, "match_basis": "verbatim_token+global_search"}], "candidate_count": 5, "zero_candidate": false}
{"pdf_atom_id": "ig34_p0260_a015", "pdf_atom_type": "TABLE_ROW", "pdf_source": "SDTMIG_v3.4", "pdf_page": 260, "pdf_parent_section": "§6.3.5.7.3 Microbiology Specimen/Microbiology Susceptibility Examples", "pdf_verbatim": "10 | ABC | BE | ABC-01-101 | 10 | 100.1 | 3 | Concentrating | PREPARATION | 2011-01-17T06:00 | 2011-01-17T09:15 |", "figure_ref": null, "candidates": [{"md_atom_id": "md_dmMB_ex_a096", "md_file": "knowledge_base/domains/MB/examples.md", "md_atom_type": "TABLE_ROW", "md_parent_section": "§MB.3 [Example 3]", "md_verbatim": "| 10 | ABC | BE | ABC-01-101 | 10 | 100.1 | | Concentrating | PREPARATION | 2011-01-17T06:00 | 2011-01-17T09:15 | |", "score": 0.9, "match_basis": "verbatim_token+global_search"}, {"md_atom_id": "md_dmMB_ex_a088", "md_file": "knowledge_base/domains/MB/examples.md", "md_atom_type": "TABLE_ROW", "md_parent_section": "§MB.3 [Example 3]", "md_verbatim": "| 2 | ABC | BE | ABC-01-101 | 2 | 100.1 | | Aliquoting | PREPARATION | 2011-01-17T06:00 | 2011-01-17T09:00 | |", "score": 0.6636, "match_basis": "verbatim_token+global_search"}, {"md_atom_id": "md_dmMB_ex_a089", "md_file": "knowledge_base/domains/MB/examples.md", "md_atom_type": "TABLE_ROW", "md_parent_section": "§MB.3 [Example 3]", "md_verbatim": "| 3 | ABC | BE | ABC-01-101 | 3 | 100.2 | | Aliquoting | PREPARATION | 2011-01-17T06:00 | 2011-01-17T09:00 | |", "score": 0.6636, "match_basis": "verbatim_token+global_search"}, {"md_atom_id": "md_dmMB_ex_a090", "md_file": "knowledge_base/domains/MB/examples.md", "md_atom_type": "TABLE_ROW", "md_parent_section": "§MB.3 [Example 3]", "md_verbatim": "| 4 | ABC | BE | ABC-01-101 | 4 | 100.3 | | Aliquoting | PREPARATION | 2011-01-17T06:00 | 2011-01-17T09:00 | |", "score": 0.6636, "match_basis": "verbatim_token+global_search"}, {"md_atom_id": "md_dmMB_ex_a091", "md_file": "knowledge_base/domains/MB/examples.md", "md_atom_type": "TABLE_ROW", "md_parent_section": "§MB.3 [Example 3]", "md_verbatim": "| 5 | ABC | BE | ABC-01-101 | 5 | 100.4 | | Aliquoting | PREPARATION | 2011-01-17T06:00 | 2011-01-17T09:00 | |", "score": 0.6636, "match_basis": "verbatim_token+global_search"}], "candidate_count": 5, "zero_candidate": false}
{"pdf_atom_id": "ig34_p0260_a016", "pdf_atom_type": "CODE_LITERAL", "pdf_source": "SDTMIG_v3.4", "pdf_page": 260, "pdf_parent_section": "§6.3.5.7.3 Microbiology Specimen/Microbiology Susceptibility Examples", "pdf_verbatim": "suppbe.xpt", "figure_ref": null, "candidates": [{"md_atom_id": "md_dmBE_ex_a021", "md_file": "knowledge_base/domains/BE/examples.md", "md_atom_type": "SENTENCE", "md_parent_section": "§BE.1 [Example 1]", "md_verbatim": "**suppbe.xpt**", "score": 0.69, "match_basis": "verbatim_token+global_search"}, {"md_atom_id": "md_dmBE_ex_a078", "md_file": "knowledge_base/domains/BE/examples.md", "md_atom_type": "SENTENCE", "md_parent_section": "§BE.2 [Example 2]", "md_verbatim": "**suppbe.xpt**", "score": 0.69, "match_basis": "verbatim_token+global_search"}, {"md_atom_id": "md_dmMB_ex_a040", "md_file": "knowledge_base/domains/MB/examples.md", "md_atom_type": "SENTENCE", "md_parent_section": "§MB.2 [Example 2]", "md_verbatim": "**suppbe.xpt**", "score": 0.69, "match_basis": "verbatim_token+global_search"}, {"md_atom_id": "md_dmPP_ex_a035", "md_file": "knowledge_base/domains/PP/examples.md", "md_atom_type": "SENTENCE", "md_parent_section": "§PP.1 [Example 1]", "md_verbatim": "**supppp.xpt**", "score": 0.39, "match_basis": "verbatim_token+global_search"}, {"md_atom_id": "md_ch04_a371", "md_file": "knowledge_base/chapters/ch04_general_assumptions.md", "md_atom_type": "CODE_LITERAL", "md_parent_section": "§4.2.8.3 [Multiple Values for a Non-result Qualifier Variable]", "md_verbatim": "suppae.xpt:", "score": 0.3471, "match_basis": "verbatim_token+global_search"}, {"md_atom_id": "md_ch04_a381", "md_file": "knowledge_base/chapters/ch04_general_assumptions.md", "md_atom_type": "CODE_LITERAL", "md_parent_section": "§4.2.8.3 [Multiple Values for a Non-result Qualifier Variable]", "md_verbatim": "suppae.xpt:", "score": 0.3471, "match_basis": "verbatim_token+global_search"}, {"md_atom_id": "md_ch04_a394", "md_file": "knowledge_base/chapters/ch04_general_assumptions.md", "md_atom_type": "CODE_LITERAL", "md_parent_section": "§4.2.8.3 [Multiple Values for a Non-result Qualifier Variable]", "md_verbatim": "suppae.xpt:", "score": 0.3471, "match_basis": "verbatim_token+global_search"}, {"md_atom_id": "md_ch04_a918", "md_file": "knowledge_base/chapters/ch04_general_assumptions.md", "md_atom_type": "CODE_LITERAL", "md_parent_section": "§4.5.3.2 [Text Strings Greater than 200 Characters in Other Variables]", "md_verbatim": "suppmh.xpt", "score": 0.3471, "match_basis": "verbatim_token+global_search"}, {"md_atom_id": "md_ch04_a922", "md_file": "knowledge_base/chapters/ch04_general_assumptions.md", "md_atom_type": "SENTENCE", "md_parent_section": "§4.5.3.2 [Text Strings Greater than 200 Characters in Other Variables]", "md_verbatim": "suppmh.xpt:", "score": 0.3471, "match_basis": "verbatim_token+global_search"}, {"md_atom_id": "md_ch04_a928", "md_file": "knowledge_base/chapters/ch04_general_assumptions.md", "md_atom_type": "CODE_LITERAL", "md_parent_section": "§4.5.3.2 [Text Strings Greater than 200 Characters in Other Variables]", "md_verbatim": "suppae.xpt", "score": 0.3471, "match_basis": "verbatim_token+global_search"}], "candidate_count": 10, "zero_candidate": false}
{"pdf_atom_id": "ig34_p0260_a017", "pdf_atom_type": "TABLE_HEADER", "pdf_source": "SDTMIG_v3.4", "pdf_page": 260, "pdf_parent_section": "§6.3.5.7.3 Microbiology Specimen/Microbiology Susceptibility Examples", "pdf_verbatim": "Row | STUDYID | RDOMAIN | USUBJID | IDVAR | IDVARVAL | QNAM | QLABEL | QVAL | QORIG", "figure_ref": null, "candidates": [{"md_atom_id": "md_ch04_a923", "md_file": "knowledge_base/chapters/ch04_general_assumptions.md", "md_atom_type": "TABLE_HEADER", "md_parent_section": "§4.5.3.2 [Text Strings Greater than 200 Characters in Other Variables]", "md_verbatim": "| Row | STUDYID | RDOMAIN | USUBJID | IDVAR | IDVARVAL | QNAM | QLABEL | QVAL | QORIG |\n|-----|---------|---------|---------|-------|----------|------|--------|------|-------|", "score": 0.9, "match_basis": "verbatim_token+global_search"}, {"md_atom_id": "md_ch04_a933", "md_file": "knowledge_base/chapters/ch04_general_assumptions.md", "md_atom_type": "TABLE_HEADER", "md_parent_section": "§4.5.3.2 [Text Strings Greater than 200 Characters in Other Variables]", "md_verbatim": "| Row | STUDYID | RDOMAIN | USUBJID | IDVAR | IDVARVAL | QNAM | QLABEL | QVAL | QORIG |\n|-----|---------|---------|---------|-------|----------|------|--------|------|-------|", "score": 0.9, "match_basis": "verbatim_token+global_search"}, {"md_atom_id": "md_ch04_a942", "md_file": "knowledge_base/chapters/ch04_general_assumptions.md", "md_atom_type": "TABLE_HEADER", "md_parent_section": "§4.5.3.2 [Text Strings Greater than 200 Characters in Other Variables]", "md_verbatim": "| Row | STUDYID | RDOMAIN | USUBJID | IDVAR | IDVARVAL | QNAM | QLABEL | QVAL | QORIG |\n|-----|---------|---------|---------|-------|----------|------|--------|------|-------|", "score": 0.9, "match_basis": "verbatim_token+global_search"}, {"md_atom_id": "md_ch04_a985", "md_file": "knowledge_base/chapters/ch04_general_assumptions.md", "md_atom_type": "TABLE_HEADER", "md_parent_section": "§4.5.6 [Supplemental Reason Variables]", "md_verbatim": "| Row | STUDYID | RDOMAIN | USUBJID | IDVAR | IDVARVAL | QNAM | QLABEL | QVAL | QORIG |\n|-----|---------|---------|---------|-------|----------|------|--------|------|-------|", "score": 0.9, "match_basis": "verbatim_token+global_search"}, {"md_atom_id": "md_dmMB_ex_a041", "md_file": "knowledge_base/domains/MB/examples.md", "md_atom_type": "TABLE_HEADER", "md_parent_section": "§MB.2 [Example 2]", "md_verbatim": "| Row | STUDYID | RDOMAIN | USUBJID | IDVAR | IDVARVAL | QNAM | QLABEL | QVAL | QORIG |\n|-----|---------|---------|---------|-------|----------|------|--------|------|-------|", "score": 0.9, "match_basis": "verbatim_token+global_search"}], "candidate_count": 5, "zero_candidate": false}
{"pdf_atom_id": "ig34_p0260_a018", "pdf_atom_type": "TABLE_ROW", "pdf_source": "SDTMIG_v3.4", "pdf_page": 260, "pdf_parent_section": "§6.3.5.7.3 Microbiology Specimen/Microbiology Susceptibility Examples", "pdf_verbatim": "1 | ABC | BE | ABC-01-101 | BEREFID | 100 | BECLSET | Specimen Collection Setting | HOSPITAL | CRF", "figure_ref": null, "candidates": [{"md_atom_id": "md_dmMB_ex_a045", "md_file": "knowledge_base/domains/MB/examples.md", "md_atom_type": "TABLE_ROW", "md_parent_section": "§MB.2 [Example 2]", "md_verbatim": "| 4 | ABC | BE | ABC-01-101 | BEREFID | SP01 | BECLMETH | Specimen Collection Method | EXPECTORATION | CRF |", "score": 0.5717, "match_basis": "verbatim_token+global_search"}, {"md_atom_id": "md_dmMB_ex_a046", "md_file": "knowledge_base/domains/MB/examples.md", "md_atom_type": "TABLE_ROW", "md_parent_section": "§MB.2 [Example 2]", "md_verbatim": "| 5 | ABC | BE | ABC-01-101 | BEREFID | SP02 | BECLMETH | Specimen Collection Method | EXPECTORATION | CRF |", "score": 0.5717, "match_basis": "verbatim_token+global_search"}, {"md_atom_id": "md_dmMB_ex_a047", "md_file": "knowledge_base/domains/MB/examples.md", "md_atom_type": "TABLE_ROW", "md_parent_section": "§MB.2 [Example 2]", "md_verbatim": "| 6 | ABC | BE | ABC-01-101 | BEREFID | SP03 | BECLMETH | Specimen Collection Method | EXPECTORATION | CRF |", "score": 0.5717, "match_basis": "verbatim_token+global_search"}, {"md_atom_id": "md_varindex_a172", "md_file": "knowledge_base/VARIABLE_INDEX.md", "md_atom_type": "TABLE_ROW", "md_parent_section": "§ 二、领域专属变量（仅 1 个域，共 1499 个），按域分组", "md_verbatim": "| BSDY | Study Day of Specimen Collection | Num | Timing | Perm | — |", "score": 0.48, "match_basis": "verbatim_token+global_search"}, {"md_atom_id": "md_varindex_a648", "md_file": "knowledge_base/VARIABLE_INDEX.md", "md_atom_type": "TABLE_ROW", "md_parent_section": "§ 二、领域专属变量（仅 1 个域，共 1499 个），按域分组", "md_verbatim": "| GFDY | Study Day of Specimen Collection | Num | Timing | Perm | — |", "score": 0.48, "match_basis": "verbatim_token+global_search"}], "candidate_count": 5, "zero_candidate": false}
{"pdf_atom_id": "ig34_p0260_a019", "pdf_atom_type": "TABLE_ROW", "pdf_source": "SDTMIG_v3.4", "pdf_page": 260, "pdf_parent_section": "§6.3.5.7.3 Microbiology Specimen/Microbiology Susceptibility Examples", "pdf_verbatim": "2 | ABC | BE | ABC-01-101 | BEREFID | 100 | BECLMETH | Specimen Collection Method | GASTRIC LAVAGE | CRF", "figure_ref": null, "candidates": [{"md_atom_id": "md_dmMB_ex_a045", "md_file": "knowledge_base/domains/MB/examples.md", "md_atom_type": "TABLE_ROW", "md_parent_section": "§MB.2 [Example 2]", "md_verbatim": "| 4 | ABC | BE | ABC-01-101 | BEREFID | SP01 | BECLMETH | Specimen Collection Method | EXPECTORATION | CRF |", "score": 0.6673, "match_basis": "verbatim_token+global_search"}, {"md_atom_id": "md_dmMB_ex_a046", "md_file": "knowledge_base/domains/MB/examples.md", "md_atom_type": "TABLE_ROW", "md_parent_section": "§MB.2 [Example 2]", "md_verbatim": "| 5 | ABC | BE | ABC-01-101 | BEREFID | SP02 | BECLMETH | Specimen Collection Method | EXPECTORATION | CRF |", "score": 0.6673, "match_basis": "verbatim_token+global_search"}, {"md_atom_id": "md_dmMB_ex_a047", "md_file": "knowledge_base/domains/MB/examples.md", "md_atom_type": "TABLE_ROW", "md_parent_section": "§MB.2 [Example 2]", "md_verbatim": "| 6 | ABC | BE | ABC-01-101 | BEREFID | SP03 | BECLMETH | Specimen Collection Method | EXPECTORATION | CRF |", "score": 0.6673, "match_basis": "verbatim_token+global_search"}, {"md_atom_id": "md_dmBE_ex_a082", "md_file": "knowledge_base/domains/BE/examples.md", "md_atom_type": "TABLE_ROW", "md_parent_section": "§BE.2 [Example 2]", "md_verbatim": "| 3 | 3441271 | BE | MU-298 | BEREFID | 298R1-1R0 | BESPEC | Specimen Type | RNA | Collected | |", "score": 0.4714, "match_basis": "verbatim_token+global_search"}, {"md_atom_id": "md_dmBE_ex_a083", "md_file": "knowledge_base/domains/BE/examples.md", "md_atom_type": "TABLE_ROW", "md_parent_section": "§BE.2 [Example 2]", "md_verbatim": "| 4 | 3441271 | BE | MU-298 | BEREFID | 298R1-1R1 | BESPEC | Specimen Type | RNA | Collected | |", "score": 0.4714, "match_basis": "verbatim_token+global_search"}], "candidate_count": 5, "zero_candidate": false}
{"pdf_atom_id": "ig34_p0260_a020", "pdf_atom_type": "TABLE_ROW", "pdf_source": "SDTMIG_v3.4", "pdf_page": 260, "pdf_parent_section": "§6.3.5.7.3 Microbiology Specimen/Microbiology Susceptibility Examples", "pdf_verbatim": "3 | ABC | BE | ABC-01-101 | BEREFID | 100 | BESPEC | Specimen Type | LAVAGE FLUID | CRF", "figure_ref": null, "candidates": [{"md_atom_id": "md_dmMB_ex_a042", "md_file": "knowledge_base/domains/MB/examples.md", "md_atom_type": "TABLE_ROW", "md_parent_section": "§MB.2 [Example 2]", "md_verbatim": "| 1 | ABC | BE | ABC-01-101 | BEREFID | SP01 | BESPEC | Specimen Type | SPUTUM | CRF |", "score": 0.6375, "match_basis": "verbatim_token+global_search"}, {"md_atom_id": "md_dmMB_ex_a043", "md_file": "knowledge_base/domains/MB/examples.md", "md_atom_type": "TABLE_ROW", "md_parent_section": "§MB.2 [Example 2]", "md_verbatim": "| 2 | ABC | BE | ABC-01-101 | BEREFID | SP02 | BESPEC | Specimen Type | SPUTUM | CRF |", "score": 0.6375, "match_basis": "verbatim_token+global_search"}, {"md_atom_id": "md_dmMB_ex_a044", "md_file": "knowledge_base/domains/MB/examples.md", "md_atom_type": "TABLE_ROW", "md_parent_section": "§MB.2 [Example 2]", "md_verbatim": "| 3 | ABC | BE | ABC-01-101 | BEREFID | SP03 | BESPEC | Specimen Type | SPUTUM | CRF |", "score": 0.6375, "match_basis": "verbatim_token+global_search"}, {"md_atom_id": "md_dmBE_ex_a023", "md_file": "knowledge_base/domains/BE/examples.md", "md_atom_type": "TABLE_ROW", "md_parent_section": "§BE.1 [Example 1]", "md_verbatim": "| 1 | ABC134 | BE | 43871 | BEREFID | 1148.267 | BESPEC | Specimen Type | TISSUE | CRF | |", "score": 0.5615, "match_basis": "verbatim_token+global_search"}, {"md_atom_id": "md_dmBE_ex_a080", "md_file": "knowledge_base/domains/BE/examples.md", "md_atom_type": "TABLE_ROW", "md_parent_section": "§BE.2 [Example 2]", "md_verbatim": "| 1 | 3441271 | BE | MU-298 | BEREFID | 298B1 | BESPEC | Specimen Type | BLOOD | CRF | |", "score": 0.5595, "match_basis": "verbatim_token+global_search"}], "candidate_count": 5, "zero_candidate": false}
{"pdf_atom_id": "ig34_p0260_a021", "pdf_atom_type": "TABLE_ROW", "pdf_source": "SDTMIG_v3.4", "pdf_page": 260, "pdf_parent_section": "§6.3.5.7.3 Microbiology Specimen/Microbiology Susceptibility Examples", "pdf_verbatim": "4 | ABC | BE | ABC-01-101 | BEREFID | 100.1 | BESPEC | Specimen Type | LAVAGE FLUID | CRF", "figure_ref": null, "candidates": [{"md_atom_id": "md_dmMB_ex_a042", "md_file": "knowledge_base/domains/MB/examples.md", "md_atom_type": "TABLE_ROW", "md_parent_section": "§MB.2 [Example 2]", "md_verbatim": "| 1 | ABC | BE | ABC-01-101 | BEREFID | SP01 | BESPEC | Specimen Type | SPUTUM | CRF |", "score": 0.6375, "match_basis": "verbatim_token+global_search"}, {"md_atom_id": "md_dmMB_ex_a043", "md_file": "knowledge_base/domains/MB/examples.md", "md_atom_type": "TABLE_ROW", "md_parent_section": "§MB.2 [Example 2]", "md_verbatim": "| 2 | ABC | BE | ABC-01-101 | BEREFID | SP02 | BESPEC | Specimen Type | SPUTUM | CRF |", "score": 0.6375, "match_basis": "verbatim_token+global_search"}, {"md_atom_id": "md_dmMB_ex_a044", "md_file": "knowledge_base/domains/MB/examples.md", "md_atom_type": "TABLE_ROW", "md_parent_section": "§MB.2 [Example 2]", "md_verbatim": "| 3 | ABC | BE | ABC-01-101 | BEREFID | SP03 | BESPEC | Specimen Type | SPUTUM | CRF |", "score": 0.6375, "match_basis": "verbatim_token+global_search"}, {"md_atom_id": "md_dmBE_ex_a023", "md_file": "knowledge_base/domains/BE/examples.md", "md_atom_type": "TABLE_ROW", "md_parent_section": "§BE.1 [Example 1]", "md_verbatim": "| 1 | ABC134 | BE | 43871 | BEREFID | 1148.267 | BESPEC | Specimen Type | TISSUE | CRF | |", "score": 0.5615, "match_basis": "verbatim_token+global_search"}, {"md_atom_id": "md_dmBE_ex_a080", "md_file": "knowledge_base/domains/BE/examples.md", "md_atom_type": "TABLE_ROW", "md_parent_section": "§BE.2 [Example 2]", "md_verbatim": "| 1 | 3441271 | BE | MU-298 | BEREFID | 298B1 | BESPEC | Specimen Type | BLOOD | CRF | |", "score": 0.5595, "match_basis": "verbatim_token+global_search"}], "candidate_count": 5, "zero_candidate": false}
{"pdf_atom_id": "ig34_p0260_a022", "pdf_atom_type": "TABLE_ROW", "pdf_source": "SDTMIG_v3.4", "pdf_page": 260, "pdf_parent_section": "§6.3.5.7.3 Microbiology Specimen/Microbiology Susceptibility Examples", "pdf_verbatim": "5 | ABC | BE | ABC-01-101 | BEREFID | 100.2 | BESPEC | Specimen Type | LAVAGE FLUID | CRF", "figure_ref": null, "candidates": [{"md_atom_id": "md_dmMB_ex_a042", "md_file": "knowledge_base/domains/MB/examples.md", "md_atom_type": "TABLE_ROW", "md_parent_section": "§MB.2 [Example 2]", "md_verbatim": "| 1 | ABC | BE | ABC-01-101 | BEREFID | SP01 | BESPEC | Specimen Type | SPUTUM | CRF |", "score": 0.6375, "match_basis": "verbatim_token+global_search"}, {"md_atom_id": "md_dmMB_ex_a043", "md_file": "knowledge_base/domains/MB/examples.md", "md_atom_type": "TABLE_ROW", "md_parent_section": "§MB.2 [Example 2]", "md_verbatim": "| 2 | ABC | BE | ABC-01-101 | BEREFID | SP02 | BESPEC | Specimen Type | SPUTUM | CRF |", "score": 0.6375, "match_basis": "verbatim_token+global_search"}, {"md_atom_id": "md_dmMB_ex_a044", "md_file": "knowledge_base/domains/MB/examples.md", "md_atom_type": "TABLE_ROW", "md_parent_section": "§MB.2 [Example 2]", "md_verbatim": "| 3 | ABC | BE | ABC-01-101 | BEREFID | SP03 | BESPEC | Specimen Type | SPUTUM | CRF |", "score": 0.6375, "match_basis": "verbatim_token+global_search"}, {"md_atom_id": "md_dmBE_ex_a023", "md_file": "knowledge_base/domains/BE/examples.md", "md_atom_type": "TABLE_ROW", "md_parent_section": "§BE.1 [Example 1]", "md_verbatim": "| 1 | ABC134 | BE | 43871 | BEREFID | 1148.267 | BESPEC | Specimen Type | TISSUE | CRF | |", "score": 0.5615, "match_basis": "verbatim_token+global_search"}, {"md_atom_id": "md_dmBE_ex_a080", "md_file": "knowledge_base/domains/BE/examples.md", "md_atom_type": "TABLE_ROW", "md_parent_section": "§BE.2 [Example 2]", "md_verbatim": "| 1 | 3441271 | BE | MU-298 | BEREFID | 298B1 | BESPEC | Specimen Type | BLOOD | CRF | |", "score": 0.5595, "match_basis": "verbatim_token+global_search"}], "candidate_count": 5, "zero_candidate": false}
{"pdf_atom_id": "ig34_p0260_a023", "pdf_atom_type": "TABLE_ROW", "pdf_source": "SDTMIG_v3.4", "pdf_page": 260, "pdf_parent_section": "§6.3.5.7.3 Microbiology Specimen/Microbiology Susceptibility Examples", "pdf_verbatim": "6 | ABC | BE | ABC-01-101 | BEREFID | 100.3 | BESPEC | Specimen Type | LAVAGE FLUID | CRF", "figure_ref": null, "candidates": [{"md_atom_id": "md_dmMB_ex_a042", "md_file": "knowledge_base/domains/MB/examples.md", "md_atom_type": "TABLE_ROW", "md_parent_section": "§MB.2 [Example 2]", "md_verbatim": "| 1 | ABC | BE | ABC-01-101 | BEREFID | SP01 | BESPEC | Specimen Type | SPUTUM | CRF |", "score": 0.6375, "match_basis": "verbatim_token+global_search"}, {"md_atom_id": "md_dmMB_ex_a043", "md_file": "knowledge_base/domains/MB/examples.md", "md_atom_type": "TABLE_ROW", "md_parent_section": "§MB.2 [Example 2]", "md_verbatim": "| 2 | ABC | BE | ABC-01-101 | BEREFID | SP02 | BESPEC | Specimen Type | SPUTUM | CRF |", "score": 0.6375, "match_basis": "verbatim_token+global_search"}, {"md_atom_id": "md_dmMB_ex_a044", "md_file": "knowledge_base/domains/MB/examples.md", "md_atom_type": "TABLE_ROW", "md_parent_section": "§MB.2 [Example 2]", "md_verbatim": "| 3 | ABC | BE | ABC-01-101 | BEREFID | SP03 | BESPEC | Specimen Type | SPUTUM | CRF |", "score": 0.6375, "match_basis": "verbatim_token+global_search"}, {"md_atom_id": "md_dmBE_ex_a023", "md_file": "knowledge_base/domains/BE/examples.md", "md_atom_type": "TABLE_ROW", "md_parent_section": "§BE.1 [Example 1]", "md_verbatim": "| 1 | ABC134 | BE | 43871 | BEREFID | 1148.267 | BESPEC | Specimen Type | TISSUE | CRF | |", "score": 0.5615, "match_basis": "verbatim_token+global_search"}, {"md_atom_id": "md_dmBE_ex_a080", "md_file": "knowledge_base/domains/BE/examples.md", "md_atom_type": "TABLE_ROW", "md_parent_section": "§BE.2 [Example 2]", "md_verbatim": "| 1 | 3441271 | BE | MU-298 | BEREFID | 298B1 | BESPEC | Specimen Type | BLOOD | CRF | |", "score": 0.5595, "match_basis": "verbatim_token+global_search"}], "candidate_count": 5, "zero_candidate": false}
{"pdf_atom_id": "ig34_p0260_a024", "pdf_atom_type": "TABLE_ROW", "pdf_source": "SDTMIG_v3.4", "pdf_page": 260, "pdf_parent_section": "§6.3.5.7.3 Microbiology Specimen/Microbiology Susceptibility Examples", "pdf_verbatim": "7 | ABC | BE | ABC-01-101 | BEREFID | 100.4 | BESPEC | Specimen Type | LAVAGE FLUID | CRF", "figure_ref": null, "candidates": [{"md_atom_id": "md_dmMB_ex_a042", "md_file": "knowledge_base/domains/MB/examples.md", "md_atom_type": "TABLE_ROW", "md_parent_section": "§MB.2 [Example 2]", "md_verbatim": "| 1 | ABC | BE | ABC-01-101 | BEREFID | SP01 | BESPEC | Specimen Type | SPUTUM | CRF |", "score": 0.6375, "match_basis": "verbatim_token+global_search"}, {"md_atom_id": "md_dmMB_ex_a043", "md_file": "knowledge_base/domains/MB/examples.md", "md_atom_type": "TABLE_ROW", "md_parent_section": "§MB.2 [Example 2]", "md_verbatim": "| 2 | ABC | BE | ABC-01-101 | BEREFID | SP02 | BESPEC | Specimen Type | SPUTUM | CRF |", "score": 0.6375, "match_basis": "verbatim_token+global_search"}, {"md_atom_id": "md_dmMB_ex_a044", "md_file": "knowledge_base/domains/MB/examples.md", "md_atom_type": "TABLE_ROW", "md_parent_section": "§MB.2 [Example 2]", "md_verbatim": "| 3 | ABC | BE | ABC-01-101 | BEREFID | SP03 | BESPEC | Specimen Type | SPUTUM | CRF |", "score": 0.6375, "match_basis": "verbatim_token+global_search"}, {"md_atom_id": "md_dmBE_ex_a023", "md_file": "knowledge_base/domains/BE/examples.md", "md_atom_type": "TABLE_ROW", "md_parent_section": "§BE.1 [Example 1]", "md_verbatim": "| 1 | ABC134 | BE | 43871 | BEREFID | 1148.267 | BESPEC | Specimen Type | TISSUE | CRF | |", "score": 0.5615, "match_basis": "verbatim_token+global_search"}, {"md_atom_id": "md_dmBE_ex_a080", "md_file": "knowledge_base/domains/BE/examples.md", "md_atom_type": "TABLE_ROW", "md_parent_section": "§BE.2 [Example 2]", "md_verbatim": "| 1 | 3441271 | BE | MU-298 | BEREFID | 298B1 | BESPEC | Specimen Type | BLOOD | CRF | |", "score": 0.5595, "match_basis": "verbatim_token+global_search"}], "candidate_count": 5, "zero_candidate": false}
{"pdf_atom_id": "ig34_p0260_a025", "pdf_atom_type": "TABLE_ROW", "pdf_source": "SDTMIG_v3.4", "pdf_page": 260, "pdf_parent_section": "§6.3.5.7.3 Microbiology Specimen/Microbiology Susceptibility Examples", "pdf_verbatim": "8 | ABC | BE | ABC-01-101 | BEREFID | 100.5 | BESPEC | Specimen Type | LAVAGE FLUID | CRF", "figure_ref": null, "candidates": [{"md_atom_id": "md_dmMB_ex_a042", "md_file": "knowledge_base/domains/MB/examples.md", "md_atom_type": "TABLE_ROW", "md_parent_section": "§MB.2 [Example 2]", "md_verbatim": "| 1 | ABC | BE | ABC-01-101 | BEREFID | SP01 | BESPEC | Specimen Type | SPUTUM | CRF |", "score": 0.6375, "match_basis": "verbatim_token+global_search"}, {"md_atom_id": "md_dmMB_ex_a043", "md_file": "knowledge_base/domains/MB/examples.md", "md_atom_type": "TABLE_ROW", "md_parent_section": "§MB.2 [Example 2]", "md_verbatim": "| 2 | ABC | BE | ABC-01-101 | BEREFID | SP02 | BESPEC | Specimen Type | SPUTUM | CRF |", "score": 0.6375, "match_basis": "verbatim_token+global_search"}, {"md_atom_id": "md_dmMB_ex_a044", "md_file": "knowledge_base/domains/MB/examples.md", "md_atom_type": "TABLE_ROW", "md_parent_section": "§MB.2 [Example 2]", "md_verbatim": "| 3 | ABC | BE | ABC-01-101 | BEREFID | SP03 | BESPEC | Specimen Type | SPUTUM | CRF |", "score": 0.6375, "match_basis": "verbatim_token+global_search"}, {"md_atom_id": "md_dmBE_ex_a023", "md_file": "knowledge_base/domains/BE/examples.md", "md_atom_type": "TABLE_ROW", "md_parent_section": "§BE.1 [Example 1]", "md_verbatim": "| 1 | ABC134 | BE | 43871 | BEREFID | 1148.267 | BESPEC | Specimen Type | TISSUE | CRF | |", "score": 0.5615, "match_basis": "verbatim_token+global_search"}, {"md_atom_id": "md_dmBE_ex_a080", "md_file": "knowledge_base/domains/BE/examples.md", "md_atom_type": "TABLE_ROW", "md_parent_section": "§BE.2 [Example 2]", "md_verbatim": "| 1 | 3441271 | BE | MU-298 | BEREFID | 298B1 | BESPEC | Specimen Type | BLOOD | CRF | |", "score": 0.5595, "match_basis": "verbatim_token+global_search"}], "candidate_count": 5, "zero_candidate": false}
{"pdf_atom_id": "ig34_p0260_a026", "pdf_atom_type": "SENTENCE", "pdf_source": "SDTMIG_v3.4", "pdf_page": 260, "pdf_parent_section": "§6.3.5.7.3 Microbiology Specimen/Microbiology Susceptibility Examples", "pdf_verbatim": "Findings data captured about the specimen during collection, preparation, and handling are represented in the BS domain.", "figure_ref": null, "candidates": [{"md_atom_id": "md_dmMB_ex_a110", "md_file": "knowledge_base/domains/MB/examples.md", "md_atom_type": "SENTENCE", "md_parent_section": "§MB.3 [Example 3]", "md_verbatim": "Findings data captured about the specimen during collection, preparation, and handling are represented in the BS domain.", "score": 0.9, "match_basis": "verbatim_token+global_search"}, {"md_atom_id": "md_dmMB_ex_a072", "md_file": "knowledge_base/domains/MB/examples.md", "md_atom_type": "SENTENCE", "md_parent_section": "§MB.3 [Example 3]", "md_verbatim": "Specimen processing events included sample collection, preparation, and culturing; these events are represented in the BE domain.", "score": 0.5819, "match_basis": "verbatim_token+global_search"}, {"md_atom_id": "md_dmMB_ex_a031", "md_file": "knowledge_base/domains/MB/examples.md", "md_atom_type": "SENTENCE", "md_parent_section": "§MB.2 [Example 2]", "md_verbatim": "Specimen collection was represented in the Biospecimen Events (BE) domain.", "score": 0.5545, "match_basis": "verbatim_token+global_search"}, {"md_atom_id": "md_dmMK_ex_a009", "md_file": "knowledge_base/domains/MK/examples.md", "md_atom_type": "SENTENCE", "md_parent_section": "§MK.1 [Example 1]", "md_verbatim": "The data collected are represented in the MK domain.", "score": 0.52, "match_basis": "verbatim_token+global_search"}, {"md_atom_id": "md_dmMK_ex_a038", "md_file": "knowledge_base/domains/MK/examples.md", "md_atom_type": "SENTENCE", "md_parent_section": "§MK.2 [Example 2]", "md_verbatim": "The data collected are represented in the MK domain.", "score": 0.52, "match_basis": "verbatim_token+global_search"}], "candidate_count": 5, "zero_candidate": false}
{"pdf_atom_id": "ig34_p0260_a027", "pdf_atom_type": "LIST_ITEM", "pdf_source": "SDTMIG_v3.4", "pdf_page": 260, "pdf_parent_section": "§6.3.5.7.3 Microbiology Specimen/Microbiology Susceptibility Examples", "pdf_verbatim": "Row 1: Shows the total volume of lavage fluid collected during the gastric lavage by using the same values for BSREFID and BEREFID. This is the parent (collected) sample from which further aliquots were generated.", "figure_ref": null, "candidates": [{"md_atom_id": "md_dmMB_ex_a111", "md_file": "knowledge_base/domains/MB/examples.md", "md_atom_type": "SENTENCE", "md_parent_section": "§MB.3 [Example 3]", "md_verbatim": "**Row 1:** Shows the total volume of lavage fluid collected during the gastric lavage by using the same values for BSREFID and BEREFID. This is the parent (collected) sample from which further aliquots were generated.", "score": 0.81, "match_basis": "verbatim_token+global_search"}, {"md_atom_id": "md_dmBE_assn_a003", "md_file": "knowledge_base/domains/BE/assumptions.md", "md_atom_type": "LIST_ITEM", "md_parent_section": "§BE [BE — Assumptions]", "md_verbatim": "2. The value in BEREFID identifies the specimen most affected by the event. For aliquoting, this would be the child specimen(s) created by the event, rather than the parent specimen. BEREFID should not contain any identifiers other than specimen IDs.", "score": 0.4349, "match_basis": "verbatim_token+global_search"}, {"md_atom_id": "md_ch04_a227", "md_file": "knowledge_base/chapters/ch04_general_assumptions.md", "md_atom_type": "LIST_ITEM", "md_parent_section": "§4.2.6 [Grouping Variables and Categorization]", "md_verbatim": "3. --CAT (Category) and --SCAT (Sub-category) values further subset groups within the domain. Generally, --CAT/--SCAT values have meaning within a particular domain. However, it is possible to use the same values for --CAT/--SCAT in related domains (e.g., MH and AE). When values are used across domains, the meanings should be the same. Examples of where --CAT/--SCAT may have meaning across domains/datasets include:", "score": 0.4094, "match_basis": "verbatim_token+global_search"}, {"md_atom_id": "md_dmMH_assn_a017", "md_file": "knowledge_base/domains/MH/assumptions.md", "md_atom_type": "LIST_ITEM", "md_parent_section": "§MH [MH — Assumptions]", "md_verbatim": "   c. If a medical history event was reported using free text, the values of MHPRESP and MHOCCUR should be null. MHPRESP and MHOCCUR are permissible fields and may be omitted from the dataset if all medical history events were collected as free text.", "score": 0.4, "match_basis": "verbatim_token+global_search"}, {"md_atom_id": "md_dmPC_ex_a447", "md_file": "knowledge_base/domains/PC/examples.md", "md_atom_type": "LIST_ITEM", "md_parent_section": "§PC [PC — Examples]", "md_verbatim": "2. Do all parameters use the same concentrations, although maybe not all of them (Example 2)? If so, create a single PPGRPID value for all PP records, and 2 PCGRPID values for the PC records: a PCGRPID value for ones that were used and a PCGRPID value for those that were not used. Create records in RELREC for each PCGRPID value and each PPGRPID value (method A). Use RELID to show which PCGRPID and PPGRPID records are related. Consider RELREC methods B, C, and D as applicable.", "score": 0.4, "match_basis": "verbatim_token+global_search"}], "candidate_count": 5, "zero_candidate": false}
{"pdf_atom_id": "ig34_p0260_a028", "pdf_atom_type": "LIST_ITEM", "pdf_source": "SDTMIG_v3.4", "pdf_page": 260, "pdf_parent_section": "§6.3.5.7.3 Microbiology Specimen/Microbiology Susceptibility Examples", "pdf_verbatim": "Rows 2-6: Show the volume of each aliquot created.", "figure_ref": null, "candidates": [{"md_atom_id": "md_dmMB_ex_a112", "md_file": "knowledge_base/domains/MB/examples.md", "md_atom_type": "SENTENCE", "md_parent_section": "§MB.3 [Example 3]", "md_verbatim": "**Rows 2-6:** Show the volume of each aliquot created.", "score": 0.81, "match_basis": "verbatim_token+global_search"}, {"md_atom_id": "md_dmBE_ex_a089", "md_file": "knowledge_base/domains/BE/examples.md", "md_atom_type": "SENTENCE", "md_parent_section": "§BE.2 [Example 2]", "md_verbatim": "**Rows 5-7:** Show the volumes of the RNA aliquots.", "score": 0.56, "match_basis": "verbatim_token+global_search"}, {"md_atom_id": "md_dmBE_ex_a057", "md_file": "knowledge_base/domains/BE/examples.md", "md_atom_type": "SENTENCE", "md_parent_section": "§BE.2 [Example 2]", "md_verbatim": "**Rows 5-7:** Show the aliquoting of the RNA.", "score": 0.45, "match_basis": "verbatim_token+global_search"}, {"md_atom_id": "md_dmBE_ex_a086", "md_file": "knowledge_base/domains/BE/examples.md", "md_atom_type": "SENTENCE", "md_parent_section": "§BE.2 [Example 2]", "md_verbatim": "**Row 1:** Shows the volume of the blood sample.", "score": 0.4029, "match_basis": "verbatim_token+global_search"}, {"md_atom_id": "md_dmBE_ex_a087", "md_file": "knowledge_base/domains/BE/examples.md", "md_atom_type": "SENTENCE", "md_parent_section": "§BE.2 [Example 2]", "md_verbatim": "**Row 2:** Shows the volume of the plasma sample.", "score": 0.3962, "match_basis": "verbatim_token+global_search"}], "candidate_count": 5, "zero_candidate": false}
{"pdf_atom_id": "ig34_p0260_a029", "pdf_atom_type": "CODE_LITERAL", "pdf_source": "SDTMIG_v3.4", "pdf_page": 260, "pdf_parent_section": "§6.3.5.7.3 Microbiology Specimen/Microbiology Susceptibility Examples", "pdf_verbatim": "bs.xpt", "figure_ref": null, "candidates": [{"md_atom_id": "md_ch04_a207", "md_file": "knowledge_base/chapters/ch04_general_assumptions.md", "md_atom_type": "CODE_LITERAL", "md_parent_section": "§4.2.3 [Use of \"Subject\" and USUBJID]", "md_verbatim": "dm.xpt:", "score": 0.69, "match_basis": "verbatim_token+global_search"}, {"md_atom_id": "md_ch04_a210", "md_file": "knowledge_base/chapters/ch04_general_assumptions.md", "md_atom_type": "CODE_LITERAL", "md_parent_section": "§4.2.3 [Use of \"Subject\" and USUBJID]", "md_verbatim": "dm.xpt:", "score": 0.69, "match_basis": "verbatim_token+global_search"}, {"md_atom_id": "md_dmCM_ex_a010", "md_file": "knowledge_base/domains/CM/examples.md", "md_atom_type": "NOTE", "md_parent_section": "§CM.1 [Example 1]", "md_verbatim": "**cm.xpt**", "score": 0.69, "match_basis": "verbatim_token+global_search"}, {"md_atom_id": "md_dmCM_ex_a025", "md_file": "knowledge_base/domains/CM/examples.md", "md_atom_type": "NOTE", "md_parent_section": "§CM.2 [Example 2]", "md_verbatim": "**cm.xpt**", "score": 0.69, "match_basis": "verbatim_token+global_search"}, {"md_atom_id": "md_dmCM_ex_a042", "md_file": "knowledge_base/domains/CM/examples.md", "md_atom_type": "NOTE", "md_parent_section": "§CM.3 [Example 3]", "md_verbatim": "**cm.xpt**", "score": 0.69, "match_basis": "verbatim_token+global_search"}, {"md_atom_id": "md_dmCM_ex_a052", "md_file": "knowledge_base/domains/CM/examples.md", "md_atom_type": "NOTE", "md_parent_section": "§CM.4 [Example 4]", "md_verbatim": "**cm.xpt**", "score": 0.69, "match_basis": "verbatim_token+global_search"}, {"md_atom_id": "md_dmCM_ex_a070", "md_file": "knowledge_base/domains/CM/examples.md", "md_atom_type": "NOTE", "md_parent_section": "§CM.5 [Example 5]", "md_verbatim": "**cm.xpt**", "score": 0.69, "match_basis": "verbatim_token+global_search"}, {"md_atom_id": "md_ch04_a368", "md_file": "knowledge_base/chapters/ch04_general_assumptions.md", "md_atom_type": "CODE_LITERAL", "md_parent_section": "§4.2.8.3 [Multiple Values for a Non-result Qualifier Variable]", "md_verbatim": "ae.xpt:", "score": 0.69, "match_basis": "verbatim_token+global_search"}, {"md_atom_id": "md_ch04_a378", "md_file": "knowledge_base/chapters/ch04_general_assumptions.md", "md_atom_type": "CODE_LITERAL", "md_parent_section": "§4.2.8.3 [Multiple Values for a Non-result Qualifier Variable]", "md_verbatim": "ae.xpt:", "score": 0.69, "match_basis": "verbatim_token+global_search"}, {"md_atom_id": "md_ch04_a391", "md_file": "knowledge_base/chapters/ch04_general_assumptions.md", "md_atom_type": "CODE_LITERAL", "md_parent_section": "§4.2.8.3 [Multiple Values for a Non-result Qualifier Variable]", "md_verbatim": "ae.xpt:", "score": 0.69, "match_basis": "verbatim_token+global_search"}], "candidate_count": 10, "zero_candidate": false}
{"pdf_atom_id": "ig34_p0260_a030", "pdf_atom_type": "TABLE_HEADER", "pdf_source": "SDTMIG_v3.4", "pdf_page": 260, "pdf_parent_section": "§6.3.5.7.3 Microbiology Specimen/Microbiology Susceptibility Examples", "pdf_verbatim": "Row | STUDYID | DOMAIN | USUBJID | BSSEQ | BSREFID | BSTESTCD | BSTEST | BSORRES | BSORRESU | BSSTRESC | BSSTRESN | BSSTRESU | BSSPEC | BSLOC | BSDTC", "figure_ref": null, "candidates": [{"md_atom_id": "md_dmMB_ex_a114", "md_file": "knowledge_base/domains/MB/examples.md", "md_atom_type": "TABLE_HEADER", "md_parent_section": "§MB.3 [Example 3]", "md_verbatim": "| Row | STUDYID | DOMAIN | USUBJID | BSSEQ | BSREFID | BSTESTCD | BSTEST | BSORRES | BSORRESU | BSSTRESC | BSSTRESN | BSSTRESU | BSSPEC | BSLOC | BSDTC |\n|-----|---------|--------|---------|-------|---------|----------|--------|---------|----------|----------|----------|----------|--------|-------|-------|", "score": 0.9, "match_basis": "verbatim_token+global_search"}, {"md_atom_id": "md_dmBE_ex_a091", "md_file": "knowledge_base/domains/BE/examples.md", "md_atom_type": "TABLE_HEADER", "md_parent_section": "§BE.2 [Example 2]", "md_verbatim": "| Row | STUDYID | DOMAIN | USUBJID | BSSEQ | BSREFID | BSTESTCD | BSTEST | BSCAT | BSORRES | BSORRESU | BSSTRESC | BSSTRESN | BSSTRESU | BSSPEC | VISITNUM | BSDTC |\n|-----|---------|--------|---------|-------|---------|----------|--------|-------|---------|----------|----------|----------|----------|--------|----------|-------|", "score": 0.7759, "match_basis": "verbatim_token+global_search"}, {"md_atom_id": "md_dmBE_ex_a032", "md_file": "knowledge_base/domains/BE/examples.md", "md_atom_type": "TABLE_HEADER", "md_parent_section": "§BE.1 [Example 1]", "md_verbatim": "| Row | STUDYID | DOMAIN | USUBJID | BSSEQ | BSGRPID | BSREFID | BSTESTCD | BSTEST | BSCAT | BSORRES | BSORRESU | BSSTRESC | BSSTRESN | BSSTRESU | BSSPEC | BSANTREG | VISITNUM | BSDTC |\n|-----|---------|--------|---------|-------|---------|---------|----------|--------|-------|---------|----------|----------|----------|----------|--------|----------|----------|-------|", "score": 0.7059, "match_basis": "verbatim_token+global_search"}, {"md_atom_id": "md_dmIS_ex_a091", "md_file": "knowledge_base/domains/IS/examples.md", "md_atom_type": "TABLE_HEADER", "md_parent_section": "§IS.6 [Example 6]", "md_verbatim": "| Row | STUDYID | DOMAIN | USUBJID | ISSEQ | ISREFID | ISTESTCD | ISTEST | ISMSCBCE | ISCAT | ISSCAT | ISORRES | ISORRESU | ISSTRESC | ISSTRESN | ISSTRESU | ISSPEC | ISMETHOD | ISDTC |\n|-----|---------|--------|---------|-------|---------|----------|--------|----------|-------|--------|---------|----------|----------|----------|----------|--------|----------|-------|", "score": 0.6565, "match_basis": "verbatim_token+global_search"}, {"md_atom_id": "md_dmBS_ex_a012", "md_file": "knowledge_base/domains/BS/examples.md", "md_atom_type": "TABLE_HEADER", "md_parent_section": "§BS.1 [Example 1]", "md_verbatim": "| Row | STUDYID | DOMAIN | USUBJID | BSSEQ | BSREFID | BSTESTCD | BSTEST | BSCAT | BSORRES | BSSTRESC | BSSTRESN | BSXFN | BSNAM | BSSPEC | BSMETHOD | BSRUNID | VISIT | VISITNUM | VISITDY | BSDTC |\n|-----|---------|--------|---------|-------|---------|----------|--------|-------|---------|----------|----------|-------|-------|--------|----------|---------|-------|----------|---------|-------|", "score": 0.6553, "match_basis": "verbatim_token+global_search"}], "candidate_count": 5, "zero_candidate": false}
{"pdf_atom_id": "ig34_p0260_a031", "pdf_atom_type": "TABLE_ROW", "pdf_source": "SDTMIG_v3.4", "pdf_page": 260, "pdf_parent_section": "§6.3.5.7.3 Microbiology Specimen/Microbiology Susceptibility Examples", "pdf_verbatim": "1 | ABC | BS | ABC-01-101 | 1 | 100 | VOLUME | Volume | 20 | mL | 20 | 20 | mL | LAVAGE FLUID | STOMACH | 2011-01-17T06:00", "figure_ref": null, "candidates": [{"md_atom_id": "md_dmMB_ex_a115", "md_file": "knowledge_base/domains/MB/examples.md", "md_atom_type": "TABLE_ROW", "md_parent_section": "§MB.3 [Example 3]", "md_verbatim": "| 1 | ABC | BS | ABC-01-101 | 1 | 100 | VOLUME | Volume | 20 | mL | 20 | 20 | mL | LAVAGE FLUID | STOMACH | 2011-01-17T06:00 |", "score": 0.9, "match_basis": "verbatim_token+global_search"}, {"md_atom_id": "md_dmMB_ex_a116", "md_file": "knowledge_base/domains/MB/examples.md", "md_atom_type": "TABLE_ROW", "md_parent_section": "§MB.3 [Example 3]", "md_verbatim": "| 2 | ABC | BS | ABC-01-101 | 2 | 100.1 | VOLUME | Volume | 4 | mL | 4 | 4 | mL | LAVAGE FLUID | STOMACH | 2011-01-17T06:00 |", "score": 0.9, "match_basis": "verbatim_token+global_search"}, {"md_atom_id": "md_dmMB_ex_a117", "md_file": "knowledge_base/domains/MB/examples.md", "md_atom_type": "TABLE_ROW", "md_parent_section": "§MB.3 [Example 3]", "md_verbatim": "| 3 | ABC | BS | ABC-01-101 | 3 | 100.2 | VOLUME | Volume | 4 | mL | 4 | 4 | mL | LAVAGE FLUID | STOMACH | 2011-01-17T06:00 |", "score": 0.9, "match_basis": "verbatim_token+global_search"}, {"md_atom_id": "md_dmMB_ex_a118", "md_file": "knowledge_base/domains/MB/examples.md", "md_atom_type": "TABLE_ROW", "md_parent_section": "§MB.3 [Example 3]", "md_verbatim": "| 4 | ABC | BS | ABC-01-101 | 4 | 100.3 | VOLUME | Volume | 4 | mL | 4 | 4 | mL | LAVAGE FLUID | STOMACH | 2011-01-17T06:00 |", "score": 0.9, "match_basis": "verbatim_token+global_search"}, {"md_atom_id": "md_dmMB_ex_a119", "md_file": "knowledge_base/domains/MB/examples.md", "md_atom_type": "TABLE_ROW", "md_parent_section": "§MB.3 [Example 3]", "md_verbatim": "| 5 | ABC | BS | ABC-01-101 | 5 | 100.4 | VOLUME | Volume | 4 | mL | 4 | 4 | mL | LAVAGE FLUID | STOMACH | 2011-01-17T06:00 |", "score": 0.9, "match_basis": "verbatim_token+global_search"}], "candidate_count": 5, "zero_candidate": false}
{"pdf_atom_id": "ig34_p0260_a032", "pdf_atom_type": "TABLE_ROW", "pdf_source": "SDTMIG_v3.4", "pdf_page": 260, "pdf_parent_section": "§6.3.5.7.3 Microbiology Specimen/Microbiology Susceptibility Examples", "pdf_verbatim": "2 | ABC | BS | ABC-01-101 | 2 | 100.1 | VOLUME | Volume | 4 | mL | 4 | 4 | mL | LAVAGE FLUID | STOMACH | 2011-01-17T06:00", "figure_ref": null, "candidates": [{"md_atom_id": "md_dmMB_ex_a115", "md_file": "knowledge_base/domains/MB/examples.md", "md_atom_type": "TABLE_ROW", "md_parent_section": "§MB.3 [Example 3]", "md_verbatim": "| 1 | ABC | BS | ABC-01-101 | 1 | 100 | VOLUME | Volume | 20 | mL | 20 | 20 | mL | LAVAGE FLUID | STOMACH | 2011-01-17T06:00 |", "score": 0.9, "match_basis": "verbatim_token+global_search"}, {"md_atom_id": "md_dmMB_ex_a116", "md_file": "knowledge_base/domains/MB/examples.md", "md_atom_type": "TABLE_ROW", "md_parent_section": "§MB.3 [Example 3]", "md_verbatim": "| 2 | ABC | BS | ABC-01-101 | 2 | 100.1 | VOLUME | Volume | 4 | mL | 4 | 4 | mL | LAVAGE FLUID | STOMACH | 2011-01-17T06:00 |", "score": 0.9, "match_basis": "verbatim_token+global_search"}, {"md_atom_id": "md_dmMB_ex_a117", "md_file": "knowledge_base/domains/MB/examples.md", "md_atom_type": "TABLE_ROW", "md_parent_section": "§MB.3 [Example 3]", "md_verbatim": "| 3 | ABC | BS | ABC-01-101 | 3 | 100.2 | VOLUME | Volume | 4 | mL | 4 | 4 | mL | LAVAGE FLUID | STOMACH | 2011-01-17T06:00 |", "score": 0.9, "match_basis": "verbatim_token+global_search"}, {"md_atom_id": "md_dmMB_ex_a118", "md_file": "knowledge_base/domains/MB/examples.md", "md_atom_type": "TABLE_ROW", "md_parent_section": "§MB.3 [Example 3]", "md_verbatim": "| 4 | ABC | BS | ABC-01-101 | 4 | 100.3 | VOLUME | Volume | 4 | mL | 4 | 4 | mL | LAVAGE FLUID | STOMACH | 2011-01-17T06:00 |", "score": 0.9, "match_basis": "verbatim_token+global_search"}, {"md_atom_id": "md_dmMB_ex_a119", "md_file": "knowledge_base/domains/MB/examples.md", "md_atom_type": "TABLE_ROW", "md_parent_section": "§MB.3 [Example 3]", "md_verbatim": "| 5 | ABC | BS | ABC-01-101 | 5 | 100.4 | VOLUME | Volume | 4 | mL | 4 | 4 | mL | LAVAGE FLUID | STOMACH | 2011-01-17T06:00 |", "score": 0.9, "match_basis": "verbatim_token+global_search"}], "candidate_count": 5, "zero_candidate": false}
{"pdf_atom_id": "ig34_p0260_a033", "pdf_atom_type": "TABLE_ROW", "pdf_source": "SDTMIG_v3.4", "pdf_page": 260, "pdf_parent_section": "§6.3.5.7.3 Microbiology Specimen/Microbiology Susceptibility Examples", "pdf_verbatim": "3 | ABC | BS | ABC-01-101 | 3 | 100.2 | VOLUME | Volume | 4 | mL | 4 | 4 | mL | LAVAGE FLUID | STOMACH | 2011-01-17T06:00", "figure_ref": null, "candidates": [{"md_atom_id": "md_dmMB_ex_a115", "md_file": "knowledge_base/domains/MB/examples.md", "md_atom_type": "TABLE_ROW", "md_parent_section": "§MB.3 [Example 3]", "md_verbatim": "| 1 | ABC | BS | ABC-01-101 | 1 | 100 | VOLUME | Volume | 20 | mL | 20 | 20 | mL | LAVAGE FLUID | STOMACH | 2011-01-17T06:00 |", "score": 0.9, "match_basis": "verbatim_token+global_search"}, {"md_atom_id": "md_dmMB_ex_a116", "md_file": "knowledge_base/domains/MB/examples.md", "md_atom_type": "TABLE_ROW", "md_parent_section": "§MB.3 [Example 3]", "md_verbatim": "| 2 | ABC | BS | ABC-01-101 | 2 | 100.1 | VOLUME | Volume | 4 | mL | 4 | 4 | mL | LAVAGE FLUID | STOMACH | 2011-01-17T06:00 |", "score": 0.9, "match_basis": "verbatim_token+global_search"}, {"md_atom_id": "md_dmMB_ex_a117", "md_file": "knowledge_base/domains/MB/examples.md", "md_atom_type": "TABLE_ROW", "md_parent_section": "§MB.3 [Example 3]", "md_verbatim": "| 3 | ABC | BS | ABC-01-101 | 3 | 100.2 | VOLUME | Volume | 4 | mL | 4 | 4 | mL | LAVAGE FLUID | STOMACH | 2011-01-17T06:00 |", "score": 0.9, "match_basis": "verbatim_token+global_search"}, {"md_atom_id": "md_dmMB_ex_a118", "md_file": "knowledge_base/domains/MB/examples.md", "md_atom_type": "TABLE_ROW", "md_parent_section": "§MB.3 [Example 3]", "md_verbatim": "| 4 | ABC | BS | ABC-01-101 | 4 | 100.3 | VOLUME | Volume | 4 | mL | 4 | 4 | mL | LAVAGE FLUID | STOMACH | 2011-01-17T06:00 |", "score": 0.9, "match_basis": "verbatim_token+global_search"}, {"md_atom_id": "md_dmMB_ex_a119", "md_file": "knowledge_base/domains/MB/examples.md", "md_atom_type": "TABLE_ROW", "md_parent_section": "§MB.3 [Example 3]", "md_verbatim": "| 5 | ABC | BS | ABC-01-101 | 5 | 100.4 | VOLUME | Volume | 4 | mL | 4 | 4 | mL | LAVAGE FLUID | STOMACH | 2011-01-17T06:00 |", "score": 0.9, "match_basis": "verbatim_token+global_search"}], "candidate_count": 5, "zero_candidate": false}
{"pdf_atom_id": "ig34_p0260_a034", "pdf_atom_type": "TABLE_ROW", "pdf_source": "SDTMIG_v3.4", "pdf_page": 260, "pdf_parent_section": "§6.3.5.7.3 Microbiology Specimen/Microbiology Susceptibility Examples", "pdf_verbatim": "4 | ABC | BS | ABC-01-101 | 4 | 100.3 | VOLUME | Volume | 4 | mL | 4 | 4 | mL | LAVAGE FLUID | STOMACH | 2011-01-17T06:00", "figure_ref": null, "candidates": [{"md_atom_id": "md_dmMB_ex_a115", "md_file": "knowledge_base/domains/MB/examples.md", "md_atom_type": "TABLE_ROW", "md_parent_section": "§MB.3 [Example 3]", "md_verbatim": "| 1 | ABC | BS | ABC-01-101 | 1 | 100 | VOLUME | Volume | 20 | mL | 20 | 20 | mL | LAVAGE FLUID | STOMACH | 2011-01-17T06:00 |", "score": 0.9, "match_basis": "verbatim_token+global_search"}, {"md_atom_id": "md_dmMB_ex_a116", "md_file": "knowledge_base/domains/MB/examples.md", "md_atom_type": "TABLE_ROW", "md_parent_section": "§MB.3 [Example 3]", "md_verbatim": "| 2 | ABC | BS | ABC-01-101 | 2 | 100.1 | VOLUME | Volume | 4 | mL | 4 | 4 | mL | LAVAGE FLUID | STOMACH | 2011-01-17T06:00 |", "score": 0.9, "match_basis": "verbatim_token+global_search"}, {"md_atom_id": "md_dmMB_ex_a117", "md_file": "knowledge_base/domains/MB/examples.md", "md_atom_type": "TABLE_ROW", "md_parent_section": "§MB.3 [Example 3]", "md_verbatim": "| 3 | ABC | BS | ABC-01-101 | 3 | 100.2 | VOLUME | Volume | 4 | mL | 4 | 4 | mL | LAVAGE FLUID | STOMACH | 2011-01-17T06:00 |", "score": 0.9, "match_basis": "verbatim_token+global_search"}, {"md_atom_id": "md_dmMB_ex_a118", "md_file": "knowledge_base/domains/MB/examples.md", "md_atom_type": "TABLE_ROW", "md_parent_section": "§MB.3 [Example 3]", "md_verbatim": "| 4 | ABC | BS | ABC-01-101 | 4 | 100.3 | VOLUME | Volume | 4 | mL | 4 | 4 | mL | LAVAGE FLUID | STOMACH | 2011-01-17T06:00 |", "score": 0.9, "match_basis": "verbatim_token+global_search"}, {"md_atom_id": "md_dmMB_ex_a119", "md_file": "knowledge_base/domains/MB/examples.md", "md_atom_type": "TABLE_ROW", "md_parent_section": "§MB.3 [Example 3]", "md_verbatim": "| 5 | ABC | BS | ABC-01-101 | 5 | 100.4 | VOLUME | Volume | 4 | mL | 4 | 4 | mL | LAVAGE FLUID | STOMACH | 2011-01-17T06:00 |", "score": 0.9, "match_basis": "verbatim_token+global_search"}], "candidate_count": 5, "zero_candidate": false}
{"pdf_atom_id": "ig34_p0260_a035", "pdf_atom_type": "TABLE_ROW", "pdf_source": "SDTMIG_v3.4", "pdf_page": 260, "pdf_parent_section": "§6.3.5.7.3 Microbiology Specimen/Microbiology Susceptibility Examples", "pdf_verbatim": "5 | ABC | BS | ABC-01-101 | 5 | 100.4 | VOLUME | Volume | 4 | mL | 4 | 4 | mL | LAVAGE FLUID | STOMACH | 2011-01-17T06:00", "figure_ref": null, "candidates": [{"md_atom_id": "md_dmMB_ex_a115", "md_file": "knowledge_base/domains/MB/examples.md", "md_atom_type": "TABLE_ROW", "md_parent_section": "§MB.3 [Example 3]", "md_verbatim": "| 1 | ABC | BS | ABC-01-101 | 1 | 100 | VOLUME | Volume | 20 | mL | 20 | 20 | mL | LAVAGE FLUID | STOMACH | 2011-01-17T06:00 |", "score": 0.9, "match_basis": "verbatim_token+global_search"}, {"md_atom_id": "md_dmMB_ex_a116", "md_file": "knowledge_base/domains/MB/examples.md", "md_atom_type": "TABLE_ROW", "md_parent_section": "§MB.3 [Example 3]", "md_verbatim": "| 2 | ABC | BS | ABC-01-101 | 2 | 100.1 | VOLUME | Volume | 4 | mL | 4 | 4 | mL | LAVAGE FLUID | STOMACH | 2011-01-17T06:00 |", "score": 0.9, "match_basis": "verbatim_token+global_search"}, {"md_atom_id": "md_dmMB_ex_a117", "md_file": "knowledge_base/domains/MB/examples.md", "md_atom_type": "TABLE_ROW", "md_parent_section": "§MB.3 [Example 3]", "md_verbatim": "| 3 | ABC | BS | ABC-01-101 | 3 | 100.2 | VOLUME | Volume | 4 | mL | 4 | 4 | mL | LAVAGE FLUID | STOMACH | 2011-01-17T06:00 |", "score": 0.9, "match_basis": "verbatim_token+global_search"}, {"md_atom_id": "md_dmMB_ex_a118", "md_file": "knowledge_base/domains/MB/examples.md", "md_atom_type": "TABLE_ROW", "md_parent_section": "§MB.3 [Example 3]", "md_verbatim": "| 4 | ABC | BS | ABC-01-101 | 4 | 100.3 | VOLUME | Volume | 4 | mL | 4 | 4 | mL | LAVAGE FLUID | STOMACH | 2011-01-17T06:00 |", "score": 0.9, "match_basis": "verbatim_token+global_search"}, {"md_atom_id": "md_dmMB_ex_a119", "md_file": "knowledge_base/domains/MB/examples.md", "md_atom_type": "TABLE_ROW", "md_parent_section": "§MB.3 [Example 3]", "md_verbatim": "| 5 | ABC | BS | ABC-01-101 | 5 | 100.4 | VOLUME | Volume | 4 | mL | 4 | 4 | mL | LAVAGE FLUID | STOMACH | 2011-01-17T06:00 |", "score": 0.9, "match_basis": "verbatim_token+global_search"}], "candidate_count": 5, "zero_candidate": false}
{"pdf_atom_id": "ig34_p0260_a036", "pdf_atom_type": "TABLE_ROW", "pdf_source": "SDTMIG_v3.4", "pdf_page": 260, "pdf_parent_section": "§6.3.5.7.3 Microbiology Specimen/Microbiology Susceptibility Examples", "pdf_verbatim": "6 | ABC | BS | ABC-01-101 | 6 | 100.5 | VOLUME | Volume | 4 | mL | 4 | 4 | mL | LAVAGE FLUID | STOMACH | 2011-01-17T06:00", "figure_ref": null, "candidates": [{"md_atom_id": "md_dmMB_ex_a115", "md_file": "knowledge_base/domains/MB/examples.md", "md_atom_type": "TABLE_ROW", "md_parent_section": "§MB.3 [Example 3]", "md_verbatim": "| 1 | ABC | BS | ABC-01-101 | 1 | 100 | VOLUME | Volume | 20 | mL | 20 | 20 | mL | LAVAGE FLUID | STOMACH | 2011-01-17T06:00 |", "score": 0.9, "match_basis": "verbatim_token+global_search"}, {"md_atom_id": "md_dmMB_ex_a116", "md_file": "knowledge_base/domains/MB/examples.md", "md_atom_type": "TABLE_ROW", "md_parent_section": "§MB.3 [Example 3]", "md_verbatim": "| 2 | ABC | BS | ABC-01-101 | 2 | 100.1 | VOLUME | Volume | 4 | mL | 4 | 4 | mL | LAVAGE FLUID | STOMACH | 2011-01-17T06:00 |", "score": 0.9, "match_basis": "verbatim_token+global_search"}, {"md_atom_id": "md_dmMB_ex_a117", "md_file": "knowledge_base/domains/MB/examples.md", "md_atom_type": "TABLE_ROW", "md_parent_section": "§MB.3 [Example 3]", "md_verbatim": "| 3 | ABC | BS | ABC-01-101 | 3 | 100.2 | VOLUME | Volume | 4 | mL | 4 | 4 | mL | LAVAGE FLUID | STOMACH | 2011-01-17T06:00 |", "score": 0.9, "match_basis": "verbatim_token+global_search"}, {"md_atom_id": "md_dmMB_ex_a118", "md_file": "knowledge_base/domains/MB/examples.md", "md_atom_type": "TABLE_ROW", "md_parent_section": "§MB.3 [Example 3]", "md_verbatim": "| 4 | ABC | BS | ABC-01-101 | 4 | 100.3 | VOLUME | Volume | 4 | mL | 4 | 4 | mL | LAVAGE FLUID | STOMACH | 2011-01-17T06:00 |", "score": 0.9, "match_basis": "verbatim_token+global_search"}, {"md_atom_id": "md_dmMB_ex_a119", "md_file": "knowledge_base/domains/MB/examples.md", "md_atom_type": "TABLE_ROW", "md_parent_section": "§MB.3 [Example 3]", "md_verbatim": "| 5 | ABC | BS | ABC-01-101 | 5 | 100.4 | VOLUME | Volume | 4 | mL | 4 | 4 | mL | LAVAGE FLUID | STOMACH | 2011-01-17T06:00 |", "score": 0.9, "match_basis": "verbatim_token+global_search"}], "candidate_count": 5, "zero_candidate": false}
{"pdf_atom_id": "ig34_p0261_a001", "pdf_atom_type": "SENTENCE", "pdf_source": "SDTMIG_v3.4", "pdf_page": 261, "pdf_parent_section": "§6.3.5.7 Microbiology Domains", "pdf_verbatim": "The RELSPEC table shows the relationship of the parent sample to its aliquots. The LEVEL variable indicates that the sample has been subsampled. The original parent sample is always LEVEL=\"1\". An aliquot of the sample would be LEVEL=\"2\". If the aliquot was further split, that subsample would be LEVEL=\"3\".", "figure_ref": null, "candidates": [{"md_atom_id": "md_dmMB_ex_a097", "md_file": "knowledge_base/domains/MB/examples.md", "md_atom_type": "SENTENCE", "md_parent_section": "§MB.3 [Example 3]", "md_verbatim": "The RELSPEC table shows the relationship of the parent sample to its aliquots.", "score": 0.57, "match_basis": "verbatim_token+global_search"}, {"md_atom_id": "md_dmMB_ex_a098", "md_file": "knowledge_base/domains/MB/examples.md", "md_atom_type": "SENTENCE", "md_parent_section": "§MB.3 [Example 3]", "md_verbatim": "The LEVEL variable indicates that the sample has been subsampled.", "score": 0.525, "match_basis": "verbatim_token+global_search"}, {"md_atom_id": "md_dmMB_ex_a101", "md_file": "knowledge_base/domains/MB/examples.md", "md_atom_type": "SENTENCE", "md_parent_section": "§MB.3 [Example 3]", "md_verbatim": "If the aliquot was further split, that subsample would be LEVEL=\"3\".", "score": 0.5175, "match_basis": "verbatim_token+global_search"}, {"md_atom_id": "md_dmMB_ex_a099", "md_file": "knowledge_base/domains/MB/examples.md", "md_atom_type": "SENTENCE", "md_parent_section": "§MB.3 [Example 3]", "md_verbatim": "The original parent sample is always LEVEL=\"1\".", "score": 0.465, "match_basis": "verbatim_token+global_search"}, {"md_atom_id": "md_dmMB_ex_a082", "md_file": "knowledge_base/domains/MB/examples.md", "md_atom_type": "SENTENCE", "md_parent_section": "§MB.3 [Example 3]", "md_verbatim": "**Rows 2-6:** Show that the sample was aliquoted (i.e., smaller subsamples were portioned out from the parent sample) and each separate aliquot assigned a unique BEREFID. In such cases, BEREFID is an incremented decimal value with the original sample's BEREFID (when BECAT=\"COLLECTION\") as the base number. (This is not an explicit requirement, but makes tracking the samples easier.) The definitive link between parent-child samples is defined by the PARENT variable shown in the RELSPEC dataset.", "score": 0.4373, "match_basis": "verbatim_token+global_search"}], "candidate_count": 5, "zero_candidate": false}
{"pdf_atom_id": "ig34_p0261_a002", "pdf_atom_type": "LIST_ITEM", "pdf_source": "SDTMIG_v3.4", "pdf_page": 261, "pdf_parent_section": "§6.3.5.7 Microbiology Domains", "pdf_verbatim": "Row 1: Shows the original collected (parent) sample. The PARENT variable is left blank to indicate that this is the highest level sample.", "figure_ref": null, "candidates": [{"md_atom_id": "md_ch04_a841", "md_file": "knowledge_base/chapters/ch04_general_assumptions.md", "md_atom_type": "LIST_ITEM", "md_parent_section": "§4.5.1.3 [Examples of Original and Standard Units and Test Not Done]", "md_verbatim": "- **Row 7:** A result was derived from multiple results, so LBDRVFL = \"Y\". Note that the original collected data are not shown in this example.", "score": 0.4786, "match_basis": "verbatim_token+global_search"}, {"md_atom_id": "md_ch08_a335", "md_file": "knowledge_base/chapters/ch08_relationships.md", "md_atom_type": "SENTENCE", "md_parent_section": "§8.8 [Related Specimens (RELSPEC)]", "md_verbatim": "A specimen with a LEVEL value of \"1\" and a blank value for PARENT indicates a collected sample.", "score": 0.4448, "match_basis": "verbatim_token+global_search"}, {"md_atom_id": "md_ch04_a912", "md_file": "knowledge_base/chapters/ch04_general_assumptions.md", "md_atom_type": "LIST_ITEM", "md_parent_section": "§4.5.3.2 [Text Strings Greater than 200 Characters in Other Variables]", "md_verbatim": "- The value for **QLABEL should be the original domain variable label**:", "score": 0.42, "match_basis": "verbatim_token+global_search"}, {"md_atom_id": "md_ch02_a040", "md_file": "knowledge_base/chapters/ch02_fundamentals.md", "md_atom_type": "LIST_ITEM", "md_parent_section": "§2.2 [Datasets and Domains]", "md_verbatim": "- Data as originally collected or received", "score": 0.42, "match_basis": "verbatim_token+global_search"}, {"md_atom_id": "md_dmMB_ex_a098", "md_file": "knowledge_base/domains/MB/examples.md", "md_atom_type": "SENTENCE", "md_parent_section": "§MB.3 [Example 3]", "md_verbatim": "The LEVEL variable indicates that the sample has been subsampled.", "score": 0.4195, "match_basis": "verbatim_token+global_search"}], "candidate_count": 5, "zero_candidate": false}
{"pdf_atom_id": "ig34_p0261_a003", "pdf_atom_type": "LIST_ITEM", "pdf_source": "SDTMIG_v3.4", "pdf_page": 261, "pdf_parent_section": "§6.3.5.7 Microbiology Domains", "pdf_verbatim": "Rows 2-6: Show the relationship of each aliquot in the BE domain to the parent sample. PARENT is populated with the REFID value of the parent sample, indicating that the sample with REFID=\"100\" is the parent of these samples. LEVEL=\"2\" indicates that these aliquots are subsamples of the original (LEVEL=\"1\") sample.", "figure_ref": null, "candidates": [{"md_atom_id": "md_ch04_a812", "md_file": "knowledge_base/chapters/ch04_general_assumptions.md", "md_atom_type": "LIST_ITEM", "md_parent_section": "§4.4.11 [Disease Milestones and Disease Milestone Timing Variables]", "md_verbatim": "- RELREC indicates that there is a relationship between records or datasets, but not the nature of the relationship; records with the same MIDS value are related to the same disease milestone", "score": 0.4526, "match_basis": "verbatim_token+global_search"}, {"md_atom_id": "md_ch08_a010", "md_file": "knowledge_base/chapters/ch08_relationships.md", "md_atom_type": "LIST_ITEM", "md_parent_section": "§8 [Representing Relationships and Data]", "md_verbatim": "- **Section 8.4**, Relating Non-standard Variable Values to a Parent Domain — the method for representing the dependent relationship where data that cannot be represented by a standard variable within DM or a GOC domain record can be related back to that record", "score": 0.4453, "match_basis": "verbatim_token+global_search"}, {"md_atom_id": "md_dmMS_assn_a010", "md_file": "knowledge_base/domains/MS/assumptions.md", "md_atom_type": "LIST_ITEM", "md_parent_section": "§MS [MS — Assumptions]", "md_verbatim": "3. If the specimen was cultured, the start and end date of culture are represented in the Biospecimen Events (BE) domain in BESTDTC and BEENDTC respectively. --REFID represents the sample ID as originally assigned in the BE domain. See BE domain assumptions in the SDTMIG v3.4, Section 6.2.2, for guidelines on assigning --REFID values to samples and subsamples.", "score": 0.444, "match_basis": "verbatim_token+global_search"}, {"md_atom_id": "md_dmOE_assn_a003", "md_file": "knowledge_base/domains/OE/assumptions.md", "md_atom_type": "LIST_ITEM", "md_parent_section": "§OE [OE — Assumptions]", "md_verbatim": "2. In any study that uses FOCID, FOCID would be included in records in any subject-level domain representing findings, interventions, or events (e.g., Adverse Events) related to the eyes. Whether or not FOCID is used in a study, --LOC and --LAT should be populated in records related to the eyes. The value in OELOC may be \"EYE\" but may also be a part of the eye (e.g., \"RETINA\", \"CORNEA\").", "score": 0.4438, "match_basis": "verbatim_token+global_search"}, {"md_atom_id": "md_ch08_a215", "md_file": "knowledge_base/chapters/ch08_relationships.md", "md_atom_type": "LIST_ITEM", "md_parent_section": "§8.5 [Relating Comments to a Parent Domain]", "md_verbatim": "3. Comments related to specific domain record(s) for a subject would populate the RDOMAIN, IDVAR, and IDVARVAL variables with values that identify the specific parent record(s).", "score": 0.4397, "match_basis": "verbatim_token+global_search"}], "candidate_count": 5, "zero_candidate": false}
