{"pdf_atom_id": "ig34_p0109_a007", "pdf_atom_type": "TABLE_ROW", "pdf_source": "SDTMIG_v3.4", "pdf_page": 109, "pdf_parent_section": "§6.1.3.2 [Exposure as Collected (EC)]", "pdf_verbatim": "ECELTM | Planned Elapsed Time from Time Point Ref | Char | ISO 8601 duration | Timing | Planned elapsed time relative to the planned fixed reference (ECTPTREF). This variable is useful where there are repetitive measures. Not a clock time. | Perm", "figure_ref": null, "candidates": [{"md_atom_id": "md_dmEC_ex_a019", "md_file": "knowledge_base/domains/EC/examples.md", "md_atom_type": "TABLE_ROW", "md_parent_section": "§EC.2 [Example 2]", "md_verbatim": "| 1 | ABC | EC | ABC3001 | 1 | INJ1 | V3 | DRUG X | Y | Y | 5 | mL | INJECTION | ONCE | SUBCUTANEOUS | ABDOMINAL CAVITY | LEFT | VISIT 3 | TREATMENT | 2009-05-10 | 2009-05-10 | 21 | 21 |", "score": 0.4269, "match_basis": "verbatim_token+domain_route:EC"}, {"md_atom_id": "md_dmEC_ex_a020", "md_file": "knowledge_base/domains/EC/examples.md", "md_atom_type": "TABLE_ROW", "md_parent_section": "§EC.2 [Example 2]", "md_verbatim": "| 2 | ABC | EC | ABC3001 | 2 | INJ2 | V3 | DRUG X | Y | Y | 5 | mL | INJECTION | ONCE | SUBCUTANEOUS | ABDOMINAL CAVITY | CENTER | VISIT 3 | TREATMENT | 2009-05-10 | 2009-05-10 | 21 | 21 |", "score": 0.4267, "match_basis": "verbatim_token+domain_route:EC"}, {"md_atom_id": "md_dmEC_ex_a021", "md_file": "knowledge_base/domains/EC/examples.md", "md_atom_type": "TABLE_ROW", "md_parent_section": "§EC.2 [Example 2]", "md_verbatim": "| 3 | ABC | EC | ABC3001 | 3 | INJ3 | V3 | DRUG X | Y | Y | 5 | mL | INJECTION | ONCE | SUBCUTANEOUS | ABDOMINAL CAVITY | RIGHT | VISIT 3 | TREATMENT | 2009-05-10 | 2009-05-10 | 21 | 21 |", "score": 0.4267, "match_basis": "verbatim_token+domain_route:EC"}, {"md_atom_id": "md_dmEC_ex_a080", "md_file": "knowledge_base/domains/EC/examples.md", "md_atom_type": "TABLE_ROW", "md_parent_section": "§EC.8 [Example 8]", "md_verbatim": "| 2 | ABC | EC | ABC7001 | 2 | BOTTLE A | EXCEPTION DOSE | Y | N | | TABLET | QD | TREATMENT | 2012-01-15 | 2012-01-15 | 3 | 3 |", "score": 0.4263, "match_basis": "verbatim_token+domain_route:EC"}, {"md_atom_id": "md_dmEC_ex_a081", "md_file": "knowledge_base/domains/EC/examples.md", "md_atom_type": "TABLE_ROW", "md_parent_section": "§EC.8 [Example 8]", "md_verbatim": "| 3 | ABC | EC | ABC7001 | 3 | BOTTLE A | EXCEPTION DOSE | Y | Y | 2 | TABLET | QD | TREATMENT | 2012-01-16 | 2012-01-16 | 4 | 4 |", "score": 0.4263, "match_basis": "verbatim_token+domain_route:EC"}], "candidate_count": 5, "zero_candidate": false}
{"pdf_atom_id": "ig34_p0109_a008", "pdf_atom_type": "TABLE_ROW", "pdf_source": "SDTMIG_v3.4", "pdf_page": 109, "pdf_parent_section": "§6.1.3.2 [Exposure as Collected (EC)]", "pdf_verbatim": "ECTPTREF | Time Point Reference | Char | | Timing | Name of the fixed reference point referred to by ECELTM, ECTPTNUM, and ECTPT. Examples: \"PREVIOUS DOSE\", \"PREVIOUS MEAL\". | Perm", "figure_ref": null, "candidates": [{"md_atom_id": "md_dmEC_ex_a067", "md_file": "knowledge_base/domains/EC/examples.md", "md_atom_type": "TABLE_ROW", "md_parent_section": "§EC.7 [Example 7]", "md_verbatim": "| 3 | ABC123 | EC | ABC123-0201 | 3 | | V2 | DRUG Z | SCHEDULED | | | | 7.5 | mg/kg | | | Dose limiting toxicity | VISIT TREATMENT | 2 | VISIT 2 | 2009-02-20 | 2009-02-20 | 8 | 8 |", "score": 0.4323, "match_basis": "verbatim_token+domain_route:EC"}, {"md_atom_id": "md_dmEC_ex_a019", "md_file": "knowledge_base/domains/EC/examples.md", "md_atom_type": "TABLE_ROW", "md_parent_section": "§EC.2 [Example 2]", "md_verbatim": "| 1 | ABC | EC | ABC3001 | 1 | INJ1 | V3 | DRUG X | Y | Y | 5 | mL | INJECTION | ONCE | SUBCUTANEOUS | ABDOMINAL CAVITY | LEFT | VISIT 3 | TREATMENT | 2009-05-10 | 2009-05-10 | 21 | 21 |", "score": 0.4288, "match_basis": "verbatim_token+domain_route:EC"}, {"md_atom_id": "md_dmEC_ex_a020", "md_file": "knowledge_base/domains/EC/examples.md", "md_atom_type": "TABLE_ROW", "md_parent_section": "§EC.2 [Example 2]", "md_verbatim": "| 2 | ABC | EC | ABC3001 | 2 | INJ2 | V3 | DRUG X | Y | Y | 5 | mL | INJECTION | ONCE | SUBCUTANEOUS | ABDOMINAL CAVITY | CENTER | VISIT 3 | TREATMENT | 2009-05-10 | 2009-05-10 | 21 | 21 |", "score": 0.4286, "match_basis": "verbatim_token+domain_route:EC"}, {"md_atom_id": "md_dmEC_ex_a021", "md_file": "knowledge_base/domains/EC/examples.md", "md_atom_type": "TABLE_ROW", "md_parent_section": "§EC.2 [Example 2]", "md_verbatim": "| 3 | ABC | EC | ABC3001 | 3 | INJ3 | V3 | DRUG X | Y | Y | 5 | mL | INJECTION | ONCE | SUBCUTANEOUS | ABDOMINAL CAVITY | RIGHT | VISIT 3 | TREATMENT | 2009-05-10 | 2009-05-10 | 21 | 21 |", "score": 0.4286, "match_basis": "verbatim_token+domain_route:EC"}, {"md_atom_id": "md_dmEC_ex_a079", "md_file": "knowledge_base/domains/EC/examples.md", "md_atom_type": "TABLE_ROW", "md_parent_section": "§EC.8 [Example 8]", "md_verbatim": "| 1 | ABC | EC | ABC7001 | 1 | BOTTLE A | FIRST TO LAST DOSE INTERVAL | Y | Y | 1 | TABLET | QD | TREATMENT | 2012-01-13 | 2012-01-20 | 1 | 8 |", "score": 0.4273, "match_basis": "verbatim_token+domain_route:EC"}], "candidate_count": 5, "zero_candidate": false}
{"pdf_atom_id": "ig34_p0109_a009", "pdf_atom_type": "TABLE_ROW", "pdf_source": "SDTMIG_v3.4", "pdf_page": 109, "pdf_parent_section": "§6.1.3.2 [Exposure as Collected (EC)]", "pdf_verbatim": "ECRFTDTC | Date/Time of Reference Time Point | Char | ISO 8601 datetime or interval | Timing | Date/time for a fixed reference time point defined by ECTPTREF. | Perm", "figure_ref": null, "candidates": [{"md_atom_id": "md_dmEC_ex_a079", "md_file": "knowledge_base/domains/EC/examples.md", "md_atom_type": "TABLE_ROW", "md_parent_section": "§EC.8 [Example 8]", "md_verbatim": "| 1 | ABC | EC | ABC7001 | 1 | BOTTLE A | FIRST TO LAST DOSE INTERVAL | Y | Y | 1 | TABLET | QD | TREATMENT | 2012-01-13 | 2012-01-20 | 1 | 8 |", "score": 0.4532, "match_basis": "verbatim_token+domain_route:EC"}, {"md_atom_id": "md_dmEC_ex_a020", "md_file": "knowledge_base/domains/EC/examples.md", "md_atom_type": "TABLE_ROW", "md_parent_section": "§EC.2 [Example 2]", "md_verbatim": "| 2 | ABC | EC | ABC3001 | 2 | INJ2 | V3 | DRUG X | Y | Y | 5 | mL | INJECTION | ONCE | SUBCUTANEOUS | ABDOMINAL CAVITY | CENTER | VISIT 3 | TREATMENT | 2009-05-10 | 2009-05-10 | 21 | 21 |", "score": 0.4367, "match_basis": "verbatim_token+domain_route:EC"}, {"md_atom_id": "md_dmEC_ex_a019", "md_file": "knowledge_base/domains/EC/examples.md", "md_atom_type": "TABLE_ROW", "md_parent_section": "§EC.2 [Example 2]", "md_verbatim": "| 1 | ABC | EC | ABC3001 | 1 | INJ1 | V3 | DRUG X | Y | Y | 5 | mL | INJECTION | ONCE | SUBCUTANEOUS | ABDOMINAL CAVITY | LEFT | VISIT 3 | TREATMENT | 2009-05-10 | 2009-05-10 | 21 | 21 |", "score": 0.4242, "match_basis": "verbatim_token+domain_route:EC"}, {"md_atom_id": "md_dmEC_ex_a021", "md_file": "knowledge_base/domains/EC/examples.md", "md_atom_type": "TABLE_ROW", "md_parent_section": "§EC.2 [Example 2]", "md_verbatim": "| 3 | ABC | EC | ABC3001 | 3 | INJ3 | V3 | DRUG X | Y | Y | 5 | mL | INJECTION | ONCE | SUBCUTANEOUS | ABDOMINAL CAVITY | RIGHT | VISIT 3 | TREATMENT | 2009-05-10 | 2009-05-10 | 21 | 21 |", "score": 0.424, "match_basis": "verbatim_token+domain_route:EC"}, {"md_atom_id": "md_dmEC_ex_a066", "md_file": "knowledge_base/domains/EC/examples.md", "md_atom_type": "TABLE_ROW", "md_parent_section": "§EC.7 [Example 7]", "md_verbatim": "| 2 | ABC123 | EC | ABC123-0201 | 2 | 20090213T1000 | V1 | DRUG Z | PERFORMED | Y | Y | | 99 | mL | 5.5 | mg/mL | | VISIT TREATMENT | 1 | VISIT 1 | 2009-02-13T10:00 | 2009-02-13T10:45 | 1 | 1 |", "score": 0.4214, "match_basis": "verbatim_token+domain_route:EC"}], "candidate_count": 5, "zero_candidate": false}
{"pdf_atom_id": "ig34_p0109_a010", "pdf_atom_type": "NOTE", "pdf_source": "SDTMIG_v3.4", "pdf_page": 109, "pdf_parent_section": "§6.1.3.2 [Exposure as Collected (EC)]", "pdf_verbatim": "1In this column, an asterisk (*) indicates that the variable may be subject to controlled terminology. CDISC/NCI codelist values are enclosed in parentheses.", "figure_ref": null, "candidates": [{"md_atom_id": "md_dmEC_ex_a015", "md_file": "knowledge_base/domains/EC/examples.md", "md_atom_type": "SENTENCE", "md_parent_section": "§EC.2 [Example 2]", "md_verbatim": "This example shows data from an open-label study. A subject received drug X as a 20 mg/mL solution administered across 3 injection sites to deliver a total dose of 3 mg/kg. The subject's weight was 100 kg.", "score": 0.3834, "match_basis": "verbatim_token+domain_route:EC"}, {"md_atom_id": "md_dmEC_ex_a047", "md_file": "knowledge_base/domains/EC/examples.md", "md_atom_type": "SENTENCE", "md_parent_section": "§EC.6 [Example 6]", "md_verbatim": "**Rows 1-12:** Unblinding revealed that subject 56789001 received placebo-coated tablets during the first treatment epoch and placebo capsules during the second treatment epoch.", "score": 0.3786, "match_basis": "verbatim_token+domain_route:EC"}, {"md_atom_id": "md_dmEC_ex_a048", "md_file": "knowledge_base/domains/EC/examples.md", "md_atom_type": "SENTENCE", "md_parent_section": "§EC.6 [Example 6]", "md_verbatim": "**Rows 13-24:** Unblinding revealed that subject 56789003 received placebo capsules during the first treatment epoch and placebo-coated tablets during the second treatment epoch.", "score": 0.3786, "match_basis": "verbatim_token+domain_route:EC"}, {"md_atom_id": "md_dmEC_ex_a035", "md_file": "knowledge_base/domains/EC/examples.md", "md_atom_type": "SENTENCE", "md_parent_section": "§EC.5 [Example 5]", "md_verbatim": "The EC dataset shows the administrations as collected. The time-point variables ECTPT and ECTPTNUM were used to describe the time of day of administration.", "score": 0.3783, "match_basis": "verbatim_token+domain_route:EC"}, {"md_atom_id": "md_dmEC_ex_a005", "md_file": "knowledge_base/domains/EC/examples.md", "md_atom_type": "SENTENCE", "md_parent_section": "§EC.1 [Example 1]", "md_verbatim": "Upon unmasking, it became known that subject ABC1001 received drug X and Subject ABC2001 received drug Z. The EC dataset shows the administrations of study treatment as collected.", "score": 0.3687, "match_basis": "verbatim_token+domain_route:EC"}], "candidate_count": 5, "zero_candidate": false}
{"pdf_atom_id": "ig34_p0109_a011", "pdf_atom_type": "HEADING", "pdf_source": "SDTMIG_v3.4", "pdf_page": 109, "pdf_parent_section": "§6.1.3.2 [Exposure as Collected (EC)]", "pdf_verbatim": "EC – Assumptions", "figure_ref": null, "candidates": [{"md_atom_id": "md_dmEC_assn_a001", "md_file": "knowledge_base/domains/EC/assumptions.md", "md_atom_type": "HEADING", "md_parent_section": "§EC [EC — Assumptions]", "md_verbatim": "# EC — Assumptions", "score": 1.0, "match_basis": "verbatim_token+domain_route:EC"}, {"md_atom_id": "md_dmEC_ex_a001", "md_file": "knowledge_base/domains/EC/examples.md", "md_atom_type": "HEADING", "md_parent_section": "§EC [EC — Examples]", "md_verbatim": "# EC — Examples", "score": 0.4, "match_basis": "verbatim_token+domain_route:EC"}, {"md_atom_id": "md_dmEC_ex_a003", "md_file": "knowledge_base/domains/EC/examples.md", "md_atom_type": "HEADING", "md_parent_section": "§EC [EC — Examples]", "md_verbatim": "## Example 1", "score": 0.4, "match_basis": "verbatim_token+domain_route:EC"}, {"md_atom_id": "md_dmEC_ex_a014", "md_file": "knowledge_base/domains/EC/examples.md", "md_atom_type": "HEADING", "md_parent_section": "§EC [EC — Examples]", "md_verbatim": "## Example 2", "score": 0.4, "match_basis": "verbatim_token+domain_route:EC"}, {"md_atom_id": "md_dmEC_ex_a022", "md_file": "knowledge_base/domains/EC/examples.md", "md_atom_type": "HEADING", "md_parent_section": "§EC [EC — Examples]", "md_verbatim": "## Example 3", "score": 0.4, "match_basis": "verbatim_token+domain_route:EC"}], "candidate_count": 5, "zero_candidate": false}
{"pdf_atom_id": "ig34_p0109_a012", "pdf_atom_type": "LIST_ITEM", "pdf_source": "SDTMIG_v3.4", "pdf_page": 109, "pdf_parent_section": "§6.1.3.2 [Exposure as Collected (EC)]", "pdf_verbatim": "The EC domain model reflects protocol-specified study treatment administrations, as collected.", "figure_ref": null, "candidates": [{"md_atom_id": "md_dmEC_assn_a002", "md_file": "knowledge_base/domains/EC/assumptions.md", "md_atom_type": "LIST_ITEM", "md_parent_section": "§EC [EC — Assumptions]", "md_verbatim": "1. The EC domain model reflects protocol-specified study treatment administrations, as collected.", "score": 1.0, "match_basis": "verbatim_token+domain_route:EC"}, {"md_atom_id": "md_dmEC_assn_a006", "md_file": "knowledge_base/domains/EC/assumptions.md", "md_atom_type": "LIST_ITEM", "md_parent_section": "§EC [EC — Assumptions]", "md_verbatim": "2. Treatment description (ECTRT) is sponsor-defined and should reflect how the protocol-specified study treatment is known or referred to in data collection. In an open-label study, ECTRT should store the treatment name. In a masked study, if treatment is collected and known as tablet A to the subject or administrator, then ECTRT = \"TABLET A\". If, in a masked study, the treatment is not known by a synonym and the data are to be exchanged between sponsors, partners, and/or regulatory agency(s), then assign ECTRT the value of \"MASKED\".", "score": 0.5731, "match_basis": "verbatim_token+domain_route:EC"}, {"md_atom_id": "md_dmEC_assn_a003", "md_file": "knowledge_base/domains/EC/assumptions.md", "md_atom_type": "LIST_ITEM", "md_parent_section": "§EC [EC — Assumptions]", "md_verbatim": "   a. EC should be used in all cases where collected exposure information cannot or should not be directly represented in the Exposure (EX) domain. For example, administrations collected in tablets when the protocol-specified unit is mg, or administrations collected in mL when the protocol-specified unit is mg/kg. Product accountability details (e.g., amount dispensed, amount returned) are represented in the DA domain, not in EC.", "score": 0.5606, "match_basis": "verbatim_token+domain_route:EC"}, {"md_atom_id": "md_dmEC_assn_a020", "md_file": "knowledge_base/domains/EC/assumptions.md", "md_atom_type": "LIST_ITEM", "md_parent_section": "§EC [EC — Assumptions]", "md_verbatim": "   a. Timing variables in the EC domain should reflect administrations by the intervals they were collected (e.g., constant-dosing intervals, visits, targeted dates like first dose, last dose).", "score": 0.5585, "match_basis": "verbatim_token+domain_route:EC"}, {"md_atom_id": "md_dmEC_assn_a005", "md_file": "knowledge_base/domains/EC/assumptions.md", "md_atom_type": "LIST_ITEM", "md_parent_section": "§EC [EC — Assumptions]", "md_verbatim": "   c. Collected exposure log data points descriptive of administrations typically reflect amounts at the product-level (e.g., number of tablets, number of mL).", "score": 0.5456, "match_basis": "verbatim_token+domain_route:EC"}], "candidate_count": 5, "zero_candidate": false}
{"pdf_atom_id": "ig34_p0109_a013", "pdf_atom_type": "LIST_ITEM", "pdf_source": "SDTMIG_v3.4", "pdf_page": 109, "pdf_parent_section": "§6.1.3.2 [Exposure as Collected (EC)]", "pdf_verbatim": "EC should be used in all cases where collected exposure information cannot or should not be directly represented in the Exposure (EX) domain. For example, administrations collected in tablets when the protocol-specified unit is mg, or administrations collected in mL when the protocol-specified unit is mg/kg. Product accountability details (e.g., amount dispensed, amount returned) are represented in the DA domain, not in EC.", "figure_ref": null, "candidates": [{"md_atom_id": "md_dmEC_assn_a003", "md_file": "knowledge_base/domains/EC/assumptions.md", "md_atom_type": "LIST_ITEM", "md_parent_section": "§EC [EC — Assumptions]", "md_verbatim": "   a. EC should be used in all cases where collected exposure information cannot or should not be directly represented in the Exposure (EX) domain. For example, administrations collected in tablets when the protocol-specified unit is mg, or administrations collected in mL when the protocol-specified unit is mg/kg. Product accountability details (e.g., amount dispensed, amount returned) are represented in the DA domain, not in EC.", "score": 1.0, "match_basis": "verbatim_token+domain_route:EC"}, {"md_atom_id": "md_dmEC_assn_a002", "md_file": "knowledge_base/domains/EC/assumptions.md", "md_atom_type": "LIST_ITEM", "md_parent_section": "§EC [EC — Assumptions]", "md_verbatim": "1. The EC domain model reflects protocol-specified study treatment administrations, as collected.", "score": 0.5606, "match_basis": "verbatim_token+domain_route:EC"}, {"md_atom_id": "md_dmEC_assn_a005", "md_file": "knowledge_base/domains/EC/assumptions.md", "md_atom_type": "LIST_ITEM", "md_parent_section": "§EC [EC — Assumptions]", "md_verbatim": "   c. Collected exposure log data points descriptive of administrations typically reflect amounts at the product-level (e.g., number of tablets, number of mL).", "score": 0.5595, "match_basis": "verbatim_token+domain_route:EC"}, {"md_atom_id": "md_dmEC_assn_a017", "md_file": "knowledge_base/domains/EC/assumptions.md", "md_atom_type": "LIST_ITEM", "md_parent_section": "§EC [EC — Assumptions]", "md_verbatim": "   b. The population of qualifier variables (e.g., grouping, record) and additional timing variables (e.g., date of collection, visit, time point) for records representing information collected about doses not taken, not given, or missed should be populated with equal granularity as administered records, when known and/or applicable. Qualifiers that indicate dose amount (e.g., ECDOSE, ECDOSTXT) may be populated with positive (non-zero) values in cases where the sponsor feels it is necessary and/or appropriate to represent specific dose amounts not taken, not given, or missed.", "score": 0.544, "match_basis": "verbatim_token+domain_route:EC"}, {"md_atom_id": "md_dmEC_assn_a016", "md_file": "knowledge_base/domains/EC/assumptions.md", "md_atom_type": "LIST_ITEM", "md_parent_section": "§EC [EC — Assumptions]", "md_verbatim": "   a. The record qualifier --OCCUR, with value of \"N\", is available in domains based on the Interventions and Events General Observation Classes as the standard way to represent whether an intervention or event did not happen. In the EC domain, ECOCCUR value of \"N\" indicates a dose was not taken, not given, or missed. For example, if zero tablets are taken within a timeframe or zero mL is infused at a visit, then ECOCCUR = \"N\" is the standard representation of the collected doses not taken, not given, or missed. Dose amount variables (e.g., ECDOSE, ECDOSTXT) must not be set to zero (0) as an alternative method for indicating doses not taken, not given, or missed.", "score": 0.5364, "match_basis": "verbatim_token+domain_route:EC"}], "candidate_count": 5, "zero_candidate": false}
{"pdf_atom_id": "ig34_p0109_a014", "pdf_atom_type": "LIST_ITEM", "pdf_source": "SDTMIG_v3.4", "pdf_page": 109, "pdf_parent_section": "§6.1.3.2 [Exposure as Collected (EC)]", "pdf_verbatim": "Collected exposure data are in most cases represented in a combination of 1 or more of EC, DA, or Findings About Events or Interventions (FA) domains. If the entire EC dataset is an exact duplicate of the entire EX dataset, then EC is optional and at the sponsor's discretion.", "figure_ref": null, "candidates": [{"md_atom_id": "md_dmEC_assn_a004", "md_file": "knowledge_base/domains/EC/assumptions.md", "md_atom_type": "LIST_ITEM", "md_parent_section": "§EC [EC — Assumptions]", "md_verbatim": "   b. Collected exposure data are in most cases represented in a combination of 1 or more of EC, DA, or Findings About Events or Interventions (FA) domains. If the entire EC dataset is an exact duplicate of the entire EX dataset, then EC is optional and at the sponsor's discretion.", "score": 1.0, "match_basis": "verbatim_token+domain_route:EC"}, {"md_atom_id": "md_dmEC_assn_a016", "md_file": "knowledge_base/domains/EC/assumptions.md", "md_atom_type": "LIST_ITEM", "md_parent_section": "§EC [EC — Assumptions]", "md_verbatim": "   a. The record qualifier --OCCUR, with value of \"N\", is available in domains based on the Interventions and Events General Observation Classes as the standard way to represent whether an intervention or event did not happen. In the EC domain, ECOCCUR value of \"N\" indicates a dose was not taken, not given, or missed. For example, if zero tablets are taken within a timeframe or zero mL is infused at a visit, then ECOCCUR = \"N\" is the standard representation of the collected doses not taken, not given, or missed. Dose amount variables (e.g., ECDOSE, ECDOSTXT) must not be set to zero (0) as an alternative method for indicating doses not taken, not given, or missed.", "score": 0.5327, "match_basis": "verbatim_token+domain_route:EC"}, {"md_atom_id": "md_dmEC_assn_a003", "md_file": "knowledge_base/domains/EC/assumptions.md", "md_atom_type": "LIST_ITEM", "md_parent_section": "§EC [EC — Assumptions]", "md_verbatim": "   a. EC should be used in all cases where collected exposure information cannot or should not be directly represented in the Exposure (EX) domain. For example, administrations collected in tablets when the protocol-specified unit is mg, or administrations collected in mL when the protocol-specified unit is mg/kg. Product accountability details (e.g., amount dispensed, amount returned) are represented in the DA domain, not in EC.", "score": 0.5293, "match_basis": "verbatim_token+domain_route:EC"}, {"md_atom_id": "md_dmEC_assn_a017", "md_file": "knowledge_base/domains/EC/assumptions.md", "md_atom_type": "LIST_ITEM", "md_parent_section": "§EC [EC — Assumptions]", "md_verbatim": "   b. The population of qualifier variables (e.g., grouping, record) and additional timing variables (e.g., date of collection, visit, time point) for records representing information collected about doses not taken, not given, or missed should be populated with equal granularity as administered records, when known and/or applicable. Qualifiers that indicate dose amount (e.g., ECDOSE, ECDOSTXT) may be populated with positive (non-zero) values in cases where the sponsor feels it is necessary and/or appropriate to represent specific dose amounts not taken, not given, or missed.", "score": 0.5284, "match_basis": "verbatim_token+domain_route:EC"}, {"md_atom_id": "md_dmEC_assn_a005", "md_file": "knowledge_base/domains/EC/assumptions.md", "md_atom_type": "LIST_ITEM", "md_parent_section": "§EC [EC — Assumptions]", "md_verbatim": "   c. Collected exposure log data points descriptive of administrations typically reflect amounts at the product-level (e.g., number of tablets, number of mL).", "score": 0.5099, "match_basis": "verbatim_token+domain_route:EC"}], "candidate_count": 5, "zero_candidate": false}
{"pdf_atom_id": "ig34_p0109_a015", "pdf_atom_type": "LIST_ITEM", "pdf_source": "SDTMIG_v3.4", "pdf_page": 109, "pdf_parent_section": "§6.1.3.2 [Exposure as Collected (EC)]", "pdf_verbatim": "Collected exposure log data points descriptive of administrations typically reflect amounts at the product-level (e.g., number of tablets, number of mL).", "figure_ref": null, "candidates": [{"md_atom_id": "md_dmEC_assn_a005", "md_file": "knowledge_base/domains/EC/assumptions.md", "md_atom_type": "LIST_ITEM", "md_parent_section": "§EC [EC — Assumptions]", "md_verbatim": "   c. Collected exposure log data points descriptive of administrations typically reflect amounts at the product-level (e.g., number of tablets, number of mL).", "score": 1.0, "match_basis": "verbatim_token+domain_route:EC"}, {"md_atom_id": "md_dmEC_assn_a003", "md_file": "knowledge_base/domains/EC/assumptions.md", "md_atom_type": "LIST_ITEM", "md_parent_section": "§EC [EC — Assumptions]", "md_verbatim": "   a. EC should be used in all cases where collected exposure information cannot or should not be directly represented in the Exposure (EX) domain. For example, administrations collected in tablets when the protocol-specified unit is mg, or administrations collected in mL when the protocol-specified unit is mg/kg. Product accountability details (e.g., amount dispensed, amount returned) are represented in the DA domain, not in EC.", "score": 0.5595, "match_basis": "verbatim_token+domain_route:EC"}, {"md_atom_id": "md_dmEC_assn_a002", "md_file": "knowledge_base/domains/EC/assumptions.md", "md_atom_type": "LIST_ITEM", "md_parent_section": "§EC [EC — Assumptions]", "md_verbatim": "1. The EC domain model reflects protocol-specified study treatment administrations, as collected.", "score": 0.5456, "match_basis": "verbatim_token+domain_route:EC"}, {"md_atom_id": "md_dmEC_assn_a021", "md_file": "knowledge_base/domains/EC/assumptions.md", "md_atom_type": "LIST_ITEM", "md_parent_section": "§EC [EC — Assumptions]", "md_verbatim": "   b. For administrations considered given at a point in time (e.g., oral tablet, pre-filled syringe injection), where only an administration date/time is collected, ECSTDTC should be copied to ECENDTC.", "score": 0.5415, "match_basis": "verbatim_token+domain_route:EC"}, {"md_atom_id": "md_dmEC_assn_a020", "md_file": "knowledge_base/domains/EC/assumptions.md", "md_atom_type": "LIST_ITEM", "md_parent_section": "§EC [EC — Assumptions]", "md_verbatim": "   a. Timing variables in the EC domain should reflect administrations by the intervals they were collected (e.g., constant-dosing intervals, visits, targeted dates like first dose, last dose).", "score": 0.5333, "match_basis": "verbatim_token+domain_route:EC"}], "candidate_count": 5, "zero_candidate": false}
{"pdf_atom_id": "ig34_p0109_a016", "pdf_atom_type": "LIST_ITEM", "pdf_source": "SDTMIG_v3.4", "pdf_page": 109, "pdf_parent_section": "§6.1.3.2 [Exposure as Collected (EC)]", "pdf_verbatim": "Treatment description (ECTRT) is sponsor-defined and should reflect how the protocol-specified study treatment is known or referred to in data collection. In an open-label study, ECTRT should store the treatment name. In a masked study, if treatment is collected and known as tablet A to the subject or administrator, then ECTRT = \"TABLET A\". If, in a masked study, the treatment is not known by a synonym and the data are to be exchanged between sponsors, partners, and/or regulatory agency(s), then assign ECTRT the value of \"MASKED\".", "figure_ref": null, "candidates": [{"md_atom_id": "md_dmEC_assn_a006", "md_file": "knowledge_base/domains/EC/assumptions.md", "md_atom_type": "LIST_ITEM", "md_parent_section": "§EC [EC — Assumptions]", "md_verbatim": "2. Treatment description (ECTRT) is sponsor-defined and should reflect how the protocol-specified study treatment is known or referred to in data collection. In an open-label study, ECTRT should store the treatment name. In a masked study, if treatment is collected and known as tablet A to the subject or administrator, then ECTRT = \"TABLET A\". If, in a masked study, the treatment is not known by a synonym and the data are to be exchanged between sponsors, partners, and/or regulatory agency(s), then assign ECTRT the value of \"MASKED\".", "score": 1.0, "match_basis": "verbatim_token+domain_route:EC"}, {"md_atom_id": "md_dmEC_assn_a002", "md_file": "knowledge_base/domains/EC/assumptions.md", "md_atom_type": "LIST_ITEM", "md_parent_section": "§EC [EC — Assumptions]", "md_verbatim": "1. The EC domain model reflects protocol-specified study treatment administrations, as collected.", "score": 0.5731, "match_basis": "verbatim_token+domain_route:EC"}, {"md_atom_id": "md_dmEC_assn_a003", "md_file": "knowledge_base/domains/EC/assumptions.md", "md_atom_type": "LIST_ITEM", "md_parent_section": "§EC [EC — Assumptions]", "md_verbatim": "   a. EC should be used in all cases where collected exposure information cannot or should not be directly represented in the Exposure (EX) domain. For example, administrations collected in tablets when the protocol-specified unit is mg, or administrations collected in mL when the protocol-specified unit is mg/kg. Product accountability details (e.g., amount dispensed, amount returned) are represented in the DA domain, not in EC.", "score": 0.5216, "match_basis": "verbatim_token+domain_route:EC"}, {"md_atom_id": "md_dmEC_assn_a005", "md_file": "knowledge_base/domains/EC/assumptions.md", "md_atom_type": "LIST_ITEM", "md_parent_section": "§EC [EC — Assumptions]", "md_verbatim": "   c. Collected exposure log data points descriptive of administrations typically reflect amounts at the product-level (e.g., number of tablets, number of mL).", "score": 0.5207, "match_basis": "verbatim_token+domain_route:EC"}, {"md_atom_id": "md_dmEC_assn_a017", "md_file": "knowledge_base/domains/EC/assumptions.md", "md_atom_type": "LIST_ITEM", "md_parent_section": "§EC [EC — Assumptions]", "md_verbatim": "   b. The population of qualifier variables (e.g., grouping, record) and additional timing variables (e.g., date of collection, visit, time point) for records representing information collected about doses not taken, not given, or missed should be populated with equal granularity as administered records, when known and/or applicable. Qualifiers that indicate dose amount (e.g., ECDOSE, ECDOSTXT) may be populated with positive (non-zero) values in cases where the sponsor feels it is necessary and/or appropriate to represent specific dose amounts not taken, not given, or missed.", "score": 0.5093, "match_basis": "verbatim_token+domain_route:EC"}], "candidate_count": 5, "zero_candidate": false}
{"pdf_atom_id": "ig34_p0109_a017", "pdf_atom_type": "LIST_ITEM", "pdf_source": "SDTMIG_v3.4", "pdf_page": 109, "pdf_parent_section": "§6.1.3.2 [Exposure as Collected (EC)]", "pdf_verbatim": "ECMOOD is permissible; when implemented, it must be populated for all records.", "figure_ref": null, "candidates": [{"md_atom_id": "md_dmEC_assn_a007", "md_file": "knowledge_base/domains/EC/assumptions.md", "md_atom_type": "LIST_ITEM", "md_parent_section": "§EC [EC — Assumptions]", "md_verbatim": "3. ECMOOD is permissible; when implemented, it must be populated for all records.", "score": 1.0, "match_basis": "verbatim_token+domain_route:EC"}, {"md_atom_id": "md_dmEC_assn_a011", "md_file": "knowledge_base/domains/EC/assumptions.md", "md_atom_type": "LIST_ITEM", "md_parent_section": "§EC [EC — Assumptions]", "md_verbatim": "   b. Qualifier variables should be populated with equal granularity across scheduled and performed records when known. For example, if ECDOSU and ECDOSFRQ are known at scheduling and administration, then the variables would be populated on both records. If ECLOC is determined at the time of administration, then it would be populated on the Performed record only.", "score": 0.4984, "match_basis": "verbatim_token+domain_route:EC"}, {"md_atom_id": "md_dmEC_assn_a012", "md_file": "knowledge_base/domains/EC/assumptions.md", "md_atom_type": "LIST_ITEM", "md_parent_section": "§EC [EC — Assumptions]", "md_verbatim": "   c. Appropriate timing variable(s) should be populated. Note: Details on Scheduled records may describe timing at a higher level than Performed records.", "score": 0.4957, "match_basis": "verbatim_token+domain_route:EC"}, {"md_atom_id": "md_dmEC_assn_a010", "md_file": "knowledge_base/domains/EC/assumptions.md", "md_atom_type": "LIST_ITEM", "md_parent_section": "§EC [EC — Assumptions]", "md_verbatim": "      ii. \"PERFORMED\" (for collected subject-level actual dose records)", "score": 0.4762, "match_basis": "verbatim_token+domain_route:EC"}, {"md_atom_id": "md_dmEC_assn_a013", "md_file": "knowledge_base/domains/EC/assumptions.md", "md_atom_type": "LIST_ITEM", "md_parent_section": "§EC [EC — Assumptions]", "md_verbatim": "   d. ECOCCUR is generally not applicable for Scheduled records.", "score": 0.475, "match_basis": "verbatim_token+domain_route:EC"}], "candidate_count": 5, "zero_candidate": false}
{"pdf_atom_id": "ig34_p0109_a018", "pdf_atom_type": "LIST_ITEM", "pdf_source": "SDTMIG_v3.4", "pdf_page": 109, "pdf_parent_section": "§6.1.3.2 [Exposure as Collected (EC)]", "pdf_verbatim": "Values of ECMOOD, to date include:", "figure_ref": null, "candidates": [{"md_atom_id": "md_dmEC_assn_a008", "md_file": "knowledge_base/domains/EC/assumptions.md", "md_atom_type": "LIST_ITEM", "md_parent_section": "§EC [EC — Assumptions]", "md_verbatim": "   a. Values of ECMOOD, to date include:", "score": 1.0, "match_basis": "verbatim_token+domain_route:EC"}, {"md_atom_id": "md_dmEC_assn_a007", "md_file": "knowledge_base/domains/EC/assumptions.md", "md_atom_type": "LIST_ITEM", "md_parent_section": "§EC [EC — Assumptions]", "md_verbatim": "3. ECMOOD is permissible; when implemented, it must be populated for all records.", "score": 0.4612, "match_basis": "verbatim_token+domain_route:EC"}, {"md_atom_id": "md_dmEC_assn_a020", "md_file": "knowledge_base/domains/EC/assumptions.md", "md_atom_type": "LIST_ITEM", "md_parent_section": "§EC [EC — Assumptions]", "md_verbatim": "   a. Timing variables in the EC domain should reflect administrations by the intervals they were collected (e.g., constant-dosing intervals, visits, targeted dates like first dose, last dose).", "score": 0.4196, "match_basis": "verbatim_token+domain_route:EC"}, {"md_atom_id": "md_dmEC_assn_a017", "md_file": "knowledge_base/domains/EC/assumptions.md", "md_atom_type": "LIST_ITEM", "md_parent_section": "§EC [EC — Assumptions]", "md_verbatim": "   b. The population of qualifier variables (e.g., grouping, record) and additional timing variables (e.g., date of collection, visit, time point) for records representing information collected about doses not taken, not given, or missed should be populated with equal granularity as administered records, when known and/or applicable. Qualifiers that indicate dose amount (e.g., ECDOSE, ECDOSTXT) may be populated with positive (non-zero) values in cases where the sponsor feels it is necessary and/or appropriate to represent specific dose amounts not taken, not given, or missed.", "score": 0.4187, "match_basis": "verbatim_token+domain_route:EC"}, {"md_atom_id": "md_dmEC_assn_a006", "md_file": "knowledge_base/domains/EC/assumptions.md", "md_atom_type": "LIST_ITEM", "md_parent_section": "§EC [EC — Assumptions]", "md_verbatim": "2. Treatment description (ECTRT) is sponsor-defined and should reflect how the protocol-specified study treatment is known or referred to in data collection. In an open-label study, ECTRT should store the treatment name. In a masked study, if treatment is collected and known as tablet A to the subject or administrator, then ECTRT = \"TABLET A\". If, in a masked study, the treatment is not known by a synonym and the data are to be exchanged between sponsors, partners, and/or regulatory agency(s), then assign ECTRT the value of \"MASKED\".", "score": 0.4152, "match_basis": "verbatim_token+domain_route:EC"}], "candidate_count": 5, "zero_candidate": false}
{"pdf_atom_id": "ig34_p0109_a019", "pdf_atom_type": "LIST_ITEM", "pdf_source": "SDTMIG_v3.4", "pdf_page": 109, "pdf_parent_section": "§6.1.3.2 [Exposure as Collected (EC)]", "pdf_verbatim": "\"SCHEDULED\" (for collected subject-level intended dose records)", "figure_ref": null, "candidates": [{"md_atom_id": "md_dmEC_assn_a009", "md_file": "knowledge_base/domains/EC/assumptions.md", "md_atom_type": "LIST_ITEM", "md_parent_section": "§EC [EC — Assumptions]", "md_verbatim": "      i. \"SCHEDULED\" (for collected subject-level intended dose records)", "score": 1.0, "match_basis": "verbatim_token+domain_route:EC"}, {"md_atom_id": "md_dmEC_assn_a010", "md_file": "knowledge_base/domains/EC/assumptions.md", "md_atom_type": "LIST_ITEM", "md_parent_section": "§EC [EC — Assumptions]", "md_verbatim": "      ii. \"PERFORMED\" (for collected subject-level actual dose records)", "score": 0.6933, "match_basis": "verbatim_token+domain_route:EC"}, {"md_atom_id": "md_dmEC_ex_a060", "md_file": "knowledge_base/domains/EC/examples.md", "md_atom_type": "SENTENCE", "md_parent_section": "§EC.7 [Example 7]", "md_verbatim": "**Rows 1, 3, 5:** Show the collected intended dose levels (mg/kg) and ECMOOD is \"SCHEDULED\".", "score": 0.6361, "match_basis": "verbatim_token+domain_route:EC"}, {"md_atom_id": "md_dmEC_assn_a013", "md_file": "knowledge_base/domains/EC/assumptions.md", "md_atom_type": "LIST_ITEM", "md_parent_section": "§EC [EC — Assumptions]", "md_verbatim": "   d. ECOCCUR is generally not applicable for Scheduled records.", "score": 0.5418, "match_basis": "verbatim_token+domain_route:EC"}, {"md_atom_id": "md_dmEC_assn_a014", "md_file": "knowledge_base/domains/EC/assumptions.md", "md_atom_type": "LIST_ITEM", "md_parent_section": "§EC [EC — Assumptions]", "md_verbatim": "   e. An activity may be rescheduled or modified multiple times before being performed. Representation of Scheduled records is dependent on the collected, available data. If each rescheduled or modified activity is collected, then multiple Scheduled records may be represented. If only the final scheduled activity is collected, then it would be the only Scheduled record represented.", "score": 0.529, "match_basis": "verbatim_token+domain_route:EC"}], "candidate_count": 5, "zero_candidate": false}
{"pdf_atom_id": "ig34_p0109_a020", "pdf_atom_type": "LIST_ITEM", "pdf_source": "SDTMIG_v3.4", "pdf_page": 109, "pdf_parent_section": "§6.1.3.2 [Exposure as Collected (EC)]", "pdf_verbatim": "\"PERFORMED\" (for collected subject-level actual dose records)", "figure_ref": null, "candidates": [{"md_atom_id": "md_dmEC_assn_a010", "md_file": "knowledge_base/domains/EC/assumptions.md", "md_atom_type": "LIST_ITEM", "md_parent_section": "§EC [EC — Assumptions]", "md_verbatim": "      ii. \"PERFORMED\" (for collected subject-level actual dose records)", "score": 1.0, "match_basis": "verbatim_token+domain_route:EC"}, {"md_atom_id": "md_dmEC_assn_a009", "md_file": "knowledge_base/domains/EC/assumptions.md", "md_atom_type": "LIST_ITEM", "md_parent_section": "§EC [EC — Assumptions]", "md_verbatim": "      i. \"SCHEDULED\" (for collected subject-level intended dose records)", "score": 0.6933, "match_basis": "verbatim_token+domain_route:EC"}, {"md_atom_id": "md_dmEC_assn_a014", "md_file": "knowledge_base/domains/EC/assumptions.md", "md_atom_type": "LIST_ITEM", "md_parent_section": "§EC [EC — Assumptions]", "md_verbatim": "   e. An activity may be rescheduled or modified multiple times before being performed. Representation of Scheduled records is dependent on the collected, available data. If each rescheduled or modified activity is collected, then multiple Scheduled records may be represented. If only the final scheduled activity is collected, then it would be the only Scheduled record represented.", "score": 0.5121, "match_basis": "verbatim_token+domain_route:EC"}, {"md_atom_id": "md_dmEC_assn_a012", "md_file": "knowledge_base/domains/EC/assumptions.md", "md_atom_type": "LIST_ITEM", "md_parent_section": "§EC [EC — Assumptions]", "md_verbatim": "   c. Appropriate timing variable(s) should be populated. Note: Details on Scheduled records may describe timing at a higher level than Performed records.", "score": 0.5116, "match_basis": "verbatim_token+domain_route:EC"}, {"md_atom_id": "md_dmEC_assn_a018", "md_file": "knowledge_base/domains/EC/assumptions.md", "md_atom_type": "LIST_ITEM", "md_parent_section": "§EC [EC — Assumptions]", "md_verbatim": "   c. If a reason why a dose was not given is collected, it is represented in ECREASOC, the reason why ECOCCUR = \"N\".", "score": 0.5034, "match_basis": "verbatim_token+domain_route:EC"}], "candidate_count": 5, "zero_candidate": false}
{"pdf_atom_id": "ig34_p0110_a001", "pdf_atom_type": "LIST_ITEM", "pdf_source": "SDTMIG_v3.4", "pdf_page": 110, "pdf_parent_section": "§6.1.3.2 [Exposure as Collected (EC)]", "pdf_verbatim": "Qualifier variables should be populated with equal granularity across scheduled and performed records when known. For example, if ECDOSU and ECDOSFRQ are known at scheduling and administration, then the variables would be populated on both records. If ECLOC is determined at the time of administration, then it would be populated on the Performed record only.", "figure_ref": null, "candidates": [{"md_atom_id": "md_dmEC_assn_a011", "md_file": "knowledge_base/domains/EC/assumptions.md", "md_atom_type": "LIST_ITEM", "md_parent_section": "§EC [EC — Assumptions]", "md_verbatim": "   b. Qualifier variables should be populated with equal granularity across scheduled and performed records when known. For example, if ECDOSU and ECDOSFRQ are known at scheduling and administration, then the variables would be populated on both records. If ECLOC is determined at the time of administration, then it would be populated on the Performed record only.", "score": 1.0, "match_basis": "verbatim_token+domain_route:EC"}, {"md_atom_id": "md_dmEC_assn_a012", "md_file": "knowledge_base/domains/EC/assumptions.md", "md_atom_type": "LIST_ITEM", "md_parent_section": "§EC [EC — Assumptions]", "md_verbatim": "   c. Appropriate timing variable(s) should be populated. Note: Details on Scheduled records may describe timing at a higher level than Performed records.", "score": 0.5714, "match_basis": "verbatim_token+domain_route:EC"}, {"md_atom_id": "md_dmEC_assn_a017", "md_file": "knowledge_base/domains/EC/assumptions.md", "md_atom_type": "LIST_ITEM", "md_parent_section": "§EC [EC — Assumptions]", "md_verbatim": "   b. The population of qualifier variables (e.g., grouping, record) and additional timing variables (e.g., date of collection, visit, time point) for records representing information collected about doses not taken, not given, or missed should be populated with equal granularity as administered records, when known and/or applicable. Qualifiers that indicate dose amount (e.g., ECDOSE, ECDOSTXT) may be populated with positive (non-zero) values in cases where the sponsor feels it is necessary and/or appropriate to represent specific dose amounts not taken, not given, or missed.", "score": 0.5703, "match_basis": "verbatim_token+domain_route:EC"}, {"md_atom_id": "md_dmEC_assn_a014", "md_file": "knowledge_base/domains/EC/assumptions.md", "md_atom_type": "LIST_ITEM", "md_parent_section": "§EC [EC — Assumptions]", "md_verbatim": "   e. An activity may be rescheduled or modified multiple times before being performed. Representation of Scheduled records is dependent on the collected, available data. If each rescheduled or modified activity is collected, then multiple Scheduled records may be represented. If only the final scheduled activity is collected, then it would be the only Scheduled record represented.", "score": 0.541, "match_basis": "verbatim_token+domain_route:EC"}, {"md_atom_id": "md_dmEC_assn_a020", "md_file": "knowledge_base/domains/EC/assumptions.md", "md_atom_type": "LIST_ITEM", "md_parent_section": "§EC [EC — Assumptions]", "md_verbatim": "   a. Timing variables in the EC domain should reflect administrations by the intervals they were collected (e.g., constant-dosing intervals, visits, targeted dates like first dose, last dose).", "score": 0.517, "match_basis": "verbatim_token+domain_route:EC"}], "candidate_count": 5, "zero_candidate": false}
{"pdf_atom_id": "ig34_p0110_a002", "pdf_atom_type": "LIST_ITEM", "pdf_source": "SDTMIG_v3.4", "pdf_page": 110, "pdf_parent_section": "§6.1.3.2 [Exposure as Collected (EC)]", "pdf_verbatim": "Appropriate timing variable(s) should be populated. Note: Details on Scheduled records may describe timing at a higher level than Performed records.", "figure_ref": null, "candidates": [{"md_atom_id": "md_dmEC_assn_a012", "md_file": "knowledge_base/domains/EC/assumptions.md", "md_atom_type": "LIST_ITEM", "md_parent_section": "§EC [EC — Assumptions]", "md_verbatim": "   c. Appropriate timing variable(s) should be populated. Note: Details on Scheduled records may describe timing at a higher level than Performed records.", "score": 1.0, "match_basis": "verbatim_token+domain_route:EC"}, {"md_atom_id": "md_dmEC_assn_a011", "md_file": "knowledge_base/domains/EC/assumptions.md", "md_atom_type": "LIST_ITEM", "md_parent_section": "§EC [EC — Assumptions]", "md_verbatim": "   b. Qualifier variables should be populated with equal granularity across scheduled and performed records when known. For example, if ECDOSU and ECDOSFRQ are known at scheduling and administration, then the variables would be populated on both records. If ECLOC is determined at the time of administration, then it would be populated on the Performed record only.", "score": 0.5714, "match_basis": "verbatim_token+domain_route:EC"}, {"md_atom_id": "md_dmEC_assn_a014", "md_file": "knowledge_base/domains/EC/assumptions.md", "md_atom_type": "LIST_ITEM", "md_parent_section": "§EC [EC — Assumptions]", "md_verbatim": "   e. An activity may be rescheduled or modified multiple times before being performed. Representation of Scheduled records is dependent on the collected, available data. If each rescheduled or modified activity is collected, then multiple Scheduled records may be represented. If only the final scheduled activity is collected, then it would be the only Scheduled record represented.", "score": 0.5279, "match_basis": "verbatim_token+domain_route:EC"}, {"md_atom_id": "md_dmEC_assn_a013", "md_file": "knowledge_base/domains/EC/assumptions.md", "md_atom_type": "LIST_ITEM", "md_parent_section": "§EC [EC — Assumptions]", "md_verbatim": "   d. ECOCCUR is generally not applicable for Scheduled records.", "score": 0.5186, "match_basis": "verbatim_token+domain_route:EC"}, {"md_atom_id": "md_dmEC_assn_a009", "md_file": "knowledge_base/domains/EC/assumptions.md", "md_atom_type": "LIST_ITEM", "md_parent_section": "§EC [EC — Assumptions]", "md_verbatim": "      i. \"SCHEDULED\" (for collected subject-level intended dose records)", "score": 0.5159, "match_basis": "verbatim_token+domain_route:EC"}], "candidate_count": 5, "zero_candidate": false}
{"pdf_atom_id": "ig34_p0110_a003", "pdf_atom_type": "LIST_ITEM", "pdf_source": "SDTMIG_v3.4", "pdf_page": 110, "pdf_parent_section": "§6.1.3.2 [Exposure as Collected (EC)]", "pdf_verbatim": "ECOCCUR is generally not applicable for Scheduled records.", "figure_ref": null, "candidates": [{"md_atom_id": "md_dmEC_assn_a013", "md_file": "knowledge_base/domains/EC/assumptions.md", "md_atom_type": "LIST_ITEM", "md_parent_section": "§EC [EC — Assumptions]", "md_verbatim": "   d. ECOCCUR is generally not applicable for Scheduled records.", "score": 1.0, "match_basis": "verbatim_token+domain_route:EC"}, {"md_atom_id": "md_dmEC_assn_a009", "md_file": "knowledge_base/domains/EC/assumptions.md", "md_atom_type": "LIST_ITEM", "md_parent_section": "§EC [EC — Assumptions]", "md_verbatim": "      i. \"SCHEDULED\" (for collected subject-level intended dose records)", "score": 0.5418, "match_basis": "verbatim_token+domain_route:EC"}, {"md_atom_id": "md_dmEC_assn_a012", "md_file": "knowledge_base/domains/EC/assumptions.md", "md_atom_type": "LIST_ITEM", "md_parent_section": "§EC [EC — Assumptions]", "md_verbatim": "   c. Appropriate timing variable(s) should be populated. Note: Details on Scheduled records may describe timing at a higher level than Performed records.", "score": 0.5186, "match_basis": "verbatim_token+domain_route:EC"}, {"md_atom_id": "md_dmEC_assn_a014", "md_file": "knowledge_base/domains/EC/assumptions.md", "md_atom_type": "LIST_ITEM", "md_parent_section": "§EC [EC — Assumptions]", "md_verbatim": "   e. An activity may be rescheduled or modified multiple times before being performed. Representation of Scheduled records is dependent on the collected, available data. If each rescheduled or modified activity is collected, then multiple Scheduled records may be represented. If only the final scheduled activity is collected, then it would be the only Scheduled record represented.", "score": 0.4796, "match_basis": "verbatim_token+domain_route:EC"}, {"md_atom_id": "md_dmEC_assn_a007", "md_file": "knowledge_base/domains/EC/assumptions.md", "md_atom_type": "LIST_ITEM", "md_parent_section": "§EC [EC — Assumptions]", "md_verbatim": "3. ECMOOD is permissible; when implemented, it must be populated for all records.", "score": 0.475, "match_basis": "verbatim_token+domain_route:EC"}], "candidate_count": 5, "zero_candidate": false}
{"pdf_atom_id": "ig34_p0110_a004", "pdf_atom_type": "LIST_ITEM", "pdf_source": "SDTMIG_v3.4", "pdf_page": 110, "pdf_parent_section": "§6.1.3.2 [Exposure as Collected (EC)]", "pdf_verbatim": "An activity may be rescheduled or modified multiple times before being performed. Representation of Scheduled records is dependent on the collected, available data. If each rescheduled or modified activity is collected, then multiple Scheduled records may be represented. If only the final scheduled activity is collected, then it would be the only Scheduled record represented.", "figure_ref": null, "candidates": [{"md_atom_id": "md_dmEC_assn_a014", "md_file": "knowledge_base/domains/EC/assumptions.md", "md_atom_type": "LIST_ITEM", "md_parent_section": "§EC [EC — Assumptions]", "md_verbatim": "   e. An activity may be rescheduled or modified multiple times before being performed. Representation of Scheduled records is dependent on the collected, available data. If each rescheduled or modified activity is collected, then multiple Scheduled records may be represented. If only the final scheduled activity is collected, then it would be the only Scheduled record represented.", "score": 1.0, "match_basis": "verbatim_token+domain_route:EC"}, {"md_atom_id": "md_dmEC_assn_a011", "md_file": "knowledge_base/domains/EC/assumptions.md", "md_atom_type": "LIST_ITEM", "md_parent_section": "§EC [EC — Assumptions]", "md_verbatim": "   b. Qualifier variables should be populated with equal granularity across scheduled and performed records when known. For example, if ECDOSU and ECDOSFRQ are known at scheduling and administration, then the variables would be populated on both records. If ECLOC is determined at the time of administration, then it would be populated on the Performed record only.", "score": 0.541, "match_basis": "verbatim_token+domain_route:EC"}, {"md_atom_id": "md_dmEC_assn_a009", "md_file": "knowledge_base/domains/EC/assumptions.md", "md_atom_type": "LIST_ITEM", "md_parent_section": "§EC [EC — Assumptions]", "md_verbatim": "      i. \"SCHEDULED\" (for collected subject-level intended dose records)", "score": 0.529, "match_basis": "verbatim_token+domain_route:EC"}, {"md_atom_id": "md_dmEC_assn_a012", "md_file": "knowledge_base/domains/EC/assumptions.md", "md_atom_type": "LIST_ITEM", "md_parent_section": "§EC [EC — Assumptions]", "md_verbatim": "   c. Appropriate timing variable(s) should be populated. Note: Details on Scheduled records may describe timing at a higher level than Performed records.", "score": 0.5279, "match_basis": "verbatim_token+domain_route:EC"}, {"md_atom_id": "md_dmEC_assn_a003", "md_file": "knowledge_base/domains/EC/assumptions.md", "md_atom_type": "LIST_ITEM", "md_parent_section": "§EC [EC — Assumptions]", "md_verbatim": "   a. EC should be used in all cases where collected exposure information cannot or should not be directly represented in the Exposure (EX) domain. For example, administrations collected in tablets when the protocol-specified unit is mg, or administrations collected in mL when the protocol-specified unit is mg/kg. Product accountability details (e.g., amount dispensed, amount returned) are represented in the DA domain, not in EC.", "score": 0.5129, "match_basis": "verbatim_token+domain_route:EC"}], "candidate_count": 5, "zero_candidate": false}
{"pdf_atom_id": "ig34_p0110_a005", "pdf_atom_type": "LIST_ITEM", "pdf_source": "SDTMIG_v3.4", "pdf_page": 110, "pdf_parent_section": "§6.1.3.2 [Exposure as Collected (EC)]", "pdf_verbatim": "Doses not taken, not given, or missed", "figure_ref": null, "candidates": [{"md_atom_id": "md_dmEC_assn_a015", "md_file": "knowledge_base/domains/EC/assumptions.md", "md_atom_type": "LIST_ITEM", "md_parent_section": "§EC [EC — Assumptions]", "md_verbatim": "4. Doses not taken, not given, or missed", "score": 1.0, "match_basis": "verbatim_token+domain_route:EC"}, {"md_atom_id": "md_dmEC_assn_a018", "md_file": "knowledge_base/domains/EC/assumptions.md", "md_atom_type": "LIST_ITEM", "md_parent_section": "§EC [EC — Assumptions]", "md_verbatim": "   c. If a reason why a dose was not given is collected, it is represented in ECREASOC, the reason why ECOCCUR = \"N\".", "score": 0.4818, "match_basis": "verbatim_token+domain_route:EC"}, {"md_atom_id": "md_dmEC_assn_a016", "md_file": "knowledge_base/domains/EC/assumptions.md", "md_atom_type": "LIST_ITEM", "md_parent_section": "§EC [EC — Assumptions]", "md_verbatim": "   a. The record qualifier --OCCUR, with value of \"N\", is available in domains based on the Interventions and Events General Observation Classes as the standard way to represent whether an intervention or event did not happen. In the EC domain, ECOCCUR value of \"N\" indicates a dose was not taken, not given, or missed. For example, if zero tablets are taken within a timeframe or zero mL is infused at a visit, then ECOCCUR = \"N\" is the standard representation of the collected doses not taken, not given, or missed. Dose amount variables (e.g., ECDOSE, ECDOSTXT) must not be set to zero (0) as an alternative method for indicating doses not taken, not given, or missed.", "score": 0.4491, "match_basis": "verbatim_token+domain_route:EC"}, {"md_atom_id": "md_dmEC_assn_a017", "md_file": "knowledge_base/domains/EC/assumptions.md", "md_atom_type": "LIST_ITEM", "md_parent_section": "§EC [EC — Assumptions]", "md_verbatim": "   b. The population of qualifier variables (e.g., grouping, record) and additional timing variables (e.g., date of collection, visit, time point) for records representing information collected about doses not taken, not given, or missed should be populated with equal granularity as administered records, when known and/or applicable. Qualifiers that indicate dose amount (e.g., ECDOSE, ECDOSTXT) may be populated with positive (non-zero) values in cases where the sponsor feels it is necessary and/or appropriate to represent specific dose amounts not taken, not given, or missed.", "score": 0.4457, "match_basis": "verbatim_token+domain_route:EC"}, {"md_atom_id": "md_dmEC_assn_a010", "md_file": "knowledge_base/domains/EC/assumptions.md", "md_atom_type": "LIST_ITEM", "md_parent_section": "§EC [EC — Assumptions]", "md_verbatim": "      ii. \"PERFORMED\" (for collected subject-level actual dose records)", "score": 0.4273, "match_basis": "verbatim_token+domain_route:EC"}], "candidate_count": 5, "zero_candidate": false}
{"pdf_atom_id": "ig34_p0110_a006", "pdf_atom_type": "LIST_ITEM", "pdf_source": "SDTMIG_v3.4", "pdf_page": 110, "pdf_parent_section": "§6.1.3.2 [Exposure as Collected (EC)]", "pdf_verbatim": "The record qualifier --OCCUR, with value of \"N\", is available in domains based on the Interventions and Events General Observation Classes as the standard way to represent whether an intervention or event did not happen. In the EC domain, ECOCCUR value of \"N\" indicates a dose was not taken, not given, or missed. For example, if zero tablets are taken within a timeframe or zero mL is infused at a visit, then ECOCCUR = \"N\" is the standard representation of the collected doses not taken, not given, or missed. Dose amount variables (e.g., ECDOSE, ECDOSTXT) must not be set to zero (0) as an alternative method for indicating doses not taken, not given, or missed.", "figure_ref": null, "candidates": [{"md_atom_id": "md_dmEC_assn_a016", "md_file": "knowledge_base/domains/EC/assumptions.md", "md_atom_type": "LIST_ITEM", "md_parent_section": "§EC [EC — Assumptions]", "md_verbatim": "   a. The record qualifier --OCCUR, with value of \"N\", is available in domains based on the Interventions and Events General Observation Classes as the standard way to represent whether an intervention or event did not happen. In the EC domain, ECOCCUR value of \"N\" indicates a dose was not taken, not given, or missed. For example, if zero tablets are taken within a timeframe or zero mL is infused at a visit, then ECOCCUR = \"N\" is the standard representation of the collected doses not taken, not given, or missed. Dose amount variables (e.g., ECDOSE, ECDOSTXT) must not be set to zero (0) as an alternative method for indicating doses not taken, not given, or missed.", "score": 1.0, "match_basis": "verbatim_token+domain_route:EC"}, {"md_atom_id": "md_dmEC_assn_a017", "md_file": "knowledge_base/domains/EC/assumptions.md", "md_atom_type": "LIST_ITEM", "md_parent_section": "§EC [EC — Assumptions]", "md_verbatim": "   b. The population of qualifier variables (e.g., grouping, record) and additional timing variables (e.g., date of collection, visit, time point) for records representing information collected about doses not taken, not given, or missed should be populated with equal granularity as administered records, when known and/or applicable. Qualifiers that indicate dose amount (e.g., ECDOSE, ECDOSTXT) may be populated with positive (non-zero) values in cases where the sponsor feels it is necessary and/or appropriate to represent specific dose amounts not taken, not given, or missed.", "score": 0.613, "match_basis": "verbatim_token+domain_route:EC"}, {"md_atom_id": "md_dmEC_assn_a025", "md_file": "knowledge_base/domains/EC/assumptions.md", "md_atom_type": "LIST_ITEM", "md_parent_section": "§EC [EC — Assumptions]", "md_verbatim": "   b. Any identifier variables, timing variables, or findings general observation-class qualifiers may be added to the EC domain, but the following qualifiers would generally not be used: --STAT and --REASND.", "score": 0.547, "match_basis": "verbatim_token+domain_route:EC"}, {"md_atom_id": "md_dmEC_assn_a003", "md_file": "knowledge_base/domains/EC/assumptions.md", "md_atom_type": "LIST_ITEM", "md_parent_section": "§EC [EC — Assumptions]", "md_verbatim": "   a. EC should be used in all cases where collected exposure information cannot or should not be directly represented in the Exposure (EX) domain. For example, administrations collected in tablets when the protocol-specified unit is mg, or administrations collected in mL when the protocol-specified unit is mg/kg. Product accountability details (e.g., amount dispensed, amount returned) are represented in the DA domain, not in EC.", "score": 0.5364, "match_basis": "verbatim_token+domain_route:EC"}, {"md_atom_id": "md_dmEC_assn_a004", "md_file": "knowledge_base/domains/EC/assumptions.md", "md_atom_type": "LIST_ITEM", "md_parent_section": "§EC [EC — Assumptions]", "md_verbatim": "   b. Collected exposure data are in most cases represented in a combination of 1 or more of EC, DA, or Findings About Events or Interventions (FA) domains. If the entire EC dataset is an exact duplicate of the entire EX dataset, then EC is optional and at the sponsor's discretion.", "score": 0.5327, "match_basis": "verbatim_token+domain_route:EC"}], "candidate_count": 5, "zero_candidate": false}
{"pdf_atom_id": "ig34_p0110_a007", "pdf_atom_type": "LIST_ITEM", "pdf_source": "SDTMIG_v3.4", "pdf_page": 110, "pdf_parent_section": "§6.1.3.2 [Exposure as Collected (EC)]", "pdf_verbatim": "The population of qualifier variables (e.g., grouping, record) and additional timing variables (e.g., date of collection, visit, time point) for records representing information collected about doses not taken, not given, or missed should be populated with equal granularity as administered records, when known and/or applicable. Qualifiers that indicate dose amount (e.g., ECDOSE, ECDOSTXT) may be populated with positive (non-zero) values in cases where the sponsor feels it is necessary and/or appropriate to represent specific dose amounts not taken, not given, or missed.", "figure_ref": null, "candidates": [{"md_atom_id": "md_dmEC_assn_a017", "md_file": "knowledge_base/domains/EC/assumptions.md", "md_atom_type": "LIST_ITEM", "md_parent_section": "§EC [EC — Assumptions]", "md_verbatim": "   b. The population of qualifier variables (e.g., grouping, record) and additional timing variables (e.g., date of collection, visit, time point) for records representing information collected about doses not taken, not given, or missed should be populated with equal granularity as administered records, when known and/or applicable. Qualifiers that indicate dose amount (e.g., ECDOSE, ECDOSTXT) may be populated with positive (non-zero) values in cases where the sponsor feels it is necessary and/or appropriate to represent specific dose amounts not taken, not given, or missed.", "score": 1.0, "match_basis": "verbatim_token+domain_route:EC"}, {"md_atom_id": "md_dmEC_assn_a016", "md_file": "knowledge_base/domains/EC/assumptions.md", "md_atom_type": "LIST_ITEM", "md_parent_section": "§EC [EC — Assumptions]", "md_verbatim": "   a. The record qualifier --OCCUR, with value of \"N\", is available in domains based on the Interventions and Events General Observation Classes as the standard way to represent whether an intervention or event did not happen. In the EC domain, ECOCCUR value of \"N\" indicates a dose was not taken, not given, or missed. For example, if zero tablets are taken within a timeframe or zero mL is infused at a visit, then ECOCCUR = \"N\" is the standard representation of the collected doses not taken, not given, or missed. Dose amount variables (e.g., ECDOSE, ECDOSTXT) must not be set to zero (0) as an alternative method for indicating doses not taken, not given, or missed.", "score": 0.613, "match_basis": "verbatim_token+domain_route:EC"}, {"md_atom_id": "md_dmEC_assn_a011", "md_file": "knowledge_base/domains/EC/assumptions.md", "md_atom_type": "LIST_ITEM", "md_parent_section": "§EC [EC — Assumptions]", "md_verbatim": "   b. Qualifier variables should be populated with equal granularity across scheduled and performed records when known. For example, if ECDOSU and ECDOSFRQ are known at scheduling and administration, then the variables would be populated on both records. If ECLOC is determined at the time of administration, then it would be populated on the Performed record only.", "score": 0.5703, "match_basis": "verbatim_token+domain_route:EC"}, {"md_atom_id": "md_dmEC_assn_a003", "md_file": "knowledge_base/domains/EC/assumptions.md", "md_atom_type": "LIST_ITEM", "md_parent_section": "§EC [EC — Assumptions]", "md_verbatim": "   a. EC should be used in all cases where collected exposure information cannot or should not be directly represented in the Exposure (EX) domain. For example, administrations collected in tablets when the protocol-specified unit is mg, or administrations collected in mL when the protocol-specified unit is mg/kg. Product accountability details (e.g., amount dispensed, amount returned) are represented in the DA domain, not in EC.", "score": 0.544, "match_basis": "verbatim_token+domain_route:EC"}, {"md_atom_id": "md_dmEC_assn_a004", "md_file": "knowledge_base/domains/EC/assumptions.md", "md_atom_type": "LIST_ITEM", "md_parent_section": "§EC [EC — Assumptions]", "md_verbatim": "   b. Collected exposure data are in most cases represented in a combination of 1 or more of EC, DA, or Findings About Events or Interventions (FA) domains. If the entire EC dataset is an exact duplicate of the entire EX dataset, then EC is optional and at the sponsor's discretion.", "score": 0.5284, "match_basis": "verbatim_token+domain_route:EC"}], "candidate_count": 5, "zero_candidate": false}
{"pdf_atom_id": "ig34_p0110_a008", "pdf_atom_type": "LIST_ITEM", "pdf_source": "SDTMIG_v3.4", "pdf_page": 110, "pdf_parent_section": "§6.1.3.2 [Exposure as Collected (EC)]", "pdf_verbatim": "If a reason why a dose was not given is collected, it is represented in ECREASOC, the reason why ECOCCUR = \"N\".", "figure_ref": null, "candidates": [{"md_atom_id": "md_dmEC_assn_a018", "md_file": "knowledge_base/domains/EC/assumptions.md", "md_atom_type": "LIST_ITEM", "md_parent_section": "§EC [EC — Assumptions]", "md_verbatim": "   c. If a reason why a dose was not given is collected, it is represented in ECREASOC, the reason why ECOCCUR = \"N\".", "score": 1.0, "match_basis": "verbatim_token+domain_route:EC"}, {"md_atom_id": "md_dmEC_ex_a062", "md_file": "knowledge_base/domains/EC/examples.md", "md_atom_type": "SENTENCE", "md_parent_section": "§EC.7 [Example 7]", "md_verbatim": "**Row 6:** Shows a dose that was not given. ECREASOC shows the reason that ECOCCUR = \"N\", and ECDOSE is null.", "score": 0.5653, "match_basis": "verbatim_token+domain_route:EC"}, {"md_atom_id": "md_dmEC_ex_a007", "md_file": "knowledge_base/domains/EC/examples.md", "md_atom_type": "SENTENCE", "md_parent_section": "§EC.1 [Example 1]", "md_verbatim": "**Row 3:** Shows that the zero for Number of Tablets Taken Daily on the CRF was represented as ECOCCUR = \"N\". The reason this treatment did not occur is represented in ECREASOC.", "score": 0.5187, "match_basis": "verbatim_token+domain_route:EC"}, {"md_atom_id": "md_dmEC_assn_a009", "md_file": "knowledge_base/domains/EC/assumptions.md", "md_atom_type": "LIST_ITEM", "md_parent_section": "§EC [EC — Assumptions]", "md_verbatim": "      i. \"SCHEDULED\" (for collected subject-level intended dose records)", "score": 0.51, "match_basis": "verbatim_token+domain_route:EC"}, {"md_atom_id": "md_dmEC_assn_a010", "md_file": "knowledge_base/domains/EC/assumptions.md", "md_atom_type": "LIST_ITEM", "md_parent_section": "§EC [EC — Assumptions]", "md_verbatim": "      ii. \"PERFORMED\" (for collected subject-level actual dose records)", "score": 0.5034, "match_basis": "verbatim_token+domain_route:EC"}], "candidate_count": 5, "zero_candidate": false}
{"pdf_atom_id": "ig34_p0110_a009", "pdf_atom_type": "LIST_ITEM", "pdf_source": "SDTMIG_v3.4", "pdf_page": 110, "pdf_parent_section": "§6.1.3.2 [Exposure as Collected (EC)]", "pdf_verbatim": "Timing variables", "figure_ref": null, "candidates": [{"md_atom_id": "md_dmEC_assn_a019", "md_file": "knowledge_base/domains/EC/assumptions.md", "md_atom_type": "LIST_ITEM", "md_parent_section": "§EC [EC — Assumptions]", "md_verbatim": "5. Timing variables", "score": 1.0, "match_basis": "verbatim_token+domain_route:EC"}, {"md_atom_id": "md_dmEC_assn_a025", "md_file": "knowledge_base/domains/EC/assumptions.md", "md_atom_type": "LIST_ITEM", "md_parent_section": "§EC [EC — Assumptions]", "md_verbatim": "   b. Any identifier variables, timing variables, or findings general observation-class qualifiers may be added to the EC domain, but the following qualifiers would generally not be used: --STAT and --REASND.", "score": 0.4846, "match_basis": "verbatim_token+domain_route:EC"}, {"md_atom_id": "md_dmEC_assn_a012", "md_file": "knowledge_base/domains/EC/assumptions.md", "md_atom_type": "LIST_ITEM", "md_parent_section": "§EC [EC — Assumptions]", "md_verbatim": "   c. Appropriate timing variable(s) should be populated. Note: Details on Scheduled records may describe timing at a higher level than Performed records.", "score": 0.4845, "match_basis": "verbatim_token+domain_route:EC"}, {"md_atom_id": "md_dmEC_assn_a020", "md_file": "knowledge_base/domains/EC/assumptions.md", "md_atom_type": "LIST_ITEM", "md_parent_section": "§EC [EC — Assumptions]", "md_verbatim": "   a. Timing variables in the EC domain should reflect administrations by the intervals they were collected (e.g., constant-dosing intervals, visits, targeted dates like first dose, last dose).", "score": 0.4825, "match_basis": "verbatim_token+domain_route:EC"}, {"md_atom_id": "md_dmEC_assn_a011", "md_file": "knowledge_base/domains/EC/assumptions.md", "md_atom_type": "LIST_ITEM", "md_parent_section": "§EC [EC — Assumptions]", "md_verbatim": "   b. Qualifier variables should be populated with equal granularity across scheduled and performed records when known. For example, if ECDOSU and ECDOSFRQ are known at scheduling and administration, then the variables would be populated on both records. If ECLOC is determined at the time of administration, then it would be populated on the Performed record only.", "score": 0.4541, "match_basis": "verbatim_token+domain_route:EC"}], "candidate_count": 5, "zero_candidate": false}
{"pdf_atom_id": "ig34_p0110_a010", "pdf_atom_type": "LIST_ITEM", "pdf_source": "SDTMIG_v3.4", "pdf_page": 110, "pdf_parent_section": "§6.1.3.2 [Exposure as Collected (EC)]", "pdf_verbatim": "Timing variables in the EC domain should reflect administrations by the intervals they were collected (e.g., constant-dosing intervals, visits, targeted dates like first dose, last dose).", "figure_ref": null, "candidates": [{"md_atom_id": "md_dmEC_assn_a020", "md_file": "knowledge_base/domains/EC/assumptions.md", "md_atom_type": "LIST_ITEM", "md_parent_section": "§EC [EC — Assumptions]", "md_verbatim": "   a. Timing variables in the EC domain should reflect administrations by the intervals they were collected (e.g., constant-dosing intervals, visits, targeted dates like first dose, last dose).", "score": 1.0, "match_basis": "verbatim_token+domain_route:EC"}, {"md_atom_id": "md_dmEC_assn_a002", "md_file": "knowledge_base/domains/EC/assumptions.md", "md_atom_type": "LIST_ITEM", "md_parent_section": "§EC [EC — Assumptions]", "md_verbatim": "1. The EC domain model reflects protocol-specified study treatment administrations, as collected.", "score": 0.5585, "match_basis": "verbatim_token+domain_route:EC"}, {"md_atom_id": "md_dmEC_assn_a021", "md_file": "knowledge_base/domains/EC/assumptions.md", "md_atom_type": "LIST_ITEM", "md_parent_section": "§EC [EC — Assumptions]", "md_verbatim": "   b. For administrations considered given at a point in time (e.g., oral tablet, pre-filled syringe injection), where only an administration date/time is collected, ECSTDTC should be copied to ECENDTC.", "score": 0.5584, "match_basis": "verbatim_token+domain_route:EC"}, {"md_atom_id": "md_dmEC_assn_a005", "md_file": "knowledge_base/domains/EC/assumptions.md", "md_atom_type": "LIST_ITEM", "md_parent_section": "§EC [EC — Assumptions]", "md_verbatim": "   c. Collected exposure log data points descriptive of administrations typically reflect amounts at the product-level (e.g., number of tablets, number of mL).", "score": 0.5333, "match_basis": "verbatim_token+domain_route:EC"}, {"md_atom_id": "md_dmEC_assn_a017", "md_file": "knowledge_base/domains/EC/assumptions.md", "md_atom_type": "LIST_ITEM", "md_parent_section": "§EC [EC — Assumptions]", "md_verbatim": "   b. The population of qualifier variables (e.g., grouping, record) and additional timing variables (e.g., date of collection, visit, time point) for records representing information collected about doses not taken, not given, or missed should be populated with equal granularity as administered records, when known and/or applicable. Qualifiers that indicate dose amount (e.g., ECDOSE, ECDOSTXT) may be populated with positive (non-zero) values in cases where the sponsor feels it is necessary and/or appropriate to represent specific dose amounts not taken, not given, or missed.", "score": 0.52, "match_basis": "verbatim_token+domain_route:EC"}], "candidate_count": 5, "zero_candidate": false}
{"pdf_atom_id": "ig34_p0110_a011", "pdf_atom_type": "LIST_ITEM", "pdf_source": "SDTMIG_v3.4", "pdf_page": 110, "pdf_parent_section": "§6.1.3.2 [Exposure as Collected (EC)]", "pdf_verbatim": "For administrations considered given at a point in time (e.g., oral tablet, pre-filled syringe injection), where only an administration date/time is collected, ECSTDTC should be copied to ECENDTC.", "figure_ref": null, "candidates": [{"md_atom_id": "md_dmEC_assn_a021", "md_file": "knowledge_base/domains/EC/assumptions.md", "md_atom_type": "LIST_ITEM", "md_parent_section": "§EC [EC — Assumptions]", "md_verbatim": "   b. For administrations considered given at a point in time (e.g., oral tablet, pre-filled syringe injection), where only an administration date/time is collected, ECSTDTC should be copied to ECENDTC.", "score": 1.0, "match_basis": "verbatim_token+domain_route:EC"}, {"md_atom_id": "md_dmEC_assn_a020", "md_file": "knowledge_base/domains/EC/assumptions.md", "md_atom_type": "LIST_ITEM", "md_parent_section": "§EC [EC — Assumptions]", "md_verbatim": "   a. Timing variables in the EC domain should reflect administrations by the intervals they were collected (e.g., constant-dosing intervals, visits, targeted dates like first dose, last dose).", "score": 0.5584, "match_basis": "verbatim_token+domain_route:EC"}, {"md_atom_id": "md_dmEC_assn_a005", "md_file": "knowledge_base/domains/EC/assumptions.md", "md_atom_type": "LIST_ITEM", "md_parent_section": "§EC [EC — Assumptions]", "md_verbatim": "   c. Collected exposure log data points descriptive of administrations typically reflect amounts at the product-level (e.g., number of tablets, number of mL).", "score": 0.5415, "match_basis": "verbatim_token+domain_route:EC"}, {"md_atom_id": "md_dmEC_assn_a003", "md_file": "knowledge_base/domains/EC/assumptions.md", "md_atom_type": "LIST_ITEM", "md_parent_section": "§EC [EC — Assumptions]", "md_verbatim": "   a. EC should be used in all cases where collected exposure information cannot or should not be directly represented in the Exposure (EX) domain. For example, administrations collected in tablets when the protocol-specified unit is mg, or administrations collected in mL when the protocol-specified unit is mg/kg. Product accountability details (e.g., amount dispensed, amount returned) are represented in the DA domain, not in EC.", "score": 0.52, "match_basis": "verbatim_token+domain_route:EC"}, {"md_atom_id": "md_dmEC_assn_a017", "md_file": "knowledge_base/domains/EC/assumptions.md", "md_atom_type": "LIST_ITEM", "md_parent_section": "§EC [EC — Assumptions]", "md_verbatim": "   b. The population of qualifier variables (e.g., grouping, record) and additional timing variables (e.g., date of collection, visit, time point) for records representing information collected about doses not taken, not given, or missed should be populated with equal granularity as administered records, when known and/or applicable. Qualifiers that indicate dose amount (e.g., ECDOSE, ECDOSTXT) may be populated with positive (non-zero) values in cases where the sponsor feels it is necessary and/or appropriate to represent specific dose amounts not taken, not given, or missed.", "score": 0.5145, "match_basis": "verbatim_token+domain_route:EC"}], "candidate_count": 5, "zero_candidate": false}
{"pdf_atom_id": "ig34_p0110_a012", "pdf_atom_type": "LIST_ITEM", "pdf_source": "SDTMIG_v3.4", "pdf_page": 110, "pdf_parent_section": "§6.1.3.2 [Exposure as Collected (EC)]", "pdf_verbatim": "The degree of summarization of records from EC to EX is sponsor-defined to support study purpose and analysis. When the relationship between EC and EX records can be described in RELREC, then it should be defined. EX derivations must be described in the Define-XML document.", "figure_ref": null, "candidates": [{"md_atom_id": "md_dmEC_assn_a022", "md_file": "knowledge_base/domains/EC/assumptions.md", "md_atom_type": "LIST_ITEM", "md_parent_section": "§EC [EC — Assumptions]", "md_verbatim": "6. The degree of summarization of records from EC to EX is sponsor-defined to support study purpose and analysis. When the relationship between EC and EX records can be described in RELREC, then it should be defined. EX derivations must be described in the Define-XML document.", "score": 1.0, "match_basis": "verbatim_token+domain_route:EC"}, {"md_atom_id": "md_dmEC_assn_a006", "md_file": "knowledge_base/domains/EC/assumptions.md", "md_atom_type": "LIST_ITEM", "md_parent_section": "§EC [EC — Assumptions]", "md_verbatim": "2. Treatment description (ECTRT) is sponsor-defined and should reflect how the protocol-specified study treatment is known or referred to in data collection. In an open-label study, ECTRT should store the treatment name. In a masked study, if treatment is collected and known as tablet A to the subject or administrator, then ECTRT = \"TABLET A\". If, in a masked study, the treatment is not known by a synonym and the data are to be exchanged between sponsors, partners, and/or regulatory agency(s), then assign ECTRT the value of \"MASKED\".", "score": 0.4986, "match_basis": "verbatim_token+domain_route:EC"}, {"md_atom_id": "md_dmEC_assn_a024", "md_file": "knowledge_base/domains/EC/assumptions.md", "md_atom_type": "LIST_ITEM", "md_parent_section": "§EC [EC — Assumptions]", "md_verbatim": "   a. --DOSTOT is under evaluation for potential deprecation and replacement with a mechanism to describe total dose over any interval of time (e.g., day, week, month). Sponsors considering ECDOSTOT may want to consider using other dose amount variables (ECDOSE or ECDOSTXT) in combination with frequency (ECDOSFRQ) and timing variables to represent the data.", "score": 0.4716, "match_basis": "verbatim_token+domain_route:EC"}, {"md_atom_id": "md_dmEC_assn_a012", "md_file": "knowledge_base/domains/EC/assumptions.md", "md_atom_type": "LIST_ITEM", "md_parent_section": "§EC [EC — Assumptions]", "md_verbatim": "   c. Appropriate timing variable(s) should be populated. Note: Details on Scheduled records may describe timing at a higher level than Performed records.", "score": 0.4694, "match_basis": "verbatim_token+domain_route:EC"}, {"md_atom_id": "md_dmEC_assn_a011", "md_file": "knowledge_base/domains/EC/assumptions.md", "md_atom_type": "LIST_ITEM", "md_parent_section": "§EC [EC — Assumptions]", "md_verbatim": "   b. Qualifier variables should be populated with equal granularity across scheduled and performed records when known. For example, if ECDOSU and ECDOSFRQ are known at scheduling and administration, then the variables would be populated on both records. If ECLOC is determined at the time of administration, then it would be populated on the Performed record only.", "score": 0.4652, "match_basis": "verbatim_token+domain_route:EC"}], "candidate_count": 5, "zero_candidate": false}
{"pdf_atom_id": "ig34_p0110_a013", "pdf_atom_type": "LIST_ITEM", "pdf_source": "SDTMIG_v3.4", "pdf_page": 110, "pdf_parent_section": "§6.1.3.2 [Exposure as Collected (EC)]", "pdf_verbatim": "Additional interventions qualifiers", "figure_ref": null, "candidates": [{"md_atom_id": "md_dmEC_assn_a023", "md_file": "knowledge_base/domains/EC/assumptions.md", "md_atom_type": "LIST_ITEM", "md_parent_section": "§EC [EC — Assumptions]", "md_verbatim": "7. Additional interventions qualifiers", "score": 1.0, "match_basis": "verbatim_token+domain_route:EC"}, {"md_atom_id": "md_dmEC_assn_a025", "md_file": "knowledge_base/domains/EC/assumptions.md", "md_atom_type": "LIST_ITEM", "md_parent_section": "§EC [EC — Assumptions]", "md_verbatim": "   b. Any identifier variables, timing variables, or findings general observation-class qualifiers may be added to the EC domain, but the following qualifiers would generally not be used: --STAT and --REASND.", "score": 0.4944, "match_basis": "verbatim_token+domain_route:EC"}, {"md_atom_id": "md_dmEC_assn_a004", "md_file": "knowledge_base/domains/EC/assumptions.md", "md_atom_type": "LIST_ITEM", "md_parent_section": "§EC [EC — Assumptions]", "md_verbatim": "   b. Collected exposure data are in most cases represented in a combination of 1 or more of EC, DA, or Findings About Events or Interventions (FA) domains. If the entire EC dataset is an exact duplicate of the entire EX dataset, then EC is optional and at the sponsor's discretion.", "score": 0.4736, "match_basis": "verbatim_token+domain_route:EC"}, {"md_atom_id": "md_dmEC_assn_a017", "md_file": "knowledge_base/domains/EC/assumptions.md", "md_atom_type": "LIST_ITEM", "md_parent_section": "§EC [EC — Assumptions]", "md_verbatim": "   b. The population of qualifier variables (e.g., grouping, record) and additional timing variables (e.g., date of collection, visit, time point) for records representing information collected about doses not taken, not given, or missed should be populated with equal granularity as administered records, when known and/or applicable. Qualifiers that indicate dose amount (e.g., ECDOSE, ECDOSTXT) may be populated with positive (non-zero) values in cases where the sponsor feels it is necessary and/or appropriate to represent specific dose amounts not taken, not given, or missed.", "score": 0.4706, "match_basis": "verbatim_token+domain_route:EC"}, {"md_atom_id": "md_dmEC_assn_a016", "md_file": "knowledge_base/domains/EC/assumptions.md", "md_atom_type": "LIST_ITEM", "md_parent_section": "§EC [EC — Assumptions]", "md_verbatim": "   a. The record qualifier --OCCUR, with value of \"N\", is available in domains based on the Interventions and Events General Observation Classes as the standard way to represent whether an intervention or event did not happen. In the EC domain, ECOCCUR value of \"N\" indicates a dose was not taken, not given, or missed. For example, if zero tablets are taken within a timeframe or zero mL is infused at a visit, then ECOCCUR = \"N\" is the standard representation of the collected doses not taken, not given, or missed. Dose amount variables (e.g., ECDOSE, ECDOSTXT) must not be set to zero (0) as an alternative method for indicating doses not taken, not given, or missed.", "score": 0.4607, "match_basis": "verbatim_token+domain_route:EC"}], "candidate_count": 5, "zero_candidate": false}
{"pdf_atom_id": "ig34_p0110_a014", "pdf_atom_type": "LIST_ITEM", "pdf_source": "SDTMIG_v3.4", "pdf_page": 110, "pdf_parent_section": "§6.1.3.2 [Exposure as Collected (EC)]", "pdf_verbatim": "--DOSTOT is under evaluation for potential deprecation and replacement with a mechanism to describe total dose over any interval of time (e.g., day, week, month). Sponsors considering ECDOSTOT may want to consider using other dose amount variables (ECDOSE or ECDOSTXT) in combination with frequency (ECDOSFRQ) and timing variables to represent the data.", "figure_ref": null, "candidates": [{"md_atom_id": "md_dmEC_assn_a024", "md_file": "knowledge_base/domains/EC/assumptions.md", "md_atom_type": "LIST_ITEM", "md_parent_section": "§EC [EC — Assumptions]", "md_verbatim": "   a. --DOSTOT is under evaluation for potential deprecation and replacement with a mechanism to describe total dose over any interval of time (e.g., day, week, month). Sponsors considering ECDOSTOT may want to consider using other dose amount variables (ECDOSE or ECDOSTXT) in combination with frequency (ECDOSFRQ) and timing variables to represent the data.", "score": 1.0, "match_basis": "verbatim_token+domain_route:EC"}, {"md_atom_id": "md_dmEC_assn_a017", "md_file": "knowledge_base/domains/EC/assumptions.md", "md_atom_type": "LIST_ITEM", "md_parent_section": "§EC [EC — Assumptions]", "md_verbatim": "   b. The population of qualifier variables (e.g., grouping, record) and additional timing variables (e.g., date of collection, visit, time point) for records representing information collected about doses not taken, not given, or missed should be populated with equal granularity as administered records, when known and/or applicable. Qualifiers that indicate dose amount (e.g., ECDOSE, ECDOSTXT) may be populated with positive (non-zero) values in cases where the sponsor feels it is necessary and/or appropriate to represent specific dose amounts not taken, not given, or missed.", "score": 0.5269, "match_basis": "verbatim_token+domain_route:EC"}, {"md_atom_id": "md_dmEC_assn_a016", "md_file": "knowledge_base/domains/EC/assumptions.md", "md_atom_type": "LIST_ITEM", "md_parent_section": "§EC [EC — Assumptions]", "md_verbatim": "   a. The record qualifier --OCCUR, with value of \"N\", is available in domains based on the Interventions and Events General Observation Classes as the standard way to represent whether an intervention or event did not happen. In the EC domain, ECOCCUR value of \"N\" indicates a dose was not taken, not given, or missed. For example, if zero tablets are taken within a timeframe or zero mL is infused at a visit, then ECOCCUR = \"N\" is the standard representation of the collected doses not taken, not given, or missed. Dose amount variables (e.g., ECDOSE, ECDOSTXT) must not be set to zero (0) as an alternative method for indicating doses not taken, not given, or missed.", "score": 0.5162, "match_basis": "verbatim_token+domain_route:EC"}, {"md_atom_id": "md_dmEC_assn_a004", "md_file": "knowledge_base/domains/EC/assumptions.md", "md_atom_type": "LIST_ITEM", "md_parent_section": "§EC [EC — Assumptions]", "md_verbatim": "   b. Collected exposure data are in most cases represented in a combination of 1 or more of EC, DA, or Findings About Events or Interventions (FA) domains. If the entire EC dataset is an exact duplicate of the entire EX dataset, then EC is optional and at the sponsor's discretion.", "score": 0.5068, "match_basis": "verbatim_token+domain_route:EC"}, {"md_atom_id": "md_dmEC_assn_a020", "md_file": "knowledge_base/domains/EC/assumptions.md", "md_atom_type": "LIST_ITEM", "md_parent_section": "§EC [EC — Assumptions]", "md_verbatim": "   a. Timing variables in the EC domain should reflect administrations by the intervals they were collected (e.g., constant-dosing intervals, visits, targeted dates like first dose, last dose).", "score": 0.4956, "match_basis": "verbatim_token+domain_route:EC"}], "candidate_count": 5, "zero_candidate": false}
{"pdf_atom_id": "ig34_p0110_a015", "pdf_atom_type": "LIST_ITEM", "pdf_source": "SDTMIG_v3.4", "pdf_page": 110, "pdf_parent_section": "§6.1.3.2 [Exposure as Collected (EC)]", "pdf_verbatim": "Any identifier variables, timing variables, or findings general observation-class qualifiers may be added to the EC domain, but the following qualifiers would generally not be used:  --STAT and --REASND.", "figure_ref": null, "candidates": [{"md_atom_id": "md_dmEC_assn_a025", "md_file": "knowledge_base/domains/EC/assumptions.md", "md_atom_type": "LIST_ITEM", "md_parent_section": "§EC [EC — Assumptions]", "md_verbatim": "   b. Any identifier variables, timing variables, or findings general observation-class qualifiers may be added to the EC domain, but the following qualifiers would generally not be used: --STAT and --REASND.", "score": 1.0, "match_basis": "verbatim_token+domain_route:EC"}, {"md_atom_id": "md_dmEC_assn_a016", "md_file": "knowledge_base/domains/EC/assumptions.md", "md_atom_type": "LIST_ITEM", "md_parent_section": "§EC [EC — Assumptions]", "md_verbatim": "   a. The record qualifier --OCCUR, with value of \"N\", is available in domains based on the Interventions and Events General Observation Classes as the standard way to represent whether an intervention or event did not happen. In the EC domain, ECOCCUR value of \"N\" indicates a dose was not taken, not given, or missed. For example, if zero tablets are taken within a timeframe or zero mL is infused at a visit, then ECOCCUR = \"N\" is the standard representation of the collected doses not taken, not given, or missed. Dose amount variables (e.g., ECDOSE, ECDOSTXT) must not be set to zero (0) as an alternative method for indicating doses not taken, not given, or missed.", "score": 0.547, "match_basis": "verbatim_token+domain_route:EC"}, {"md_atom_id": "md_dmEC_assn_a020", "md_file": "knowledge_base/domains/EC/assumptions.md", "md_atom_type": "LIST_ITEM", "md_parent_section": "§EC [EC — Assumptions]", "md_verbatim": "   a. Timing variables in the EC domain should reflect administrations by the intervals they were collected (e.g., constant-dosing intervals, visits, targeted dates like first dose, last dose).", "score": 0.5182, "match_basis": "verbatim_token+domain_route:EC"}, {"md_atom_id": "md_dmEC_assn_a023", "md_file": "knowledge_base/domains/EC/assumptions.md", "md_atom_type": "LIST_ITEM", "md_parent_section": "§EC [EC — Assumptions]", "md_verbatim": "7. Additional interventions qualifiers", "score": 0.4944, "match_basis": "verbatim_token+domain_route:EC"}, {"md_atom_id": "md_dmEC_assn_a017", "md_file": "knowledge_base/domains/EC/assumptions.md", "md_atom_type": "LIST_ITEM", "md_parent_section": "§EC [EC — Assumptions]", "md_verbatim": "   b. The population of qualifier variables (e.g., grouping, record) and additional timing variables (e.g., date of collection, visit, time point) for records representing information collected about doses not taken, not given, or missed should be populated with equal granularity as administered records, when known and/or applicable. Qualifiers that indicate dose amount (e.g., ECDOSE, ECDOSTXT) may be populated with positive (non-zero) values in cases where the sponsor feels it is necessary and/or appropriate to represent specific dose amounts not taken, not given, or missed.", "score": 0.4925, "match_basis": "verbatim_token+domain_route:EC"}], "candidate_count": 5, "zero_candidate": false}
{"pdf_atom_id": "ig34_p0111_a001", "pdf_atom_type": "HEADING", "pdf_source": "SDTMIG v3.4 (no header footer).pdf", "pdf_page": 111, "pdf_parent_section": "§6.1.3 [Exposure Domains]", "pdf_verbatim": "6.1.3.3 Exposure/Exposure as Collected Examples", "figure_ref": null, "candidates": [{"md_atom_id": "md_varindex_a434", "md_file": "knowledge_base/VARIABLE_INDEX.md", "md_atom_type": "HEADING", "md_parent_section": "§ 二、领域专属变量（仅 1 个域，共 1499 个），按域分组", "md_verbatim": "### EC — Exposure as Collected (Interventions)", "score": 0.56, "match_basis": "verbatim_token+global_search"}, {"md_atom_id": "md_dmCM_ex_a001", "md_file": "knowledge_base/domains/CM/examples.md", "md_atom_type": "HEADING", "md_parent_section": "§CM [CM — Examples]", "md_verbatim": "# CM — Examples", "score": 0.4895, "match_basis": "verbatim_token+global_search"}, {"md_atom_id": "md_ch08_a184", "md_file": "knowledge_base/chapters/ch08_relationships.md", "md_atom_type": "HEADING", "md_parent_section": "§8.4 [Relating Non-standard Variable Values to a Parent Domain]", "md_verbatim": "### 8.4.3 Examples", "score": 0.4895, "match_basis": "verbatim_token+global_search"}, {"md_atom_id": "md_dmAE_ex_a001", "md_file": "knowledge_base/domains/AE/examples.md", "md_atom_type": "HEADING", "md_parent_section": "§AE [AE — Examples]", "md_verbatim": "# AE — Examples", "score": 0.4895, "match_basis": "verbatim_token+global_search"}, {"md_atom_id": "md_dmAG_ex_a001", "md_file": "knowledge_base/domains/AG/examples.md", "md_atom_type": "HEADING", "md_parent_section": "§AG [AG — Examples]", "md_verbatim": "# AG — Examples", "score": 0.4895, "match_basis": "verbatim_token+global_search"}], "candidate_count": 5, "zero_candidate": false}
{"pdf_atom_id": "ig34_p0111_a002", "pdf_atom_type": "HEADING", "pdf_source": "SDTMIG v3.4 (no header footer).pdf", "pdf_page": 111, "pdf_parent_section": "§6.1.3.3 [Exposure/Exposure as Collected Examples]", "pdf_verbatim": "Example 1", "figure_ref": null, "candidates": [{"md_atom_id": "md_dmCM_ex_a002", "md_file": "knowledge_base/domains/CM/examples.md", "md_atom_type": "HEADING", "md_parent_section": "§CM.1 [Example 1]", "md_verbatim": "## Example 1", "score": 0.9, "match_basis": "verbatim_token+global_search"}, {"md_atom_id": "md_dmCM_ex_a022", "md_file": "knowledge_base/domains/CM/examples.md", "md_atom_type": "HEADING", "md_parent_section": "§CM.2 [Example 2]", "md_verbatim": "## Example 2", "score": 0.9, "match_basis": "verbatim_token+global_search"}, {"md_atom_id": "md_dmCM_ex_a029", "md_file": "knowledge_base/domains/CM/examples.md", "md_atom_type": "HEADING", "md_parent_section": "§CM.3 [Example 3]", "md_verbatim": "## Example 3", "score": 0.9, "match_basis": "verbatim_token+global_search"}, {"md_atom_id": "md_dmCM_ex_a047", "md_file": "knowledge_base/domains/CM/examples.md", "md_atom_type": "HEADING", "md_parent_section": "§CM.4 [Example 4]", "md_verbatim": "## Example 4", "score": 0.9, "match_basis": "verbatim_token+global_search"}, {"md_atom_id": "md_dmCM_ex_a060", "md_file": "knowledge_base/domains/CM/examples.md", "md_atom_type": "HEADING", "md_parent_section": "§CM.5 [Example 5]", "md_verbatim": "## Example 5", "score": 0.9, "match_basis": "verbatim_token+global_search"}, {"md_atom_id": "md_ch08_a292", "md_file": "knowledge_base/chapters/ch08_relationships.md", "md_atom_type": "HEADING", "md_parent_section": "§8.7 [Related Subjects (RELSUB)]", "md_verbatim": "### Example", "score": 0.9, "match_basis": "verbatim_token+global_search"}, {"md_atom_id": "md_ch08_a331", "md_file": "knowledge_base/chapters/ch08_relationships.md", "md_atom_type": "HEADING", "md_parent_section": "§8.8 [Related Specimens (RELSPEC)]", "md_verbatim": "### Example", "score": 0.9, "match_basis": "verbatim_token+global_search"}, {"md_atom_id": "md_dmAE_ex_a002", "md_file": "knowledge_base/domains/AE/examples.md", "md_atom_type": "HEADING", "md_parent_section": "§AE.1 [Example 1]", "md_verbatim": "## Example 1", "score": 0.9, "match_basis": "verbatim_token+global_search"}, {"md_atom_id": "md_dmAE_ex_a020", "md_file": "knowledge_base/domains/AE/examples.md", "md_atom_type": "HEADING", "md_parent_section": "§AE.2 [Example 2]", "md_verbatim": "## Example 2", "score": 0.9, "match_basis": "verbatim_token+global_search"}, {"md_atom_id": "md_dmAE_ex_a035", "md_file": "knowledge_base/domains/AE/examples.md", "md_atom_type": "HEADING", "md_parent_section": "§AE.3 [Example 3]", "md_verbatim": "## Example 3", "score": 0.9, "match_basis": "verbatim_token+global_search"}], "candidate_count": 10, "zero_candidate": false}
{"pdf_atom_id": "ig34_p0111_a003", "pdf_atom_type": "SENTENCE", "pdf_source": "SDTMIG v3.4 (no header footer).pdf", "pdf_page": 111, "pdf_parent_section": "§6.1.3.3 [Exposure/Exposure as Collected Examples]", "pdf_verbatim": "This is an example of a double-blind study comparing drug X extended release (ER; 2 500-mg tablets once daily) vs. drug Z (2 250-mg tablets once daily). Per example CRFs, subject ABC1001 took 2 tablets from 2011-01-14 to 2011-01-28 and subject ABC2001 took 2 tablets within the same timeframe but missed dosing on 2011-01-24.", "figure_ref": null, "candidates": [{"md_atom_id": "md_dmEC_ex_a004", "md_file": "knowledge_base/domains/EC/examples.md", "md_atom_type": "SENTENCE", "md_parent_section": "§EC.1 [Example 1]", "md_verbatim": "This is an example of a double-blind study comparing drug X extended release (ER; 2 500-mg tablets once daily) vs. drug Z (2 250-mg tablets once daily). Per example CRFs, subject ABC1001 took 2 tablets from 2011-01-14 to 2011-01-28 and subject ABC2001 took 2 tablets within the same timeframe but missed dosing on 2011-01-24.", "score": 0.9, "match_basis": "verbatim_token+global_search"}, {"md_atom_id": "md_dmEX_ex_a004", "md_file": "knowledge_base/domains/EX/examples.md", "md_atom_type": "SENTENCE", "md_parent_section": "§EX.1 [Example 1]", "md_verbatim": "This is an example of a double-blind study comparing drug X extended release (ER; 2 500-mg tablets once daily) vs. drug Z (2 250-mg tablets once daily). Per example CRFs, subject ABC1001 took 2 tablets from 2011-01-14 to 2011-01-28 and subject ABC2001 took 2 tablets within the same timeframe but missed dosing on 2011-01-24.", "score": 0.9, "match_basis": "verbatim_token+global_search"}, {"md_atom_id": "md_dmEX_ex_a068", "md_file": "knowledge_base/domains/EX/examples.md", "md_atom_type": "SENTENCE", "md_parent_section": "§EX.3 [Example 3]", "md_verbatim": "The study in this example was a double-blind study comparing 10, 20, and 30 mg of Drug X once daily vs. placebo. Study treatment was given as 1 tablet each from bottles A, B, and C taken together once daily. The subject in this example took:", "score": 0.5213, "match_basis": "verbatim_token+global_search"}, {"md_atom_id": "md_dmEC_ex_a023", "md_file": "knowledge_base/domains/EC/examples.md", "md_atom_type": "SENTENCE", "md_parent_section": "§EC.3 [Example 3]", "md_verbatim": "The study in this example was a double-blind study comparing 10, 20, and 30 mg of Drug X once daily vs. placebo. Study treatment was given as 1 tablet each from bottles A, B, and C taken together once daily.", "score": 0.4869, "match_basis": "verbatim_token+global_search"}, {"md_atom_id": "md_dmEC_ex_a034", "md_file": "knowledge_base/domains/EC/examples.md", "md_atom_type": "SENTENCE", "md_parent_section": "§EC.5 [Example 5]", "md_verbatim": "This is an example of a double-blind study design comparing 10 and 20 mg of drug X vs. placebo taken daily, morning and evening, for a week.", "score": 0.4593, "match_basis": "verbatim_token+global_search"}], "candidate_count": 5, "zero_candidate": false}
{"pdf_atom_id": "ig34_p0111_a004", "pdf_atom_type": "HEADING", "pdf_source": "SDTMIG v3.4 (no header footer).pdf", "pdf_page": 111, "pdf_parent_section": "§6.1.3.3 [Exposure/Exposure as Collected Examples]", "pdf_verbatim": "Exposure CRF:", "figure_ref": null, "candidates": [{"md_atom_id": "md_varindex_a513", "md_file": "knowledge_base/VARIABLE_INDEX.md", "md_atom_type": "HEADING", "md_parent_section": "§ 二、领域专属变量（仅 1 个域，共 1499 个），按域分组", "md_verbatim": "### EX — Exposure (Interventions)", "score": 0.5, "match_basis": "verbatim_token+global_search"}, {"md_atom_id": "md_varindex_a434", "md_file": "knowledge_base/VARIABLE_INDEX.md", "md_atom_type": "HEADING", "md_parent_section": "§ 二、领域专属变量（仅 1 个域，共 1499 个），按域分组", "md_verbatim": "### EC — Exposure as Collected (Interventions)", "score": 0.444, "match_basis": "verbatim_token+global_search"}, {"md_atom_id": "md_ch01_a003", "md_file": "knowledge_base/chapters/ch01_introduction.md", "md_atom_type": "HEADING", "md_parent_section": "§1 [Introduction]", "md_verbatim": "## 1.1 Purpose", "score": 0.3545, "match_basis": "verbatim_token+global_search"}, {"md_atom_id": "md_model01_a058", "md_file": "knowledge_base/model/01_concepts_and_terms.md", "md_atom_type": "HEADING", "md_parent_section": "§2.2 [Table Structure]", "md_verbatim": "## 2.2 Table Structure", "score": 0.3375, "match_basis": "verbatim_token+global_search"}, {"md_atom_id": "md_varindex_a407", "md_file": "knowledge_base/VARIABLE_INDEX.md", "md_atom_type": "HEADING", "md_parent_section": "§ 二、领域专属变量（仅 1 个域，共 1499 个），按域分组", "md_verbatim": "### DS — Disposition (Events)", "score": 0.3316, "match_basis": "verbatim_token+global_search"}], "candidate_count": 5, "zero_candidate": false}
{"pdf_atom_id": "ig34_p0111_a005", "pdf_atom_type": "HEADING", "pdf_source": "SDTMIG v3.4 (no header footer).pdf", "pdf_page": 111, "pdf_parent_section": "§6.1.3.3 [Exposure/Exposure as Collected Examples]", "pdf_verbatim": "Subject: ABC1001", "figure_ref": null, "candidates": [{"md_atom_id": "md_model03_a123", "md_file": "knowledge_base/model/03_special_purpose_domains.md", "md_atom_type": "HEADING", "md_parent_section": "§ Subject Visits (SV)", "md_verbatim": "## Subject Visits (SV)", "score": 0.5143, "match_basis": "verbatim_token+global_search"}, {"md_atom_id": "md_ch04_a201", "md_file": "knowledge_base/chapters/ch04_general_assumptions.md", "md_atom_type": "HEADING", "md_parent_section": "§4.2 [General Variable Assumptions]", "md_verbatim": "### 4.2.3 Use of \"Subject\" and USUBJID", "score": 0.5, "match_basis": "verbatim_token+global_search"}, {"md_atom_id": "md_model03_a085", "md_file": "knowledge_base/model/03_special_purpose_domains.md", "md_atom_type": "HEADING", "md_parent_section": "§ Subject Elements (SE)", "md_verbatim": "## Subject Elements (SE)", "score": 0.4875, "match_basis": "verbatim_token+global_search"}, {"md_atom_id": "md_model03_a105", "md_file": "knowledge_base/model/03_special_purpose_domains.md", "md_atom_type": "HEADING", "md_parent_section": "§ Subject Repro Stages", "md_verbatim": "## Subject Repro Stages", "score": 0.4765, "match_basis": "verbatim_token+global_search"}, {"md_atom_id": "md_model06_a064", "md_file": "knowledge_base/model/06_relationship_datasets.md", "md_atom_type": "HEADING", "md_parent_section": "§6.4 Related Subjects (RELSUB)", "md_verbatim": "## 6.4 Related Subjects (RELSUB)", "score": 0.4667, "match_basis": "verbatim_token+global_search"}], "candidate_count": 5, "zero_candidate": false}
{"pdf_atom_id": "ig34_p0111_a006", "pdf_atom_type": "TABLE_HEADER", "pdf_source": "SDTMIG v3.4 (no header footer).pdf", "pdf_page": 111, "pdf_parent_section": "§6.1.3.3 [Exposure/Exposure as Collected Examples]", "pdf_verbatim": "Bottle | Number of Tablets Taken Daily | Reason for Variation | Start Date | End Date", "figure_ref": null, "candidates": [{"md_atom_id": "md_dmEX_ex_a007", "md_file": "knowledge_base/domains/EX/examples.md", "md_atom_type": "TABLE_HEADER", "md_parent_section": "§EX.1 [Example 1]", "md_verbatim": "| Bottle | Number of Tablets Taken Daily | Reason for Variation | Start Date | End Date |\n|--------|-------------------------------|----------------------|------------|----------|", "score": 0.9, "match_basis": "verbatim_token+global_search"}, {"md_atom_id": "md_dmEX_ex_a010", "md_file": "knowledge_base/domains/EX/examples.md", "md_atom_type": "TABLE_HEADER", "md_parent_section": "§EX.1 [Example 1]", "md_verbatim": "| Bottle | Number of Tablets Taken Daily | Reason for Variation | Start Date | End Date |\n|--------|-------------------------------|----------------------|------------|----------|", "score": 0.9, "match_basis": "verbatim_token+global_search"}, {"md_atom_id": "md_dmEX_ex_a108", "md_file": "knowledge_base/domains/EX/examples.md", "md_atom_type": "TABLE_HEADER", "md_parent_section": "§EX.5 [Example 5]", "md_verbatim": "| Bottle | Time Point | Number of Tablets Taken | Start Date | End Date |\n|--------|------------|-------------------------|------------|----------|", "score": 0.6143, "match_basis": "verbatim_token+global_search"}, {"md_atom_id": "md_dmEX_ex_a112", "md_file": "knowledge_base/domains/EX/examples.md", "md_atom_type": "TABLE_HEADER", "md_parent_section": "§EX.5 [Example 5]", "md_verbatim": "| Bottle | Time Point | Number of Tablets Taken | Start Date | End Date |\n|--------|------------|-------------------------|------------|----------|", "score": 0.6143, "match_basis": "verbatim_token+global_search"}, {"md_atom_id": "md_dmEX_ex_a116", "md_file": "knowledge_base/domains/EX/examples.md", "md_atom_type": "TABLE_HEADER", "md_parent_section": "§EX.5 [Example 5]", "md_verbatim": "| Bottle | Time Point | Number of Tablets Taken | Start Date | End Date |\n|--------|------------|-------------------------|------------|----------|", "score": 0.6143, "match_basis": "verbatim_token+global_search"}], "candidate_count": 5, "zero_candidate": false}
{"pdf_atom_id": "ig34_p0111_a007", "pdf_atom_type": "TABLE_ROW", "pdf_source": "SDTMIG v3.4 (no header footer).pdf", "pdf_page": 111, "pdf_parent_section": "§6.1.3.3 [Exposure/Exposure as Collected Examples]", "pdf_verbatim": "A | 2 | | 2011-01-14 | 2011-01-28", "figure_ref": null, "candidates": [{"md_atom_id": "md_dmEX_ex_a008", "md_file": "knowledge_base/domains/EX/examples.md", "md_atom_type": "TABLE_ROW", "md_parent_section": "§EX.1 [Example 1]", "md_verbatim": "| A | 2 | | 2011-01-14 | 2011-01-28 |", "score": 0.9, "match_basis": "verbatim_token+global_search"}, {"md_atom_id": "md_dmEX_ex_a011", "md_file": "knowledge_base/domains/EX/examples.md", "md_atom_type": "TABLE_ROW", "md_parent_section": "§EX.1 [Example 1]", "md_verbatim": "| A | 2 | | 2011-01-14 | 2011-01-23 |", "score": 0.9, "match_basis": "verbatim_token+global_search"}, {"md_atom_id": "md_dmEX_ex_a013", "md_file": "knowledge_base/domains/EX/examples.md", "md_atom_type": "TABLE_ROW", "md_parent_section": "§EX.1 [Example 1]", "md_verbatim": "| A | 2 | | 2011-01-25 | 2011-01-28 |", "score": 0.9, "match_basis": "verbatim_token+global_search"}, {"md_atom_id": "md_dmEX_ex_a109", "md_file": "knowledge_base/domains/EX/examples.md", "md_atom_type": "TABLE_ROW", "md_parent_section": "§EX.5 [Example 5]", "md_verbatim": "| A | AM | 1 | 2012-01-01 | 2012-01-08 |", "score": 0.5, "match_basis": "verbatim_token+global_search"}, {"md_atom_id": "md_dmEX_ex_a110", "md_file": "knowledge_base/domains/EX/examples.md", "md_atom_type": "TABLE_ROW", "md_parent_section": "§EX.5 [Example 5]", "md_verbatim": "| B | PM | 1 | 2012-01-01 | 2012-01-08 |", "score": 0.5, "match_basis": "verbatim_token+global_search"}, {"md_atom_id": "md_dmEX_ex_a113", "md_file": "knowledge_base/domains/EX/examples.md", "md_atom_type": "TABLE_ROW", "md_parent_section": "§EX.5 [Example 5]", "md_verbatim": "| A | AM | 1 | 2012-02-01 | 2012-02-08 |", "score": 0.5, "match_basis": "verbatim_token+global_search"}, {"md_atom_id": "md_dmEX_ex_a114", "md_file": "knowledge_base/domains/EX/examples.md", "md_atom_type": "TABLE_ROW", "md_parent_section": "§EX.5 [Example 5]", "md_verbatim": "| B | PM | 1 | 2012-02-01 | 2012-02-08 |", "score": 0.5, "match_basis": "verbatim_token+global_search"}, {"md_atom_id": "md_dmEX_ex_a117", "md_file": "knowledge_base/domains/EX/examples.md", "md_atom_type": "TABLE_ROW", "md_parent_section": "§EX.5 [Example 5]", "md_verbatim": "| A | AM | 1 | 2012-03-01 | 2012-03-08 |", "score": 0.5, "match_basis": "verbatim_token+global_search"}, {"md_atom_id": "md_dmEX_ex_a118", "md_file": "knowledge_base/domains/EX/examples.md", "md_atom_type": "TABLE_ROW", "md_parent_section": "§EX.5 [Example 5]", "md_verbatim": "| B | PM | 1 | 2012-03-01 | 2012-03-08 |", "score": 0.5, "match_basis": "verbatim_token+global_search"}, {"md_atom_id": "md_dmEX_ex_a256", "md_file": "knowledge_base/domains/EX/examples.md", "md_atom_type": "TABLE_ROW", "md_parent_section": "§EX.8 [Example 8]", "md_verbatim": "| 2012-01-13 | 2012-01-20 |", "score": 0.5, "match_basis": "verbatim_token+global_search"}], "candidate_count": 10, "zero_candidate": false}
{"pdf_atom_id": "ig34_p0111_a008", "pdf_atom_type": "HEADING", "pdf_source": "SDTMIG v3.4 (no header footer).pdf", "pdf_page": 111, "pdf_parent_section": "§6.1.3.3 [Exposure/Exposure as Collected Examples]", "pdf_verbatim": "Subject: ABC2001", "figure_ref": null, "candidates": [{"md_atom_id": "md_model03_a123", "md_file": "knowledge_base/model/03_special_purpose_domains.md", "md_atom_type": "HEADING", "md_parent_section": "§ Subject Visits (SV)", "md_verbatim": "## Subject Visits (SV)", "score": 0.5143, "match_basis": "verbatim_token+global_search"}, {"md_atom_id": "md_ch04_a201", "md_file": "knowledge_base/chapters/ch04_general_assumptions.md", "md_atom_type": "HEADING", "md_parent_section": "§4.2 [General Variable Assumptions]", "md_verbatim": "### 4.2.3 Use of \"Subject\" and USUBJID", "score": 0.5, "match_basis": "verbatim_token+global_search"}, {"md_atom_id": "md_model03_a085", "md_file": "knowledge_base/model/03_special_purpose_domains.md", "md_atom_type": "HEADING", "md_parent_section": "§ Subject Elements (SE)", "md_verbatim": "## Subject Elements (SE)", "score": 0.4875, "match_basis": "verbatim_token+global_search"}, {"md_atom_id": "md_model03_a105", "md_file": "knowledge_base/model/03_special_purpose_domains.md", "md_atom_type": "HEADING", "md_parent_section": "§ Subject Repro Stages", "md_verbatim": "## Subject Repro Stages", "score": 0.4765, "match_basis": "verbatim_token+global_search"}, {"md_atom_id": "md_model06_a064", "md_file": "knowledge_base/model/06_relationship_datasets.md", "md_atom_type": "HEADING", "md_parent_section": "§6.4 Related Subjects (RELSUB)", "md_verbatim": "## 6.4 Related Subjects (RELSUB)", "score": 0.4667, "match_basis": "verbatim_token+global_search"}], "candidate_count": 5, "zero_candidate": false}
{"pdf_atom_id": "ig34_p0111_a009", "pdf_atom_type": "TABLE_HEADER", "pdf_source": "SDTMIG v3.4 (no header footer).pdf", "pdf_page": 111, "pdf_parent_section": "§6.1.3.3 [Exposure/Exposure as Collected Examples]", "pdf_verbatim": "Bottle | Number of Tablets Taken Daily | Reason for Variation | Start Date | End Date", "figure_ref": null, "candidates": [{"md_atom_id": "md_dmEX_ex_a007", "md_file": "knowledge_base/domains/EX/examples.md", "md_atom_type": "TABLE_HEADER", "md_parent_section": "§EX.1 [Example 1]", "md_verbatim": "| Bottle | Number of Tablets Taken Daily | Reason for Variation | Start Date | End Date |\n|--------|-------------------------------|----------------------|------------|----------|", "score": 0.9, "match_basis": "verbatim_token+global_search"}, {"md_atom_id": "md_dmEX_ex_a010", "md_file": "knowledge_base/domains/EX/examples.md", "md_atom_type": "TABLE_HEADER", "md_parent_section": "§EX.1 [Example 1]", "md_verbatim": "| Bottle | Number of Tablets Taken Daily | Reason for Variation | Start Date | End Date |\n|--------|-------------------------------|----------------------|------------|----------|", "score": 0.9, "match_basis": "verbatim_token+global_search"}, {"md_atom_id": "md_dmEX_ex_a108", "md_file": "knowledge_base/domains/EX/examples.md", "md_atom_type": "TABLE_HEADER", "md_parent_section": "§EX.5 [Example 5]", "md_verbatim": "| Bottle | Time Point | Number of Tablets Taken | Start Date | End Date |\n|--------|------------|-------------------------|------------|----------|", "score": 0.6143, "match_basis": "verbatim_token+global_search"}, {"md_atom_id": "md_dmEX_ex_a112", "md_file": "knowledge_base/domains/EX/examples.md", "md_atom_type": "TABLE_HEADER", "md_parent_section": "§EX.5 [Example 5]", "md_verbatim": "| Bottle | Time Point | Number of Tablets Taken | Start Date | End Date |\n|--------|------------|-------------------------|------------|----------|", "score": 0.6143, "match_basis": "verbatim_token+global_search"}, {"md_atom_id": "md_dmEX_ex_a116", "md_file": "knowledge_base/domains/EX/examples.md", "md_atom_type": "TABLE_HEADER", "md_parent_section": "§EX.5 [Example 5]", "md_verbatim": "| Bottle | Time Point | Number of Tablets Taken | Start Date | End Date |\n|--------|------------|-------------------------|------------|----------|", "score": 0.6143, "match_basis": "verbatim_token+global_search"}], "candidate_count": 5, "zero_candidate": false}
{"pdf_atom_id": "ig34_p0111_a010", "pdf_atom_type": "TABLE_ROW", "pdf_source": "SDTMIG v3.4 (no header footer).pdf", "pdf_page": 111, "pdf_parent_section": "§6.1.3.3 [Exposure/Exposure as Collected Examples]", "pdf_verbatim": "A | 2 | | 2011-01-14 | 2011-01-23", "figure_ref": null, "candidates": [{"md_atom_id": "md_dmEX_ex_a008", "md_file": "knowledge_base/domains/EX/examples.md", "md_atom_type": "TABLE_ROW", "md_parent_section": "§EX.1 [Example 1]", "md_verbatim": "| A | 2 | | 2011-01-14 | 2011-01-28 |", "score": 0.9, "match_basis": "verbatim_token+global_search"}, {"md_atom_id": "md_dmEX_ex_a011", "md_file": "knowledge_base/domains/EX/examples.md", "md_atom_type": "TABLE_ROW", "md_parent_section": "§EX.1 [Example 1]", "md_verbatim": "| A | 2 | | 2011-01-14 | 2011-01-23 |", "score": 0.9, "match_basis": "verbatim_token+global_search"}, {"md_atom_id": "md_dmEX_ex_a013", "md_file": "knowledge_base/domains/EX/examples.md", "md_atom_type": "TABLE_ROW", "md_parent_section": "§EX.1 [Example 1]", "md_verbatim": "| A | 2 | | 2011-01-25 | 2011-01-28 |", "score": 0.9, "match_basis": "verbatim_token+global_search"}, {"md_atom_id": "md_dmEX_ex_a109", "md_file": "knowledge_base/domains/EX/examples.md", "md_atom_type": "TABLE_ROW", "md_parent_section": "§EX.5 [Example 5]", "md_verbatim": "| A | AM | 1 | 2012-01-01 | 2012-01-08 |", "score": 0.5, "match_basis": "verbatim_token+global_search"}, {"md_atom_id": "md_dmEX_ex_a110", "md_file": "knowledge_base/domains/EX/examples.md", "md_atom_type": "TABLE_ROW", "md_parent_section": "§EX.5 [Example 5]", "md_verbatim": "| B | PM | 1 | 2012-01-01 | 2012-01-08 |", "score": 0.5, "match_basis": "verbatim_token+global_search"}, {"md_atom_id": "md_dmEX_ex_a113", "md_file": "knowledge_base/domains/EX/examples.md", "md_atom_type": "TABLE_ROW", "md_parent_section": "§EX.5 [Example 5]", "md_verbatim": "| A | AM | 1 | 2012-02-01 | 2012-02-08 |", "score": 0.5, "match_basis": "verbatim_token+global_search"}, {"md_atom_id": "md_dmEX_ex_a114", "md_file": "knowledge_base/domains/EX/examples.md", "md_atom_type": "TABLE_ROW", "md_parent_section": "§EX.5 [Example 5]", "md_verbatim": "| B | PM | 1 | 2012-02-01 | 2012-02-08 |", "score": 0.5, "match_basis": "verbatim_token+global_search"}, {"md_atom_id": "md_dmEX_ex_a117", "md_file": "knowledge_base/domains/EX/examples.md", "md_atom_type": "TABLE_ROW", "md_parent_section": "§EX.5 [Example 5]", "md_verbatim": "| A | AM | 1 | 2012-03-01 | 2012-03-08 |", "score": 0.5, "match_basis": "verbatim_token+global_search"}, {"md_atom_id": "md_dmEX_ex_a118", "md_file": "knowledge_base/domains/EX/examples.md", "md_atom_type": "TABLE_ROW", "md_parent_section": "§EX.5 [Example 5]", "md_verbatim": "| B | PM | 1 | 2012-03-01 | 2012-03-08 |", "score": 0.5, "match_basis": "verbatim_token+global_search"}, {"md_atom_id": "md_dmEX_ex_a256", "md_file": "knowledge_base/domains/EX/examples.md", "md_atom_type": "TABLE_ROW", "md_parent_section": "§EX.8 [Example 8]", "md_verbatim": "| 2012-01-13 | 2012-01-20 |", "score": 0.5, "match_basis": "verbatim_token+global_search"}], "candidate_count": 10, "zero_candidate": false}
{"pdf_atom_id": "ig34_p0111_a011", "pdf_atom_type": "TABLE_ROW", "pdf_source": "SDTMIG v3.4 (no header footer).pdf", "pdf_page": 111, "pdf_parent_section": "§6.1.3.3 [Exposure/Exposure as Collected Examples]", "pdf_verbatim": "A | 0 | Patient mistake | 2011-01-24 | 2011-01-24", "figure_ref": null, "candidates": [{"md_atom_id": "md_dmEX_ex_a012", "md_file": "knowledge_base/domains/EX/examples.md", "md_atom_type": "TABLE_ROW", "md_parent_section": "§EX.1 [Example 1]", "md_verbatim": "| A | 0 | Patient mistake | 2011-01-24 | 2011-01-24 |", "score": 0.9, "match_basis": "verbatim_token+global_search"}, {"md_atom_id": "md_dmEC_ex_a012", "md_file": "knowledge_base/domains/EC/examples.md", "md_atom_type": "TABLE_ROW", "md_parent_section": "§EC.1 [Example 1]", "md_verbatim": "| 3 | ABC | EC | ABC2001 | 2 | A0-20110124 | BOTTLE A | Y | N | PATIENT MISTAKE | | TABLET | QD | TREATMENT | 2011-01-24 | 2011-01-24 | 11 | 11 |", "score": 0.5057, "match_basis": "verbatim_token+global_search"}, {"md_atom_id": "md_dmEX_ex_a021", "md_file": "knowledge_base/domains/EX/examples.md", "md_atom_type": "TABLE_ROW", "md_parent_section": "§EX.1 [Example 1]", "md_verbatim": "| 3 | ABC | EC | ABC2001 | 2 | A0-20110124 | BOTTLE A | Y | N | PATIENT MISTAKE | | TABLET | QD | TREATMENT | 2011-01-24 | 2011-01-24 | 11 | 11 |", "score": 0.5057, "match_basis": "verbatim_token+global_search"}, {"md_atom_id": "md_ch10_a039", "md_file": "knowledge_base/chapters/ch10_appendices.md", "md_atom_type": "TABLE_ROW", "md_parent_section": "§10.B [Glossary and Abbreviations]", "md_verbatim": "| PRO | Patient-reported outcome |", "score": 0.425, "match_basis": "verbatim_token+global_search"}, {"md_atom_id": "md_dmHO_ex_a044", "md_file": "knowledge_base/domains/HO/examples.md", "md_atom_type": "TABLE_ROW", "md_parent_section": "§HO.2 [Example 2]", "md_verbatim": "| 5 | ABC | HO | ABC123101 | 5 | OUTPATIENT PHYSICAL THERAPY | FOLLOW-UP CARE | 2011-06-27 | 2011-06-27 | | |", "score": 0.4077, "match_basis": "verbatim_token+global_search"}], "candidate_count": 5, "zero_candidate": false}
{"pdf_atom_id": "ig34_p0111_a012", "pdf_atom_type": "TABLE_ROW", "pdf_source": "SDTMIG v3.4 (no header footer).pdf", "pdf_page": 111, "pdf_parent_section": "§6.1.3.3 [Exposure/Exposure as Collected Examples]", "pdf_verbatim": "A | 2 | | 2011-01-25 | 2011-01-28", "figure_ref": null, "candidates": [{"md_atom_id": "md_dmEX_ex_a008", "md_file": "knowledge_base/domains/EX/examples.md", "md_atom_type": "TABLE_ROW", "md_parent_section": "§EX.1 [Example 1]", "md_verbatim": "| A | 2 | | 2011-01-14 | 2011-01-28 |", "score": 0.9, "match_basis": "verbatim_token+global_search"}, {"md_atom_id": "md_dmEX_ex_a011", "md_file": "knowledge_base/domains/EX/examples.md", "md_atom_type": "TABLE_ROW", "md_parent_section": "§EX.1 [Example 1]", "md_verbatim": "| A | 2 | | 2011-01-14 | 2011-01-23 |", "score": 0.9, "match_basis": "verbatim_token+global_search"}, {"md_atom_id": "md_dmEX_ex_a013", "md_file": "knowledge_base/domains/EX/examples.md", "md_atom_type": "TABLE_ROW", "md_parent_section": "§EX.1 [Example 1]", "md_verbatim": "| A | 2 | | 2011-01-25 | 2011-01-28 |", "score": 0.9, "match_basis": "verbatim_token+global_search"}, {"md_atom_id": "md_dmEX_ex_a109", "md_file": "knowledge_base/domains/EX/examples.md", "md_atom_type": "TABLE_ROW", "md_parent_section": "§EX.5 [Example 5]", "md_verbatim": "| A | AM | 1 | 2012-01-01 | 2012-01-08 |", "score": 0.5, "match_basis": "verbatim_token+global_search"}, {"md_atom_id": "md_dmEX_ex_a110", "md_file": "knowledge_base/domains/EX/examples.md", "md_atom_type": "TABLE_ROW", "md_parent_section": "§EX.5 [Example 5]", "md_verbatim": "| B | PM | 1 | 2012-01-01 | 2012-01-08 |", "score": 0.5, "match_basis": "verbatim_token+global_search"}, {"md_atom_id": "md_dmEX_ex_a113", "md_file": "knowledge_base/domains/EX/examples.md", "md_atom_type": "TABLE_ROW", "md_parent_section": "§EX.5 [Example 5]", "md_verbatim": "| A | AM | 1 | 2012-02-01 | 2012-02-08 |", "score": 0.5, "match_basis": "verbatim_token+global_search"}, {"md_atom_id": "md_dmEX_ex_a114", "md_file": "knowledge_base/domains/EX/examples.md", "md_atom_type": "TABLE_ROW", "md_parent_section": "§EX.5 [Example 5]", "md_verbatim": "| B | PM | 1 | 2012-02-01 | 2012-02-08 |", "score": 0.5, "match_basis": "verbatim_token+global_search"}, {"md_atom_id": "md_dmEX_ex_a117", "md_file": "knowledge_base/domains/EX/examples.md", "md_atom_type": "TABLE_ROW", "md_parent_section": "§EX.5 [Example 5]", "md_verbatim": "| A | AM | 1 | 2012-03-01 | 2012-03-08 |", "score": 0.5, "match_basis": "verbatim_token+global_search"}, {"md_atom_id": "md_dmEX_ex_a118", "md_file": "knowledge_base/domains/EX/examples.md", "md_atom_type": "TABLE_ROW", "md_parent_section": "§EX.5 [Example 5]", "md_verbatim": "| B | PM | 1 | 2012-03-01 | 2012-03-08 |", "score": 0.5, "match_basis": "verbatim_token+global_search"}, {"md_atom_id": "md_dmEX_ex_a256", "md_file": "knowledge_base/domains/EX/examples.md", "md_atom_type": "TABLE_ROW", "md_parent_section": "§EX.8 [Example 8]", "md_verbatim": "| 2012-01-13 | 2012-01-20 |", "score": 0.5, "match_basis": "verbatim_token+global_search"}], "candidate_count": 10, "zero_candidate": false}
{"pdf_atom_id": "ig34_p0111_a013", "pdf_atom_type": "SENTENCE", "pdf_source": "SDTMIG v3.4 (no header footer).pdf", "pdf_page": 111, "pdf_parent_section": "§6.1.3.3 [Exposure/Exposure as Collected Examples]", "pdf_verbatim": "Upon unmasking, it became known that subject ABC1001 received drug X and Subject ABC2001 received drug Z. The EC dataset shows the administrations of study treatment as collected.", "figure_ref": null, "candidates": [{"md_atom_id": "md_dmEC_ex_a005", "md_file": "knowledge_base/domains/EC/examples.md", "md_atom_type": "SENTENCE", "md_parent_section": "§EC.1 [Example 1]", "md_verbatim": "Upon unmasking, it became known that subject ABC1001 received drug X and Subject ABC2001 received drug Z. The EC dataset shows the administrations of study treatment as collected.", "score": 0.9, "match_basis": "verbatim_token+global_search"}, {"md_atom_id": "md_dmEX_ex_a014", "md_file": "knowledge_base/domains/EX/examples.md", "md_atom_type": "SENTENCE", "md_parent_section": "§EX.1 [Example 1]", "md_verbatim": "Upon unmasking, it became known that subject ABC1001 received drug X and Subject ABC2001 received drug Z. The EC dataset shows the administrations of study treatment as collected.", "score": 0.9, "match_basis": "verbatim_token+global_search"}, {"md_atom_id": "md_dmEX_ex_a023", "md_file": "knowledge_base/domains/EX/examples.md", "md_atom_type": "SENTENCE", "md_parent_section": "§EX.1 [Example 1]", "md_verbatim": "The EX dataset shows the unmasked administrations. Two tablets from bottle A became 1000 mg of drug X extended release for subject ABC1001, but 500 mg of drug Z for subject ABC2001. Note that there is no record in the EX dataset for non-occurrence of study treatment. The non-occurrence of study drug for subject ABC2001 is reflected in the gap in time between the 2 EX records.", "score": 0.5731, "match_basis": "verbatim_token+global_search"}, {"md_atom_id": "md_dmDS_ex_a163", "md_file": "knowledge_base/domains/DS/examples.md", "md_atom_type": "SENTENCE", "md_parent_section": "§DS.10 [Example 10]", "md_verbatim": "The EX dataset shows the administration of study treatments.", "score": 0.5354, "match_basis": "verbatim_token+global_search"}, {"md_atom_id": "md_dmEC_ex_a046", "md_file": "knowledge_base/domains/EC/examples.md", "md_atom_type": "SENTENCE", "md_parent_section": "§EC.6 [Example 6]", "md_verbatim": "The EC dataset shows administrations as collected.", "score": 0.5231, "match_basis": "verbatim_token+global_search"}], "candidate_count": 5, "zero_candidate": false}
{"pdf_atom_id": "ig34_p0111_a014", "pdf_atom_type": "NOTE", "pdf_source": "SDTMIG v3.4 (no header footer).pdf", "pdf_page": 111, "pdf_parent_section": "§6.1.3.3 [Exposure/Exposure as Collected Examples]", "pdf_verbatim": "Rows 1-2, 4: Show treatments administered.", "figure_ref": null, "candidates": [{"md_atom_id": "md_dmEC_ex_a006", "md_file": "knowledge_base/domains/EC/examples.md", "md_atom_type": "SENTENCE", "md_parent_section": "§EC.1 [Example 1]", "md_verbatim": "**Rows 1-2, 4:** Show treatments administered.", "score": 0.81, "match_basis": "verbatim_token+global_search"}, {"md_atom_id": "md_dmEX_ex_a015", "md_file": "knowledge_base/domains/EX/examples.md", "md_atom_type": "SENTENCE", "md_parent_section": "§EX.1 [Example 1]", "md_verbatim": "**Rows 1-2, 4:** Show treatments administered.", "score": 0.81, "match_basis": "verbatim_token+global_search"}, {"md_atom_id": "md_dmDS_ex_a163", "md_file": "knowledge_base/domains/DS/examples.md", "md_atom_type": "SENTENCE", "md_parent_section": "§DS.10 [Example 10]", "md_verbatim": "The EX dataset shows the administration of study treatments.", "score": 0.4857, "match_basis": "verbatim_token+global_search"}, {"md_atom_id": "md_dmTS_ex_a082", "md_file": "knowledge_base/domains/TS/examples.md", "md_atom_type": "NOTE", "md_parent_section": "§TS.4 [Example 4]", "md_verbatim": "**Rows 30-33:** Show parameters and values that describe details about 1 of the treatments planned in the trial. TSGRPID=\"DRUG X\" for this set of parameters.", "score": 0.4114, "match_basis": "verbatim_token+global_search"}, {"md_atom_id": "md_dmTS_ex_a083", "md_file": "knowledge_base/domains/TS/examples.md", "md_atom_type": "NOTE", "md_parent_section": "§TS.4 [Example 4]", "md_verbatim": "**Rows 34-37:** Show parameters and values that describe details about 1 of the treatments planned in the trial. TSGRPID=\"DRUG Z\" for this set of parameters.", "score": 0.4114, "match_basis": "verbatim_token+global_search"}], "candidate_count": 5, "zero_candidate": false}
{"pdf_atom_id": "ig34_p0111_a015", "pdf_atom_type": "NOTE", "pdf_source": "SDTMIG v3.4 (no header footer).pdf", "pdf_page": 111, "pdf_parent_section": "§6.1.3.3 [Exposure/Exposure as Collected Examples]", "pdf_verbatim": "Row 3: Shows that the zero for Number of Tablets Taken Daily on the CRF was represented as ECOCCUR = \"N\". The reason this treatment did not occur is represented in ECREASOC.", "figure_ref": null, "candidates": [{"md_atom_id": "md_dmEC_ex_a007", "md_file": "knowledge_base/domains/EC/examples.md", "md_atom_type": "SENTENCE", "md_parent_section": "§EC.1 [Example 1]", "md_verbatim": "**Row 3:** Shows that the zero for Number of Tablets Taken Daily on the CRF was represented as ECOCCUR = \"N\". The reason this treatment did not occur is represented in ECREASOC.", "score": 0.81, "match_basis": "verbatim_token+global_search"}, {"md_atom_id": "md_dmEX_ex_a016", "md_file": "knowledge_base/domains/EX/examples.md", "md_atom_type": "SENTENCE", "md_parent_section": "§EX.1 [Example 1]", "md_verbatim": "**Row 3:** Shows that the zero for Number of Tablets Taken Daily on the CRF was represented as ECOCCUR = \"N\". The reason this treatment did not occur is represented in ECREASOC.", "score": 0.81, "match_basis": "verbatim_token+global_search"}, {"md_atom_id": "md_dmSV_ex_a037", "md_file": "knowledge_base/domains/SV/examples.md", "md_atom_type": "SENTENCE", "md_parent_section": "§SV.1 [Example 1]", "md_verbatim": "**Row 4:** Shows that for subject 85, the visit called \"WEEK 1\" did not occur; the reason it did not occur is represented in SVREASOC.", "score": 0.4319, "match_basis": "verbatim_token+global_search"}, {"md_atom_id": "md_dmTS_ex_a060", "md_file": "knowledge_base/domains/TS/examples.md", "md_atom_type": "NOTE", "md_parent_section": "§TS.2 [Example 2]", "md_verbatim": "**Row 5:** Shows that the intent of this trial is prevention of the conditions represented using the parameter \"Trial Indication\".", "score": 0.4213, "match_basis": "verbatim_token+global_search"}, {"md_atom_id": "md_dmTS_ex_a082", "md_file": "knowledge_base/domains/TS/examples.md", "md_atom_type": "NOTE", "md_parent_section": "§TS.4 [Example 4]", "md_verbatim": "**Rows 30-33:** Show parameters and values that describe details about 1 of the treatments planned in the trial. TSGRPID=\"DRUG X\" for this set of parameters.", "score": 0.408, "match_basis": "verbatim_token+global_search"}], "candidate_count": 5, "zero_candidate": false}
{"pdf_atom_id": "ig34_p0111_a016", "pdf_atom_type": "CODE_LITERAL", "pdf_source": "SDTMIG v3.4 (no header footer).pdf", "pdf_page": 111, "pdf_parent_section": "§6.1.3.3 [Exposure/Exposure as Collected Examples]", "pdf_verbatim": "ec.xpt", "figure_ref": null, "candidates": [{"md_atom_id": "md_ch04_a207", "md_file": "knowledge_base/chapters/ch04_general_assumptions.md", "md_atom_type": "CODE_LITERAL", "md_parent_section": "§4.2.3 [Use of \"Subject\" and USUBJID]", "md_verbatim": "dm.xpt:", "score": 0.69, "match_basis": "verbatim_token+global_search"}, {"md_atom_id": "md_ch04_a210", "md_file": "knowledge_base/chapters/ch04_general_assumptions.md", "md_atom_type": "CODE_LITERAL", "md_parent_section": "§4.2.3 [Use of \"Subject\" and USUBJID]", "md_verbatim": "dm.xpt:", "score": 0.69, "match_basis": "verbatim_token+global_search"}, {"md_atom_id": "md_dmCM_ex_a010", "md_file": "knowledge_base/domains/CM/examples.md", "md_atom_type": "NOTE", "md_parent_section": "§CM.1 [Example 1]", "md_verbatim": "**cm.xpt**", "score": 0.69, "match_basis": "verbatim_token+global_search"}, {"md_atom_id": "md_dmCM_ex_a025", "md_file": "knowledge_base/domains/CM/examples.md", "md_atom_type": "NOTE", "md_parent_section": "§CM.2 [Example 2]", "md_verbatim": "**cm.xpt**", "score": 0.69, "match_basis": "verbatim_token+global_search"}, {"md_atom_id": "md_dmCM_ex_a042", "md_file": "knowledge_base/domains/CM/examples.md", "md_atom_type": "NOTE", "md_parent_section": "§CM.3 [Example 3]", "md_verbatim": "**cm.xpt**", "score": 0.69, "match_basis": "verbatim_token+global_search"}, {"md_atom_id": "md_dmCM_ex_a052", "md_file": "knowledge_base/domains/CM/examples.md", "md_atom_type": "NOTE", "md_parent_section": "§CM.4 [Example 4]", "md_verbatim": "**cm.xpt**", "score": 0.69, "match_basis": "verbatim_token+global_search"}, {"md_atom_id": "md_dmCM_ex_a070", "md_file": "knowledge_base/domains/CM/examples.md", "md_atom_type": "NOTE", "md_parent_section": "§CM.5 [Example 5]", "md_verbatim": "**cm.xpt**", "score": 0.69, "match_basis": "verbatim_token+global_search"}, {"md_atom_id": "md_ch04_a368", "md_file": "knowledge_base/chapters/ch04_general_assumptions.md", "md_atom_type": "CODE_LITERAL", "md_parent_section": "§4.2.8.3 [Multiple Values for a Non-result Qualifier Variable]", "md_verbatim": "ae.xpt:", "score": 0.69, "match_basis": "verbatim_token+global_search"}, {"md_atom_id": "md_ch04_a378", "md_file": "knowledge_base/chapters/ch04_general_assumptions.md", "md_atom_type": "CODE_LITERAL", "md_parent_section": "§4.2.8.3 [Multiple Values for a Non-result Qualifier Variable]", "md_verbatim": "ae.xpt:", "score": 0.69, "match_basis": "verbatim_token+global_search"}, {"md_atom_id": "md_ch04_a391", "md_file": "knowledge_base/chapters/ch04_general_assumptions.md", "md_atom_type": "CODE_LITERAL", "md_parent_section": "§4.2.8.3 [Multiple Values for a Non-result Qualifier Variable]", "md_verbatim": "ae.xpt:", "score": 0.69, "match_basis": "verbatim_token+global_search"}], "candidate_count": 10, "zero_candidate": false}
{"pdf_atom_id": "ig34_p0111_a017", "pdf_atom_type": "TABLE_HEADER", "pdf_source": "SDTMIG v3.4 (no header footer).pdf", "pdf_page": 111, "pdf_parent_section": "§6.1.3.3 [Exposure/Exposure as Collected Examples]", "pdf_verbatim": "Row | STUDYID | DOMAIN | USUBJID | ECSEQ | ECLNKID | ECTRT | ECPRESP | ECOCCUR | ECREASOC | ECDOSE | ECDOSU | ECDOSFRQ | EPOCH | ECSTDTC | ECENDTC | ECSTDY | ECENDY", "figure_ref": null, "candidates": [{"md_atom_id": "md_dmEC_ex_a009", "md_file": "knowledge_base/domains/EC/examples.md", "md_atom_type": "TABLE_HEADER", "md_parent_section": "§EC.1 [Example 1]", "md_verbatim": "| Row | STUDYID | DOMAIN | USUBJID | ECSEQ | ECLNKID | ECTRT | ECPRESP | ECOCCUR | ECREASOC | ECDOSE | ECDOSU | ECDOSFRQ | EPOCH | ECSTDTC | ECENDTC | ECSTDY | ECENDY |\n|-----|---------|--------|---------|-------|---------|-------|---------|---------|----------|--------|--------|----------|-------|---------|---------|--------|--------|", "score": 0.9, "match_basis": "verbatim_token+global_search"}, {"md_atom_id": "md_dmEX_ex_a018", "md_file": "knowledge_base/domains/EX/examples.md", "md_atom_type": "TABLE_HEADER", "md_parent_section": "§EX.1 [Example 1]", "md_verbatim": "| Row | STUDYID | DOMAIN | USUBJID | ECSEQ | ECLNKID | ECTRT | ECPRESP | ECOCCUR | ECREASOC | ECDOSE | ECDOSU | ECDOSFRQ | EPOCH | ECSTDTC | ECENDTC | ECSTDY | ECENDY |\n|-----|---------|--------|---------|-------|---------|-------|---------|---------|----------|--------|--------|----------|-------|---------|---------|--------|--------|", "score": 0.9, "match_basis": "verbatim_token+global_search"}, {"md_atom_id": "md_dmEC_ex_a037", "md_file": "knowledge_base/domains/EC/examples.md", "md_atom_type": "TABLE_HEADER", "md_parent_section": "§EC.5 [Example 5]", "md_verbatim": "| Row | STUDYID | DOMAIN | USUBJID | ECSEQ | ECLNKID | ECTRT | ECPRESP | ECOCCUR | ECDOSE | ECDOSU | ECDOSFRQ | EPOCH | ECSTDTC | ECENDTC | ECSTDY | ECENDY | ECTPT | ECTPTNUM |\n|-----|---------|--------|---------|-------|---------|-------|---------|---------|--------|--------|----------|-------|---------|---------|--------|--------|-------|----------|", "score": 0.8029, "match_basis": "verbatim_token+global_search"}, {"md_atom_id": "md_dmEX_ex_a121", "md_file": "knowledge_base/domains/EX/examples.md", "md_atom_type": "TABLE_HEADER", "md_parent_section": "§EX.5 [Example 5]", "md_verbatim": "| Row | STUDYID | DOMAIN | USUBJID | ECSEQ | ECLNKID | ECTRT | ECPRESP | ECOCCUR | ECDOSE | ECDOSU | ECDOSFRQ | EPOCH | ECSTDTC | ECENDTC | ECSTDY | ECENDY | ECTPT | ECTPTNUM |\n|-----|---------|--------|---------|-------|---------|-------|---------|---------|--------|--------|----------|-------|---------|---------|--------|--------|-------|----------|", "score": 0.8029, "match_basis": "verbatim_token+global_search"}, {"md_atom_id": "md_dmEC_ex_a026", "md_file": "knowledge_base/domains/EC/examples.md", "md_atom_type": "TABLE_HEADER", "md_parent_section": "§EC.3 [Example 3]", "md_verbatim": "| Row | STUDYID | DOMAIN | USUBJID | ECSEQ | ECTRT | ECPRESP | ECOCCUR | ECDOSE | ECDOSU | ECDOSFRQ | EPOCH | ECSTDTC | ECENDTC | ECSTDY | ECENDY |\n|-----|---------|--------|---------|-------|-------|---------|---------|--------|--------|----------|-------|---------|---------|--------|--------|", "score": 0.7952, "match_basis": "verbatim_token+global_search"}], "candidate_count": 5, "zero_candidate": false}
{"pdf_atom_id": "ig34_p0111_a018", "pdf_atom_type": "TABLE_ROW", "pdf_source": "SDTMIG v3.4 (no header footer).pdf", "pdf_page": 111, "pdf_parent_section": "§6.1.3.3 [Exposure/Exposure as Collected Examples]", "pdf_verbatim": "1 | ABC | EC | ABC1001 | 1 | A2-20110114 | BOTTLE A | Y | | | 2 | TABLET | QD | TREATMENT | 2011-01-14 | 2011-01-28 | 1 | 15", "figure_ref": null, "candidates": [{"md_atom_id": "md_dmEC_ex_a010", "md_file": "knowledge_base/domains/EC/examples.md", "md_atom_type": "TABLE_ROW", "md_parent_section": "§EC.1 [Example 1]", "md_verbatim": "| 1 | ABC | EC | ABC1001 | 1 | A2-20110114 | BOTTLE A | Y | Y | | 2 | TABLET | QD | TREATMENT | 2011-01-14 | 2011-01-28 | 1 | 15 |", "score": 0.9, "match_basis": "verbatim_token+global_search"}, {"md_atom_id": "md_dmEX_ex_a019", "md_file": "knowledge_base/domains/EX/examples.md", "md_atom_type": "TABLE_ROW", "md_parent_section": "§EX.1 [Example 1]", "md_verbatim": "| 1 | ABC | EC | ABC1001 | 1 | A2-20110114 | BOTTLE A | Y | Y | | 2 | TABLET | QD | TREATMENT | 2011-01-14 | 2011-01-28 | 1 | 15 |", "score": 0.9, "match_basis": "verbatim_token+global_search"}, {"md_atom_id": "md_dmEC_ex_a011", "md_file": "knowledge_base/domains/EC/examples.md", "md_atom_type": "TABLE_ROW", "md_parent_section": "§EC.1 [Example 1]", "md_verbatim": "| 2 | ABC | EC | ABC2001 | 1 | A2-20110114 | BOTTLE A | Y | Y | | 2 | TABLET | QD | TREATMENT | 2011-01-14 | 2011-01-23 | 1 | 10 |", "score": 0.7714, "match_basis": "verbatim_token+global_search"}, {"md_atom_id": "md_dmEX_ex_a020", "md_file": "knowledge_base/domains/EX/examples.md", "md_atom_type": "TABLE_ROW", "md_parent_section": "§EX.1 [Example 1]", "md_verbatim": "| 2 | ABC | EC | ABC2001 | 1 | A2-20110114 | BOTTLE A | Y | Y | | 2 | TABLET | QD | TREATMENT | 2011-01-14 | 2011-01-23 | 1 | 10 |", "score": 0.7714, "match_basis": "verbatim_token+global_search"}, {"md_atom_id": "md_dmEC_ex_a013", "md_file": "knowledge_base/domains/EC/examples.md", "md_atom_type": "TABLE_ROW", "md_parent_section": "§EC.1 [Example 1]", "md_verbatim": "| 4 | ABC | EC | ABC2001 | 3 | A2-20110125 | BOTTLE A | Y | Y | | 2 | TABLET | QD | TREATMENT | 2011-01-25 | 2011-01-28 | 12 | 15 |", "score": 0.72, "match_basis": "verbatim_token+global_search"}], "candidate_count": 5, "zero_candidate": false}
{"pdf_atom_id": "ig34_p0111_a019", "pdf_atom_type": "TABLE_ROW", "pdf_source": "SDTMIG v3.4 (no header footer).pdf", "pdf_page": 111, "pdf_parent_section": "§6.1.3.3 [Exposure/Exposure as Collected Examples]", "pdf_verbatim": "2 | ABC | EC | ABC2001 | 1 | A2-20110114 | BOTTLE A | Y | Y | | 2 | TABLET | QD | TREATMENT | 2011-01-14 | 2011-01-23 | 1 | 10", "figure_ref": null, "candidates": [{"md_atom_id": "md_dmEC_ex_a011", "md_file": "knowledge_base/domains/EC/examples.md", "md_atom_type": "TABLE_ROW", "md_parent_section": "§EC.1 [Example 1]", "md_verbatim": "| 2 | ABC | EC | ABC2001 | 1 | A2-20110114 | BOTTLE A | Y | Y | | 2 | TABLET | QD | TREATMENT | 2011-01-14 | 2011-01-23 | 1 | 10 |", "score": 0.9, "match_basis": "verbatim_token+global_search"}, {"md_atom_id": "md_dmEX_ex_a020", "md_file": "knowledge_base/domains/EX/examples.md", "md_atom_type": "TABLE_ROW", "md_parent_section": "§EX.1 [Example 1]", "md_verbatim": "| 2 | ABC | EC | ABC2001 | 1 | A2-20110114 | BOTTLE A | Y | Y | | 2 | TABLET | QD | TREATMENT | 2011-01-14 | 2011-01-23 | 1 | 10 |", "score": 0.9, "match_basis": "verbatim_token+global_search"}, {"md_atom_id": "md_dmEC_ex_a013", "md_file": "knowledge_base/domains/EC/examples.md", "md_atom_type": "TABLE_ROW", "md_parent_section": "§EC.1 [Example 1]", "md_verbatim": "| 4 | ABC | EC | ABC2001 | 3 | A2-20110125 | BOTTLE A | Y | Y | | 2 | TABLET | QD | TREATMENT | 2011-01-25 | 2011-01-28 | 12 | 15 |", "score": 0.8333, "match_basis": "verbatim_token+global_search"}, {"md_atom_id": "md_dmEX_ex_a022", "md_file": "knowledge_base/domains/EX/examples.md", "md_atom_type": "TABLE_ROW", "md_parent_section": "§EX.1 [Example 1]", "md_verbatim": "| 4 | ABC | EC | ABC2001 | 3 | A2-20110125 | BOTTLE A | Y | Y | | 2 | TABLET | QD | TREATMENT | 2011-01-25 | 2011-01-28 | 12 | 15 |", "score": 0.8333, "match_basis": "verbatim_token+global_search"}, {"md_atom_id": "md_dmEC_ex_a010", "md_file": "knowledge_base/domains/EC/examples.md", "md_atom_type": "TABLE_ROW", "md_parent_section": "§EC.1 [Example 1]", "md_verbatim": "| 1 | ABC | EC | ABC1001 | 1 | A2-20110114 | BOTTLE A | Y | Y | | 2 | TABLET | QD | TREATMENT | 2011-01-14 | 2011-01-28 | 1 | 15 |", "score": 0.7714, "match_basis": "verbatim_token+global_search"}], "candidate_count": 5, "zero_candidate": false}
{"pdf_atom_id": "ig34_p0111_a020", "pdf_atom_type": "TABLE_ROW", "pdf_source": "SDTMIG v3.4 (no header footer).pdf", "pdf_page": 111, "pdf_parent_section": "§6.1.3.3 [Exposure/Exposure as Collected Examples]", "pdf_verbatim": "3 | ABC | EC | ABC2001 | 2 | A0-20110124 | BOTTLE A | Y | N | PATIENT MISTAKE | | TABLET | QD | TREATMENT | 2011-01-24 | 2011-01-24 | 11 | 11", "figure_ref": null, "candidates": [{"md_atom_id": "md_dmEC_ex_a012", "md_file": "knowledge_base/domains/EC/examples.md", "md_atom_type": "TABLE_ROW", "md_parent_section": "§EC.1 [Example 1]", "md_verbatim": "| 3 | ABC | EC | ABC2001 | 2 | A0-20110124 | BOTTLE A | Y | N | PATIENT MISTAKE | | TABLET | QD | TREATMENT | 2011-01-24 | 2011-01-24 | 11 | 11 |", "score": 0.9, "match_basis": "verbatim_token+global_search"}, {"md_atom_id": "md_dmEX_ex_a021", "md_file": "knowledge_base/domains/EX/examples.md", "md_atom_type": "TABLE_ROW", "md_parent_section": "§EX.1 [Example 1]", "md_verbatim": "| 3 | ABC | EC | ABC2001 | 2 | A0-20110124 | BOTTLE A | Y | N | PATIENT MISTAKE | | TABLET | QD | TREATMENT | 2011-01-24 | 2011-01-24 | 11 | 11 |", "score": 0.9, "match_basis": "verbatim_token+global_search"}, {"md_atom_id": "md_dmEC_ex_a013", "md_file": "knowledge_base/domains/EC/examples.md", "md_atom_type": "TABLE_ROW", "md_parent_section": "§EC.1 [Example 1]", "md_verbatim": "| 4 | ABC | EC | ABC2001 | 3 | A2-20110125 | BOTTLE A | Y | Y | | 2 | TABLET | QD | TREATMENT | 2011-01-25 | 2011-01-28 | 12 | 15 |", "score": 0.7167, "match_basis": "verbatim_token+global_search"}, {"md_atom_id": "md_dmEX_ex_a022", "md_file": "knowledge_base/domains/EX/examples.md", "md_atom_type": "TABLE_ROW", "md_parent_section": "§EX.1 [Example 1]", "md_verbatim": "| 4 | ABC | EC | ABC2001 | 3 | A2-20110125 | BOTTLE A | Y | Y | | 2 | TABLET | QD | TREATMENT | 2011-01-25 | 2011-01-28 | 12 | 15 |", "score": 0.7167, "match_basis": "verbatim_token+global_search"}, {"md_atom_id": "md_dmEC_ex_a011", "md_file": "knowledge_base/domains/EC/examples.md", "md_atom_type": "TABLE_ROW", "md_parent_section": "§EC.1 [Example 1]", "md_verbatim": "| 2 | ABC | EC | ABC2001 | 1 | A2-20110114 | BOTTLE A | Y | Y | | 2 | TABLET | QD | TREATMENT | 2011-01-14 | 2011-01-23 | 1 | 10 |", "score": 0.7, "match_basis": "verbatim_token+global_search"}], "candidate_count": 5, "zero_candidate": false}
{"pdf_atom_id": "ig34_p0111_a021", "pdf_atom_type": "TABLE_ROW", "pdf_source": "SDTMIG v3.4 (no header footer).pdf", "pdf_page": 111, "pdf_parent_section": "§6.1.3.3 [Exposure/Exposure as Collected Examples]", "pdf_verbatim": "4 | ABC | EC | ABC2001 | 3 | A2-20110125 | BOTTLE A | Y | Y | | 2 | TABLET | QD | TREATMENT | 2011-01-25 | 2011-01-28 | 12 | 15", "figure_ref": null, "candidates": [{"md_atom_id": "md_dmEC_ex_a013", "md_file": "knowledge_base/domains/EC/examples.md", "md_atom_type": "TABLE_ROW", "md_parent_section": "§EC.1 [Example 1]", "md_verbatim": "| 4 | ABC | EC | ABC2001 | 3 | A2-20110125 | BOTTLE A | Y | Y | | 2 | TABLET | QD | TREATMENT | 2011-01-25 | 2011-01-28 | 12 | 15 |", "score": 0.9, "match_basis": "verbatim_token+global_search"}, {"md_atom_id": "md_dmEX_ex_a022", "md_file": "knowledge_base/domains/EX/examples.md", "md_atom_type": "TABLE_ROW", "md_parent_section": "§EX.1 [Example 1]", "md_verbatim": "| 4 | ABC | EC | ABC2001 | 3 | A2-20110125 | BOTTLE A | Y | Y | | 2 | TABLET | QD | TREATMENT | 2011-01-25 | 2011-01-28 | 12 | 15 |", "score": 0.9, "match_basis": "verbatim_token+global_search"}, {"md_atom_id": "md_dmEC_ex_a011", "md_file": "knowledge_base/domains/EC/examples.md", "md_atom_type": "TABLE_ROW", "md_parent_section": "§EC.1 [Example 1]", "md_verbatim": "| 2 | ABC | EC | ABC2001 | 1 | A2-20110114 | BOTTLE A | Y | Y | | 2 | TABLET | QD | TREATMENT | 2011-01-14 | 2011-01-23 | 1 | 10 |", "score": 0.8333, "match_basis": "verbatim_token+global_search"}, {"md_atom_id": "md_dmEX_ex_a020", "md_file": "knowledge_base/domains/EX/examples.md", "md_atom_type": "TABLE_ROW", "md_parent_section": "§EX.1 [Example 1]", "md_verbatim": "| 2 | ABC | EC | ABC2001 | 1 | A2-20110114 | BOTTLE A | Y | Y | | 2 | TABLET | QD | TREATMENT | 2011-01-14 | 2011-01-23 | 1 | 10 |", "score": 0.8333, "match_basis": "verbatim_token+global_search"}, {"md_atom_id": "md_dmEX_ex_a028", "md_file": "knowledge_base/domains/EX/examples.md", "md_atom_type": "TABLE_ROW", "md_parent_section": "§EX.1 [Example 1]", "md_verbatim": "| 3 | ABC | EX | ABC2001 | 2 | A2-20110125 | DRUG Z | 500 | mg | TABLET | QD | ORAL | TREATMENT | 2011-01-25 | 2011-01-28 | 12 | 15 |", "score": 0.7258, "match_basis": "verbatim_token+global_search"}], "candidate_count": 5, "zero_candidate": false}
{"pdf_atom_id": "ig34_p0111_a022", "pdf_atom_type": "SENTENCE", "pdf_source": "SDTMIG v3.4 (no header footer).pdf", "pdf_page": 111, "pdf_parent_section": "§6.1.3.3 [Exposure/Exposure as Collected Examples]", "pdf_verbatim": "The EX dataset shows the unmasked administrations. Two tablets from bottle A became 1000 mg of drug X extended release for subject ABC1001, but 500 mg of drug Z for subject ABC2001. Note that there is no record in the EX dataset for non-occurrence of study treatment. The non-occurrence of study drug for subject ABC2001 is reflected in the gap in time between the 2 EX records.", "figure_ref": null, "candidates": [{"md_atom_id": "md_dmEX_ex_a023", "md_file": "knowledge_base/domains/EX/examples.md", "md_atom_type": "SENTENCE", "md_parent_section": "§EX.1 [Example 1]", "md_verbatim": "The EX dataset shows the unmasked administrations. Two tablets from bottle A became 1000 mg of drug X extended release for subject ABC1001, but 500 mg of drug Z for subject ABC2001. Note that there is no record in the EX dataset for non-occurrence of study treatment. The non-occurrence of study drug for subject ABC2001 is reflected in the gap in time between the 2 EX records.", "score": 0.9, "match_basis": "verbatim_token+global_search"}, {"md_atom_id": "md_dmEC_ex_a005", "md_file": "knowledge_base/domains/EC/examples.md", "md_atom_type": "SENTENCE", "md_parent_section": "§EC.1 [Example 1]", "md_verbatim": "Upon unmasking, it became known that subject ABC1001 received drug X and Subject ABC2001 received drug Z. The EC dataset shows the administrations of study treatment as collected.", "score": 0.5731, "match_basis": "verbatim_token+global_search"}, {"md_atom_id": "md_dmEX_ex_a014", "md_file": "knowledge_base/domains/EX/examples.md", "md_atom_type": "SENTENCE", "md_parent_section": "§EX.1 [Example 1]", "md_verbatim": "Upon unmasking, it became known that subject ABC1001 received drug X and Subject ABC2001 received drug Z. The EC dataset shows the administrations of study treatment as collected.", "score": 0.5731, "match_basis": "verbatim_token+global_search"}, {"md_atom_id": "md_dmEX_ex_a269", "md_file": "knowledge_base/domains/EX/examples.md", "md_atom_type": "SENTENCE", "md_parent_section": "§EX.8 [Example 8]", "md_verbatim": "The EX dataset shows the unmasked treatment for this subject, \"DRUG X\", and represents dosing in nonoverlapping intervals of time. There is no EX record for the missed dose, but the missed dose is reflected in a gap between dates in the EX records.", "score": 0.5052, "match_basis": "verbatim_token+global_search"}, {"md_atom_id": "md_dmDS_ex_a163", "md_file": "knowledge_base/domains/DS/examples.md", "md_atom_type": "SENTENCE", "md_parent_section": "§DS.10 [Example 10]", "md_verbatim": "The EX dataset shows the administration of study treatments.", "score": 0.4576, "match_basis": "verbatim_token+global_search"}], "candidate_count": 5, "zero_candidate": false}
{"pdf_atom_id": "ig34_p0111_a023", "pdf_atom_type": "CODE_LITERAL", "pdf_source": "SDTMIG v3.4 (no header footer).pdf", "pdf_page": 111, "pdf_parent_section": "§6.1.3.3 [Exposure/Exposure as Collected Examples]", "pdf_verbatim": "ex.xpt", "figure_ref": null, "candidates": [{"md_atom_id": "md_ch04_a207", "md_file": "knowledge_base/chapters/ch04_general_assumptions.md", "md_atom_type": "CODE_LITERAL", "md_parent_section": "§4.2.3 [Use of \"Subject\" and USUBJID]", "md_verbatim": "dm.xpt:", "score": 0.69, "match_basis": "verbatim_token+global_search"}, {"md_atom_id": "md_ch04_a210", "md_file": "knowledge_base/chapters/ch04_general_assumptions.md", "md_atom_type": "CODE_LITERAL", "md_parent_section": "§4.2.3 [Use of \"Subject\" and USUBJID]", "md_verbatim": "dm.xpt:", "score": 0.69, "match_basis": "verbatim_token+global_search"}, {"md_atom_id": "md_dmCM_ex_a010", "md_file": "knowledge_base/domains/CM/examples.md", "md_atom_type": "NOTE", "md_parent_section": "§CM.1 [Example 1]", "md_verbatim": "**cm.xpt**", "score": 0.69, "match_basis": "verbatim_token+global_search"}, {"md_atom_id": "md_dmCM_ex_a025", "md_file": "knowledge_base/domains/CM/examples.md", "md_atom_type": "NOTE", "md_parent_section": "§CM.2 [Example 2]", "md_verbatim": "**cm.xpt**", "score": 0.69, "match_basis": "verbatim_token+global_search"}, {"md_atom_id": "md_dmCM_ex_a042", "md_file": "knowledge_base/domains/CM/examples.md", "md_atom_type": "NOTE", "md_parent_section": "§CM.3 [Example 3]", "md_verbatim": "**cm.xpt**", "score": 0.69, "match_basis": "verbatim_token+global_search"}, {"md_atom_id": "md_dmCM_ex_a052", "md_file": "knowledge_base/domains/CM/examples.md", "md_atom_type": "NOTE", "md_parent_section": "§CM.4 [Example 4]", "md_verbatim": "**cm.xpt**", "score": 0.69, "match_basis": "verbatim_token+global_search"}, {"md_atom_id": "md_dmCM_ex_a070", "md_file": "knowledge_base/domains/CM/examples.md", "md_atom_type": "NOTE", "md_parent_section": "§CM.5 [Example 5]", "md_verbatim": "**cm.xpt**", "score": 0.69, "match_basis": "verbatim_token+global_search"}, {"md_atom_id": "md_ch04_a368", "md_file": "knowledge_base/chapters/ch04_general_assumptions.md", "md_atom_type": "CODE_LITERAL", "md_parent_section": "§4.2.8.3 [Multiple Values for a Non-result Qualifier Variable]", "md_verbatim": "ae.xpt:", "score": 0.69, "match_basis": "verbatim_token+global_search"}, {"md_atom_id": "md_ch04_a378", "md_file": "knowledge_base/chapters/ch04_general_assumptions.md", "md_atom_type": "CODE_LITERAL", "md_parent_section": "§4.2.8.3 [Multiple Values for a Non-result Qualifier Variable]", "md_verbatim": "ae.xpt:", "score": 0.69, "match_basis": "verbatim_token+global_search"}, {"md_atom_id": "md_ch04_a391", "md_file": "knowledge_base/chapters/ch04_general_assumptions.md", "md_atom_type": "CODE_LITERAL", "md_parent_section": "§4.2.8.3 [Multiple Values for a Non-result Qualifier Variable]", "md_verbatim": "ae.xpt:", "score": 0.69, "match_basis": "verbatim_token+global_search"}], "candidate_count": 10, "zero_candidate": false}
{"pdf_atom_id": "ig34_p0111_a024", "pdf_atom_type": "TABLE_HEADER", "pdf_source": "SDTMIG v3.4 (no header footer).pdf", "pdf_page": 111, "pdf_parent_section": "§6.1.3.3 [Exposure/Exposure as Collected Examples]", "pdf_verbatim": "Row | STUDYID | DOMAIN | USUBJID | EXSEQ | EXLNKID | EXTRT | EXDOSE | EXDOSU | EXDOSFRM | EXDOSFRQ | EXROUTE | EPOCH | EXSTDTC | EXENDTC | EXSTDY | EXENDY", "figure_ref": null, "candidates": [{"md_atom_id": "md_dmEX_ex_a025", "md_file": "knowledge_base/domains/EX/examples.md", "md_atom_type": "TABLE_HEADER", "md_parent_section": "§EX.1 [Example 1]", "md_verbatim": "| Row | STUDYID | DOMAIN | USUBJID | EXSEQ | EXLNKID | EXTRT | EXDOSE | EXDOSU | EXDOSFRM | EXDOSFRQ | EXROUTE | EPOCH | EXSTDTC | EXENDTC | EXSTDY | EXENDY |\n|-----|---------|--------|---------|-------|---------|-------|--------|--------|----------|----------|---------|-------|---------|---------|--------|--------|", "score": 0.9, "match_basis": "verbatim_token+global_search"}, {"md_atom_id": "md_dmEX_ex_a133", "md_file": "knowledge_base/domains/EX/examples.md", "md_atom_type": "TABLE_HEADER", "md_parent_section": "§EX.5 [Example 5]", "md_verbatim": "| Row | STUDYID | DOMAIN | USUBJID | EXSEQ | EXLNKID | EXTRT | EXDOSE | EXDOSU | EXDOSFRM | EXDOSFRQ | EXROUTE | EPOCH | EXSTDTC | EXENDTC | EXSTDY | EXENDY | EXTPT | EXTPTNUM |\n|-----|---------|--------|---------|-------|---------|-------|--------|--------|----------|----------|---------|-------|---------|---------|--------|--------|-------|----------|", "score": 0.8483, "match_basis": "verbatim_token+global_search"}, {"md_atom_id": "md_dmEX_ex_a088", "md_file": "knowledge_base/domains/EX/examples.md", "md_atom_type": "TABLE_HEADER", "md_parent_section": "§EX.3 [Example 3]", "md_verbatim": "| Row | STUDYID | DOMAIN | USUBJID | EXSEQ | EXTRT | EXDOSE | EXDOSU | EXDOSFRM | EXDOSFRQ | EXROUTE | EPOCH | EXSTDTC | EXENDTC | EXSTDY | EXENDY |\n|-----|---------|--------|---------|-------|-------|--------|--------|----------|----------|---------|-------|---------|---------|--------|--------|", "score": 0.8434, "match_basis": "verbatim_token+global_search"}, {"md_atom_id": "md_dmEX_ex_a274", "md_file": "knowledge_base/domains/EX/examples.md", "md_atom_type": "TABLE_HEADER", "md_parent_section": "§EX.8 [Example 8]", "md_verbatim": "| Row | STUDYID | DOMAIN | USUBJID | EXSEQ | EXTRT | EXDOSE | EXDOSU | EXDOSFRM | EXDOSFRQ | EXROUTE | EPOCH | EXSTDTC | EXENDTC | EXSTDY | EXENDY |\n|-----|---------|--------|---------|-------|-------|--------|--------|----------|----------|---------|-------|---------|---------|--------|--------|", "score": 0.8434, "match_basis": "verbatim_token+global_search"}, {"md_atom_id": "md_dmEX_ex_a060", "md_file": "knowledge_base/domains/EX/examples.md", "md_atom_type": "TABLE_HEADER", "md_parent_section": "§EX.2 [Example 2]", "md_verbatim": "| Row | STUDYID | DOMAIN | USUBJID | EXSEQ | EXSPID | EXLNKID | EXTRT | EXDOSE | EXDOSU | EXDOSFRM | EXDOSFRQ | EXROUTE | EXLOC | VISITNUM | VISIT | EPOCH | EXSTDTC | EXENDTC | EXSTDY | EXENDY |\n|-----|---------|--------|---------|-------|--------|---------|-------|--------|--------|----------|----------|---------|-------|----------|-------|-------|---------|---------|--------|--------|", "score": 0.7969, "match_basis": "verbatim_token+global_search"}], "candidate_count": 5, "zero_candidate": false}
{"pdf_atom_id": "ig34_p0111_a025", "pdf_atom_type": "TABLE_ROW", "pdf_source": "SDTMIG v3.4 (no header footer).pdf", "pdf_page": 111, "pdf_parent_section": "§6.1.3.3 [Exposure/Exposure as Collected Examples]", "pdf_verbatim": "1 | ABC | EX | ABC1001 | 1 | A2-20110114 | DRUG X | 1000 | mg | TABLET, EXTENDED RELEASE | QD | ORAL | TREATMENT | 2011-01-14 | 2011-01-28 | 1 | 15", "figure_ref": null, "candidates": [{"md_atom_id": "md_dmEX_ex_a026", "md_file": "knowledge_base/domains/EX/examples.md", "md_atom_type": "TABLE_ROW", "md_parent_section": "§EX.1 [Example 1]", "md_verbatim": "| 1 | ABC | EX | ABC1001 | 1 | A2-20110114 | DRUG X | 1000 | mg | TABLET, EXTENDED RELEASE | QD | ORAL | TREATMENT | 2011-01-14 | 2011-01-28 | 1 | 15 |", "score": 0.9, "match_basis": "verbatim_token+global_search"}, {"md_atom_id": "md_dmEX_ex_a027", "md_file": "knowledge_base/domains/EX/examples.md", "md_atom_type": "TABLE_ROW", "md_parent_section": "§EX.1 [Example 1]", "md_verbatim": "| 2 | ABC | EX | ABC2001 | 1 | A2-20110114 | DRUG Z | 500 | mg | TABLET | QD | ORAL | TREATMENT | 2011-01-14 | 2011-01-23 | 1 | 10 |", "score": 0.622, "match_basis": "verbatim_token+global_search"}, {"md_atom_id": "md_dmEC_ex_a010", "md_file": "knowledge_base/domains/EC/examples.md", "md_atom_type": "TABLE_ROW", "md_parent_section": "§EC.1 [Example 1]", "md_verbatim": "| 1 | ABC | EC | ABC1001 | 1 | A2-20110114 | BOTTLE A | Y | Y | | 2 | TABLET | QD | TREATMENT | 2011-01-14 | 2011-01-28 | 1 | 15 |", "score": 0.6073, "match_basis": "verbatim_token+global_search"}, {"md_atom_id": "md_dmEX_ex_a019", "md_file": "knowledge_base/domains/EX/examples.md", "md_atom_type": "TABLE_ROW", "md_parent_section": "§EX.1 [Example 1]", "md_verbatim": "| 1 | ABC | EC | ABC1001 | 1 | A2-20110114 | BOTTLE A | Y | Y | | 2 | TABLET | QD | TREATMENT | 2011-01-14 | 2011-01-28 | 1 | 15 |", "score": 0.6073, "match_basis": "verbatim_token+global_search"}, {"md_atom_id": "md_dmEX_ex_a028", "md_file": "knowledge_base/domains/EX/examples.md", "md_atom_type": "TABLE_ROW", "md_parent_section": "§EX.1 [Example 1]", "md_verbatim": "| 3 | ABC | EX | ABC2001 | 2 | A2-20110125 | DRUG Z | 500 | mg | TABLET | QD | ORAL | TREATMENT | 2011-01-25 | 2011-01-28 | 12 | 15 |", "score": 0.593, "match_basis": "verbatim_token+global_search"}], "candidate_count": 5, "zero_candidate": false}
{"pdf_atom_id": "ig34_p0111_a026", "pdf_atom_type": "TABLE_ROW", "pdf_source": "SDTMIG v3.4 (no header footer).pdf", "pdf_page": 111, "pdf_parent_section": "§6.1.3.3 [Exposure/Exposure as Collected Examples]", "pdf_verbatim": "2 | ABC | EX | ABC2001 | 1 | A2-20110114 | DRUG Z | 500 | mg | TABLET | QD | ORAL | TREATMENT | 2011-01-14 | 2011-01-23 | 1 | 10", "figure_ref": null, "candidates": [{"md_atom_id": "md_dmEX_ex_a027", "md_file": "knowledge_base/domains/EX/examples.md", "md_atom_type": "TABLE_ROW", "md_parent_section": "§EX.1 [Example 1]", "md_verbatim": "| 2 | ABC | EX | ABC2001 | 1 | A2-20110114 | DRUG Z | 500 | mg | TABLET | QD | ORAL | TREATMENT | 2011-01-14 | 2011-01-23 | 1 | 10 |", "score": 0.9, "match_basis": "verbatim_token+global_search"}, {"md_atom_id": "md_dmEX_ex_a028", "md_file": "knowledge_base/domains/EX/examples.md", "md_atom_type": "TABLE_ROW", "md_parent_section": "§EX.1 [Example 1]", "md_verbatim": "| 3 | ABC | EX | ABC2001 | 2 | A2-20110125 | DRUG Z | 500 | mg | TABLET | QD | ORAL | TREATMENT | 2011-01-25 | 2011-01-28 | 12 | 15 |", "score": 0.8357, "match_basis": "verbatim_token+global_search"}, {"md_atom_id": "md_dmEC_ex_a011", "md_file": "knowledge_base/domains/EC/examples.md", "md_atom_type": "TABLE_ROW", "md_parent_section": "§EC.1 [Example 1]", "md_verbatim": "| 2 | ABC | EC | ABC2001 | 1 | A2-20110114 | BOTTLE A | Y | Y | | 2 | TABLET | QD | TREATMENT | 2011-01-14 | 2011-01-23 | 1 | 10 |", "score": 0.72, "match_basis": "verbatim_token+global_search"}, {"md_atom_id": "md_dmEX_ex_a020", "md_file": "knowledge_base/domains/EX/examples.md", "md_atom_type": "TABLE_ROW", "md_parent_section": "§EX.1 [Example 1]", "md_verbatim": "| 2 | ABC | EC | ABC2001 | 1 | A2-20110114 | BOTTLE A | Y | Y | | 2 | TABLET | QD | TREATMENT | 2011-01-14 | 2011-01-23 | 1 | 10 |", "score": 0.72, "match_basis": "verbatim_token+global_search"}, {"md_atom_id": "md_dmEX_ex_a089", "md_file": "knowledge_base/domains/EX/examples.md", "md_atom_type": "TABLE_ROW", "md_parent_section": "§EX.3 [Example 3]", "md_verbatim": "| 1 | ABC | EX | ABC4001 | 1 | DRUG X | 20 | mg | TABLET | QD | ORAL | TREATMENT | 2011-01-14 | 2011-01-20 | 1 | 7 |", "score": 0.6931, "match_basis": "verbatim_token+global_search"}], "candidate_count": 5, "zero_candidate": false}
{"pdf_atom_id": "ig34_p0111_a027", "pdf_atom_type": "TABLE_ROW", "pdf_source": "SDTMIG v3.4 (no header footer).pdf", "pdf_page": 111, "pdf_parent_section": "§6.1.3.3 [Exposure/Exposure as Collected Examples]", "pdf_verbatim": "3 | ABC | EX | ABC2001 | 2 | A2-20110125 | DRUG Z | 500 | mg | TABLET | QD | ORAL | TREATMENT | 2011-01-25 | 2011-01-28 | 12 | 15", "figure_ref": null, "candidates": [{"md_atom_id": "md_dmEX_ex_a028", "md_file": "knowledge_base/domains/EX/examples.md", "md_atom_type": "TABLE_ROW", "md_parent_section": "§EX.1 [Example 1]", "md_verbatim": "| 3 | ABC | EX | ABC2001 | 2 | A2-20110125 | DRUG Z | 500 | mg | TABLET | QD | ORAL | TREATMENT | 2011-01-25 | 2011-01-28 | 12 | 15 |", "score": 0.9, "match_basis": "verbatim_token+global_search"}, {"md_atom_id": "md_dmEX_ex_a027", "md_file": "knowledge_base/domains/EX/examples.md", "md_atom_type": "TABLE_ROW", "md_parent_section": "§EX.1 [Example 1]", "md_verbatim": "| 2 | ABC | EX | ABC2001 | 1 | A2-20110114 | DRUG Z | 500 | mg | TABLET | QD | ORAL | TREATMENT | 2011-01-14 | 2011-01-23 | 1 | 10 |", "score": 0.8357, "match_basis": "verbatim_token+global_search"}, {"md_atom_id": "md_dmEC_ex_a013", "md_file": "knowledge_base/domains/EC/examples.md", "md_atom_type": "TABLE_ROW", "md_parent_section": "§EC.1 [Example 1]", "md_verbatim": "| 4 | ABC | EC | ABC2001 | 3 | A2-20110125 | BOTTLE A | Y | Y | | 2 | TABLET | QD | TREATMENT | 2011-01-25 | 2011-01-28 | 12 | 15 |", "score": 0.7258, "match_basis": "verbatim_token+global_search"}, {"md_atom_id": "md_dmEX_ex_a022", "md_file": "knowledge_base/domains/EX/examples.md", "md_atom_type": "TABLE_ROW", "md_parent_section": "§EX.1 [Example 1]", "md_verbatim": "| 4 | ABC | EC | ABC2001 | 3 | A2-20110125 | BOTTLE A | Y | Y | | 2 | TABLET | QD | TREATMENT | 2011-01-25 | 2011-01-28 | 12 | 15 |", "score": 0.7258, "match_basis": "verbatim_token+global_search"}, {"md_atom_id": "md_dmEX_ex_a276", "md_file": "knowledge_base/domains/EX/examples.md", "md_atom_type": "TABLE_ROW", "md_parent_section": "§EX.8 [Example 8]", "md_verbatim": "| 2 | ABC | EX | ABC7001 | 2 | DRUG X | 200 | mg | TABLET | QD | ORAL | TREATMENT | 2012-01-16 | 2012-01-16 | 4 | 4 |", "score": 0.7, "match_basis": "verbatim_token+global_search"}], "candidate_count": 5, "zero_candidate": false}
{"pdf_atom_id": "ig34_p0112_a001", "pdf_atom_type": "SENTENCE", "pdf_source": "SDTMIG v3.4 (no header footer).pdf", "pdf_page": 112, "pdf_parent_section": "§6.1.3.3 [Exposure/Exposure as Collected Examples]", "pdf_verbatim": "The relrec.xpt example reflects a one-to-one dataset-level relationship between EC and EX using --LNKID.", "figure_ref": null, "candidates": [{"md_atom_id": "md_dmEX_ex_a029", "md_file": "knowledge_base/domains/EX/examples.md", "md_atom_type": "SENTENCE", "md_parent_section": "§EX.1 [Example 1]", "md_verbatim": "The relrec.xpt example reflects a one-to-one dataset-level relationship between EC and EX using --LNKID.", "score": 0.9, "match_basis": "verbatim_token+global_search"}, {"md_atom_id": "md_dmEX_ex_a140", "md_file": "knowledge_base/domains/EX/examples.md", "md_atom_type": "SENTENCE", "md_parent_section": "§EX.5 [Example 5]", "md_verbatim": "The relrec.xpt example reflects a one-to-one dataset-level relationship between EC and EX using --LNKID.", "score": 0.9, "match_basis": "verbatim_token+global_search"}, {"md_atom_id": "md_dmEX_ex_a062", "md_file": "knowledge_base/domains/EX/examples.md", "md_atom_type": "SENTENCE", "md_parent_section": "§EX.2 [Example 2]", "md_verbatim": "The relrec.xpt example reflects a many-to-one dataset-level relationship between EC and EX using --LNKID.", "score": 0.8755, "match_basis": "verbatim_token+global_search"}, {"md_atom_id": "md_dmPR_ex_a023", "md_file": "knowledge_base/domains/PR/examples.md", "md_atom_type": "SENTENCE", "md_parent_section": "§PR.2 [Example 2]", "md_verbatim": "The relrec.xpt reflects a one-to-many dataset-level relationship between PR and EG using --LNKID.", "score": 0.8143, "match_basis": "verbatim_token+global_search"}, {"md_atom_id": "md_dmEX_ex_a241", "md_file": "knowledge_base/domains/EX/examples.md", "md_atom_type": "SENTENCE", "md_parent_section": "§EX.7 [Example 7]", "md_verbatim": "The RELREC dataset represents relationships between EC, EX, and VS.", "score": 0.5679, "match_basis": "verbatim_token+global_search"}], "candidate_count": 5, "zero_candidate": false}
{"pdf_atom_id": "ig34_p0112_a002", "pdf_atom_type": "CODE_LITERAL", "pdf_source": "SDTMIG v3.4 (no header footer).pdf", "pdf_page": 112, "pdf_parent_section": "§6.1.3.3 [Exposure/Exposure as Collected Examples]", "pdf_verbatim": "relrec.xpt", "figure_ref": null, "candidates": [{"md_atom_id": "md_ch04_a062", "md_file": "knowledge_base/chapters/ch04_general_assumptions.md", "md_atom_type": "SENTENCE", "md_parent_section": "§4.1.7 [Splitting Domains]", "md_verbatim": "**relrec.xpt**", "score": 0.69, "match_basis": "verbatim_token+global_search"}, {"md_atom_id": "md_ch08_a085", "md_file": "knowledge_base/chapters/ch08_relationships.md", "md_atom_type": "SENTENCE", "md_parent_section": "§8.2.2 [RELREC Dataset Examples]", "md_verbatim": "relrec.xpt:", "score": 0.69, "match_basis": "verbatim_token+global_search"}, {"md_atom_id": "md_ch08_a094", "md_file": "knowledge_base/chapters/ch08_relationships.md", "md_atom_type": "SENTENCE", "md_parent_section": "§8.2.2 [RELREC Dataset Examples]", "md_verbatim": "relrec.xpt:", "score": 0.69, "match_basis": "verbatim_token+global_search"}, {"md_atom_id": "md_ch08_a102", "md_file": "knowledge_base/chapters/ch08_relationships.md", "md_atom_type": "SENTENCE", "md_parent_section": "§8.2.2 [RELREC Dataset Examples]", "md_verbatim": "relrec.xpt:", "score": 0.69, "match_basis": "verbatim_token+global_search"}, {"md_atom_id": "md_ch08_a116", "md_file": "knowledge_base/chapters/ch08_relationships.md", "md_atom_type": "SENTENCE", "md_parent_section": "§8.3.1 [RELREC Dataset Relationship Example]", "md_verbatim": "relrec.xpt:", "score": 0.69, "match_basis": "verbatim_token+global_search"}, {"md_atom_id": "md_dmAG_ex_a050", "md_file": "knowledge_base/domains/AG/examples.md", "md_atom_type": "SENTENCE", "md_parent_section": "§AG.2 [Example 2]", "md_verbatim": "**relrec.xpt**", "score": 0.69, "match_basis": "verbatim_token+global_search"}, {"md_atom_id": "md_dmBE_ex_a040", "md_file": "knowledge_base/domains/BE/examples.md", "md_atom_type": "SENTENCE", "md_parent_section": "§BE.1 [Example 1]", "md_verbatim": "**relrec.xpt**", "score": 0.69, "match_basis": "verbatim_token+global_search"}, {"md_atom_id": "md_dmBE_ex_a111", "md_file": "knowledge_base/domains/BE/examples.md", "md_atom_type": "SENTENCE", "md_parent_section": "§BE.2 [Example 2]", "md_verbatim": "**relrec.xpt**", "score": 0.69, "match_basis": "verbatim_token+global_search"}, {"md_atom_id": "md_dmCE_ex_a121", "md_file": "knowledge_base/domains/CE/examples.md", "md_atom_type": "SENTENCE", "md_parent_section": "§CE.3 [Example 3]", "md_verbatim": "**relrec.xpt**", "score": 0.69, "match_basis": "verbatim_token+global_search"}, {"md_atom_id": "md_dmDD_ex_a034", "md_file": "knowledge_base/domains/DD/examples.md", "md_atom_type": "SENTENCE", "md_parent_section": "§DD.2 [Example 2]", "md_verbatim": "**relrec.xpt**", "score": 0.69, "match_basis": "verbatim_token+global_search"}], "candidate_count": 10, "zero_candidate": false}
{"pdf_atom_id": "ig34_p0112_a003", "pdf_atom_type": "TABLE_HEADER", "pdf_source": "SDTMIG v3.4 (no header footer).pdf", "pdf_page": 112, "pdf_parent_section": "§6.1.3.3 [Exposure/Exposure as Collected Examples]", "pdf_verbatim": "Row | STUDYID | RDOMAIN | USUBJID | IDVAR | IDVARVAL | RELTYPE | RELID", "figure_ref": null, "candidates": [{"md_atom_id": "md_ch04_a063", "md_file": "knowledge_base/chapters/ch04_general_assumptions.md", "md_atom_type": "TABLE_HEADER", "md_parent_section": "§4.1.7 [Splitting Domains]", "md_verbatim": "| Row | STUDYID | RDOMAIN | USUBJID | IDVAR | IDVARVAL | RELTYPE | RELID |\n|-----|---------|---------|---------|-------|----------|---------|-------|", "score": 0.9, "match_basis": "verbatim_token+global_search"}, {"md_atom_id": "md_ch08_a086", "md_file": "knowledge_base/chapters/ch08_relationships.md", "md_atom_type": "TABLE_HEADER", "md_parent_section": "§8.2.2 [RELREC Dataset Examples]", "md_verbatim": "| Row | STUDYID | RDOMAIN | USUBJID | IDVAR | IDVARVAL | RELTYPE | RELID |\n|-----|---------|---------|---------|-------|----------|---------|-------|", "score": 0.9, "match_basis": "verbatim_token+global_search"}, {"md_atom_id": "md_ch08_a095", "md_file": "knowledge_base/chapters/ch08_relationships.md", "md_atom_type": "TABLE_HEADER", "md_parent_section": "§8.2.2 [RELREC Dataset Examples]", "md_verbatim": "| Row | STUDYID | RDOMAIN | USUBJID | IDVAR | IDVARVAL | RELTYPE | RELID |\n|-----|---------|---------|---------|-------|----------|---------|-------|", "score": 0.9, "match_basis": "verbatim_token+global_search"}, {"md_atom_id": "md_ch08_a103", "md_file": "knowledge_base/chapters/ch08_relationships.md", "md_atom_type": "TABLE_HEADER", "md_parent_section": "§8.2.2 [RELREC Dataset Examples]", "md_verbatim": "| Row | STUDYID | RDOMAIN | USUBJID | IDVAR | IDVARVAL | RELTYPE | RELID |\n|-----|---------|---------|---------|-------|----------|---------|-------|", "score": 0.9, "match_basis": "verbatim_token+global_search"}, {"md_atom_id": "md_ch08_a117", "md_file": "knowledge_base/chapters/ch08_relationships.md", "md_atom_type": "TABLE_HEADER", "md_parent_section": "§8.3.1 [RELREC Dataset Relationship Example]", "md_verbatim": "| Row | STUDYID | RDOMAIN | USUBJID | IDVAR | IDVARVAL | RELTYPE | RELID |\n|-----|---------|---------|---------|-------|----------|---------|-------|", "score": 0.9, "match_basis": "verbatim_token+global_search"}], "candidate_count": 5, "zero_candidate": false}
{"pdf_atom_id": "ig34_p0112_a004", "pdf_atom_type": "TABLE_ROW", "pdf_source": "SDTMIG v3.4 (no header footer).pdf", "pdf_page": 112, "pdf_parent_section": "§6.1.3.3 [Exposure/Exposure as Collected Examples]", "pdf_verbatim": "1 | ABC | EC | | ECLNKID | | ONE | 1", "figure_ref": null, "candidates": [{"md_atom_id": "md_dmEX_ex_a032", "md_file": "knowledge_base/domains/EX/examples.md", "md_atom_type": "TABLE_ROW", "md_parent_section": "§EX.1 [Example 1]", "md_verbatim": "| 1 | ABC | EC | | ECLNKID | | ONE | 1 |", "score": 0.9, "match_basis": "verbatim_token+global_search"}, {"md_atom_id": "md_dmEX_ex_a143", "md_file": "knowledge_base/domains/EX/examples.md", "md_atom_type": "TABLE_ROW", "md_parent_section": "§EX.5 [Example 5]", "md_verbatim": "| 1 | ABC | EC | | ECLNKID | | ONE | 1 |", "score": 0.9, "match_basis": "verbatim_token+global_search"}, {"md_atom_id": "md_dmEX_ex_a246", "md_file": "knowledge_base/domains/EX/examples.md", "md_atom_type": "TABLE_ROW", "md_parent_section": "§EX.7 [Example 7]", "md_verbatim": "| 1 | ABC123 | EC | | ECLNKID | | ONE | 1 |", "score": 0.72, "match_basis": "verbatim_token+global_search"}, {"md_atom_id": "md_dmEX_ex_a065", "md_file": "knowledge_base/domains/EX/examples.md", "md_atom_type": "TABLE_ROW", "md_parent_section": "§EX.2 [Example 2]", "md_verbatim": "| 1 | ABC | EC | | ECLNKID | | MANY | 1 |", "score": 0.7, "match_basis": "verbatim_token+global_search"}, {"md_atom_id": "md_dmEX_ex_a033", "md_file": "knowledge_base/domains/EX/examples.md", "md_atom_type": "TABLE_ROW", "md_parent_section": "§EX.1 [Example 1]", "md_verbatim": "| 2 | ABC | EX | | EXLNKID | | ONE | 1 |", "score": 0.6333, "match_basis": "verbatim_token+global_search"}], "candidate_count": 5, "zero_candidate": false}
{"pdf_atom_id": "ig34_p0112_a005", "pdf_atom_type": "TABLE_ROW", "pdf_source": "SDTMIG v3.4 (no header footer).pdf", "pdf_page": 112, "pdf_parent_section": "§6.1.3.3 [Exposure/Exposure as Collected Examples]", "pdf_verbatim": "2 | ABC | EX | | EXLNKID | | ONE | 1", "figure_ref": null, "candidates": [{"md_atom_id": "md_dmEX_ex_a033", "md_file": "knowledge_base/domains/EX/examples.md", "md_atom_type": "TABLE_ROW", "md_parent_section": "§EX.1 [Example 1]", "md_verbatim": "| 2 | ABC | EX | | EXLNKID | | ONE | 1 |", "score": 0.9, "match_basis": "verbatim_token+global_search"}, {"md_atom_id": "md_dmEX_ex_a066", "md_file": "knowledge_base/domains/EX/examples.md", "md_atom_type": "TABLE_ROW", "md_parent_section": "§EX.2 [Example 2]", "md_verbatim": "| 2 | ABC | EX | | EXLNKID | | ONE | 1 |", "score": 0.9, "match_basis": "verbatim_token+global_search"}, {"md_atom_id": "md_dmEX_ex_a144", "md_file": "knowledge_base/domains/EX/examples.md", "md_atom_type": "TABLE_ROW", "md_parent_section": "§EX.5 [Example 5]", "md_verbatim": "| 2 | ABC | EX | | EXLNKID | | ONE | 1 |", "score": 0.9, "match_basis": "verbatim_token+global_search"}, {"md_atom_id": "md_dmEX_ex_a247", "md_file": "knowledge_base/domains/EX/examples.md", "md_atom_type": "TABLE_ROW", "md_parent_section": "§EX.7 [Example 7]", "md_verbatim": "| 2 | ABC123 | EX | | EXLNKID | | ONE | 1 |", "score": 0.72, "match_basis": "verbatim_token+global_search"}, {"md_atom_id": "md_dmEX_ex_a032", "md_file": "knowledge_base/domains/EX/examples.md", "md_atom_type": "TABLE_ROW", "md_parent_section": "§EX.1 [Example 1]", "md_verbatim": "| 1 | ABC | EC | | ECLNKID | | ONE | 1 |", "score": 0.6333, "match_basis": "verbatim_token+global_search"}], "candidate_count": 5, "zero_candidate": false}
{"pdf_atom_id": "ig34_p0112_a006", "pdf_atom_type": "HEADING", "pdf_source": "SDTMIG v3.4 (no header footer).pdf", "pdf_page": 112, "pdf_parent_section": "§6.1.3.3 [Exposure/Exposure as Collected Examples]", "pdf_verbatim": "Example 2", "figure_ref": null, "candidates": [{"md_atom_id": "md_dmCM_ex_a002", "md_file": "knowledge_base/domains/CM/examples.md", "md_atom_type": "HEADING", "md_parent_section": "§CM.1 [Example 1]", "md_verbatim": "## Example 1", "score": 0.9, "match_basis": "verbatim_token+global_search"}, {"md_atom_id": "md_dmCM_ex_a022", "md_file": "knowledge_base/domains/CM/examples.md", "md_atom_type": "HEADING", "md_parent_section": "§CM.2 [Example 2]", "md_verbatim": "## Example 2", "score": 0.9, "match_basis": "verbatim_token+global_search"}, {"md_atom_id": "md_dmCM_ex_a029", "md_file": "knowledge_base/domains/CM/examples.md", "md_atom_type": "HEADING", "md_parent_section": "§CM.3 [Example 3]", "md_verbatim": "## Example 3", "score": 0.9, "match_basis": "verbatim_token+global_search"}, {"md_atom_id": "md_dmCM_ex_a047", "md_file": "knowledge_base/domains/CM/examples.md", "md_atom_type": "HEADING", "md_parent_section": "§CM.4 [Example 4]", "md_verbatim": "## Example 4", "score": 0.9, "match_basis": "verbatim_token+global_search"}, {"md_atom_id": "md_dmCM_ex_a060", "md_file": "knowledge_base/domains/CM/examples.md", "md_atom_type": "HEADING", "md_parent_section": "§CM.5 [Example 5]", "md_verbatim": "## Example 5", "score": 0.9, "match_basis": "verbatim_token+global_search"}, {"md_atom_id": "md_ch08_a292", "md_file": "knowledge_base/chapters/ch08_relationships.md", "md_atom_type": "HEADING", "md_parent_section": "§8.7 [Related Subjects (RELSUB)]", "md_verbatim": "### Example", "score": 0.9, "match_basis": "verbatim_token+global_search"}, {"md_atom_id": "md_ch08_a331", "md_file": "knowledge_base/chapters/ch08_relationships.md", "md_atom_type": "HEADING", "md_parent_section": "§8.8 [Related Specimens (RELSPEC)]", "md_verbatim": "### Example", "score": 0.9, "match_basis": "verbatim_token+global_search"}, {"md_atom_id": "md_dmAE_ex_a002", "md_file": "knowledge_base/domains/AE/examples.md", "md_atom_type": "HEADING", "md_parent_section": "§AE.1 [Example 1]", "md_verbatim": "## Example 1", "score": 0.9, "match_basis": "verbatim_token+global_search"}, {"md_atom_id": "md_dmAE_ex_a020", "md_file": "knowledge_base/domains/AE/examples.md", "md_atom_type": "HEADING", "md_parent_section": "§AE.2 [Example 2]", "md_verbatim": "## Example 2", "score": 0.9, "match_basis": "verbatim_token+global_search"}, {"md_atom_id": "md_dmAE_ex_a035", "md_file": "knowledge_base/domains/AE/examples.md", "md_atom_type": "HEADING", "md_parent_section": "§AE.3 [Example 3]", "md_verbatim": "## Example 3", "score": 0.9, "match_basis": "verbatim_token+global_search"}], "candidate_count": 10, "zero_candidate": false}
{"pdf_atom_id": "ig34_p0112_a007", "pdf_atom_type": "SENTENCE", "pdf_source": "SDTMIG v3.4 (no header footer).pdf", "pdf_page": 112, "pdf_parent_section": "§6.1.3.3 [Exposure/Exposure as Collected Examples]", "pdf_verbatim": "This example shows data from an open-label study. A subject received drug X as a 20 mg/mL solution administered across 3 injection sites to deliver a total dose of 3 mg/kg. The subject's weight was 100 kg.", "figure_ref": null, "candidates": [{"md_atom_id": "md_dmEC_ex_a015", "md_file": "knowledge_base/domains/EC/examples.md", "md_atom_type": "SENTENCE", "md_parent_section": "§EC.2 [Example 2]", "md_verbatim": "This example shows data from an open-label study. A subject received drug X as a 20 mg/mL solution administered across 3 injection sites to deliver a total dose of 3 mg/kg. The subject's weight was 100 kg.", "score": 0.9, "match_basis": "verbatim_token+global_search"}, {"md_atom_id": "md_dmEX_ex_a035", "md_file": "knowledge_base/domains/EX/examples.md", "md_atom_type": "SENTENCE", "md_parent_section": "§EX.2 [Example 2]", "md_verbatim": "This example shows data from an open-label study. A subject received drug X as a 20 mg/mL solution administered across 3 injection sites to deliver a total dose of 3 mg/kg. The subject's weight was 100 kg.", "score": 0.9, "match_basis": "verbatim_token+global_search"}, {"md_atom_id": "md_dmCM_ex_a063", "md_file": "knowledge_base/domains/CM/examples.md", "md_atom_type": "SENTENCE", "md_parent_section": "§CM.5 [Example 5]", "md_verbatim": "This example shows data for 2 subjects who received prior RA medications.", "score": 0.4667, "match_basis": "verbatim_token+global_search"}, {"md_atom_id": "md_dmEC_ex_a005", "md_file": "knowledge_base/domains/EC/examples.md", "md_atom_type": "SENTENCE", "md_parent_section": "§EC.1 [Example 1]", "md_verbatim": "Upon unmasking, it became known that subject ABC1001 received drug X and Subject ABC2001 received drug Z. The EC dataset shows the administrations of study treatment as collected.", "score": 0.45, "match_basis": "verbatim_token+global_search"}, {"md_atom_id": "md_dmEX_ex_a014", "md_file": "knowledge_base/domains/EX/examples.md", "md_atom_type": "SENTENCE", "md_parent_section": "§EX.1 [Example 1]", "md_verbatim": "Upon unmasking, it became known that subject ABC1001 received drug X and Subject ABC2001 received drug Z. The EC dataset shows the administrations of study treatment as collected.", "score": 0.45, "match_basis": "verbatim_token+global_search"}], "candidate_count": 5, "zero_candidate": false}
{"pdf_atom_id": "ig34_p0112_a008", "pdf_atom_type": "HEADING", "pdf_source": "SDTMIG v3.4 (no header footer).pdf", "pdf_page": 112, "pdf_parent_section": "§6.1.3.3 [Exposure/Exposure as Collected Examples]", "pdf_verbatim": "Exposure CRF", "figure_ref": null, "candidates": [{"md_atom_id": "md_varindex_a513", "md_file": "knowledge_base/VARIABLE_INDEX.md", "md_atom_type": "HEADING", "md_parent_section": "§ 二、领域专属变量（仅 1 个域，共 1499 个），按域分组", "md_verbatim": "### EX — Exposure (Interventions)", "score": 0.5, "match_basis": "verbatim_token+global_search"}, {"md_atom_id": "md_varindex_a434", "md_file": "knowledge_base/VARIABLE_INDEX.md", "md_atom_type": "HEADING", "md_parent_section": "§ 二、领域专属变量（仅 1 个域，共 1499 个），按域分组", "md_verbatim": "### EC — Exposure as Collected (Interventions)", "score": 0.444, "match_basis": "verbatim_token+global_search"}, {"md_atom_id": "md_ch01_a003", "md_file": "knowledge_base/chapters/ch01_introduction.md", "md_atom_type": "HEADING", "md_parent_section": "§1 [Introduction]", "md_verbatim": "## 1.1 Purpose", "score": 0.3545, "match_basis": "verbatim_token+global_search"}, {"md_atom_id": "md_model01_a058", "md_file": "knowledge_base/model/01_concepts_and_terms.md", "md_atom_type": "HEADING", "md_parent_section": "§2.2 [Table Structure]", "md_verbatim": "## 2.2 Table Structure", "score": 0.3375, "match_basis": "verbatim_token+global_search"}, {"md_atom_id": "md_varindex_a407", "md_file": "knowledge_base/VARIABLE_INDEX.md", "md_atom_type": "HEADING", "md_parent_section": "§ 二、领域专属变量（仅 1 个域，共 1499 个），按域分组", "md_verbatim": "### DS — Disposition (Events)", "score": 0.3316, "match_basis": "verbatim_token+global_search"}], "candidate_count": 5, "zero_candidate": false}
{"pdf_atom_id": "ig34_p0112_a009", "pdf_atom_type": "TABLE_HEADER", "pdf_source": "SDTMIG v3.4 (no header footer).pdf", "pdf_page": 112, "pdf_parent_section": "§6.1.3.3 [Exposure/Exposure as Collected Examples]", "pdf_verbatim": "[Field] | [Value]", "figure_ref": null, "candidates": [{"md_atom_id": "md_ch10_a133", "md_file": "knowledge_base/chapters/ch10_appendices.md", "md_atom_type": "TABLE_ROW", "md_parent_section": "§10.D [CDISC Variable-naming Fragments]", "md_verbatim": "| | | | VALUE | VAL |", "score": 0.54, "match_basis": "verbatim_token+global_search"}, {"md_atom_id": "md_ch04_a033", "md_file": "knowledge_base/chapters/ch04_general_assumptions.md", "md_atom_type": "TABLE_HEADER", "md_parent_section": "§4.1.5 [SDTM Core Designations]", "md_verbatim": "| Core Value | Meaning | Rule |\n|------------|---------|------|", "score": 0.42, "match_basis": "verbatim_token+global_search"}, {"md_atom_id": "md_ch04_a1000", "md_file": "knowledge_base/chapters/ch04_general_assumptions.md", "md_atom_type": "TABLE_HEADER", "md_parent_section": "§4.5.7 [Presence or Absence of Prespecified Interventions and Events]", "md_verbatim": "| Situation | Value of --PRESP | Value of --OCCUR | Value of --STAT |\n|-----------|-----------------|-----------------|-----------------|", "score": 0.3857, "match_basis": "verbatim_token+global_search"}, {"md_atom_id": "md_ch04_a631", "md_file": "knowledge_base/chapters/ch04_general_assumptions.md", "md_atom_type": "TABLE_HEADER", "md_parent_section": "§4.4.7 [Use of Relative Timing Variables]", "md_verbatim": "| Variable | Allowable Values | Purpose |\n|----------|-----------------|---------|", "score": 0.3783, "match_basis": "verbatim_token+global_search"}, {"md_atom_id": "md_ch04_a642", "md_file": "knowledge_base/chapters/ch04_general_assumptions.md", "md_atom_type": "TABLE_HEADER", "md_parent_section": "§4.4.7 [Use of Relative Timing Variables]", "md_verbatim": "| Variable | Allowable Values | Purpose |\n|----------|-----------------|---------|", "score": 0.3783, "match_basis": "verbatim_token+global_search"}], "candidate_count": 5, "zero_candidate": false}
{"pdf_atom_id": "ig34_p0112_a010", "pdf_atom_type": "TABLE_ROW", "pdf_source": "SDTMIG v3.4 (no header footer).pdf", "pdf_page": 112, "pdf_parent_section": "§6.1.3.3 [Exposure/Exposure as Collected Examples]", "pdf_verbatim": "Visit | 3", "figure_ref": null, "candidates": [{"md_atom_id": "md_dmEX_ex_a038", "md_file": "knowledge_base/domains/EX/examples.md", "md_atom_type": "TABLE_ROW", "md_parent_section": "§EX.2 [Example 2]", "md_verbatim": "| Visit | 3 |", "score": 0.9, "match_basis": "verbatim_token+global_search"}, {"md_atom_id": "md_dmEX_ex_a207", "md_file": "knowledge_base/domains/EX/examples.md", "md_atom_type": "TABLE_HEADER", "md_parent_section": "§EX.7 [Example 7]", "md_verbatim": "| | Visit 1 | Visit 2 | Visit 3 |\n|---|---|---|---|", "score": 0.84, "match_basis": "verbatim_token+global_search"}, {"md_atom_id": "md_model03_a133", "md_file": "knowledge_base/model/03_special_purpose_domains.md", "md_atom_type": "TABLE_ROW", "md_parent_section": "§ Subject Visits (SV) > Variables (16 variables)", "md_verbatim": "| 4 | VISITNUM | Visit Number | Num | Topic | |", "score": 0.45, "match_basis": "verbatim_token+global_search"}, {"md_atom_id": "md_model05_a089", "md_file": "knowledge_base/model/05_study_level_data.md", "md_atom_type": "TABLE_ROW", "md_parent_section": "§ Trial Visits (TV)", "md_verbatim": "| 3 | VISITNUM | Visit Number | Num | Topic |", "score": 0.45, "match_basis": "verbatim_token+global_search"}, {"md_atom_id": "md_model05_a095", "md_file": "knowledge_base/model/05_study_level_data.md", "md_atom_type": "TABLE_ROW", "md_parent_section": "§ Trial Visits (TV)", "md_verbatim": "| 9 | TVENRL | Visit End Rule | Char | Rule |", "score": 0.45, "match_basis": "verbatim_token+global_search"}, {"md_atom_id": "md_varindex_a016", "md_file": "knowledge_base/VARIABLE_INDEX.md", "md_atom_type": "TABLE_ROW", "md_parent_section": "§ 一、通用变量（出现在 2+ 个域，共 24 个）", "md_verbatim": "| VISIT | 36 | AG, BE, BS, CP, CV, DA, EG, FA, FT, GF, IE, IS, LB, MB, MI, MK, ML, MS, NV, OE, PC, PE, PR, QS, RE, RP, RS, SC, SR, SS, SV, TR, TU, TV, UR, VS | Visit Name | Char | Timing* | Perm* |", "score": 0.4385, "match_basis": "verbatim_token+global_search"}, {"md_atom_id": "md_model05_a094", "md_file": "knowledge_base/model/05_study_level_data.md", "md_atom_type": "TABLE_ROW", "md_parent_section": "§ Trial Visits (TV)", "md_verbatim": "| 8 | TVSTRL | Visit Start Rule | Char | Rule |", "score": 0.4286, "match_basis": "verbatim_token+global_search"}, {"md_atom_id": "md_varindex_a018", "md_file": "knowledge_base/VARIABLE_INDEX.md", "md_atom_type": "TABLE_ROW", "md_parent_section": "§ 一、通用变量（出现在 2+ 个域，共 24 个）", "md_verbatim": "| VISITNUM | 36 | AG, BE, BS, CP, CV, DA, EG, FA, FT, GF, IE, IS, LB, MB, MI, MK, ML, MS, NV, OE, PC, PE, PR, QS, RE, RP, RS, SC, SR, SS, SV, TR, TU, TV, UR, VS | Visit Number | Num | Timing* | Exp* |", "score": 0.4286, "match_basis": "verbatim_token+global_search"}, {"md_atom_id": "md_varindex_a1592", "md_file": "knowledge_base/VARIABLE_INDEX.md", "md_atom_type": "TABLE_ROW", "md_parent_section": "§ 二、领域专属变量（仅 1 个域，共 1499 个），按域分组", "md_verbatim": "| TVENRL | Visit End Rule | Char | Rule | Perm | — |", "score": 0.4286, "match_basis": "verbatim_token+global_search"}, {"md_atom_id": "md_varindex_a1591", "md_file": "knowledge_base/VARIABLE_INDEX.md", "md_atom_type": "TABLE_ROW", "md_parent_section": "§ 二、领域专属变量（仅 1 个域，共 1499 个），按域分组", "md_verbatim": "| TVSTRL | Visit Start Rule | Char | Rule | Req | — |", "score": 0.42, "match_basis": "verbatim_token+global_search"}], "candidate_count": 10, "zero_candidate": false}
{"pdf_atom_id": "ig34_p0112_a011", "pdf_atom_type": "TABLE_ROW", "pdf_source": "SDTMIG v3.4 (no header footer).pdf", "pdf_page": 112, "pdf_parent_section": "§6.1.3.3 [Exposure/Exposure as Collected Examples]", "pdf_verbatim": "Date | 2009-05-10", "figure_ref": null, "candidates": [{"md_atom_id": "md_dmEX_ex_a039", "md_file": "knowledge_base/domains/EX/examples.md", "md_atom_type": "TABLE_ROW", "md_parent_section": "§EX.2 [Example 2]", "md_verbatim": "| Date | 2009-05-10 |", "score": 0.9, "match_basis": "verbatim_token+global_search"}, {"md_atom_id": "md_dmEX_ex_a211", "md_file": "knowledge_base/domains/EX/examples.md", "md_atom_type": "TABLE_ROW", "md_parent_section": "§EX.7 [Example 7]", "md_verbatim": "| Date | 13-FEB-2009 | 20-FEB-2009 | 27-FEB-2009 |", "score": 0.78, "match_basis": "verbatim_token+global_search"}, {"md_atom_id": "md_dmTS_ex_a048", "md_file": "knowledge_base/domains/TS/examples.md", "md_atom_type": "TABLE_ROW", "md_parent_section": "§TS.1 [Example 1]", "md_verbatim": "| 43 | XYZ | TS | 1 | | SSTDTC | Study Start Date | 2009-03-11 | | | ISO 8601 | |", "score": 0.4333, "match_basis": "verbatim_token+global_search"}, {"md_atom_id": "md_varindex_a1773", "md_file": "knowledge_base/VARIABLE_INDEX.md", "md_atom_type": "TABLE_ROW", "md_parent_section": "§ 三、CDISC Controlled Terminology 交叉引用（共 135 个 CT Code）", "md_verbatim": "| C78731 | 1 | DA.DATEST |", "score": 0.42, "match_basis": "verbatim_token+global_search"}, {"md_atom_id": "md_dmCE_ex_a060", "md_file": "knowledge_base/domains/CE/examples.md", "md_atom_type": "TABLE_ROW", "md_parent_section": "§CE.3 [Example 3]", "md_verbatim": "| Date of fracture | -- / --- / -- |", "score": 0.42, "match_basis": "verbatim_token+global_search"}, {"md_atom_id": "md_varindex_a1774", "md_file": "knowledge_base/VARIABLE_INDEX.md", "md_atom_type": "TABLE_ROW", "md_parent_section": "§ 三、CDISC Controlled Terminology 交叉引用（共 135 个 CT Code）", "md_verbatim": "| C78732 | 1 | DA.DATESTCD |", "score": 0.4, "match_basis": "verbatim_token+global_search"}, {"md_atom_id": "md_dmCE_ex_a059", "md_file": "knowledge_base/domains/CE/examples.md", "md_atom_type": "TABLE_ROW", "md_parent_section": "§CE.3 [Example 3]", "md_verbatim": "| Date of collection | -- / --- / -- |", "score": 0.4, "match_basis": "verbatim_token+global_search"}, {"md_atom_id": "md_dmDM_ex_a033", "md_file": "knowledge_base/domains/DM/examples.md", "md_atom_type": "TABLE_ROW", "md_parent_section": "§DM.2 [Example 2]", "md_verbatim": "| 2 | ABC | SE | 001 | 2 | RI | Run-In | 2006-06-07 | 2006-06-21 |", "score": 0.375, "match_basis": "verbatim_token+global_search"}, {"md_atom_id": "md_dmDM_ex_a036", "md_file": "knowledge_base/domains/DM/examples.md", "md_atom_type": "TABLE_ROW", "md_parent_section": "§DM.2 [Example 2]", "md_verbatim": "| 5 | ABC | SE | 002 | 2 | RI | Run-In | 2006-05-10 | 2006-05-24 |", "score": 0.375, "match_basis": "verbatim_token+global_search"}, {"md_atom_id": "md_dmDM_ex_a040", "md_file": "knowledge_base/domains/DM/examples.md", "md_atom_type": "TABLE_ROW", "md_parent_section": "§DM.2 [Example 2]", "md_verbatim": "| 9 | ABC | SE | 004 | 2 | RI | Run-In | 2006-05-21 | 2006-05-26 |", "score": 0.375, "match_basis": "verbatim_token+global_search"}], "candidate_count": 10, "zero_candidate": false}
{"pdf_atom_id": "ig34_p0112_a012", "pdf_atom_type": "TABLE_ROW", "pdf_source": "SDTMIG v3.4 (no header footer).pdf", "pdf_page": 112, "pdf_parent_section": "§6.1.3.3 [Exposure/Exposure as Collected Examples]", "pdf_verbatim": "Injection 1 | |", "figure_ref": null, "candidates": [{"md_atom_id": "md_dmEX_ex_a040", "md_file": "knowledge_base/domains/EX/examples.md", "md_atom_type": "TABLE_ROW", "md_parent_section": "§EX.2 [Example 2]", "md_verbatim": "| **Injection 1** | |", "score": 0.9, "match_basis": "verbatim_token+global_search"}, {"md_atom_id": "md_dmEX_ex_a044", "md_file": "knowledge_base/domains/EX/examples.md", "md_atom_type": "TABLE_ROW", "md_parent_section": "§EX.2 [Example 2]", "md_verbatim": "| **Injection 2** | |", "score": 0.9, "match_basis": "verbatim_token+global_search"}, {"md_atom_id": "md_dmEX_ex_a048", "md_file": "knowledge_base/domains/EX/examples.md", "md_atom_type": "TABLE_ROW", "md_parent_section": "§EX.2 [Example 2]", "md_verbatim": "| **Injection 3** | |", "score": 0.9, "match_basis": "verbatim_token+global_search"}, {"md_atom_id": "md_dmCE_ex_a059", "md_file": "knowledge_base/domains/CE/examples.md", "md_atom_type": "TABLE_ROW", "md_parent_section": "§CE.3 [Example 3]", "md_verbatim": "| Date of collection | -- / --- / -- |", "score": 0.4846, "match_basis": "verbatim_token+global_search"}, {"md_atom_id": "md_ch10_a171", "md_file": "knowledge_base/chapters/ch10_appendices.md", "md_atom_type": "TABLE_ROW", "md_parent_section": "§10.E [Revision History]", "md_verbatim": "| **Section 1. Introduction** | | |", "score": 0.46, "match_basis": "verbatim_token+global_search"}], "candidate_count": 5, "zero_candidate": false}
{"pdf_atom_id": "ig34_p0112_a013", "pdf_atom_type": "TABLE_ROW", "pdf_source": "SDTMIG v3.4 (no header footer).pdf", "pdf_page": 112, "pdf_parent_section": "§6.1.3.3 [Exposure/Exposure as Collected Examples]", "pdf_verbatim": "Volume Given (mL) | 5", "figure_ref": null, "candidates": [{"md_atom_id": "md_dmEX_ex_a041", "md_file": "knowledge_base/domains/EX/examples.md", "md_atom_type": "TABLE_ROW", "md_parent_section": "§EX.2 [Example 2]", "md_verbatim": "| Volume Given (mL) | 5 |", "score": 0.9, "match_basis": "verbatim_token+global_search"}, {"md_atom_id": "md_dmEX_ex_a045", "md_file": "knowledge_base/domains/EX/examples.md", "md_atom_type": "TABLE_ROW", "md_parent_section": "§EX.2 [Example 2]", "md_verbatim": "| Volume Given (mL) | 5 |", "score": 0.9, "match_basis": "verbatim_token+global_search"}, {"md_atom_id": "md_dmEX_ex_a049", "md_file": "knowledge_base/domains/EX/examples.md", "md_atom_type": "TABLE_ROW", "md_parent_section": "§EX.2 [Example 2]", "md_verbatim": "| Volume Given (mL) | 5 |", "score": 0.9, "match_basis": "verbatim_token+global_search"}, {"md_atom_id": "md_dmMB_ex_a115", "md_file": "knowledge_base/domains/MB/examples.md", "md_atom_type": "TABLE_ROW", "md_parent_section": "§MB.3 [Example 3]", "md_verbatim": "| 1 | ABC | BS | ABC-01-101 | 1 | 100 | VOLUME | Volume | 20 | mL | 20 | 20 | mL | LAVAGE FLUID | STOMACH | 2011-01-17T06:00 |", "score": 0.3889, "match_basis": "verbatim_token+global_search"}, {"md_atom_id": "md_dmMB_ex_a116", "md_file": "knowledge_base/domains/MB/examples.md", "md_atom_type": "TABLE_ROW", "md_parent_section": "§MB.3 [Example 3]", "md_verbatim": "| 2 | ABC | BS | ABC-01-101 | 2 | 100.1 | VOLUME | Volume | 4 | mL | 4 | 4 | mL | LAVAGE FLUID | STOMACH | 2011-01-17T06:00 |", "score": 0.3889, "match_basis": "verbatim_token+global_search"}], "candidate_count": 5, "zero_candidate": false}
{"pdf_atom_id": "ig34_p0112_a014", "pdf_atom_type": "TABLE_ROW", "pdf_source": "SDTMIG v3.4 (no header footer).pdf", "pdf_page": 112, "pdf_parent_section": "§6.1.3.3 [Exposure/Exposure as Collected Examples]", "pdf_verbatim": "Location | ABDOMEN", "figure_ref": null, "candidates": [{"md_atom_id": "md_dmEX_ex_a042", "md_file": "knowledge_base/domains/EX/examples.md", "md_atom_type": "TABLE_ROW", "md_parent_section": "§EX.2 [Example 2]", "md_verbatim": "| Location | ABDOMEN |", "score": 0.9, "match_basis": "verbatim_token+global_search"}, {"md_atom_id": "md_dmEX_ex_a046", "md_file": "knowledge_base/domains/EX/examples.md", "md_atom_type": "TABLE_ROW", "md_parent_section": "§EX.2 [Example 2]", "md_verbatim": "| Location | ABDOMEN |", "score": 0.9, "match_basis": "verbatim_token+global_search"}, {"md_atom_id": "md_dmEX_ex_a050", "md_file": "knowledge_base/domains/EX/examples.md", "md_atom_type": "TABLE_ROW", "md_parent_section": "§EX.2 [Example 2]", "md_verbatim": "| Location | ABDOMEN |", "score": 0.9, "match_basis": "verbatim_token+global_search"}, {"md_atom_id": "md_ch10_a080", "md_file": "knowledge_base/chapters/ch10_appendices.md", "md_atom_type": "TABLE_ROW", "md_parent_section": "§10.D [CDISC Variable-naming Fragments]", "md_verbatim": "| BIRTH | BRTH | | LOCATION | LOC |", "score": 0.54, "match_basis": "verbatim_token+global_search"}, {"md_atom_id": "md_ch04_a373", "md_file": "knowledge_base/chapters/ch04_general_assumptions.md", "md_atom_type": "TABLE_ROW", "md_parent_section": "§4.2.8.3 [Multiple Values for a Non-result Qualifier Variable]", "md_verbatim": "| AELOC1 | Location of the Reaction 1 | FACE |", "score": 0.4714, "match_basis": "verbatim_token+global_search"}], "candidate_count": 5, "zero_candidate": false}
{"pdf_atom_id": "ig34_p0112_a015", "pdf_atom_type": "TABLE_ROW", "pdf_source": "SDTMIG v3.4 (no header footer).pdf", "pdf_page": 112, "pdf_parent_section": "§6.1.3.3 [Exposure/Exposure as Collected Examples]", "pdf_verbatim": "Side | LEFT", "figure_ref": null, "candidates": [{"md_atom_id": "md_dmEX_ex_a043", "md_file": "knowledge_base/domains/EX/examples.md", "md_atom_type": "TABLE_ROW", "md_parent_section": "§EX.2 [Example 2]", "md_verbatim": "| Side | LEFT |", "score": 0.9, "match_basis": "verbatim_token+global_search"}, {"md_atom_id": "md_dmEX_ex_a051", "md_file": "knowledge_base/domains/EX/examples.md", "md_atom_type": "TABLE_ROW", "md_parent_section": "§EX.2 [Example 2]", "md_verbatim": "| Side | RIGHT |", "score": 0.4714, "match_basis": "verbatim_token+global_search"}, {"md_atom_id": "md_dmEX_ex_a047", "md_file": "knowledge_base/domains/EX/examples.md", "md_atom_type": "TABLE_ROW", "md_parent_section": "§EX.2 [Example 2]", "md_verbatim": "| Side | CENTER |", "score": 0.45, "match_basis": "verbatim_token+global_search"}, {"md_atom_id": "md_ch02_a115", "md_file": "knowledge_base/chapters/ch02_fundamentals.md", "md_atom_type": "TABLE_ROW", "md_parent_section": "§2.7 [SDTM Variables Not Allowed in the SDTMIG]", "md_verbatim": "| FETUSID | Identifiers |", "score": 0.375, "match_basis": "verbatim_token+global_search"}, {"md_atom_id": "md_dmOE_ex_a067", "md_file": "knowledge_base/domains/OE/examples.md", "md_atom_type": "TABLE_ROW", "md_parent_section": "§OE.3 [Example 3]", "md_verbatim": "| 3 | XYZ | PR | XYZ-100-001 | OS | 100 | 3 | 3 | OCT | Y | Y | | EYE | LEFT | 2012-05-25T08:30:00 | 2 | VISIT 1 |", "score": 0.3706, "match_basis": "verbatim_token+global_search"}, {"md_atom_id": "md_dmUR_ex_a012", "md_file": "knowledge_base/domains/UR/examples.md", "md_atom_type": "TABLE_ROW", "md_parent_section": "§UR.1 [Example 1]", "md_verbatim": "| 1 | ABC | UR | ABC-001-011 | 1 | LENGTH | Length | 12.6 | cm | 126 | 126 | mm | KIDNEY | LEFT | | CT SCAN | 2016-03-30 |", "score": 0.36, "match_basis": "verbatim_token+global_search"}, {"md_atom_id": "md_dmOE_ex_a065", "md_file": "knowledge_base/domains/OE/examples.md", "md_atom_type": "TABLE_ROW", "md_parent_section": "§OE.3 [Example 3]", "md_verbatim": "| 1 | XYZ | PR | XYZ-100-001 | OS | 100 | 1 | 1 | OCT | Y | Y | | EYE | LEFT | 2012-04-25T09:30:00 | 1 | SCREENING |", "score": 0.3571, "match_basis": "verbatim_token+global_search"}, {"md_atom_id": "md_dmCE_ex_a063", "md_file": "knowledge_base/domains/CE/examples.md", "md_atom_type": "TABLE_ROW", "md_parent_section": "§CE.3 [Example 3]", "md_verbatim": "| What was the laterality? | ( ) Left  ( ) Right  ( ) Not applicable |", "score": 0.3429, "match_basis": "verbatim_token+global_search"}, {"md_atom_id": "md_dmCE_ex_a095", "md_file": "knowledge_base/domains/CE/examples.md", "md_atom_type": "TABLE_ROW", "md_parent_section": "§CE.3 [Example 3]", "md_verbatim": "| 2 | ABC | CE | ABC-US-701-002 | 2 | 1 | CE2 | Fracture | FRACTURE-RELATED EVENTS | | Y | Y | FIBULA | LEFT | N | 2006-10-23 | 2006-10-15 |", "score": 0.3414, "match_basis": "verbatim_token+global_search"}, {"md_atom_id": "md_dmUR_ex_a014", "md_file": "knowledge_base/domains/UR/examples.md", "md_atom_type": "TABLE_ROW", "md_parent_section": "§UR.1 [Example 1]", "md_verbatim": "| 3 | ABC | UR | ABC-001-011 | 3 | RNLVNUM | Number of Renal Veins | 1 | | 1 | 1 | | KIDNEY | LEFT | | CT SCAN | 2016-03-30 |", "score": 0.3414, "match_basis": "verbatim_token+global_search"}], "candidate_count": 10, "zero_candidate": false}
{"pdf_atom_id": "ig34_p0112_a016", "pdf_atom_type": "TABLE_ROW", "pdf_source": "SDTMIG v3.4 (no header footer).pdf", "pdf_page": 112, "pdf_parent_section": "§6.1.3.3 [Exposure/Exposure as Collected Examples]", "pdf_verbatim": "Injection 2 | |", "figure_ref": null, "candidates": [{"md_atom_id": "md_dmEX_ex_a040", "md_file": "knowledge_base/domains/EX/examples.md", "md_atom_type": "TABLE_ROW", "md_parent_section": "§EX.2 [Example 2]", "md_verbatim": "| **Injection 1** | |", "score": 0.9, "match_basis": "verbatim_token+global_search"}, {"md_atom_id": "md_dmEX_ex_a044", "md_file": "knowledge_base/domains/EX/examples.md", "md_atom_type": "TABLE_ROW", "md_parent_section": "§EX.2 [Example 2]", "md_verbatim": "| **Injection 2** | |", "score": 0.9, "match_basis": "verbatim_token+global_search"}, {"md_atom_id": "md_dmEX_ex_a048", "md_file": "knowledge_base/domains/EX/examples.md", "md_atom_type": "TABLE_ROW", "md_parent_section": "§EX.2 [Example 2]", "md_verbatim": "| **Injection 3** | |", "score": 0.9, "match_basis": "verbatim_token+global_search"}, {"md_atom_id": "md_dmCE_ex_a059", "md_file": "knowledge_base/domains/CE/examples.md", "md_atom_type": "TABLE_ROW", "md_parent_section": "§CE.3 [Example 3]", "md_verbatim": "| Date of collection | -- / --- / -- |", "score": 0.4846, "match_basis": "verbatim_token+global_search"}, {"md_atom_id": "md_ch10_a171", "md_file": "knowledge_base/chapters/ch10_appendices.md", "md_atom_type": "TABLE_ROW", "md_parent_section": "§10.E [Revision History]", "md_verbatim": "| **Section 1. Introduction** | | |", "score": 0.46, "match_basis": "verbatim_token+global_search"}], "candidate_count": 5, "zero_candidate": false}
{"pdf_atom_id": "ig34_p0112_a017", "pdf_atom_type": "TABLE_ROW", "pdf_source": "SDTMIG v3.4 (no header footer).pdf", "pdf_page": 112, "pdf_parent_section": "§6.1.3.3 [Exposure/Exposure as Collected Examples]", "pdf_verbatim": "Volume Given (mL) | 5", "figure_ref": null, "candidates": [{"md_atom_id": "md_dmEX_ex_a041", "md_file": "knowledge_base/domains/EX/examples.md", "md_atom_type": "TABLE_ROW", "md_parent_section": "§EX.2 [Example 2]", "md_verbatim": "| Volume Given (mL) | 5 |", "score": 0.9, "match_basis": "verbatim_token+global_search"}, {"md_atom_id": "md_dmEX_ex_a045", "md_file": "knowledge_base/domains/EX/examples.md", "md_atom_type": "TABLE_ROW", "md_parent_section": "§EX.2 [Example 2]", "md_verbatim": "| Volume Given (mL) | 5 |", "score": 0.9, "match_basis": "verbatim_token+global_search"}, {"md_atom_id": "md_dmEX_ex_a049", "md_file": "knowledge_base/domains/EX/examples.md", "md_atom_type": "TABLE_ROW", "md_parent_section": "§EX.2 [Example 2]", "md_verbatim": "| Volume Given (mL) | 5 |", "score": 0.9, "match_basis": "verbatim_token+global_search"}, {"md_atom_id": "md_dmMB_ex_a115", "md_file": "knowledge_base/domains/MB/examples.md", "md_atom_type": "TABLE_ROW", "md_parent_section": "§MB.3 [Example 3]", "md_verbatim": "| 1 | ABC | BS | ABC-01-101 | 1 | 100 | VOLUME | Volume | 20 | mL | 20 | 20 | mL | LAVAGE FLUID | STOMACH | 2011-01-17T06:00 |", "score": 0.3889, "match_basis": "verbatim_token+global_search"}, {"md_atom_id": "md_dmMB_ex_a116", "md_file": "knowledge_base/domains/MB/examples.md", "md_atom_type": "TABLE_ROW", "md_parent_section": "§MB.3 [Example 3]", "md_verbatim": "| 2 | ABC | BS | ABC-01-101 | 2 | 100.1 | VOLUME | Volume | 4 | mL | 4 | 4 | mL | LAVAGE FLUID | STOMACH | 2011-01-17T06:00 |", "score": 0.3889, "match_basis": "verbatim_token+global_search"}], "candidate_count": 5, "zero_candidate": false}
{"pdf_atom_id": "ig34_p0112_a018", "pdf_atom_type": "TABLE_ROW", "pdf_source": "SDTMIG v3.4 (no header footer).pdf", "pdf_page": 112, "pdf_parent_section": "§6.1.3.3 [Exposure/Exposure as Collected Examples]", "pdf_verbatim": "Location | ABDOMEN", "figure_ref": null, "candidates": [{"md_atom_id": "md_dmEX_ex_a042", "md_file": "knowledge_base/domains/EX/examples.md", "md_atom_type": "TABLE_ROW", "md_parent_section": "§EX.2 [Example 2]", "md_verbatim": "| Location | ABDOMEN |", "score": 0.9, "match_basis": "verbatim_token+global_search"}, {"md_atom_id": "md_dmEX_ex_a046", "md_file": "knowledge_base/domains/EX/examples.md", "md_atom_type": "TABLE_ROW", "md_parent_section": "§EX.2 [Example 2]", "md_verbatim": "| Location | ABDOMEN |", "score": 0.9, "match_basis": "verbatim_token+global_search"}, {"md_atom_id": "md_dmEX_ex_a050", "md_file": "knowledge_base/domains/EX/examples.md", "md_atom_type": "TABLE_ROW", "md_parent_section": "§EX.2 [Example 2]", "md_verbatim": "| Location | ABDOMEN |", "score": 0.9, "match_basis": "verbatim_token+global_search"}, {"md_atom_id": "md_ch10_a080", "md_file": "knowledge_base/chapters/ch10_appendices.md", "md_atom_type": "TABLE_ROW", "md_parent_section": "§10.D [CDISC Variable-naming Fragments]", "md_verbatim": "| BIRTH | BRTH | | LOCATION | LOC |", "score": 0.54, "match_basis": "verbatim_token+global_search"}, {"md_atom_id": "md_ch04_a373", "md_file": "knowledge_base/chapters/ch04_general_assumptions.md", "md_atom_type": "TABLE_ROW", "md_parent_section": "§4.2.8.3 [Multiple Values for a Non-result Qualifier Variable]", "md_verbatim": "| AELOC1 | Location of the Reaction 1 | FACE |", "score": 0.4714, "match_basis": "verbatim_token+global_search"}], "candidate_count": 5, "zero_candidate": false}
{"pdf_atom_id": "ig34_p0112_a019", "pdf_atom_type": "TABLE_ROW", "pdf_source": "SDTMIG v3.4 (no header footer).pdf", "pdf_page": 112, "pdf_parent_section": "§6.1.3.3 [Exposure/Exposure as Collected Examples]", "pdf_verbatim": "Side | CENTER", "figure_ref": null, "candidates": [{"md_atom_id": "md_dmEX_ex_a047", "md_file": "knowledge_base/domains/EX/examples.md", "md_atom_type": "TABLE_ROW", "md_parent_section": "§EX.2 [Example 2]", "md_verbatim": "| Side | CENTER |", "score": 0.9, "match_basis": "verbatim_token+global_search"}, {"md_atom_id": "md_dmEX_ex_a043", "md_file": "knowledge_base/domains/EX/examples.md", "md_atom_type": "TABLE_ROW", "md_parent_section": "§EX.2 [Example 2]", "md_verbatim": "| Side | LEFT |", "score": 0.45, "match_basis": "verbatim_token+global_search"}, {"md_atom_id": "md_dmEX_ex_a051", "md_file": "knowledge_base/domains/EX/examples.md", "md_atom_type": "TABLE_ROW", "md_parent_section": "§EX.2 [Example 2]", "md_verbatim": "| Side | RIGHT |", "score": 0.4333, "match_basis": "verbatim_token+global_search"}, {"md_atom_id": "md_ch02_a115", "md_file": "knowledge_base/chapters/ch02_fundamentals.md", "md_atom_type": "TABLE_ROW", "md_parent_section": "§2.7 [SDTM Variables Not Allowed in the SDTMIG]", "md_verbatim": "| FETUSID | Identifiers |", "score": 0.4059, "match_basis": "verbatim_token+global_search"}, {"md_atom_id": "md_ch02_a107", "md_file": "knowledge_base/chapters/ch02_fundamentals.md", "md_atom_type": "TABLE_ROW", "md_parent_section": "§2.7 [SDTM Variables Not Allowed in the SDTMIG]", "md_verbatim": "| --METHOD | Interventions |", "score": 0.4, "match_basis": "verbatim_token+global_search"}], "candidate_count": 5, "zero_candidate": false}
