{"pdf_atom_id": "ig34_p0283_a003", "pdf_atom_type": "LIST_ITEM", "pdf_source": "SDTMIG_v3.4", "pdf_page": 283, "pdf_parent_section": "§6.3.5.9.3 Relating PP Records to PC Records — Example 4", "pdf_verbatim": "Using PPSEQ values; use PCGRPID values wherever possible", "figure_ref": null, "candidates": [{"md_atom_id": "md_dmPP_assn_a004", "md_file": "knowledge_base/domains/PP/assumptions.md", "md_atom_type": "LIST_ITEM", "md_parent_section": "§PP [PP — Assumptions]", "md_verbatim": "3. There are separate codelists used for PPORRESU/PPSTRESU where the choice depends on whether the value of the pharmacokinetic parameter is normalized.\n   a. Codelist \"PKUNIT\" is used for non-normalized parameters.\n   b. Codelists \"PKUDMG\" and \"PKUDUG\" are used when parameters are normalized by dose amount in milligrams or micrograms, respectively.\n   c. Codelists \"PKUWG\" and \"PKUWKG\" are used when parameters are normalized by weight in grams or kilograms, respectively.", "score": 0.434, "match_basis": "verbatim_token+domain_route:PP"}, {"md_atom_id": "md_dmPP_assn_a005", "md_file": "knowledge_base/domains/PP/assumptions.md", "md_atom_type": "LIST_ITEM", "md_parent_section": "§PP [PP — Assumptions]", "md_verbatim": "4. Multiple subset codelists were created for the unique unit expressions of the same concept across codelists. This approach allows study-context appropriate use of unit values for pharmacokinetics (PK) analysis subtypes. Controlled Terminology Rules for PK are available at https://www.cdisc.org/standards/terminology/controlled-terminology.", "score": 0.4327, "match_basis": "verbatim_token+domain_route:PP"}, {"md_atom_id": "md_dmPP_assn_a006", "md_file": "knowledge_base/domains/PP/assumptions.md", "md_atom_type": "LIST_ITEM", "md_parent_section": "§PP [PP — Assumptions]", "md_verbatim": "5. Any Identifiers, Timing variables, or Findings general observation class qualifiers may be added to the PP domain, but the following qualifiers would not generally be used: --BODSYS, --SEV.", "score": 0.4178, "match_basis": "verbatim_token+domain_route:PP"}, {"md_atom_id": "md_dmPP_assn_a003", "md_file": "knowledge_base/domains/PP/assumptions.md", "md_atom_type": "LIST_ITEM", "md_parent_section": "§PP [PP — Assumptions]", "md_verbatim": "2. Information pertaining to all parameters (e.g., number of exponents, model weighting) should be submitted in the SUPPPP dataset.", "score": 0.4065, "match_basis": "verbatim_token+domain_route:PP"}, {"md_atom_id": "md_dmPP_assn_a002", "md_file": "knowledge_base/domains/PP/assumptions.md", "md_atom_type": "LIST_ITEM", "md_parent_section": "§PP [PP — Assumptions]", "md_verbatim": "1. Pharmacokinetics Parameters is a derived dataset, and may be produced from an analysis dataset with a different structure. As a result, some sponsors may need to normalize their analysis dataset in order for it to fit into the SDTM-based PP domain.", "score": 0.4047, "match_basis": "verbatim_token+domain_route:PP"}], "candidate_count": 5, "zero_candidate": false}
{"pdf_atom_id": "ig34_p0283_a004", "pdf_atom_type": "LIST_ITEM", "pdf_source": "SDTMIG_v3.4", "pdf_page": 283, "pdf_parent_section": "§6.3.5.9.3 Relating PP Records to PC Records — Example 4", "pdf_verbatim": "Using PPGRPID values wherever possible; use PCSEQ values", "figure_ref": null, "candidates": [{"md_atom_id": "md_dmPP_assn_a005", "md_file": "knowledge_base/domains/PP/assumptions.md", "md_atom_type": "LIST_ITEM", "md_parent_section": "§PP [PP — Assumptions]", "md_verbatim": "4. Multiple subset codelists were created for the unique unit expressions of the same concept across codelists. This approach allows study-context appropriate use of unit values for pharmacokinetics (PK) analysis subtypes. Controlled Terminology Rules for PK are available at https://www.cdisc.org/standards/terminology/controlled-terminology.", "score": 0.4327, "match_basis": "verbatim_token+domain_route:PP"}, {"md_atom_id": "md_dmPP_assn_a004", "md_file": "knowledge_base/domains/PP/assumptions.md", "md_atom_type": "LIST_ITEM", "md_parent_section": "§PP [PP — Assumptions]", "md_verbatim": "3. There are separate codelists used for PPORRESU/PPSTRESU where the choice depends on whether the value of the pharmacokinetic parameter is normalized.\n   a. Codelist \"PKUNIT\" is used for non-normalized parameters.\n   b. Codelists \"PKUDMG\" and \"PKUDUG\" are used when parameters are normalized by dose amount in milligrams or micrograms, respectively.\n   c. Codelists \"PKUWG\" and \"PKUWKG\" are used when parameters are normalized by weight in grams or kilograms, respectively.", "score": 0.4296, "match_basis": "verbatim_token+domain_route:PP"}, {"md_atom_id": "md_dmPP_assn_a006", "md_file": "knowledge_base/domains/PP/assumptions.md", "md_atom_type": "LIST_ITEM", "md_parent_section": "§PP [PP — Assumptions]", "md_verbatim": "5. Any Identifiers, Timing variables, or Findings general observation class qualifiers may be added to the PP domain, but the following qualifiers would not generally be used: --BODSYS, --SEV.", "score": 0.4178, "match_basis": "verbatim_token+domain_route:PP"}, {"md_atom_id": "md_dmPP_assn_a003", "md_file": "knowledge_base/domains/PP/assumptions.md", "md_atom_type": "LIST_ITEM", "md_parent_section": "§PP [PP — Assumptions]", "md_verbatim": "2. Information pertaining to all parameters (e.g., number of exponents, model weighting) should be submitted in the SUPPPP dataset.", "score": 0.4065, "match_basis": "verbatim_token+domain_route:PP"}, {"md_atom_id": "md_dmPP_assn_a002", "md_file": "knowledge_base/domains/PP/assumptions.md", "md_atom_type": "LIST_ITEM", "md_parent_section": "§PP [PP — Assumptions]", "md_verbatim": "1. Pharmacokinetics Parameters is a derived dataset, and may be produced from an analysis dataset with a different structure. As a result, some sponsors may need to normalize their analysis dataset in order for it to fit into the SDTM-based PP domain.", "score": 0.4047, "match_basis": "verbatim_token+domain_route:PP"}], "candidate_count": 5, "zero_candidate": false}
{"pdf_atom_id": "ig34_p0283_a005", "pdf_atom_type": "SENTENCE", "pdf_source": "SDTMIG_v3.4", "pdf_page": 283, "pdf_parent_section": "§6.3.5.9.3 Relating PP Records to PC Records — Example 4", "pdf_verbatim": "Method D uses only PCSEQ and PPSEQ values.", "figure_ref": null, "candidates": [{"md_atom_id": "md_dmPP_ex_a097", "md_file": "knowledge_base/domains/PP/examples.md", "md_atom_type": "SENTENCE", "md_parent_section": "§PP [PP — Examples]", "md_verbatim": "*See PC examples for the full description of RELREC Methods A through D and their corresponding relrec.xpt tables.*", "score": 0.4462, "match_basis": "verbatim_token+domain_route:PP"}, {"md_atom_id": "md_dmPP_ex_a082", "md_file": "knowledge_base/domains/PP/examples.md", "md_atom_type": "SENTENCE", "md_parent_section": "§PP [PP — Examples]", "md_verbatim": "The shared PP dataset contains 12 rows showing PK parameters (TMAX, CMAX, AUCALL, LAMZHL, VZO, CLO) for Drug X (STUDYDRUG analyte) across Day 1 and Day 8, with 4 PPGRPID columns showing the grouping values for the 4 RELREC method examples described in the PC examples section.", "score": 0.4458, "match_basis": "verbatim_token+domain_route:PP"}, {"md_atom_id": "md_dmPP_ex_a049", "md_file": "knowledge_base/domains/PP/examples.md", "md_atom_type": "SENTENCE", "md_parent_section": "§PP.2 [Example 2]", "md_verbatim": "**Rows 6-7:** Show AUC Infinity Obs and AUC Infinity Pred for the DRUG PARENT. Both are calculated using the LIN-LOG TRAPEZOIDAL METHOD which is in PPANMETH.", "score": 0.4423, "match_basis": "verbatim_token+domain_route:PP"}, {"md_atom_id": "md_dmPP_ex_a046", "md_file": "knowledge_base/domains/PP/examples.md", "md_atom_type": "SENTENCE", "md_parent_section": "§PP.2 [Example 2]", "md_verbatim": "**Rows 1-3:** Show the \"AUC from T1 to T2\" measurements for Drug Parent (row 1), Drug Metabolite 1 (row 2) and Drug Metabolite 2 (row 3). These parameters are calculated using the LIN-LOG TRAPEZOIDAL METHOD which is in PPANMETH.", "score": 0.4349, "match_basis": "verbatim_token+domain_route:PP"}, {"md_atom_id": "md_dmPP_ex_a047", "md_file": "knowledge_base/domains/PP/examples.md", "md_atom_type": "SENTENCE", "md_parent_section": "§PP.2 [Example 2]", "md_verbatim": "**Row 4:** Shows the \"Ratio AUC\" measurement of Drug Metabolite 1 to Drug Parent. Instead of pre-coordinating \"Ratio AUC of Drug Metabolite 1 to Drug Parent\" all into the PPTEST, PPANMETH is used to describe the numerator (Drug Metabolite 1) and the denominator (Drug Parent) values that contribute to the Ratio AUC calculation in PPTEST. This post-coordination approach liberates the PPTEST variable from having to house hyper-specific, pre-coordinated PK parameter values.", "score": 0.4322, "match_basis": "verbatim_token+domain_route:PP"}], "candidate_count": 5, "zero_candidate": false}
{"pdf_atom_id": "ig34_p0283_a006", "pdf_atom_type": "HEADING", "pdf_source": "SDTMIG_v3.4", "pdf_page": 283, "pdf_parent_section": "§6.3.5.9.3 Relating PP Records to PC Records — Example 4", "pdf_verbatim": "Method D (One to One, Using PCSEQ and PPSEQ)", "figure_ref": null, "candidates": [{"md_atom_id": "md_dmPP_assn_a001", "md_file": "knowledge_base/domains/PP/assumptions.md", "md_atom_type": "HEADING", "md_parent_section": "§PP [PP — Assumptions]", "md_verbatim": "# PP — Assumptions", "score": 0.4, "match_basis": "verbatim_token+domain_route:PP"}, {"md_atom_id": "md_dmPP_ex_a001", "md_file": "knowledge_base/domains/PP/examples.md", "md_atom_type": "HEADING", "md_parent_section": "§PP [PP — Examples]", "md_verbatim": "# PP — Examples", "score": 0.4, "match_basis": "verbatim_token+domain_route:PP"}, {"md_atom_id": "md_dmPP_ex_a004", "md_file": "knowledge_base/domains/PP/examples.md", "md_atom_type": "HEADING", "md_parent_section": "§PP [PP — Examples]", "md_verbatim": "## Example 1", "score": 0.4, "match_basis": "verbatim_token+domain_route:PP"}, {"md_atom_id": "md_dmPP_ex_a044", "md_file": "knowledge_base/domains/PP/examples.md", "md_atom_type": "HEADING", "md_parent_section": "§PP [PP — Examples]", "md_verbatim": "## Example 2", "score": 0.4, "match_basis": "verbatim_token+domain_route:PP"}, {"md_atom_id": "md_dmPP_ex_a059", "md_file": "knowledge_base/domains/PP/examples.md", "md_atom_type": "HEADING", "md_parent_section": "§PP [PP — Examples]", "md_verbatim": "## Example 3", "score": 0.4, "match_basis": "verbatim_token+domain_route:PP"}], "candidate_count": 5, "zero_candidate": false}
{"pdf_atom_id": "ig34_p0283_a007", "pdf_atom_type": "LIST_ITEM", "pdf_source": "SDTMIG_v3.4", "pdf_page": 283, "pdf_parent_section": "§6.3.5.9.3 Relating PP Records to PC Records — Example 4", "pdf_verbatim": "Rows 1-12:\tThe relationship with RELID \"1\" includes PC records with PCSEQ values \"1\" through \"4\" and \"6\" through \"12\" and PP records with PPSEQ = \"1\".", "figure_ref": null, "candidates": [{"md_atom_id": "md_dmPP_assn_a005", "md_file": "knowledge_base/domains/PP/assumptions.md", "md_atom_type": "LIST_ITEM", "md_parent_section": "§PP [PP — Assumptions]", "md_verbatim": "4. Multiple subset codelists were created for the unique unit expressions of the same concept across codelists. This approach allows study-context appropriate use of unit values for pharmacokinetics (PK) analysis subtypes. Controlled Terminology Rules for PK are available at https://www.cdisc.org/standards/terminology/controlled-terminology.", "score": 0.4371, "match_basis": "verbatim_token+domain_route:PP"}, {"md_atom_id": "md_dmPP_assn_a004", "md_file": "knowledge_base/domains/PP/assumptions.md", "md_atom_type": "LIST_ITEM", "md_parent_section": "§PP [PP — Assumptions]", "md_verbatim": "3. There are separate codelists used for PPORRESU/PPSTRESU where the choice depends on whether the value of the pharmacokinetic parameter is normalized.\n   a. Codelist \"PKUNIT\" is used for non-normalized parameters.\n   b. Codelists \"PKUDMG\" and \"PKUDUG\" are used when parameters are normalized by dose amount in milligrams or micrograms, respectively.\n   c. Codelists \"PKUWG\" and \"PKUWKG\" are used when parameters are normalized by weight in grams or kilograms, respectively.", "score": 0.4268, "match_basis": "verbatim_token+domain_route:PP"}, {"md_atom_id": "md_dmPP_assn_a002", "md_file": "knowledge_base/domains/PP/assumptions.md", "md_atom_type": "LIST_ITEM", "md_parent_section": "§PP [PP — Assumptions]", "md_verbatim": "1. Pharmacokinetics Parameters is a derived dataset, and may be produced from an analysis dataset with a different structure. As a result, some sponsors may need to normalize their analysis dataset in order for it to fit into the SDTM-based PP domain.", "score": 0.4261, "match_basis": "verbatim_token+domain_route:PP"}, {"md_atom_id": "md_dmPP_assn_a003", "md_file": "knowledge_base/domains/PP/assumptions.md", "md_atom_type": "LIST_ITEM", "md_parent_section": "§PP [PP — Assumptions]", "md_verbatim": "2. Information pertaining to all parameters (e.g., number of exponents, model weighting) should be submitted in the SUPPPP dataset.", "score": 0.4229, "match_basis": "verbatim_token+domain_route:PP"}, {"md_atom_id": "md_dmPP_assn_a006", "md_file": "knowledge_base/domains/PP/assumptions.md", "md_atom_type": "LIST_ITEM", "md_parent_section": "§PP [PP — Assumptions]", "md_verbatim": "5. Any Identifiers, Timing variables, or Findings general observation class qualifiers may be added to the PP domain, but the following qualifiers would not generally be used: --BODSYS, --SEV.", "score": 0.4209, "match_basis": "verbatim_token+domain_route:PP"}], "candidate_count": 5, "zero_candidate": false}
{"pdf_atom_id": "ig34_p0283_a008", "pdf_atom_type": "LIST_ITEM", "pdf_source": "SDTMIG_v3.4", "pdf_page": 283, "pdf_parent_section": "§6.3.5.9.3 Relating PP Records to PC Records — Example 4", "pdf_verbatim": "Rows 13-24:\tThe relationship with RELID \"2\" includes PC records with PCSEQ values \"1\" through \"5\" and \"7\" through \"12\" and PP records with PPSEQ = \"2\".", "figure_ref": null, "candidates": [{"md_atom_id": "md_dmPP_assn_a005", "md_file": "knowledge_base/domains/PP/assumptions.md", "md_atom_type": "LIST_ITEM", "md_parent_section": "§PP [PP — Assumptions]", "md_verbatim": "4. Multiple subset codelists were created for the unique unit expressions of the same concept across codelists. This approach allows study-context appropriate use of unit values for pharmacokinetics (PK) analysis subtypes. Controlled Terminology Rules for PK are available at https://www.cdisc.org/standards/terminology/controlled-terminology.", "score": 0.4371, "match_basis": "verbatim_token+domain_route:PP"}, {"md_atom_id": "md_dmPP_assn_a004", "md_file": "knowledge_base/domains/PP/assumptions.md", "md_atom_type": "LIST_ITEM", "md_parent_section": "§PP [PP — Assumptions]", "md_verbatim": "3. There are separate codelists used for PPORRESU/PPSTRESU where the choice depends on whether the value of the pharmacokinetic parameter is normalized.\n   a. Codelist \"PKUNIT\" is used for non-normalized parameters.\n   b. Codelists \"PKUDMG\" and \"PKUDUG\" are used when parameters are normalized by dose amount in milligrams or micrograms, respectively.\n   c. Codelists \"PKUWG\" and \"PKUWKG\" are used when parameters are normalized by weight in grams or kilograms, respectively.", "score": 0.4268, "match_basis": "verbatim_token+domain_route:PP"}, {"md_atom_id": "md_dmPP_assn_a002", "md_file": "knowledge_base/domains/PP/assumptions.md", "md_atom_type": "LIST_ITEM", "md_parent_section": "§PP [PP — Assumptions]", "md_verbatim": "1. Pharmacokinetics Parameters is a derived dataset, and may be produced from an analysis dataset with a different structure. As a result, some sponsors may need to normalize their analysis dataset in order for it to fit into the SDTM-based PP domain.", "score": 0.4261, "match_basis": "verbatim_token+domain_route:PP"}, {"md_atom_id": "md_dmPP_assn_a003", "md_file": "knowledge_base/domains/PP/assumptions.md", "md_atom_type": "LIST_ITEM", "md_parent_section": "§PP [PP — Assumptions]", "md_verbatim": "2. Information pertaining to all parameters (e.g., number of exponents, model weighting) should be submitted in the SUPPPP dataset.", "score": 0.4229, "match_basis": "verbatim_token+domain_route:PP"}, {"md_atom_id": "md_dmPP_assn_a006", "md_file": "knowledge_base/domains/PP/assumptions.md", "md_atom_type": "LIST_ITEM", "md_parent_section": "§PP [PP — Assumptions]", "md_verbatim": "5. Any Identifiers, Timing variables, or Findings general observation class qualifiers may be added to the PP domain, but the following qualifiers would not generally be used: --BODSYS, --SEV.", "score": 0.4209, "match_basis": "verbatim_token+domain_route:PP"}], "candidate_count": 5, "zero_candidate": false}
{"pdf_atom_id": "ig34_p0283_a009", "pdf_atom_type": "LIST_ITEM", "pdf_source": "SDTMIG_v3.4", "pdf_page": 283, "pdf_parent_section": "§6.3.5.9.3 Relating PP Records to PC Records — Example 4", "pdf_verbatim": "Rows 24-35:\tThe relationship with RELID \"3\" includes PC records with PCSEQ values \"1\" through \"10\" and PP records with PPSEQ = \"3\".", "figure_ref": null, "candidates": [{"md_atom_id": "md_dmPP_assn_a005", "md_file": "knowledge_base/domains/PP/assumptions.md", "md_atom_type": "LIST_ITEM", "md_parent_section": "§PP [PP — Assumptions]", "md_verbatim": "4. Multiple subset codelists were created for the unique unit expressions of the same concept across codelists. This approach allows study-context appropriate use of unit values for pharmacokinetics (PK) analysis subtypes. Controlled Terminology Rules for PK are available at https://www.cdisc.org/standards/terminology/controlled-terminology.", "score": 0.4371, "match_basis": "verbatim_token+domain_route:PP"}, {"md_atom_id": "md_dmPP_assn_a004", "md_file": "knowledge_base/domains/PP/assumptions.md", "md_atom_type": "LIST_ITEM", "md_parent_section": "§PP [PP — Assumptions]", "md_verbatim": "3. There are separate codelists used for PPORRESU/PPSTRESU where the choice depends on whether the value of the pharmacokinetic parameter is normalized.\n   a. Codelist \"PKUNIT\" is used for non-normalized parameters.\n   b. Codelists \"PKUDMG\" and \"PKUDUG\" are used when parameters are normalized by dose amount in milligrams or micrograms, respectively.\n   c. Codelists \"PKUWG\" and \"PKUWKG\" are used when parameters are normalized by weight in grams or kilograms, respectively.", "score": 0.4268, "match_basis": "verbatim_token+domain_route:PP"}, {"md_atom_id": "md_dmPP_assn_a002", "md_file": "knowledge_base/domains/PP/assumptions.md", "md_atom_type": "LIST_ITEM", "md_parent_section": "§PP [PP — Assumptions]", "md_verbatim": "1. Pharmacokinetics Parameters is a derived dataset, and may be produced from an analysis dataset with a different structure. As a result, some sponsors may need to normalize their analysis dataset in order for it to fit into the SDTM-based PP domain.", "score": 0.4261, "match_basis": "verbatim_token+domain_route:PP"}, {"md_atom_id": "md_dmPP_assn_a003", "md_file": "knowledge_base/domains/PP/assumptions.md", "md_atom_type": "LIST_ITEM", "md_parent_section": "§PP [PP — Assumptions]", "md_verbatim": "2. Information pertaining to all parameters (e.g., number of exponents, model weighting) should be submitted in the SUPPPP dataset.", "score": 0.4229, "match_basis": "verbatim_token+domain_route:PP"}, {"md_atom_id": "md_dmPP_assn_a006", "md_file": "knowledge_base/domains/PP/assumptions.md", "md_atom_type": "LIST_ITEM", "md_parent_section": "§PP [PP — Assumptions]", "md_verbatim": "5. Any Identifiers, Timing variables, or Findings general observation class qualifiers may be added to the PP domain, but the following qualifiers would not generally be used: --BODSYS, --SEV.", "score": 0.4209, "match_basis": "verbatim_token+domain_route:PP"}], "candidate_count": 5, "zero_candidate": false}
{"pdf_atom_id": "ig34_p0283_a010", "pdf_atom_type": "LIST_ITEM", "pdf_source": "SDTMIG_v3.4", "pdf_page": 283, "pdf_parent_section": "§6.3.5.9.3 Relating PP Records to PC Records — Example 4", "pdf_verbatim": "Rows 36-51:\tThe relationship with RELID \"4\" includes PC records with PCSEQ values \"1\" through \"12\" and PP records with PPSEQ values \"4\" through \"7\".", "figure_ref": null, "candidates": [{"md_atom_id": "md_dmPP_assn_a005", "md_file": "knowledge_base/domains/PP/assumptions.md", "md_atom_type": "LIST_ITEM", "md_parent_section": "§PP [PP — Assumptions]", "md_verbatim": "4. Multiple subset codelists were created for the unique unit expressions of the same concept across codelists. This approach allows study-context appropriate use of unit values for pharmacokinetics (PK) analysis subtypes. Controlled Terminology Rules for PK are available at https://www.cdisc.org/standards/terminology/controlled-terminology.", "score": 0.4371, "match_basis": "verbatim_token+domain_route:PP"}, {"md_atom_id": "md_dmPP_assn_a004", "md_file": "knowledge_base/domains/PP/assumptions.md", "md_atom_type": "LIST_ITEM", "md_parent_section": "§PP [PP — Assumptions]", "md_verbatim": "3. There are separate codelists used for PPORRESU/PPSTRESU where the choice depends on whether the value of the pharmacokinetic parameter is normalized.\n   a. Codelist \"PKUNIT\" is used for non-normalized parameters.\n   b. Codelists \"PKUDMG\" and \"PKUDUG\" are used when parameters are normalized by dose amount in milligrams or micrograms, respectively.\n   c. Codelists \"PKUWG\" and \"PKUWKG\" are used when parameters are normalized by weight in grams or kilograms, respectively.", "score": 0.4268, "match_basis": "verbatim_token+domain_route:PP"}, {"md_atom_id": "md_dmPP_assn_a002", "md_file": "knowledge_base/domains/PP/assumptions.md", "md_atom_type": "LIST_ITEM", "md_parent_section": "§PP [PP — Assumptions]", "md_verbatim": "1. Pharmacokinetics Parameters is a derived dataset, and may be produced from an analysis dataset with a different structure. As a result, some sponsors may need to normalize their analysis dataset in order for it to fit into the SDTM-based PP domain.", "score": 0.4261, "match_basis": "verbatim_token+domain_route:PP"}, {"md_atom_id": "md_dmPP_assn_a003", "md_file": "knowledge_base/domains/PP/assumptions.md", "md_atom_type": "LIST_ITEM", "md_parent_section": "§PP [PP — Assumptions]", "md_verbatim": "2. Information pertaining to all parameters (e.g., number of exponents, model weighting) should be submitted in the SUPPPP dataset.", "score": 0.4229, "match_basis": "verbatim_token+domain_route:PP"}, {"md_atom_id": "md_dmPP_assn_a006", "md_file": "knowledge_base/domains/PP/assumptions.md", "md_atom_type": "LIST_ITEM", "md_parent_section": "§PP [PP — Assumptions]", "md_verbatim": "5. Any Identifiers, Timing variables, or Findings general observation class qualifiers may be added to the PP domain, but the following qualifiers would not generally be used: --BODSYS, --SEV.", "score": 0.4209, "match_basis": "verbatim_token+domain_route:PP"}], "candidate_count": 5, "zero_candidate": false}
{"pdf_atom_id": "ig34_p0283_a011", "pdf_atom_type": "CODE_LITERAL", "pdf_source": "SDTMIG_v3.4", "pdf_page": 283, "pdf_parent_section": "§6.3.5.9.3 Relating PP Records to PC Records — Example 4", "pdf_verbatim": "relrec.xpt", "figure_ref": null, "candidates": [{"md_atom_id": "md_dmPP_ex_a008", "md_file": "knowledge_base/domains/PP/examples.md", "md_atom_type": "SENTENCE", "md_parent_section": "§PP.1 [Example 1]", "md_verbatim": "**pp.xpt**", "score": 0.31, "match_basis": "verbatim_token+domain_route:PP"}, {"md_atom_id": "md_dmPP_ex_a050", "md_file": "knowledge_base/domains/PP/examples.md", "md_atom_type": "SENTENCE", "md_parent_section": "§PP.2 [Example 2]", "md_verbatim": "**pp.xpt**", "score": 0.31, "match_basis": "verbatim_token+domain_route:PP"}, {"md_atom_id": "md_dmPP_ex_a063", "md_file": "knowledge_base/domains/PP/examples.md", "md_atom_type": "SENTENCE", "md_parent_section": "§PP.3 [Example 3]", "md_verbatim": "**pp.xpt**", "score": 0.31, "match_basis": "verbatim_token+domain_route:PP"}, {"md_atom_id": "md_dmPP_ex_a083", "md_file": "knowledge_base/domains/PP/examples.md", "md_atom_type": "SENTENCE", "md_parent_section": "§PP [PP — Examples]", "md_verbatim": "**pp.xpt**", "score": 0.31, "match_basis": "verbatim_token+domain_route:PP"}, {"md_atom_id": "md_dmPP_ex_a081", "md_file": "knowledge_base/domains/PP/examples.md", "md_atom_type": "HEADING", "md_parent_section": "§PP [PP — Examples]", "md_verbatim": "## Shared PP Dataset for RELREC Examples", "score": 0.3043, "match_basis": "verbatim_token+domain_route:PP"}, {"md_atom_id": "md_dmPP_ex_a035", "md_file": "knowledge_base/domains/PP/examples.md", "md_atom_type": "SENTENCE", "md_parent_section": "§PP.1 [Example 1]", "md_verbatim": "**supppp.xpt**", "score": 0.265, "match_basis": "verbatim_token+domain_route:PP"}, {"md_atom_id": "md_dmPP_ex_a097", "md_file": "knowledge_base/domains/PP/examples.md", "md_atom_type": "SENTENCE", "md_parent_section": "§PP [PP — Examples]", "md_verbatim": "*See PC examples for the full description of RELREC Methods A through D and their corresponding relrec.xpt tables.*", "score": 0.2477, "match_basis": "verbatim_token+domain_route:PP"}, {"md_atom_id": "md_dmPP_ex_a002", "md_file": "knowledge_base/domains/PP/examples.md", "md_atom_type": "SENTENCE", "md_parent_section": "§PP [PP — Examples]", "md_verbatim": "*Note: PC and PP share a combined examples section (6.3.5.9.3 Relating PP Records to PC Records). The PP parameter data tables are shown here; see also PC examples for the concentration data and detailed RELREC method descriptions.*", "score": 0.2186, "match_basis": "verbatim_token+domain_route:PP"}, {"md_atom_id": "md_dmPP_ex_a082", "md_file": "knowledge_base/domains/PP/examples.md", "md_atom_type": "SENTENCE", "md_parent_section": "§PP [PP — Examples]", "md_verbatim": "The shared PP dataset contains 12 rows showing PK parameters (TMAX, CMAX, AUCALL, LAMZHL, VZO, CLO) for Drug X (STUDYDRUG analyte) across Day 1 and Day 8, with 4 PPGRPID columns showing the grouping values for the 4 RELREC method examples described in the PC examples section.", "score": 0.2118, "match_basis": "verbatim_token+domain_route:PP"}, {"md_atom_id": "md_dmPP_ex_a005", "md_file": "knowledge_base/domains/PP/examples.md", "md_atom_type": "SENTENCE", "md_parent_section": "§PP.1 [Example 1]", "md_verbatim": "This example shows PK parameters calculated from time-concentration profiles for the parent drug and 1 metabolite in plasma and urine for one subject. Note that PPRFDTC is populated in order to link the PP records to the respective PC records. In this example, PPSPEC is null for observed total clearance (PPTESTCD = \"CLO\") records because it is calculated from multiple specimen sources (i.e., plasma and urine).", "score": 0.194, "match_basis": "verbatim_token+domain_route:PP"}], "candidate_count": 10, "zero_candidate": false}
{"pdf_atom_id": "ig34_p0283_a012", "pdf_atom_type": "TABLE_HEADER", "pdf_source": "SDTMIG_v3.4", "pdf_page": 283, "pdf_parent_section": "§6.3.5.9.3 Relating PP Records to PC Records — Example 4", "pdf_verbatim": "| Row | STUDYID | RDOMAIN | USUBJID | IDVAR | IDVARVAL | RELTYPE | RELID |", "figure_ref": null, "candidates": [{"md_atom_id": "md_dmPP_ex_a036", "md_file": "knowledge_base/domains/PP/examples.md", "md_atom_type": "TABLE_HEADER", "md_parent_section": "§PP.1 [Example 1]", "md_verbatim": "| Row | STUDYID | RDOMAIN | USUBJID | IDVAR | IDVARVAL | QNAM | QLABEL | QVAL | QORIG | QEVAL |\n|-----|---------|---------|---------|-------|----------|------|--------|------|-------|-------|", "score": 0.722, "match_basis": "verbatim_token+domain_route:PP"}, {"md_atom_id": "md_dmPP_ex_a009", "md_file": "knowledge_base/domains/PP/examples.md", "md_atom_type": "TABLE_HEADER", "md_parent_section": "§PP.1 [Example 1]", "md_verbatim": "| Row | STUDYID | DOMAIN | USUBJID | PPSEQ | PPGRPID | PPTESTCD | PPTEST | PPCAT | PPORRES | PPORRESU | PPSTRESC | PPSTRESN | PPSTRESU | PPSPEC | VISITNUM | VISIT | PPDTC | PPRFDTC |\n|-----|---------|--------|---------|-------|---------|----------|--------|-------|---------|----------|----------|----------|----------|--------|----------|-------|-------|---------|", "score": 0.5233, "match_basis": "verbatim_token+domain_route:PP"}, {"md_atom_id": "md_dmPP_ex_a084", "md_file": "knowledge_base/domains/PP/examples.md", "md_atom_type": "TABLE_HEADER", "md_parent_section": "§PP [PP — Examples]", "md_verbatim": "| Row | STUDYID | DOMAIN | USUBJID | PPSEQ | PPGRPID (Example 1) | PPGRPID (Example 2) | PPGRPID (Example 3) | PPGRPID (Example 4) | PPTESTCD | PPTEST | PPCAT | PPORRES | PPORRESU | PPSTRESC | PPSTRESN | PPSTRESU | PPSPEC | PPNOMDY | PPRFDTC |\n|-----|---------|--------|---------|-------|---------------------|---------------------|---------------------|---------------------|----------|--------|-------|---------|----------|----------|----------|----------|--------|---------|---------|", "score": 0.52, "match_basis": "verbatim_token+domain_route:PP"}, {"md_atom_id": "md_dmPP_ex_a051", "md_file": "knowledge_base/domains/PP/examples.md", "md_atom_type": "TABLE_HEADER", "md_parent_section": "§PP.2 [Example 2]", "md_verbatim": "| Row | STUDYID | DOMAIN | USUBJID | PPSEQ | PPRFID | PPTESTCD | PPTEST | PPCAT | PPSCAT | PPORRES | PPORRESU | PPSTRESC | PPSTRESN | PPSTRESU | PPSPEC | PPANMETH | PPFAST | PPNOMDY | PPRFDTC |\n|-----|---------|--------|---------|-------|--------|----------|--------|-------|--------|---------|----------|----------|----------|----------|--------|----------|--------|---------|---------|", "score": 0.5139, "match_basis": "verbatim_token+domain_route:PP"}, {"md_atom_id": "md_dmPP_ex_a064", "md_file": "knowledge_base/domains/PP/examples.md", "md_atom_type": "TABLE_HEADER", "md_parent_section": "§PP.3 [Example 3]", "md_verbatim": "| Row | STUDYID | DOMAIN | USUBJID | PPSEQ | PPGRPID | PPTESTCD | PPTEST | PPCAT | PPORRES | PPORRESU | PPSTRESC | PPSTRESN | PPSTRESU | PPSPEC | VISITNUM | VISIT | PPDTC | PPRFDTC | PPSTINT | PPENINT |\n|-----|---------|--------|---------|-------|---------|----------|--------|-------|---------|----------|----------|----------|----------|--------|----------|-------|-------|---------|---------|---------|", "score": 0.5125, "match_basis": "verbatim_token+domain_route:PP"}], "candidate_count": 5, "zero_candidate": false}
{"pdf_atom_id": "ig34_p0283_a013", "pdf_atom_type": "TABLE_ROW", "pdf_source": "SDTMIG_v3.4", "pdf_page": 283, "pdf_parent_section": "§6.3.5.9.3 Relating PP Records to PC Records — Example 4", "pdf_verbatim": "| 1 | ABC-123 | PC | ABC-123-0001 | PCSEQ | 1 | | 1 |", "figure_ref": null, "candidates": [{"md_atom_id": "md_dmPP_ex_a095", "md_file": "knowledge_base/domains/PP/examples.md", "md_atom_type": "TABLE_ROW", "md_parent_section": "§PP [PP — Examples]", "md_verbatim": "| 11 | ABC-123 | PP | ABC-123-0001 | 13 | DY8DRGX | DY8DRGX | DY8DRGX | DY8DRGX | VZO | Vz Obs | DRUG X | 10.7 | L | 10.7 | 10.7 | L | PLASMA | 8 | 2001-02-08T08:35 |", "score": 0.5, "match_basis": "verbatim_token+domain_route:PP"}, {"md_atom_id": "md_dmPP_ex_a086", "md_file": "knowledge_base/domains/PP/examples.md", "md_atom_type": "TABLE_ROW", "md_parent_section": "§PP [PP — Examples]", "md_verbatim": "| 2 | ABC-123 | PP | ABC-123-0001 | 2 | DY1DRGX | DY1DRGX | DY1DRGX_A | CMAX | CMAX | Max Conc | DRUG X | 44.5 | ng/mL | 44.5 | 44.5 | ng/mL | PLASMA | 1 | 2001-02-01T08:35 |", "score": 0.4923, "match_basis": "verbatim_token+domain_route:PP"}, {"md_atom_id": "md_dmPP_ex_a092", "md_file": "knowledge_base/domains/PP/examples.md", "md_atom_type": "TABLE_ROW", "md_parent_section": "§PP [PP — Examples]", "md_verbatim": "| 8 | ABC-123 | PP | ABC-123-0001 | 9 | DY8DRGX | DY8DRGX | DY8DRGX | DY8DRGX | CMAX | Max Conc | DRUG X | 46.0 | ng/mL | 46.0 | 46.0 | ng/mL | PLASMA | 8 | 2001-02-08T08:35 |", "score": 0.4923, "match_basis": "verbatim_token+domain_route:PP"}, {"md_atom_id": "md_dmPP_ex_a085", "md_file": "knowledge_base/domains/PP/examples.md", "md_atom_type": "TABLE_ROW", "md_parent_section": "§PP [PP — Examples]", "md_verbatim": "| 1 | ABC-123 | PP | ABC-123-0001 | 1 | DY1DRGX | DY1DRGX | DY1DRGX_A | TMAX | TMAX | Time of CMAX | DRUG X | 1.87 | h | 1.87 | 1.87 | h | PLASMA | 1 | 2001-02-01T08:35 |", "score": 0.4889, "match_basis": "verbatim_token+domain_route:PP"}, {"md_atom_id": "md_dmPP_ex_a087", "md_file": "knowledge_base/domains/PP/examples.md", "md_atom_type": "TABLE_ROW", "md_parent_section": "§PP [PP — Examples]", "md_verbatim": "| 3 | ABC-123 | PP | ABC-123-0001 | 3 | DY1DRGX | DY1DRGX | DY1DRGX_A | AUC | AUCALL | AUC All | DRUG X | 294.7 | h*ug/mL | 294.7 | 294.7 | h*ug/mL | PLASMA | 1 | 2001-02-01T08:35 |", "score": 0.4889, "match_basis": "verbatim_token+domain_route:PP"}], "candidate_count": 5, "zero_candidate": false}
{"pdf_atom_id": "ig34_p0283_a014", "pdf_atom_type": "TABLE_ROW", "pdf_source": "SDTMIG_v3.4", "pdf_page": 283, "pdf_parent_section": "§6.3.5.9.3 Relating PP Records to PC Records — Example 4", "pdf_verbatim": "| 2 | ABC-123 | PC | ABC-123-0001 | PCSEQ | 2 | | 1 |", "figure_ref": null, "candidates": [{"md_atom_id": "md_dmPP_ex_a095", "md_file": "knowledge_base/domains/PP/examples.md", "md_atom_type": "TABLE_ROW", "md_parent_section": "§PP [PP — Examples]", "md_verbatim": "| 11 | ABC-123 | PP | ABC-123-0001 | 13 | DY8DRGX | DY8DRGX | DY8DRGX | DY8DRGX | VZO | Vz Obs | DRUG X | 10.7 | L | 10.7 | 10.7 | L | PLASMA | 8 | 2001-02-08T08:35 |", "score": 0.5, "match_basis": "verbatim_token+domain_route:PP"}, {"md_atom_id": "md_dmPP_ex_a086", "md_file": "knowledge_base/domains/PP/examples.md", "md_atom_type": "TABLE_ROW", "md_parent_section": "§PP [PP — Examples]", "md_verbatim": "| 2 | ABC-123 | PP | ABC-123-0001 | 2 | DY1DRGX | DY1DRGX | DY1DRGX_A | CMAX | CMAX | Max Conc | DRUG X | 44.5 | ng/mL | 44.5 | 44.5 | ng/mL | PLASMA | 1 | 2001-02-01T08:35 |", "score": 0.4923, "match_basis": "verbatim_token+domain_route:PP"}, {"md_atom_id": "md_dmPP_ex_a092", "md_file": "knowledge_base/domains/PP/examples.md", "md_atom_type": "TABLE_ROW", "md_parent_section": "§PP [PP — Examples]", "md_verbatim": "| 8 | ABC-123 | PP | ABC-123-0001 | 9 | DY8DRGX | DY8DRGX | DY8DRGX | DY8DRGX | CMAX | Max Conc | DRUG X | 46.0 | ng/mL | 46.0 | 46.0 | ng/mL | PLASMA | 8 | 2001-02-08T08:35 |", "score": 0.4923, "match_basis": "verbatim_token+domain_route:PP"}, {"md_atom_id": "md_dmPP_ex_a085", "md_file": "knowledge_base/domains/PP/examples.md", "md_atom_type": "TABLE_ROW", "md_parent_section": "§PP [PP — Examples]", "md_verbatim": "| 1 | ABC-123 | PP | ABC-123-0001 | 1 | DY1DRGX | DY1DRGX | DY1DRGX_A | TMAX | TMAX | Time of CMAX | DRUG X | 1.87 | h | 1.87 | 1.87 | h | PLASMA | 1 | 2001-02-01T08:35 |", "score": 0.4889, "match_basis": "verbatim_token+domain_route:PP"}, {"md_atom_id": "md_dmPP_ex_a087", "md_file": "knowledge_base/domains/PP/examples.md", "md_atom_type": "TABLE_ROW", "md_parent_section": "§PP [PP — Examples]", "md_verbatim": "| 3 | ABC-123 | PP | ABC-123-0001 | 3 | DY1DRGX | DY1DRGX | DY1DRGX_A | AUC | AUCALL | AUC All | DRUG X | 294.7 | h*ug/mL | 294.7 | 294.7 | h*ug/mL | PLASMA | 1 | 2001-02-01T08:35 |", "score": 0.4889, "match_basis": "verbatim_token+domain_route:PP"}], "candidate_count": 5, "zero_candidate": false}
{"pdf_atom_id": "ig34_p0283_a015", "pdf_atom_type": "TABLE_ROW", "pdf_source": "SDTMIG_v3.4", "pdf_page": 283, "pdf_parent_section": "§6.3.5.9.3 Relating PP Records to PC Records — Example 4", "pdf_verbatim": "| 3 | ABC-123 | PC | ABC-123-0001 | PCSEQ | 3 | | 1 |", "figure_ref": null, "candidates": [{"md_atom_id": "md_dmPP_ex_a095", "md_file": "knowledge_base/domains/PP/examples.md", "md_atom_type": "TABLE_ROW", "md_parent_section": "§PP [PP — Examples]", "md_verbatim": "| 11 | ABC-123 | PP | ABC-123-0001 | 13 | DY8DRGX | DY8DRGX | DY8DRGX | DY8DRGX | VZO | Vz Obs | DRUG X | 10.7 | L | 10.7 | 10.7 | L | PLASMA | 8 | 2001-02-08T08:35 |", "score": 0.5, "match_basis": "verbatim_token+domain_route:PP"}, {"md_atom_id": "md_dmPP_ex_a086", "md_file": "knowledge_base/domains/PP/examples.md", "md_atom_type": "TABLE_ROW", "md_parent_section": "§PP [PP — Examples]", "md_verbatim": "| 2 | ABC-123 | PP | ABC-123-0001 | 2 | DY1DRGX | DY1DRGX | DY1DRGX_A | CMAX | CMAX | Max Conc | DRUG X | 44.5 | ng/mL | 44.5 | 44.5 | ng/mL | PLASMA | 1 | 2001-02-01T08:35 |", "score": 0.4923, "match_basis": "verbatim_token+domain_route:PP"}, {"md_atom_id": "md_dmPP_ex_a092", "md_file": "knowledge_base/domains/PP/examples.md", "md_atom_type": "TABLE_ROW", "md_parent_section": "§PP [PP — Examples]", "md_verbatim": "| 8 | ABC-123 | PP | ABC-123-0001 | 9 | DY8DRGX | DY8DRGX | DY8DRGX | DY8DRGX | CMAX | Max Conc | DRUG X | 46.0 | ng/mL | 46.0 | 46.0 | ng/mL | PLASMA | 8 | 2001-02-08T08:35 |", "score": 0.4923, "match_basis": "verbatim_token+domain_route:PP"}, {"md_atom_id": "md_dmPP_ex_a085", "md_file": "knowledge_base/domains/PP/examples.md", "md_atom_type": "TABLE_ROW", "md_parent_section": "§PP [PP — Examples]", "md_verbatim": "| 1 | ABC-123 | PP | ABC-123-0001 | 1 | DY1DRGX | DY1DRGX | DY1DRGX_A | TMAX | TMAX | Time of CMAX | DRUG X | 1.87 | h | 1.87 | 1.87 | h | PLASMA | 1 | 2001-02-01T08:35 |", "score": 0.4889, "match_basis": "verbatim_token+domain_route:PP"}, {"md_atom_id": "md_dmPP_ex_a087", "md_file": "knowledge_base/domains/PP/examples.md", "md_atom_type": "TABLE_ROW", "md_parent_section": "§PP [PP — Examples]", "md_verbatim": "| 3 | ABC-123 | PP | ABC-123-0001 | 3 | DY1DRGX | DY1DRGX | DY1DRGX_A | AUC | AUCALL | AUC All | DRUG X | 294.7 | h*ug/mL | 294.7 | 294.7 | h*ug/mL | PLASMA | 1 | 2001-02-01T08:35 |", "score": 0.4889, "match_basis": "verbatim_token+domain_route:PP"}], "candidate_count": 5, "zero_candidate": false}
{"pdf_atom_id": "ig34_p0283_a016", "pdf_atom_type": "TABLE_ROW", "pdf_source": "SDTMIG_v3.4", "pdf_page": 283, "pdf_parent_section": "§6.3.5.9.3 Relating PP Records to PC Records — Example 4", "pdf_verbatim": "| 4 | ABC-123 | PC | ABC-123-0001 | PCSEQ | 4 | | 1 |", "figure_ref": null, "candidates": [{"md_atom_id": "md_dmPP_ex_a095", "md_file": "knowledge_base/domains/PP/examples.md", "md_atom_type": "TABLE_ROW", "md_parent_section": "§PP [PP — Examples]", "md_verbatim": "| 11 | ABC-123 | PP | ABC-123-0001 | 13 | DY8DRGX | DY8DRGX | DY8DRGX | DY8DRGX | VZO | Vz Obs | DRUG X | 10.7 | L | 10.7 | 10.7 | L | PLASMA | 8 | 2001-02-08T08:35 |", "score": 0.5, "match_basis": "verbatim_token+domain_route:PP"}, {"md_atom_id": "md_dmPP_ex_a086", "md_file": "knowledge_base/domains/PP/examples.md", "md_atom_type": "TABLE_ROW", "md_parent_section": "§PP [PP — Examples]", "md_verbatim": "| 2 | ABC-123 | PP | ABC-123-0001 | 2 | DY1DRGX | DY1DRGX | DY1DRGX_A | CMAX | CMAX | Max Conc | DRUG X | 44.5 | ng/mL | 44.5 | 44.5 | ng/mL | PLASMA | 1 | 2001-02-01T08:35 |", "score": 0.4923, "match_basis": "verbatim_token+domain_route:PP"}, {"md_atom_id": "md_dmPP_ex_a092", "md_file": "knowledge_base/domains/PP/examples.md", "md_atom_type": "TABLE_ROW", "md_parent_section": "§PP [PP — Examples]", "md_verbatim": "| 8 | ABC-123 | PP | ABC-123-0001 | 9 | DY8DRGX | DY8DRGX | DY8DRGX | DY8DRGX | CMAX | Max Conc | DRUG X | 46.0 | ng/mL | 46.0 | 46.0 | ng/mL | PLASMA | 8 | 2001-02-08T08:35 |", "score": 0.4923, "match_basis": "verbatim_token+domain_route:PP"}, {"md_atom_id": "md_dmPP_ex_a085", "md_file": "knowledge_base/domains/PP/examples.md", "md_atom_type": "TABLE_ROW", "md_parent_section": "§PP [PP — Examples]", "md_verbatim": "| 1 | ABC-123 | PP | ABC-123-0001 | 1 | DY1DRGX | DY1DRGX | DY1DRGX_A | TMAX | TMAX | Time of CMAX | DRUG X | 1.87 | h | 1.87 | 1.87 | h | PLASMA | 1 | 2001-02-01T08:35 |", "score": 0.4889, "match_basis": "verbatim_token+domain_route:PP"}, {"md_atom_id": "md_dmPP_ex_a087", "md_file": "knowledge_base/domains/PP/examples.md", "md_atom_type": "TABLE_ROW", "md_parent_section": "§PP [PP — Examples]", "md_verbatim": "| 3 | ABC-123 | PP | ABC-123-0001 | 3 | DY1DRGX | DY1DRGX | DY1DRGX_A | AUC | AUCALL | AUC All | DRUG X | 294.7 | h*ug/mL | 294.7 | 294.7 | h*ug/mL | PLASMA | 1 | 2001-02-01T08:35 |", "score": 0.4889, "match_basis": "verbatim_token+domain_route:PP"}], "candidate_count": 5, "zero_candidate": false}
{"pdf_atom_id": "ig34_p0283_a017", "pdf_atom_type": "TABLE_ROW", "pdf_source": "SDTMIG_v3.4", "pdf_page": 283, "pdf_parent_section": "§6.3.5.9.3 Relating PP Records to PC Records — Example 4", "pdf_verbatim": "| 5 | ABC-123 | PC | ABC-123-0001 | PCSEQ | 6 | | 1 |", "figure_ref": null, "candidates": [{"md_atom_id": "md_dmPP_ex_a095", "md_file": "knowledge_base/domains/PP/examples.md", "md_atom_type": "TABLE_ROW", "md_parent_section": "§PP [PP — Examples]", "md_verbatim": "| 11 | ABC-123 | PP | ABC-123-0001 | 13 | DY8DRGX | DY8DRGX | DY8DRGX | DY8DRGX | VZO | Vz Obs | DRUG X | 10.7 | L | 10.7 | 10.7 | L | PLASMA | 8 | 2001-02-08T08:35 |", "score": 0.5, "match_basis": "verbatim_token+domain_route:PP"}, {"md_atom_id": "md_dmPP_ex_a086", "md_file": "knowledge_base/domains/PP/examples.md", "md_atom_type": "TABLE_ROW", "md_parent_section": "§PP [PP — Examples]", "md_verbatim": "| 2 | ABC-123 | PP | ABC-123-0001 | 2 | DY1DRGX | DY1DRGX | DY1DRGX_A | CMAX | CMAX | Max Conc | DRUG X | 44.5 | ng/mL | 44.5 | 44.5 | ng/mL | PLASMA | 1 | 2001-02-01T08:35 |", "score": 0.4923, "match_basis": "verbatim_token+domain_route:PP"}, {"md_atom_id": "md_dmPP_ex_a092", "md_file": "knowledge_base/domains/PP/examples.md", "md_atom_type": "TABLE_ROW", "md_parent_section": "§PP [PP — Examples]", "md_verbatim": "| 8 | ABC-123 | PP | ABC-123-0001 | 9 | DY8DRGX | DY8DRGX | DY8DRGX | DY8DRGX | CMAX | Max Conc | DRUG X | 46.0 | ng/mL | 46.0 | 46.0 | ng/mL | PLASMA | 8 | 2001-02-08T08:35 |", "score": 0.4923, "match_basis": "verbatim_token+domain_route:PP"}, {"md_atom_id": "md_dmPP_ex_a085", "md_file": "knowledge_base/domains/PP/examples.md", "md_atom_type": "TABLE_ROW", "md_parent_section": "§PP [PP — Examples]", "md_verbatim": "| 1 | ABC-123 | PP | ABC-123-0001 | 1 | DY1DRGX | DY1DRGX | DY1DRGX_A | TMAX | TMAX | Time of CMAX | DRUG X | 1.87 | h | 1.87 | 1.87 | h | PLASMA | 1 | 2001-02-01T08:35 |", "score": 0.4889, "match_basis": "verbatim_token+domain_route:PP"}, {"md_atom_id": "md_dmPP_ex_a087", "md_file": "knowledge_base/domains/PP/examples.md", "md_atom_type": "TABLE_ROW", "md_parent_section": "§PP [PP — Examples]", "md_verbatim": "| 3 | ABC-123 | PP | ABC-123-0001 | 3 | DY1DRGX | DY1DRGX | DY1DRGX_A | AUC | AUCALL | AUC All | DRUG X | 294.7 | h*ug/mL | 294.7 | 294.7 | h*ug/mL | PLASMA | 1 | 2001-02-01T08:35 |", "score": 0.4889, "match_basis": "verbatim_token+domain_route:PP"}], "candidate_count": 5, "zero_candidate": false}
{"pdf_atom_id": "ig34_p0283_a018", "pdf_atom_type": "TABLE_ROW", "pdf_source": "SDTMIG_v3.4", "pdf_page": 283, "pdf_parent_section": "§6.3.5.9.3 Relating PP Records to PC Records — Example 4", "pdf_verbatim": "| 6 | ABC-123 | PC | ABC-123-0001 | PCSEQ | 7 | | 1 |", "figure_ref": null, "candidates": [{"md_atom_id": "md_dmPP_ex_a095", "md_file": "knowledge_base/domains/PP/examples.md", "md_atom_type": "TABLE_ROW", "md_parent_section": "§PP [PP — Examples]", "md_verbatim": "| 11 | ABC-123 | PP | ABC-123-0001 | 13 | DY8DRGX | DY8DRGX | DY8DRGX | DY8DRGX | VZO | Vz Obs | DRUG X | 10.7 | L | 10.7 | 10.7 | L | PLASMA | 8 | 2001-02-08T08:35 |", "score": 0.5, "match_basis": "verbatim_token+domain_route:PP"}, {"md_atom_id": "md_dmPP_ex_a086", "md_file": "knowledge_base/domains/PP/examples.md", "md_atom_type": "TABLE_ROW", "md_parent_section": "§PP [PP — Examples]", "md_verbatim": "| 2 | ABC-123 | PP | ABC-123-0001 | 2 | DY1DRGX | DY1DRGX | DY1DRGX_A | CMAX | CMAX | Max Conc | DRUG X | 44.5 | ng/mL | 44.5 | 44.5 | ng/mL | PLASMA | 1 | 2001-02-01T08:35 |", "score": 0.4923, "match_basis": "verbatim_token+domain_route:PP"}, {"md_atom_id": "md_dmPP_ex_a092", "md_file": "knowledge_base/domains/PP/examples.md", "md_atom_type": "TABLE_ROW", "md_parent_section": "§PP [PP — Examples]", "md_verbatim": "| 8 | ABC-123 | PP | ABC-123-0001 | 9 | DY8DRGX | DY8DRGX | DY8DRGX | DY8DRGX | CMAX | Max Conc | DRUG X | 46.0 | ng/mL | 46.0 | 46.0 | ng/mL | PLASMA | 8 | 2001-02-08T08:35 |", "score": 0.4923, "match_basis": "verbatim_token+domain_route:PP"}, {"md_atom_id": "md_dmPP_ex_a085", "md_file": "knowledge_base/domains/PP/examples.md", "md_atom_type": "TABLE_ROW", "md_parent_section": "§PP [PP — Examples]", "md_verbatim": "| 1 | ABC-123 | PP | ABC-123-0001 | 1 | DY1DRGX | DY1DRGX | DY1DRGX_A | TMAX | TMAX | Time of CMAX | DRUG X | 1.87 | h | 1.87 | 1.87 | h | PLASMA | 1 | 2001-02-01T08:35 |", "score": 0.4889, "match_basis": "verbatim_token+domain_route:PP"}, {"md_atom_id": "md_dmPP_ex_a087", "md_file": "knowledge_base/domains/PP/examples.md", "md_atom_type": "TABLE_ROW", "md_parent_section": "§PP [PP — Examples]", "md_verbatim": "| 3 | ABC-123 | PP | ABC-123-0001 | 3 | DY1DRGX | DY1DRGX | DY1DRGX_A | AUC | AUCALL | AUC All | DRUG X | 294.7 | h*ug/mL | 294.7 | 294.7 | h*ug/mL | PLASMA | 1 | 2001-02-01T08:35 |", "score": 0.4889, "match_basis": "verbatim_token+domain_route:PP"}], "candidate_count": 5, "zero_candidate": false}
{"pdf_atom_id": "ig34_p0283_a019", "pdf_atom_type": "TABLE_ROW", "pdf_source": "SDTMIG_v3.4", "pdf_page": 283, "pdf_parent_section": "§6.3.5.9.3 Relating PP Records to PC Records — Example 4", "pdf_verbatim": "| 7 | ABC-123 | PC | ABC-123-0001 | PCSEQ | 8 | | 1 |", "figure_ref": null, "candidates": [{"md_atom_id": "md_dmPP_ex_a095", "md_file": "knowledge_base/domains/PP/examples.md", "md_atom_type": "TABLE_ROW", "md_parent_section": "§PP [PP — Examples]", "md_verbatim": "| 11 | ABC-123 | PP | ABC-123-0001 | 13 | DY8DRGX | DY8DRGX | DY8DRGX | DY8DRGX | VZO | Vz Obs | DRUG X | 10.7 | L | 10.7 | 10.7 | L | PLASMA | 8 | 2001-02-08T08:35 |", "score": 0.5, "match_basis": "verbatim_token+domain_route:PP"}, {"md_atom_id": "md_dmPP_ex_a086", "md_file": "knowledge_base/domains/PP/examples.md", "md_atom_type": "TABLE_ROW", "md_parent_section": "§PP [PP — Examples]", "md_verbatim": "| 2 | ABC-123 | PP | ABC-123-0001 | 2 | DY1DRGX | DY1DRGX | DY1DRGX_A | CMAX | CMAX | Max Conc | DRUG X | 44.5 | ng/mL | 44.5 | 44.5 | ng/mL | PLASMA | 1 | 2001-02-01T08:35 |", "score": 0.4923, "match_basis": "verbatim_token+domain_route:PP"}, {"md_atom_id": "md_dmPP_ex_a092", "md_file": "knowledge_base/domains/PP/examples.md", "md_atom_type": "TABLE_ROW", "md_parent_section": "§PP [PP — Examples]", "md_verbatim": "| 8 | ABC-123 | PP | ABC-123-0001 | 9 | DY8DRGX | DY8DRGX | DY8DRGX | DY8DRGX | CMAX | Max Conc | DRUG X | 46.0 | ng/mL | 46.0 | 46.0 | ng/mL | PLASMA | 8 | 2001-02-08T08:35 |", "score": 0.4923, "match_basis": "verbatim_token+domain_route:PP"}, {"md_atom_id": "md_dmPP_ex_a085", "md_file": "knowledge_base/domains/PP/examples.md", "md_atom_type": "TABLE_ROW", "md_parent_section": "§PP [PP — Examples]", "md_verbatim": "| 1 | ABC-123 | PP | ABC-123-0001 | 1 | DY1DRGX | DY1DRGX | DY1DRGX_A | TMAX | TMAX | Time of CMAX | DRUG X | 1.87 | h | 1.87 | 1.87 | h | PLASMA | 1 | 2001-02-01T08:35 |", "score": 0.4889, "match_basis": "verbatim_token+domain_route:PP"}, {"md_atom_id": "md_dmPP_ex_a087", "md_file": "knowledge_base/domains/PP/examples.md", "md_atom_type": "TABLE_ROW", "md_parent_section": "§PP [PP — Examples]", "md_verbatim": "| 3 | ABC-123 | PP | ABC-123-0001 | 3 | DY1DRGX | DY1DRGX | DY1DRGX_A | AUC | AUCALL | AUC All | DRUG X | 294.7 | h*ug/mL | 294.7 | 294.7 | h*ug/mL | PLASMA | 1 | 2001-02-01T08:35 |", "score": 0.4889, "match_basis": "verbatim_token+domain_route:PP"}], "candidate_count": 5, "zero_candidate": false}
{"pdf_atom_id": "ig34_p0283_a020", "pdf_atom_type": "TABLE_ROW", "pdf_source": "SDTMIG_v3.4", "pdf_page": 283, "pdf_parent_section": "§6.3.5.9.3 Relating PP Records to PC Records — Example 4", "pdf_verbatim": "| 8 | ABC-123 | PC | ABC-123-0001 | PCSEQ | 9 | | 1 |", "figure_ref": null, "candidates": [{"md_atom_id": "md_dmPP_ex_a095", "md_file": "knowledge_base/domains/PP/examples.md", "md_atom_type": "TABLE_ROW", "md_parent_section": "§PP [PP — Examples]", "md_verbatim": "| 11 | ABC-123 | PP | ABC-123-0001 | 13 | DY8DRGX | DY8DRGX | DY8DRGX | DY8DRGX | VZO | Vz Obs | DRUG X | 10.7 | L | 10.7 | 10.7 | L | PLASMA | 8 | 2001-02-08T08:35 |", "score": 0.5, "match_basis": "verbatim_token+domain_route:PP"}, {"md_atom_id": "md_dmPP_ex_a086", "md_file": "knowledge_base/domains/PP/examples.md", "md_atom_type": "TABLE_ROW", "md_parent_section": "§PP [PP — Examples]", "md_verbatim": "| 2 | ABC-123 | PP | ABC-123-0001 | 2 | DY1DRGX | DY1DRGX | DY1DRGX_A | CMAX | CMAX | Max Conc | DRUG X | 44.5 | ng/mL | 44.5 | 44.5 | ng/mL | PLASMA | 1 | 2001-02-01T08:35 |", "score": 0.4923, "match_basis": "verbatim_token+domain_route:PP"}, {"md_atom_id": "md_dmPP_ex_a092", "md_file": "knowledge_base/domains/PP/examples.md", "md_atom_type": "TABLE_ROW", "md_parent_section": "§PP [PP — Examples]", "md_verbatim": "| 8 | ABC-123 | PP | ABC-123-0001 | 9 | DY8DRGX | DY8DRGX | DY8DRGX | DY8DRGX | CMAX | Max Conc | DRUG X | 46.0 | ng/mL | 46.0 | 46.0 | ng/mL | PLASMA | 8 | 2001-02-08T08:35 |", "score": 0.4923, "match_basis": "verbatim_token+domain_route:PP"}, {"md_atom_id": "md_dmPP_ex_a085", "md_file": "knowledge_base/domains/PP/examples.md", "md_atom_type": "TABLE_ROW", "md_parent_section": "§PP [PP — Examples]", "md_verbatim": "| 1 | ABC-123 | PP | ABC-123-0001 | 1 | DY1DRGX | DY1DRGX | DY1DRGX_A | TMAX | TMAX | Time of CMAX | DRUG X | 1.87 | h | 1.87 | 1.87 | h | PLASMA | 1 | 2001-02-01T08:35 |", "score": 0.4889, "match_basis": "verbatim_token+domain_route:PP"}, {"md_atom_id": "md_dmPP_ex_a087", "md_file": "knowledge_base/domains/PP/examples.md", "md_atom_type": "TABLE_ROW", "md_parent_section": "§PP [PP — Examples]", "md_verbatim": "| 3 | ABC-123 | PP | ABC-123-0001 | 3 | DY1DRGX | DY1DRGX | DY1DRGX_A | AUC | AUCALL | AUC All | DRUG X | 294.7 | h*ug/mL | 294.7 | 294.7 | h*ug/mL | PLASMA | 1 | 2001-02-01T08:35 |", "score": 0.4889, "match_basis": "verbatim_token+domain_route:PP"}], "candidate_count": 5, "zero_candidate": false}
{"pdf_atom_id": "ig34_p0283_a021", "pdf_atom_type": "TABLE_ROW", "pdf_source": "SDTMIG_v3.4", "pdf_page": 283, "pdf_parent_section": "§6.3.5.9.3 Relating PP Records to PC Records — Example 4", "pdf_verbatim": "| 9 | ABC-123 | PC | ABC-123-0001 | PCSEQ | 10 | | 1 |", "figure_ref": null, "candidates": [{"md_atom_id": "md_dmPP_ex_a095", "md_file": "knowledge_base/domains/PP/examples.md", "md_atom_type": "TABLE_ROW", "md_parent_section": "§PP [PP — Examples]", "md_verbatim": "| 11 | ABC-123 | PP | ABC-123-0001 | 13 | DY8DRGX | DY8DRGX | DY8DRGX | DY8DRGX | VZO | Vz Obs | DRUG X | 10.7 | L | 10.7 | 10.7 | L | PLASMA | 8 | 2001-02-08T08:35 |", "score": 0.5, "match_basis": "verbatim_token+domain_route:PP"}, {"md_atom_id": "md_dmPP_ex_a086", "md_file": "knowledge_base/domains/PP/examples.md", "md_atom_type": "TABLE_ROW", "md_parent_section": "§PP [PP — Examples]", "md_verbatim": "| 2 | ABC-123 | PP | ABC-123-0001 | 2 | DY1DRGX | DY1DRGX | DY1DRGX_A | CMAX | CMAX | Max Conc | DRUG X | 44.5 | ng/mL | 44.5 | 44.5 | ng/mL | PLASMA | 1 | 2001-02-01T08:35 |", "score": 0.4923, "match_basis": "verbatim_token+domain_route:PP"}, {"md_atom_id": "md_dmPP_ex_a092", "md_file": "knowledge_base/domains/PP/examples.md", "md_atom_type": "TABLE_ROW", "md_parent_section": "§PP [PP — Examples]", "md_verbatim": "| 8 | ABC-123 | PP | ABC-123-0001 | 9 | DY8DRGX | DY8DRGX | DY8DRGX | DY8DRGX | CMAX | Max Conc | DRUG X | 46.0 | ng/mL | 46.0 | 46.0 | ng/mL | PLASMA | 8 | 2001-02-08T08:35 |", "score": 0.4923, "match_basis": "verbatim_token+domain_route:PP"}, {"md_atom_id": "md_dmPP_ex_a085", "md_file": "knowledge_base/domains/PP/examples.md", "md_atom_type": "TABLE_ROW", "md_parent_section": "§PP [PP — Examples]", "md_verbatim": "| 1 | ABC-123 | PP | ABC-123-0001 | 1 | DY1DRGX | DY1DRGX | DY1DRGX_A | TMAX | TMAX | Time of CMAX | DRUG X | 1.87 | h | 1.87 | 1.87 | h | PLASMA | 1 | 2001-02-01T08:35 |", "score": 0.4889, "match_basis": "verbatim_token+domain_route:PP"}, {"md_atom_id": "md_dmPP_ex_a087", "md_file": "knowledge_base/domains/PP/examples.md", "md_atom_type": "TABLE_ROW", "md_parent_section": "§PP [PP — Examples]", "md_verbatim": "| 3 | ABC-123 | PP | ABC-123-0001 | 3 | DY1DRGX | DY1DRGX | DY1DRGX_A | AUC | AUCALL | AUC All | DRUG X | 294.7 | h*ug/mL | 294.7 | 294.7 | h*ug/mL | PLASMA | 1 | 2001-02-01T08:35 |", "score": 0.4889, "match_basis": "verbatim_token+domain_route:PP"}], "candidate_count": 5, "zero_candidate": false}
{"pdf_atom_id": "ig34_p0283_a022", "pdf_atom_type": "TABLE_ROW", "pdf_source": "SDTMIG_v3.4", "pdf_page": 283, "pdf_parent_section": "§6.3.5.9.3 Relating PP Records to PC Records — Example 4", "pdf_verbatim": "| 10 | ABC-123 | PC | ABC-123-0001 | PCSEQ | 11 | | 1 |", "figure_ref": null, "candidates": [{"md_atom_id": "md_dmPP_ex_a095", "md_file": "knowledge_base/domains/PP/examples.md", "md_atom_type": "TABLE_ROW", "md_parent_section": "§PP [PP — Examples]", "md_verbatim": "| 11 | ABC-123 | PP | ABC-123-0001 | 13 | DY8DRGX | DY8DRGX | DY8DRGX | DY8DRGX | VZO | Vz Obs | DRUG X | 10.7 | L | 10.7 | 10.7 | L | PLASMA | 8 | 2001-02-08T08:35 |", "score": 0.5, "match_basis": "verbatim_token+domain_route:PP"}, {"md_atom_id": "md_dmPP_ex_a086", "md_file": "knowledge_base/domains/PP/examples.md", "md_atom_type": "TABLE_ROW", "md_parent_section": "§PP [PP — Examples]", "md_verbatim": "| 2 | ABC-123 | PP | ABC-123-0001 | 2 | DY1DRGX | DY1DRGX | DY1DRGX_A | CMAX | CMAX | Max Conc | DRUG X | 44.5 | ng/mL | 44.5 | 44.5 | ng/mL | PLASMA | 1 | 2001-02-01T08:35 |", "score": 0.4923, "match_basis": "verbatim_token+domain_route:PP"}, {"md_atom_id": "md_dmPP_ex_a092", "md_file": "knowledge_base/domains/PP/examples.md", "md_atom_type": "TABLE_ROW", "md_parent_section": "§PP [PP — Examples]", "md_verbatim": "| 8 | ABC-123 | PP | ABC-123-0001 | 9 | DY8DRGX | DY8DRGX | DY8DRGX | DY8DRGX | CMAX | Max Conc | DRUG X | 46.0 | ng/mL | 46.0 | 46.0 | ng/mL | PLASMA | 8 | 2001-02-08T08:35 |", "score": 0.4923, "match_basis": "verbatim_token+domain_route:PP"}, {"md_atom_id": "md_dmPP_ex_a085", "md_file": "knowledge_base/domains/PP/examples.md", "md_atom_type": "TABLE_ROW", "md_parent_section": "§PP [PP — Examples]", "md_verbatim": "| 1 | ABC-123 | PP | ABC-123-0001 | 1 | DY1DRGX | DY1DRGX | DY1DRGX_A | TMAX | TMAX | Time of CMAX | DRUG X | 1.87 | h | 1.87 | 1.87 | h | PLASMA | 1 | 2001-02-01T08:35 |", "score": 0.4889, "match_basis": "verbatim_token+domain_route:PP"}, {"md_atom_id": "md_dmPP_ex_a087", "md_file": "knowledge_base/domains/PP/examples.md", "md_atom_type": "TABLE_ROW", "md_parent_section": "§PP [PP — Examples]", "md_verbatim": "| 3 | ABC-123 | PP | ABC-123-0001 | 3 | DY1DRGX | DY1DRGX | DY1DRGX_A | AUC | AUCALL | AUC All | DRUG X | 294.7 | h*ug/mL | 294.7 | 294.7 | h*ug/mL | PLASMA | 1 | 2001-02-01T08:35 |", "score": 0.4889, "match_basis": "verbatim_token+domain_route:PP"}], "candidate_count": 5, "zero_candidate": false}
{"pdf_atom_id": "ig34_p0283_a023", "pdf_atom_type": "TABLE_ROW", "pdf_source": "SDTMIG_v3.4", "pdf_page": 283, "pdf_parent_section": "§6.3.5.9.3 Relating PP Records to PC Records — Example 4", "pdf_verbatim": "| 11 | ABC-123 | PC | ABC-123-0001 | PCSEQ | 12 | | 1 |", "figure_ref": null, "candidates": [{"md_atom_id": "md_dmPP_ex_a095", "md_file": "knowledge_base/domains/PP/examples.md", "md_atom_type": "TABLE_ROW", "md_parent_section": "§PP [PP — Examples]", "md_verbatim": "| 11 | ABC-123 | PP | ABC-123-0001 | 13 | DY8DRGX | DY8DRGX | DY8DRGX | DY8DRGX | VZO | Vz Obs | DRUG X | 10.7 | L | 10.7 | 10.7 | L | PLASMA | 8 | 2001-02-08T08:35 |", "score": 0.5, "match_basis": "verbatim_token+domain_route:PP"}, {"md_atom_id": "md_dmPP_ex_a086", "md_file": "knowledge_base/domains/PP/examples.md", "md_atom_type": "TABLE_ROW", "md_parent_section": "§PP [PP — Examples]", "md_verbatim": "| 2 | ABC-123 | PP | ABC-123-0001 | 2 | DY1DRGX | DY1DRGX | DY1DRGX_A | CMAX | CMAX | Max Conc | DRUG X | 44.5 | ng/mL | 44.5 | 44.5 | ng/mL | PLASMA | 1 | 2001-02-01T08:35 |", "score": 0.4923, "match_basis": "verbatim_token+domain_route:PP"}, {"md_atom_id": "md_dmPP_ex_a092", "md_file": "knowledge_base/domains/PP/examples.md", "md_atom_type": "TABLE_ROW", "md_parent_section": "§PP [PP — Examples]", "md_verbatim": "| 8 | ABC-123 | PP | ABC-123-0001 | 9 | DY8DRGX | DY8DRGX | DY8DRGX | DY8DRGX | CMAX | Max Conc | DRUG X | 46.0 | ng/mL | 46.0 | 46.0 | ng/mL | PLASMA | 8 | 2001-02-08T08:35 |", "score": 0.4923, "match_basis": "verbatim_token+domain_route:PP"}, {"md_atom_id": "md_dmPP_ex_a085", "md_file": "knowledge_base/domains/PP/examples.md", "md_atom_type": "TABLE_ROW", "md_parent_section": "§PP [PP — Examples]", "md_verbatim": "| 1 | ABC-123 | PP | ABC-123-0001 | 1 | DY1DRGX | DY1DRGX | DY1DRGX_A | TMAX | TMAX | Time of CMAX | DRUG X | 1.87 | h | 1.87 | 1.87 | h | PLASMA | 1 | 2001-02-01T08:35 |", "score": 0.4889, "match_basis": "verbatim_token+domain_route:PP"}, {"md_atom_id": "md_dmPP_ex_a087", "md_file": "knowledge_base/domains/PP/examples.md", "md_atom_type": "TABLE_ROW", "md_parent_section": "§PP [PP — Examples]", "md_verbatim": "| 3 | ABC-123 | PP | ABC-123-0001 | 3 | DY1DRGX | DY1DRGX | DY1DRGX_A | AUC | AUCALL | AUC All | DRUG X | 294.7 | h*ug/mL | 294.7 | 294.7 | h*ug/mL | PLASMA | 1 | 2001-02-01T08:35 |", "score": 0.4889, "match_basis": "verbatim_token+domain_route:PP"}], "candidate_count": 5, "zero_candidate": false}
{"pdf_atom_id": "ig34_p0283_a024", "pdf_atom_type": "TABLE_ROW", "pdf_source": "SDTMIG_v3.4", "pdf_page": 283, "pdf_parent_section": "§6.3.5.9.3 Relating PP Records to PC Records — Example 4", "pdf_verbatim": "| 12 | ABC-123 | PP | ABC-123-0001 | PPSEQ | 1 | | 1 |", "figure_ref": null, "candidates": [{"md_atom_id": "md_dmPP_ex_a043", "md_file": "knowledge_base/domains/PP/examples.md", "md_atom_type": "TABLE_ROW", "md_parent_section": "§PP.1 [Example 1]", "md_verbatim": "| 7 | ABC-123 | PP | 123-1001 | PPSEQ | 7 | PKCOND | Condition of PK Analysis | SINGLE DOSE | Collected | |", "score": 0.5, "match_basis": "verbatim_token+domain_route:PP"}, {"md_atom_id": "md_dmPP_ex_a095", "md_file": "knowledge_base/domains/PP/examples.md", "md_atom_type": "TABLE_ROW", "md_parent_section": "§PP [PP — Examples]", "md_verbatim": "| 11 | ABC-123 | PP | ABC-123-0001 | 13 | DY8DRGX | DY8DRGX | DY8DRGX | DY8DRGX | VZO | Vz Obs | DRUG X | 10.7 | L | 10.7 | 10.7 | L | PLASMA | 8 | 2001-02-08T08:35 |", "score": 0.5, "match_basis": "verbatim_token+domain_route:PP"}, {"md_atom_id": "md_dmPP_ex_a086", "md_file": "knowledge_base/domains/PP/examples.md", "md_atom_type": "TABLE_ROW", "md_parent_section": "§PP [PP — Examples]", "md_verbatim": "| 2 | ABC-123 | PP | ABC-123-0001 | 2 | DY1DRGX | DY1DRGX | DY1DRGX_A | CMAX | CMAX | Max Conc | DRUG X | 44.5 | ng/mL | 44.5 | 44.5 | ng/mL | PLASMA | 1 | 2001-02-01T08:35 |", "score": 0.4923, "match_basis": "verbatim_token+domain_route:PP"}, {"md_atom_id": "md_dmPP_ex_a092", "md_file": "knowledge_base/domains/PP/examples.md", "md_atom_type": "TABLE_ROW", "md_parent_section": "§PP [PP — Examples]", "md_verbatim": "| 8 | ABC-123 | PP | ABC-123-0001 | 9 | DY8DRGX | DY8DRGX | DY8DRGX | DY8DRGX | CMAX | Max Conc | DRUG X | 46.0 | ng/mL | 46.0 | 46.0 | ng/mL | PLASMA | 8 | 2001-02-08T08:35 |", "score": 0.4923, "match_basis": "verbatim_token+domain_route:PP"}, {"md_atom_id": "md_dmPP_ex_a085", "md_file": "knowledge_base/domains/PP/examples.md", "md_atom_type": "TABLE_ROW", "md_parent_section": "§PP [PP — Examples]", "md_verbatim": "| 1 | ABC-123 | PP | ABC-123-0001 | 1 | DY1DRGX | DY1DRGX | DY1DRGX_A | TMAX | TMAX | Time of CMAX | DRUG X | 1.87 | h | 1.87 | 1.87 | h | PLASMA | 1 | 2001-02-01T08:35 |", "score": 0.4889, "match_basis": "verbatim_token+domain_route:PP"}], "candidate_count": 5, "zero_candidate": false}
{"pdf_atom_id": "ig34_p0283_a025", "pdf_atom_type": "TABLE_ROW", "pdf_source": "SDTMIG_v3.4", "pdf_page": 283, "pdf_parent_section": "§6.3.5.9.3 Relating PP Records to PC Records — Example 4", "pdf_verbatim": "| 13 | ABC-123 | PC | ABC-123-0001 | PCSEQ | 1 | | 2 |", "figure_ref": null, "candidates": [{"md_atom_id": "md_dmPP_ex_a095", "md_file": "knowledge_base/domains/PP/examples.md", "md_atom_type": "TABLE_ROW", "md_parent_section": "§PP [PP — Examples]", "md_verbatim": "| 11 | ABC-123 | PP | ABC-123-0001 | 13 | DY8DRGX | DY8DRGX | DY8DRGX | DY8DRGX | VZO | Vz Obs | DRUG X | 10.7 | L | 10.7 | 10.7 | L | PLASMA | 8 | 2001-02-08T08:35 |", "score": 0.5, "match_basis": "verbatim_token+domain_route:PP"}, {"md_atom_id": "md_dmPP_ex_a086", "md_file": "knowledge_base/domains/PP/examples.md", "md_atom_type": "TABLE_ROW", "md_parent_section": "§PP [PP — Examples]", "md_verbatim": "| 2 | ABC-123 | PP | ABC-123-0001 | 2 | DY1DRGX | DY1DRGX | DY1DRGX_A | CMAX | CMAX | Max Conc | DRUG X | 44.5 | ng/mL | 44.5 | 44.5 | ng/mL | PLASMA | 1 | 2001-02-01T08:35 |", "score": 0.4923, "match_basis": "verbatim_token+domain_route:PP"}, {"md_atom_id": "md_dmPP_ex_a092", "md_file": "knowledge_base/domains/PP/examples.md", "md_atom_type": "TABLE_ROW", "md_parent_section": "§PP [PP — Examples]", "md_verbatim": "| 8 | ABC-123 | PP | ABC-123-0001 | 9 | DY8DRGX | DY8DRGX | DY8DRGX | DY8DRGX | CMAX | Max Conc | DRUG X | 46.0 | ng/mL | 46.0 | 46.0 | ng/mL | PLASMA | 8 | 2001-02-08T08:35 |", "score": 0.4923, "match_basis": "verbatim_token+domain_route:PP"}, {"md_atom_id": "md_dmPP_ex_a085", "md_file": "knowledge_base/domains/PP/examples.md", "md_atom_type": "TABLE_ROW", "md_parent_section": "§PP [PP — Examples]", "md_verbatim": "| 1 | ABC-123 | PP | ABC-123-0001 | 1 | DY1DRGX | DY1DRGX | DY1DRGX_A | TMAX | TMAX | Time of CMAX | DRUG X | 1.87 | h | 1.87 | 1.87 | h | PLASMA | 1 | 2001-02-01T08:35 |", "score": 0.4889, "match_basis": "verbatim_token+domain_route:PP"}, {"md_atom_id": "md_dmPP_ex_a087", "md_file": "knowledge_base/domains/PP/examples.md", "md_atom_type": "TABLE_ROW", "md_parent_section": "§PP [PP — Examples]", "md_verbatim": "| 3 | ABC-123 | PP | ABC-123-0001 | 3 | DY1DRGX | DY1DRGX | DY1DRGX_A | AUC | AUCALL | AUC All | DRUG X | 294.7 | h*ug/mL | 294.7 | 294.7 | h*ug/mL | PLASMA | 1 | 2001-02-01T08:35 |", "score": 0.4889, "match_basis": "verbatim_token+domain_route:PP"}], "candidate_count": 5, "zero_candidate": false}
{"pdf_atom_id": "ig34_p0283_a026", "pdf_atom_type": "TABLE_ROW", "pdf_source": "SDTMIG_v3.4", "pdf_page": 283, "pdf_parent_section": "§6.3.5.9.3 Relating PP Records to PC Records — Example 4", "pdf_verbatim": "| 14 | ABC-123 | PC | ABC-123-0001 | PCSEQ | 2 | | 2 |", "figure_ref": null, "candidates": [{"md_atom_id": "md_dmPP_ex_a095", "md_file": "knowledge_base/domains/PP/examples.md", "md_atom_type": "TABLE_ROW", "md_parent_section": "§PP [PP — Examples]", "md_verbatim": "| 11 | ABC-123 | PP | ABC-123-0001 | 13 | DY8DRGX | DY8DRGX | DY8DRGX | DY8DRGX | VZO | Vz Obs | DRUG X | 10.7 | L | 10.7 | 10.7 | L | PLASMA | 8 | 2001-02-08T08:35 |", "score": 0.5, "match_basis": "verbatim_token+domain_route:PP"}, {"md_atom_id": "md_dmPP_ex_a086", "md_file": "knowledge_base/domains/PP/examples.md", "md_atom_type": "TABLE_ROW", "md_parent_section": "§PP [PP — Examples]", "md_verbatim": "| 2 | ABC-123 | PP | ABC-123-0001 | 2 | DY1DRGX | DY1DRGX | DY1DRGX_A | CMAX | CMAX | Max Conc | DRUG X | 44.5 | ng/mL | 44.5 | 44.5 | ng/mL | PLASMA | 1 | 2001-02-01T08:35 |", "score": 0.4923, "match_basis": "verbatim_token+domain_route:PP"}, {"md_atom_id": "md_dmPP_ex_a092", "md_file": "knowledge_base/domains/PP/examples.md", "md_atom_type": "TABLE_ROW", "md_parent_section": "§PP [PP — Examples]", "md_verbatim": "| 8 | ABC-123 | PP | ABC-123-0001 | 9 | DY8DRGX | DY8DRGX | DY8DRGX | DY8DRGX | CMAX | Max Conc | DRUG X | 46.0 | ng/mL | 46.0 | 46.0 | ng/mL | PLASMA | 8 | 2001-02-08T08:35 |", "score": 0.4923, "match_basis": "verbatim_token+domain_route:PP"}, {"md_atom_id": "md_dmPP_ex_a085", "md_file": "knowledge_base/domains/PP/examples.md", "md_atom_type": "TABLE_ROW", "md_parent_section": "§PP [PP — Examples]", "md_verbatim": "| 1 | ABC-123 | PP | ABC-123-0001 | 1 | DY1DRGX | DY1DRGX | DY1DRGX_A | TMAX | TMAX | Time of CMAX | DRUG X | 1.87 | h | 1.87 | 1.87 | h | PLASMA | 1 | 2001-02-01T08:35 |", "score": 0.4889, "match_basis": "verbatim_token+domain_route:PP"}, {"md_atom_id": "md_dmPP_ex_a087", "md_file": "knowledge_base/domains/PP/examples.md", "md_atom_type": "TABLE_ROW", "md_parent_section": "§PP [PP — Examples]", "md_verbatim": "| 3 | ABC-123 | PP | ABC-123-0001 | 3 | DY1DRGX | DY1DRGX | DY1DRGX_A | AUC | AUCALL | AUC All | DRUG X | 294.7 | h*ug/mL | 294.7 | 294.7 | h*ug/mL | PLASMA | 1 | 2001-02-01T08:35 |", "score": 0.4889, "match_basis": "verbatim_token+domain_route:PP"}], "candidate_count": 5, "zero_candidate": false}
{"pdf_atom_id": "ig34_p0283_a027", "pdf_atom_type": "TABLE_ROW", "pdf_source": "SDTMIG_v3.4", "pdf_page": 283, "pdf_parent_section": "§6.3.5.9.3 Relating PP Records to PC Records — Example 4", "pdf_verbatim": "| 15 | ABC-123 | PC | ABC-123-0001 | PCSEQ | 3 | | 2 |", "figure_ref": null, "candidates": [{"md_atom_id": "md_dmPP_ex_a095", "md_file": "knowledge_base/domains/PP/examples.md", "md_atom_type": "TABLE_ROW", "md_parent_section": "§PP [PP — Examples]", "md_verbatim": "| 11 | ABC-123 | PP | ABC-123-0001 | 13 | DY8DRGX | DY8DRGX | DY8DRGX | DY8DRGX | VZO | Vz Obs | DRUG X | 10.7 | L | 10.7 | 10.7 | L | PLASMA | 8 | 2001-02-08T08:35 |", "score": 0.5, "match_basis": "verbatim_token+domain_route:PP"}, {"md_atom_id": "md_dmPP_ex_a086", "md_file": "knowledge_base/domains/PP/examples.md", "md_atom_type": "TABLE_ROW", "md_parent_section": "§PP [PP — Examples]", "md_verbatim": "| 2 | ABC-123 | PP | ABC-123-0001 | 2 | DY1DRGX | DY1DRGX | DY1DRGX_A | CMAX | CMAX | Max Conc | DRUG X | 44.5 | ng/mL | 44.5 | 44.5 | ng/mL | PLASMA | 1 | 2001-02-01T08:35 |", "score": 0.4923, "match_basis": "verbatim_token+domain_route:PP"}, {"md_atom_id": "md_dmPP_ex_a092", "md_file": "knowledge_base/domains/PP/examples.md", "md_atom_type": "TABLE_ROW", "md_parent_section": "§PP [PP — Examples]", "md_verbatim": "| 8 | ABC-123 | PP | ABC-123-0001 | 9 | DY8DRGX | DY8DRGX | DY8DRGX | DY8DRGX | CMAX | Max Conc | DRUG X | 46.0 | ng/mL | 46.0 | 46.0 | ng/mL | PLASMA | 8 | 2001-02-08T08:35 |", "score": 0.4923, "match_basis": "verbatim_token+domain_route:PP"}, {"md_atom_id": "md_dmPP_ex_a085", "md_file": "knowledge_base/domains/PP/examples.md", "md_atom_type": "TABLE_ROW", "md_parent_section": "§PP [PP — Examples]", "md_verbatim": "| 1 | ABC-123 | PP | ABC-123-0001 | 1 | DY1DRGX | DY1DRGX | DY1DRGX_A | TMAX | TMAX | Time of CMAX | DRUG X | 1.87 | h | 1.87 | 1.87 | h | PLASMA | 1 | 2001-02-01T08:35 |", "score": 0.4889, "match_basis": "verbatim_token+domain_route:PP"}, {"md_atom_id": "md_dmPP_ex_a087", "md_file": "knowledge_base/domains/PP/examples.md", "md_atom_type": "TABLE_ROW", "md_parent_section": "§PP [PP — Examples]", "md_verbatim": "| 3 | ABC-123 | PP | ABC-123-0001 | 3 | DY1DRGX | DY1DRGX | DY1DRGX_A | AUC | AUCALL | AUC All | DRUG X | 294.7 | h*ug/mL | 294.7 | 294.7 | h*ug/mL | PLASMA | 1 | 2001-02-01T08:35 |", "score": 0.4889, "match_basis": "verbatim_token+domain_route:PP"}], "candidate_count": 5, "zero_candidate": false}
{"pdf_atom_id": "ig34_p0283_a028", "pdf_atom_type": "TABLE_ROW", "pdf_source": "SDTMIG_v3.4", "pdf_page": 283, "pdf_parent_section": "§6.3.5.9.3 Relating PP Records to PC Records — Example 4", "pdf_verbatim": "| 16 | ABC-123 | PC | ABC-123-0001 | PCSEQ | 4 | | 2 |", "figure_ref": null, "candidates": [{"md_atom_id": "md_dmPP_ex_a095", "md_file": "knowledge_base/domains/PP/examples.md", "md_atom_type": "TABLE_ROW", "md_parent_section": "§PP [PP — Examples]", "md_verbatim": "| 11 | ABC-123 | PP | ABC-123-0001 | 13 | DY8DRGX | DY8DRGX | DY8DRGX | DY8DRGX | VZO | Vz Obs | DRUG X | 10.7 | L | 10.7 | 10.7 | L | PLASMA | 8 | 2001-02-08T08:35 |", "score": 0.5, "match_basis": "verbatim_token+domain_route:PP"}, {"md_atom_id": "md_dmPP_ex_a086", "md_file": "knowledge_base/domains/PP/examples.md", "md_atom_type": "TABLE_ROW", "md_parent_section": "§PP [PP — Examples]", "md_verbatim": "| 2 | ABC-123 | PP | ABC-123-0001 | 2 | DY1DRGX | DY1DRGX | DY1DRGX_A | CMAX | CMAX | Max Conc | DRUG X | 44.5 | ng/mL | 44.5 | 44.5 | ng/mL | PLASMA | 1 | 2001-02-01T08:35 |", "score": 0.4923, "match_basis": "verbatim_token+domain_route:PP"}, {"md_atom_id": "md_dmPP_ex_a092", "md_file": "knowledge_base/domains/PP/examples.md", "md_atom_type": "TABLE_ROW", "md_parent_section": "§PP [PP — Examples]", "md_verbatim": "| 8 | ABC-123 | PP | ABC-123-0001 | 9 | DY8DRGX | DY8DRGX | DY8DRGX | DY8DRGX | CMAX | Max Conc | DRUG X | 46.0 | ng/mL | 46.0 | 46.0 | ng/mL | PLASMA | 8 | 2001-02-08T08:35 |", "score": 0.4923, "match_basis": "verbatim_token+domain_route:PP"}, {"md_atom_id": "md_dmPP_ex_a085", "md_file": "knowledge_base/domains/PP/examples.md", "md_atom_type": "TABLE_ROW", "md_parent_section": "§PP [PP — Examples]", "md_verbatim": "| 1 | ABC-123 | PP | ABC-123-0001 | 1 | DY1DRGX | DY1DRGX | DY1DRGX_A | TMAX | TMAX | Time of CMAX | DRUG X | 1.87 | h | 1.87 | 1.87 | h | PLASMA | 1 | 2001-02-01T08:35 |", "score": 0.4889, "match_basis": "verbatim_token+domain_route:PP"}, {"md_atom_id": "md_dmPP_ex_a087", "md_file": "knowledge_base/domains/PP/examples.md", "md_atom_type": "TABLE_ROW", "md_parent_section": "§PP [PP — Examples]", "md_verbatim": "| 3 | ABC-123 | PP | ABC-123-0001 | 3 | DY1DRGX | DY1DRGX | DY1DRGX_A | AUC | AUCALL | AUC All | DRUG X | 294.7 | h*ug/mL | 294.7 | 294.7 | h*ug/mL | PLASMA | 1 | 2001-02-01T08:35 |", "score": 0.4889, "match_basis": "verbatim_token+domain_route:PP"}], "candidate_count": 5, "zero_candidate": false}
{"pdf_atom_id": "ig34_p0283_a029", "pdf_atom_type": "TABLE_ROW", "pdf_source": "SDTMIG_v3.4", "pdf_page": 283, "pdf_parent_section": "§6.3.5.9.3 Relating PP Records to PC Records — Example 4", "pdf_verbatim": "| 17 | ABC-123 | PC | ABC-123-0001 | PCSEQ | 5 | | 2 |", "figure_ref": null, "candidates": [{"md_atom_id": "md_dmPP_ex_a095", "md_file": "knowledge_base/domains/PP/examples.md", "md_atom_type": "TABLE_ROW", "md_parent_section": "§PP [PP — Examples]", "md_verbatim": "| 11 | ABC-123 | PP | ABC-123-0001 | 13 | DY8DRGX | DY8DRGX | DY8DRGX | DY8DRGX | VZO | Vz Obs | DRUG X | 10.7 | L | 10.7 | 10.7 | L | PLASMA | 8 | 2001-02-08T08:35 |", "score": 0.5, "match_basis": "verbatim_token+domain_route:PP"}, {"md_atom_id": "md_dmPP_ex_a086", "md_file": "knowledge_base/domains/PP/examples.md", "md_atom_type": "TABLE_ROW", "md_parent_section": "§PP [PP — Examples]", "md_verbatim": "| 2 | ABC-123 | PP | ABC-123-0001 | 2 | DY1DRGX | DY1DRGX | DY1DRGX_A | CMAX | CMAX | Max Conc | DRUG X | 44.5 | ng/mL | 44.5 | 44.5 | ng/mL | PLASMA | 1 | 2001-02-01T08:35 |", "score": 0.4923, "match_basis": "verbatim_token+domain_route:PP"}, {"md_atom_id": "md_dmPP_ex_a092", "md_file": "knowledge_base/domains/PP/examples.md", "md_atom_type": "TABLE_ROW", "md_parent_section": "§PP [PP — Examples]", "md_verbatim": "| 8 | ABC-123 | PP | ABC-123-0001 | 9 | DY8DRGX | DY8DRGX | DY8DRGX | DY8DRGX | CMAX | Max Conc | DRUG X | 46.0 | ng/mL | 46.0 | 46.0 | ng/mL | PLASMA | 8 | 2001-02-08T08:35 |", "score": 0.4923, "match_basis": "verbatim_token+domain_route:PP"}, {"md_atom_id": "md_dmPP_ex_a085", "md_file": "knowledge_base/domains/PP/examples.md", "md_atom_type": "TABLE_ROW", "md_parent_section": "§PP [PP — Examples]", "md_verbatim": "| 1 | ABC-123 | PP | ABC-123-0001 | 1 | DY1DRGX | DY1DRGX | DY1DRGX_A | TMAX | TMAX | Time of CMAX | DRUG X | 1.87 | h | 1.87 | 1.87 | h | PLASMA | 1 | 2001-02-01T08:35 |", "score": 0.4889, "match_basis": "verbatim_token+domain_route:PP"}, {"md_atom_id": "md_dmPP_ex_a087", "md_file": "knowledge_base/domains/PP/examples.md", "md_atom_type": "TABLE_ROW", "md_parent_section": "§PP [PP — Examples]", "md_verbatim": "| 3 | ABC-123 | PP | ABC-123-0001 | 3 | DY1DRGX | DY1DRGX | DY1DRGX_A | AUC | AUCALL | AUC All | DRUG X | 294.7 | h*ug/mL | 294.7 | 294.7 | h*ug/mL | PLASMA | 1 | 2001-02-01T08:35 |", "score": 0.4889, "match_basis": "verbatim_token+domain_route:PP"}], "candidate_count": 5, "zero_candidate": false}
{"pdf_atom_id": "ig34_p0283_a030", "pdf_atom_type": "TABLE_ROW", "pdf_source": "SDTMIG_v3.4", "pdf_page": 283, "pdf_parent_section": "§6.3.5.9.3 Relating PP Records to PC Records — Example 4", "pdf_verbatim": "| 18 | ABC-123 | PC | ABC-123-0001 | PCSEQ | 7 | | 2 |", "figure_ref": null, "candidates": [{"md_atom_id": "md_dmPP_ex_a095", "md_file": "knowledge_base/domains/PP/examples.md", "md_atom_type": "TABLE_ROW", "md_parent_section": "§PP [PP — Examples]", "md_verbatim": "| 11 | ABC-123 | PP | ABC-123-0001 | 13 | DY8DRGX | DY8DRGX | DY8DRGX | DY8DRGX | VZO | Vz Obs | DRUG X | 10.7 | L | 10.7 | 10.7 | L | PLASMA | 8 | 2001-02-08T08:35 |", "score": 0.5, "match_basis": "verbatim_token+domain_route:PP"}, {"md_atom_id": "md_dmPP_ex_a086", "md_file": "knowledge_base/domains/PP/examples.md", "md_atom_type": "TABLE_ROW", "md_parent_section": "§PP [PP — Examples]", "md_verbatim": "| 2 | ABC-123 | PP | ABC-123-0001 | 2 | DY1DRGX | DY1DRGX | DY1DRGX_A | CMAX | CMAX | Max Conc | DRUG X | 44.5 | ng/mL | 44.5 | 44.5 | ng/mL | PLASMA | 1 | 2001-02-01T08:35 |", "score": 0.4923, "match_basis": "verbatim_token+domain_route:PP"}, {"md_atom_id": "md_dmPP_ex_a092", "md_file": "knowledge_base/domains/PP/examples.md", "md_atom_type": "TABLE_ROW", "md_parent_section": "§PP [PP — Examples]", "md_verbatim": "| 8 | ABC-123 | PP | ABC-123-0001 | 9 | DY8DRGX | DY8DRGX | DY8DRGX | DY8DRGX | CMAX | Max Conc | DRUG X | 46.0 | ng/mL | 46.0 | 46.0 | ng/mL | PLASMA | 8 | 2001-02-08T08:35 |", "score": 0.4923, "match_basis": "verbatim_token+domain_route:PP"}, {"md_atom_id": "md_dmPP_ex_a085", "md_file": "knowledge_base/domains/PP/examples.md", "md_atom_type": "TABLE_ROW", "md_parent_section": "§PP [PP — Examples]", "md_verbatim": "| 1 | ABC-123 | PP | ABC-123-0001 | 1 | DY1DRGX | DY1DRGX | DY1DRGX_A | TMAX | TMAX | Time of CMAX | DRUG X | 1.87 | h | 1.87 | 1.87 | h | PLASMA | 1 | 2001-02-01T08:35 |", "score": 0.4889, "match_basis": "verbatim_token+domain_route:PP"}, {"md_atom_id": "md_dmPP_ex_a087", "md_file": "knowledge_base/domains/PP/examples.md", "md_atom_type": "TABLE_ROW", "md_parent_section": "§PP [PP — Examples]", "md_verbatim": "| 3 | ABC-123 | PP | ABC-123-0001 | 3 | DY1DRGX | DY1DRGX | DY1DRGX_A | AUC | AUCALL | AUC All | DRUG X | 294.7 | h*ug/mL | 294.7 | 294.7 | h*ug/mL | PLASMA | 1 | 2001-02-01T08:35 |", "score": 0.4889, "match_basis": "verbatim_token+domain_route:PP"}], "candidate_count": 5, "zero_candidate": false}
{"pdf_atom_id": "ig34_p0283_a031", "pdf_atom_type": "TABLE_ROW", "pdf_source": "SDTMIG_v3.4", "pdf_page": 283, "pdf_parent_section": "§6.3.5.9.3 Relating PP Records to PC Records — Example 4", "pdf_verbatim": "| 19 | ABC-123 | PC | ABC-123-0001 | PCSEQ | 8 | | 2 |", "figure_ref": null, "candidates": [{"md_atom_id": "md_dmPP_ex_a095", "md_file": "knowledge_base/domains/PP/examples.md", "md_atom_type": "TABLE_ROW", "md_parent_section": "§PP [PP — Examples]", "md_verbatim": "| 11 | ABC-123 | PP | ABC-123-0001 | 13 | DY8DRGX | DY8DRGX | DY8DRGX | DY8DRGX | VZO | Vz Obs | DRUG X | 10.7 | L | 10.7 | 10.7 | L | PLASMA | 8 | 2001-02-08T08:35 |", "score": 0.5, "match_basis": "verbatim_token+domain_route:PP"}, {"md_atom_id": "md_dmPP_ex_a086", "md_file": "knowledge_base/domains/PP/examples.md", "md_atom_type": "TABLE_ROW", "md_parent_section": "§PP [PP — Examples]", "md_verbatim": "| 2 | ABC-123 | PP | ABC-123-0001 | 2 | DY1DRGX | DY1DRGX | DY1DRGX_A | CMAX | CMAX | Max Conc | DRUG X | 44.5 | ng/mL | 44.5 | 44.5 | ng/mL | PLASMA | 1 | 2001-02-01T08:35 |", "score": 0.4923, "match_basis": "verbatim_token+domain_route:PP"}, {"md_atom_id": "md_dmPP_ex_a092", "md_file": "knowledge_base/domains/PP/examples.md", "md_atom_type": "TABLE_ROW", "md_parent_section": "§PP [PP — Examples]", "md_verbatim": "| 8 | ABC-123 | PP | ABC-123-0001 | 9 | DY8DRGX | DY8DRGX | DY8DRGX | DY8DRGX | CMAX | Max Conc | DRUG X | 46.0 | ng/mL | 46.0 | 46.0 | ng/mL | PLASMA | 8 | 2001-02-08T08:35 |", "score": 0.4923, "match_basis": "verbatim_token+domain_route:PP"}, {"md_atom_id": "md_dmPP_ex_a085", "md_file": "knowledge_base/domains/PP/examples.md", "md_atom_type": "TABLE_ROW", "md_parent_section": "§PP [PP — Examples]", "md_verbatim": "| 1 | ABC-123 | PP | ABC-123-0001 | 1 | DY1DRGX | DY1DRGX | DY1DRGX_A | TMAX | TMAX | Time of CMAX | DRUG X | 1.87 | h | 1.87 | 1.87 | h | PLASMA | 1 | 2001-02-01T08:35 |", "score": 0.4889, "match_basis": "verbatim_token+domain_route:PP"}, {"md_atom_id": "md_dmPP_ex_a087", "md_file": "knowledge_base/domains/PP/examples.md", "md_atom_type": "TABLE_ROW", "md_parent_section": "§PP [PP — Examples]", "md_verbatim": "| 3 | ABC-123 | PP | ABC-123-0001 | 3 | DY1DRGX | DY1DRGX | DY1DRGX_A | AUC | AUCALL | AUC All | DRUG X | 294.7 | h*ug/mL | 294.7 | 294.7 | h*ug/mL | PLASMA | 1 | 2001-02-01T08:35 |", "score": 0.4889, "match_basis": "verbatim_token+domain_route:PP"}], "candidate_count": 5, "zero_candidate": false}
{"pdf_atom_id": "ig34_p0283_a032", "pdf_atom_type": "TABLE_ROW", "pdf_source": "SDTMIG_v3.4", "pdf_page": 283, "pdf_parent_section": "§6.3.5.9.3 Relating PP Records to PC Records — Example 4", "pdf_verbatim": "| 20 | ABC-123 | PC | ABC-123-0001 | PCSEQ | 9 | | 2 |", "figure_ref": null, "candidates": [{"md_atom_id": "md_dmPP_ex_a095", "md_file": "knowledge_base/domains/PP/examples.md", "md_atom_type": "TABLE_ROW", "md_parent_section": "§PP [PP — Examples]", "md_verbatim": "| 11 | ABC-123 | PP | ABC-123-0001 | 13 | DY8DRGX | DY8DRGX | DY8DRGX | DY8DRGX | VZO | Vz Obs | DRUG X | 10.7 | L | 10.7 | 10.7 | L | PLASMA | 8 | 2001-02-08T08:35 |", "score": 0.5, "match_basis": "verbatim_token+domain_route:PP"}, {"md_atom_id": "md_dmPP_ex_a086", "md_file": "knowledge_base/domains/PP/examples.md", "md_atom_type": "TABLE_ROW", "md_parent_section": "§PP [PP — Examples]", "md_verbatim": "| 2 | ABC-123 | PP | ABC-123-0001 | 2 | DY1DRGX | DY1DRGX | DY1DRGX_A | CMAX | CMAX | Max Conc | DRUG X | 44.5 | ng/mL | 44.5 | 44.5 | ng/mL | PLASMA | 1 | 2001-02-01T08:35 |", "score": 0.4923, "match_basis": "verbatim_token+domain_route:PP"}, {"md_atom_id": "md_dmPP_ex_a092", "md_file": "knowledge_base/domains/PP/examples.md", "md_atom_type": "TABLE_ROW", "md_parent_section": "§PP [PP — Examples]", "md_verbatim": "| 8 | ABC-123 | PP | ABC-123-0001 | 9 | DY8DRGX | DY8DRGX | DY8DRGX | DY8DRGX | CMAX | Max Conc | DRUG X | 46.0 | ng/mL | 46.0 | 46.0 | ng/mL | PLASMA | 8 | 2001-02-08T08:35 |", "score": 0.4923, "match_basis": "verbatim_token+domain_route:PP"}, {"md_atom_id": "md_dmPP_ex_a085", "md_file": "knowledge_base/domains/PP/examples.md", "md_atom_type": "TABLE_ROW", "md_parent_section": "§PP [PP — Examples]", "md_verbatim": "| 1 | ABC-123 | PP | ABC-123-0001 | 1 | DY1DRGX | DY1DRGX | DY1DRGX_A | TMAX | TMAX | Time of CMAX | DRUG X | 1.87 | h | 1.87 | 1.87 | h | PLASMA | 1 | 2001-02-01T08:35 |", "score": 0.4889, "match_basis": "verbatim_token+domain_route:PP"}, {"md_atom_id": "md_dmPP_ex_a087", "md_file": "knowledge_base/domains/PP/examples.md", "md_atom_type": "TABLE_ROW", "md_parent_section": "§PP [PP — Examples]", "md_verbatim": "| 3 | ABC-123 | PP | ABC-123-0001 | 3 | DY1DRGX | DY1DRGX | DY1DRGX_A | AUC | AUCALL | AUC All | DRUG X | 294.7 | h*ug/mL | 294.7 | 294.7 | h*ug/mL | PLASMA | 1 | 2001-02-01T08:35 |", "score": 0.4889, "match_basis": "verbatim_token+domain_route:PP"}], "candidate_count": 5, "zero_candidate": false}
{"pdf_atom_id": "ig34_p0283_a033", "pdf_atom_type": "TABLE_ROW", "pdf_source": "SDTMIG_v3.4", "pdf_page": 283, "pdf_parent_section": "§6.3.5.9.3 Relating PP Records to PC Records — Example 4", "pdf_verbatim": "| 21 | ABC-123 | PC | ABC-123-0001 | PCSEQ | 10 | | 2 |", "figure_ref": null, "candidates": [{"md_atom_id": "md_dmPP_ex_a095", "md_file": "knowledge_base/domains/PP/examples.md", "md_atom_type": "TABLE_ROW", "md_parent_section": "§PP [PP — Examples]", "md_verbatim": "| 11 | ABC-123 | PP | ABC-123-0001 | 13 | DY8DRGX | DY8DRGX | DY8DRGX | DY8DRGX | VZO | Vz Obs | DRUG X | 10.7 | L | 10.7 | 10.7 | L | PLASMA | 8 | 2001-02-08T08:35 |", "score": 0.5, "match_basis": "verbatim_token+domain_route:PP"}, {"md_atom_id": "md_dmPP_ex_a086", "md_file": "knowledge_base/domains/PP/examples.md", "md_atom_type": "TABLE_ROW", "md_parent_section": "§PP [PP — Examples]", "md_verbatim": "| 2 | ABC-123 | PP | ABC-123-0001 | 2 | DY1DRGX | DY1DRGX | DY1DRGX_A | CMAX | CMAX | Max Conc | DRUG X | 44.5 | ng/mL | 44.5 | 44.5 | ng/mL | PLASMA | 1 | 2001-02-01T08:35 |", "score": 0.4923, "match_basis": "verbatim_token+domain_route:PP"}, {"md_atom_id": "md_dmPP_ex_a092", "md_file": "knowledge_base/domains/PP/examples.md", "md_atom_type": "TABLE_ROW", "md_parent_section": "§PP [PP — Examples]", "md_verbatim": "| 8 | ABC-123 | PP | ABC-123-0001 | 9 | DY8DRGX | DY8DRGX | DY8DRGX | DY8DRGX | CMAX | Max Conc | DRUG X | 46.0 | ng/mL | 46.0 | 46.0 | ng/mL | PLASMA | 8 | 2001-02-08T08:35 |", "score": 0.4923, "match_basis": "verbatim_token+domain_route:PP"}, {"md_atom_id": "md_dmPP_ex_a085", "md_file": "knowledge_base/domains/PP/examples.md", "md_atom_type": "TABLE_ROW", "md_parent_section": "§PP [PP — Examples]", "md_verbatim": "| 1 | ABC-123 | PP | ABC-123-0001 | 1 | DY1DRGX | DY1DRGX | DY1DRGX_A | TMAX | TMAX | Time of CMAX | DRUG X | 1.87 | h | 1.87 | 1.87 | h | PLASMA | 1 | 2001-02-01T08:35 |", "score": 0.4889, "match_basis": "verbatim_token+domain_route:PP"}, {"md_atom_id": "md_dmPP_ex_a087", "md_file": "knowledge_base/domains/PP/examples.md", "md_atom_type": "TABLE_ROW", "md_parent_section": "§PP [PP — Examples]", "md_verbatim": "| 3 | ABC-123 | PP | ABC-123-0001 | 3 | DY1DRGX | DY1DRGX | DY1DRGX_A | AUC | AUCALL | AUC All | DRUG X | 294.7 | h*ug/mL | 294.7 | 294.7 | h*ug/mL | PLASMA | 1 | 2001-02-01T08:35 |", "score": 0.4889, "match_basis": "verbatim_token+domain_route:PP"}], "candidate_count": 5, "zero_candidate": false}
{"pdf_atom_id": "ig34_p0283_a034", "pdf_atom_type": "TABLE_ROW", "pdf_source": "SDTMIG_v3.4", "pdf_page": 283, "pdf_parent_section": "§6.3.5.9.3 Relating PP Records to PC Records — Example 4", "pdf_verbatim": "| 22 | ABC-123 | PC | ABC-123-0001 | PCSEQ | 11 | | 2 |", "figure_ref": null, "candidates": [{"md_atom_id": "md_dmPP_ex_a095", "md_file": "knowledge_base/domains/PP/examples.md", "md_atom_type": "TABLE_ROW", "md_parent_section": "§PP [PP — Examples]", "md_verbatim": "| 11 | ABC-123 | PP | ABC-123-0001 | 13 | DY8DRGX | DY8DRGX | DY8DRGX | DY8DRGX | VZO | Vz Obs | DRUG X | 10.7 | L | 10.7 | 10.7 | L | PLASMA | 8 | 2001-02-08T08:35 |", "score": 0.5, "match_basis": "verbatim_token+domain_route:PP"}, {"md_atom_id": "md_dmPP_ex_a086", "md_file": "knowledge_base/domains/PP/examples.md", "md_atom_type": "TABLE_ROW", "md_parent_section": "§PP [PP — Examples]", "md_verbatim": "| 2 | ABC-123 | PP | ABC-123-0001 | 2 | DY1DRGX | DY1DRGX | DY1DRGX_A | CMAX | CMAX | Max Conc | DRUG X | 44.5 | ng/mL | 44.5 | 44.5 | ng/mL | PLASMA | 1 | 2001-02-01T08:35 |", "score": 0.4923, "match_basis": "verbatim_token+domain_route:PP"}, {"md_atom_id": "md_dmPP_ex_a092", "md_file": "knowledge_base/domains/PP/examples.md", "md_atom_type": "TABLE_ROW", "md_parent_section": "§PP [PP — Examples]", "md_verbatim": "| 8 | ABC-123 | PP | ABC-123-0001 | 9 | DY8DRGX | DY8DRGX | DY8DRGX | DY8DRGX | CMAX | Max Conc | DRUG X | 46.0 | ng/mL | 46.0 | 46.0 | ng/mL | PLASMA | 8 | 2001-02-08T08:35 |", "score": 0.4923, "match_basis": "verbatim_token+domain_route:PP"}, {"md_atom_id": "md_dmPP_ex_a085", "md_file": "knowledge_base/domains/PP/examples.md", "md_atom_type": "TABLE_ROW", "md_parent_section": "§PP [PP — Examples]", "md_verbatim": "| 1 | ABC-123 | PP | ABC-123-0001 | 1 | DY1DRGX | DY1DRGX | DY1DRGX_A | TMAX | TMAX | Time of CMAX | DRUG X | 1.87 | h | 1.87 | 1.87 | h | PLASMA | 1 | 2001-02-01T08:35 |", "score": 0.4889, "match_basis": "verbatim_token+domain_route:PP"}, {"md_atom_id": "md_dmPP_ex_a087", "md_file": "knowledge_base/domains/PP/examples.md", "md_atom_type": "TABLE_ROW", "md_parent_section": "§PP [PP — Examples]", "md_verbatim": "| 3 | ABC-123 | PP | ABC-123-0001 | 3 | DY1DRGX | DY1DRGX | DY1DRGX_A | AUC | AUCALL | AUC All | DRUG X | 294.7 | h*ug/mL | 294.7 | 294.7 | h*ug/mL | PLASMA | 1 | 2001-02-01T08:35 |", "score": 0.4889, "match_basis": "verbatim_token+domain_route:PP"}], "candidate_count": 5, "zero_candidate": false}
{"pdf_atom_id": "ig34_p0283_a035", "pdf_atom_type": "TABLE_ROW", "pdf_source": "SDTMIG_v3.4", "pdf_page": 283, "pdf_parent_section": "§6.3.5.9.3 Relating PP Records to PC Records — Example 4", "pdf_verbatim": "| 23 | ABC-123 | PC | ABC-123-0001 | PCSEQ | 12 | | 2 |", "figure_ref": null, "candidates": [{"md_atom_id": "md_dmPP_ex_a095", "md_file": "knowledge_base/domains/PP/examples.md", "md_atom_type": "TABLE_ROW", "md_parent_section": "§PP [PP — Examples]", "md_verbatim": "| 11 | ABC-123 | PP | ABC-123-0001 | 13 | DY8DRGX | DY8DRGX | DY8DRGX | DY8DRGX | VZO | Vz Obs | DRUG X | 10.7 | L | 10.7 | 10.7 | L | PLASMA | 8 | 2001-02-08T08:35 |", "score": 0.5, "match_basis": "verbatim_token+domain_route:PP"}, {"md_atom_id": "md_dmPP_ex_a086", "md_file": "knowledge_base/domains/PP/examples.md", "md_atom_type": "TABLE_ROW", "md_parent_section": "§PP [PP — Examples]", "md_verbatim": "| 2 | ABC-123 | PP | ABC-123-0001 | 2 | DY1DRGX | DY1DRGX | DY1DRGX_A | CMAX | CMAX | Max Conc | DRUG X | 44.5 | ng/mL | 44.5 | 44.5 | ng/mL | PLASMA | 1 | 2001-02-01T08:35 |", "score": 0.4923, "match_basis": "verbatim_token+domain_route:PP"}, {"md_atom_id": "md_dmPP_ex_a092", "md_file": "knowledge_base/domains/PP/examples.md", "md_atom_type": "TABLE_ROW", "md_parent_section": "§PP [PP — Examples]", "md_verbatim": "| 8 | ABC-123 | PP | ABC-123-0001 | 9 | DY8DRGX | DY8DRGX | DY8DRGX | DY8DRGX | CMAX | Max Conc | DRUG X | 46.0 | ng/mL | 46.0 | 46.0 | ng/mL | PLASMA | 8 | 2001-02-08T08:35 |", "score": 0.4923, "match_basis": "verbatim_token+domain_route:PP"}, {"md_atom_id": "md_dmPP_ex_a085", "md_file": "knowledge_base/domains/PP/examples.md", "md_atom_type": "TABLE_ROW", "md_parent_section": "§PP [PP — Examples]", "md_verbatim": "| 1 | ABC-123 | PP | ABC-123-0001 | 1 | DY1DRGX | DY1DRGX | DY1DRGX_A | TMAX | TMAX | Time of CMAX | DRUG X | 1.87 | h | 1.87 | 1.87 | h | PLASMA | 1 | 2001-02-01T08:35 |", "score": 0.4889, "match_basis": "verbatim_token+domain_route:PP"}, {"md_atom_id": "md_dmPP_ex_a087", "md_file": "knowledge_base/domains/PP/examples.md", "md_atom_type": "TABLE_ROW", "md_parent_section": "§PP [PP — Examples]", "md_verbatim": "| 3 | ABC-123 | PP | ABC-123-0001 | 3 | DY1DRGX | DY1DRGX | DY1DRGX_A | AUC | AUCALL | AUC All | DRUG X | 294.7 | h*ug/mL | 294.7 | 294.7 | h*ug/mL | PLASMA | 1 | 2001-02-01T08:35 |", "score": 0.4889, "match_basis": "verbatim_token+domain_route:PP"}], "candidate_count": 5, "zero_candidate": false}
{"pdf_atom_id": "ig34_p0283_a036", "pdf_atom_type": "TABLE_ROW", "pdf_source": "SDTMIG_v3.4", "pdf_page": 283, "pdf_parent_section": "§6.3.5.9.3 Relating PP Records to PC Records — Example 4", "pdf_verbatim": "| 24 | ABC-123 | PP | ABC-123-0001 | PPSEQ | 2 | | 2 |", "figure_ref": null, "candidates": [{"md_atom_id": "md_dmPP_ex_a043", "md_file": "knowledge_base/domains/PP/examples.md", "md_atom_type": "TABLE_ROW", "md_parent_section": "§PP.1 [Example 1]", "md_verbatim": "| 7 | ABC-123 | PP | 123-1001 | PPSEQ | 7 | PKCOND | Condition of PK Analysis | SINGLE DOSE | Collected | |", "score": 0.5, "match_basis": "verbatim_token+domain_route:PP"}, {"md_atom_id": "md_dmPP_ex_a095", "md_file": "knowledge_base/domains/PP/examples.md", "md_atom_type": "TABLE_ROW", "md_parent_section": "§PP [PP — Examples]", "md_verbatim": "| 11 | ABC-123 | PP | ABC-123-0001 | 13 | DY8DRGX | DY8DRGX | DY8DRGX | DY8DRGX | VZO | Vz Obs | DRUG X | 10.7 | L | 10.7 | 10.7 | L | PLASMA | 8 | 2001-02-08T08:35 |", "score": 0.5, "match_basis": "verbatim_token+domain_route:PP"}, {"md_atom_id": "md_dmPP_ex_a086", "md_file": "knowledge_base/domains/PP/examples.md", "md_atom_type": "TABLE_ROW", "md_parent_section": "§PP [PP — Examples]", "md_verbatim": "| 2 | ABC-123 | PP | ABC-123-0001 | 2 | DY1DRGX | DY1DRGX | DY1DRGX_A | CMAX | CMAX | Max Conc | DRUG X | 44.5 | ng/mL | 44.5 | 44.5 | ng/mL | PLASMA | 1 | 2001-02-01T08:35 |", "score": 0.4923, "match_basis": "verbatim_token+domain_route:PP"}, {"md_atom_id": "md_dmPP_ex_a092", "md_file": "knowledge_base/domains/PP/examples.md", "md_atom_type": "TABLE_ROW", "md_parent_section": "§PP [PP — Examples]", "md_verbatim": "| 8 | ABC-123 | PP | ABC-123-0001 | 9 | DY8DRGX | DY8DRGX | DY8DRGX | DY8DRGX | CMAX | Max Conc | DRUG X | 46.0 | ng/mL | 46.0 | 46.0 | ng/mL | PLASMA | 8 | 2001-02-08T08:35 |", "score": 0.4923, "match_basis": "verbatim_token+domain_route:PP"}, {"md_atom_id": "md_dmPP_ex_a085", "md_file": "knowledge_base/domains/PP/examples.md", "md_atom_type": "TABLE_ROW", "md_parent_section": "§PP [PP — Examples]", "md_verbatim": "| 1 | ABC-123 | PP | ABC-123-0001 | 1 | DY1DRGX | DY1DRGX | DY1DRGX_A | TMAX | TMAX | Time of CMAX | DRUG X | 1.87 | h | 1.87 | 1.87 | h | PLASMA | 1 | 2001-02-01T08:35 |", "score": 0.4889, "match_basis": "verbatim_token+domain_route:PP"}], "candidate_count": 5, "zero_candidate": false}
{"pdf_atom_id": "ig34_p0283_a037", "pdf_atom_type": "TABLE_ROW", "pdf_source": "SDTMIG_v3.4", "pdf_page": 283, "pdf_parent_section": "§6.3.5.9.3 Relating PP Records to PC Records — Example 4", "pdf_verbatim": "| 25 | ABC-123 | PC | ABC-123-0001 | PCSEQ | 1 | | 3 |", "figure_ref": null, "candidates": [{"md_atom_id": "md_dmPP_ex_a095", "md_file": "knowledge_base/domains/PP/examples.md", "md_atom_type": "TABLE_ROW", "md_parent_section": "§PP [PP — Examples]", "md_verbatim": "| 11 | ABC-123 | PP | ABC-123-0001 | 13 | DY8DRGX | DY8DRGX | DY8DRGX | DY8DRGX | VZO | Vz Obs | DRUG X | 10.7 | L | 10.7 | 10.7 | L | PLASMA | 8 | 2001-02-08T08:35 |", "score": 0.5, "match_basis": "verbatim_token+domain_route:PP"}, {"md_atom_id": "md_dmPP_ex_a086", "md_file": "knowledge_base/domains/PP/examples.md", "md_atom_type": "TABLE_ROW", "md_parent_section": "§PP [PP — Examples]", "md_verbatim": "| 2 | ABC-123 | PP | ABC-123-0001 | 2 | DY1DRGX | DY1DRGX | DY1DRGX_A | CMAX | CMAX | Max Conc | DRUG X | 44.5 | ng/mL | 44.5 | 44.5 | ng/mL | PLASMA | 1 | 2001-02-01T08:35 |", "score": 0.4923, "match_basis": "verbatim_token+domain_route:PP"}, {"md_atom_id": "md_dmPP_ex_a092", "md_file": "knowledge_base/domains/PP/examples.md", "md_atom_type": "TABLE_ROW", "md_parent_section": "§PP [PP — Examples]", "md_verbatim": "| 8 | ABC-123 | PP | ABC-123-0001 | 9 | DY8DRGX | DY8DRGX | DY8DRGX | DY8DRGX | CMAX | Max Conc | DRUG X | 46.0 | ng/mL | 46.0 | 46.0 | ng/mL | PLASMA | 8 | 2001-02-08T08:35 |", "score": 0.4923, "match_basis": "verbatim_token+domain_route:PP"}, {"md_atom_id": "md_dmPP_ex_a085", "md_file": "knowledge_base/domains/PP/examples.md", "md_atom_type": "TABLE_ROW", "md_parent_section": "§PP [PP — Examples]", "md_verbatim": "| 1 | ABC-123 | PP | ABC-123-0001 | 1 | DY1DRGX | DY1DRGX | DY1DRGX_A | TMAX | TMAX | Time of CMAX | DRUG X | 1.87 | h | 1.87 | 1.87 | h | PLASMA | 1 | 2001-02-01T08:35 |", "score": 0.4889, "match_basis": "verbatim_token+domain_route:PP"}, {"md_atom_id": "md_dmPP_ex_a087", "md_file": "knowledge_base/domains/PP/examples.md", "md_atom_type": "TABLE_ROW", "md_parent_section": "§PP [PP — Examples]", "md_verbatim": "| 3 | ABC-123 | PP | ABC-123-0001 | 3 | DY1DRGX | DY1DRGX | DY1DRGX_A | AUC | AUCALL | AUC All | DRUG X | 294.7 | h*ug/mL | 294.7 | 294.7 | h*ug/mL | PLASMA | 1 | 2001-02-01T08:35 |", "score": 0.4889, "match_basis": "verbatim_token+domain_route:PP"}], "candidate_count": 5, "zero_candidate": false}
{"pdf_atom_id": "ig34_p0283_a038", "pdf_atom_type": "TABLE_ROW", "pdf_source": "SDTMIG_v3.4", "pdf_page": 283, "pdf_parent_section": "§6.3.5.9.3 Relating PP Records to PC Records — Example 4", "pdf_verbatim": "| 26 | ABC-123 | PC | ABC-123-0001 | PCSEQ | 2 | | 3 |", "figure_ref": null, "candidates": [{"md_atom_id": "md_dmPP_ex_a095", "md_file": "knowledge_base/domains/PP/examples.md", "md_atom_type": "TABLE_ROW", "md_parent_section": "§PP [PP — Examples]", "md_verbatim": "| 11 | ABC-123 | PP | ABC-123-0001 | 13 | DY8DRGX | DY8DRGX | DY8DRGX | DY8DRGX | VZO | Vz Obs | DRUG X | 10.7 | L | 10.7 | 10.7 | L | PLASMA | 8 | 2001-02-08T08:35 |", "score": 0.5, "match_basis": "verbatim_token+domain_route:PP"}, {"md_atom_id": "md_dmPP_ex_a086", "md_file": "knowledge_base/domains/PP/examples.md", "md_atom_type": "TABLE_ROW", "md_parent_section": "§PP [PP — Examples]", "md_verbatim": "| 2 | ABC-123 | PP | ABC-123-0001 | 2 | DY1DRGX | DY1DRGX | DY1DRGX_A | CMAX | CMAX | Max Conc | DRUG X | 44.5 | ng/mL | 44.5 | 44.5 | ng/mL | PLASMA | 1 | 2001-02-01T08:35 |", "score": 0.4923, "match_basis": "verbatim_token+domain_route:PP"}, {"md_atom_id": "md_dmPP_ex_a092", "md_file": "knowledge_base/domains/PP/examples.md", "md_atom_type": "TABLE_ROW", "md_parent_section": "§PP [PP — Examples]", "md_verbatim": "| 8 | ABC-123 | PP | ABC-123-0001 | 9 | DY8DRGX | DY8DRGX | DY8DRGX | DY8DRGX | CMAX | Max Conc | DRUG X | 46.0 | ng/mL | 46.0 | 46.0 | ng/mL | PLASMA | 8 | 2001-02-08T08:35 |", "score": 0.4923, "match_basis": "verbatim_token+domain_route:PP"}, {"md_atom_id": "md_dmPP_ex_a085", "md_file": "knowledge_base/domains/PP/examples.md", "md_atom_type": "TABLE_ROW", "md_parent_section": "§PP [PP — Examples]", "md_verbatim": "| 1 | ABC-123 | PP | ABC-123-0001 | 1 | DY1DRGX | DY1DRGX | DY1DRGX_A | TMAX | TMAX | Time of CMAX | DRUG X | 1.87 | h | 1.87 | 1.87 | h | PLASMA | 1 | 2001-02-01T08:35 |", "score": 0.4889, "match_basis": "verbatim_token+domain_route:PP"}, {"md_atom_id": "md_dmPP_ex_a087", "md_file": "knowledge_base/domains/PP/examples.md", "md_atom_type": "TABLE_ROW", "md_parent_section": "§PP [PP — Examples]", "md_verbatim": "| 3 | ABC-123 | PP | ABC-123-0001 | 3 | DY1DRGX | DY1DRGX | DY1DRGX_A | AUC | AUCALL | AUC All | DRUG X | 294.7 | h*ug/mL | 294.7 | 294.7 | h*ug/mL | PLASMA | 1 | 2001-02-01T08:35 |", "score": 0.4889, "match_basis": "verbatim_token+domain_route:PP"}], "candidate_count": 5, "zero_candidate": false}
{"pdf_atom_id": "ig34_p0283_a039", "pdf_atom_type": "TABLE_ROW", "pdf_source": "SDTMIG_v3.4", "pdf_page": 283, "pdf_parent_section": "§6.3.5.9.3 Relating PP Records to PC Records — Example 4", "pdf_verbatim": "| 27 | ABC-123 | PC | ABC-123-0001 | PCSEQ | 3 | | 3 |", "figure_ref": null, "candidates": [{"md_atom_id": "md_dmPP_ex_a095", "md_file": "knowledge_base/domains/PP/examples.md", "md_atom_type": "TABLE_ROW", "md_parent_section": "§PP [PP — Examples]", "md_verbatim": "| 11 | ABC-123 | PP | ABC-123-0001 | 13 | DY8DRGX | DY8DRGX | DY8DRGX | DY8DRGX | VZO | Vz Obs | DRUG X | 10.7 | L | 10.7 | 10.7 | L | PLASMA | 8 | 2001-02-08T08:35 |", "score": 0.5, "match_basis": "verbatim_token+domain_route:PP"}, {"md_atom_id": "md_dmPP_ex_a086", "md_file": "knowledge_base/domains/PP/examples.md", "md_atom_type": "TABLE_ROW", "md_parent_section": "§PP [PP — Examples]", "md_verbatim": "| 2 | ABC-123 | PP | ABC-123-0001 | 2 | DY1DRGX | DY1DRGX | DY1DRGX_A | CMAX | CMAX | Max Conc | DRUG X | 44.5 | ng/mL | 44.5 | 44.5 | ng/mL | PLASMA | 1 | 2001-02-01T08:35 |", "score": 0.4923, "match_basis": "verbatim_token+domain_route:PP"}, {"md_atom_id": "md_dmPP_ex_a092", "md_file": "knowledge_base/domains/PP/examples.md", "md_atom_type": "TABLE_ROW", "md_parent_section": "§PP [PP — Examples]", "md_verbatim": "| 8 | ABC-123 | PP | ABC-123-0001 | 9 | DY8DRGX | DY8DRGX | DY8DRGX | DY8DRGX | CMAX | Max Conc | DRUG X | 46.0 | ng/mL | 46.0 | 46.0 | ng/mL | PLASMA | 8 | 2001-02-08T08:35 |", "score": 0.4923, "match_basis": "verbatim_token+domain_route:PP"}, {"md_atom_id": "md_dmPP_ex_a085", "md_file": "knowledge_base/domains/PP/examples.md", "md_atom_type": "TABLE_ROW", "md_parent_section": "§PP [PP — Examples]", "md_verbatim": "| 1 | ABC-123 | PP | ABC-123-0001 | 1 | DY1DRGX | DY1DRGX | DY1DRGX_A | TMAX | TMAX | Time of CMAX | DRUG X | 1.87 | h | 1.87 | 1.87 | h | PLASMA | 1 | 2001-02-01T08:35 |", "score": 0.4889, "match_basis": "verbatim_token+domain_route:PP"}, {"md_atom_id": "md_dmPP_ex_a087", "md_file": "knowledge_base/domains/PP/examples.md", "md_atom_type": "TABLE_ROW", "md_parent_section": "§PP [PP — Examples]", "md_verbatim": "| 3 | ABC-123 | PP | ABC-123-0001 | 3 | DY1DRGX | DY1DRGX | DY1DRGX_A | AUC | AUCALL | AUC All | DRUG X | 294.7 | h*ug/mL | 294.7 | 294.7 | h*ug/mL | PLASMA | 1 | 2001-02-01T08:35 |", "score": 0.4889, "match_basis": "verbatim_token+domain_route:PP"}], "candidate_count": 5, "zero_candidate": false}
{"pdf_atom_id": "ig34_p0283_a040", "pdf_atom_type": "TABLE_ROW", "pdf_source": "SDTMIG_v3.4", "pdf_page": 283, "pdf_parent_section": "§6.3.5.9.3 Relating PP Records to PC Records — Example 4", "pdf_verbatim": "| 28 | ABC-123 | PC | ABC-123-0001 | PCSEQ | 4 | | 3 |", "figure_ref": null, "candidates": [{"md_atom_id": "md_dmPP_ex_a095", "md_file": "knowledge_base/domains/PP/examples.md", "md_atom_type": "TABLE_ROW", "md_parent_section": "§PP [PP — Examples]", "md_verbatim": "| 11 | ABC-123 | PP | ABC-123-0001 | 13 | DY8DRGX | DY8DRGX | DY8DRGX | DY8DRGX | VZO | Vz Obs | DRUG X | 10.7 | L | 10.7 | 10.7 | L | PLASMA | 8 | 2001-02-08T08:35 |", "score": 0.5, "match_basis": "verbatim_token+domain_route:PP"}, {"md_atom_id": "md_dmPP_ex_a086", "md_file": "knowledge_base/domains/PP/examples.md", "md_atom_type": "TABLE_ROW", "md_parent_section": "§PP [PP — Examples]", "md_verbatim": "| 2 | ABC-123 | PP | ABC-123-0001 | 2 | DY1DRGX | DY1DRGX | DY1DRGX_A | CMAX | CMAX | Max Conc | DRUG X | 44.5 | ng/mL | 44.5 | 44.5 | ng/mL | PLASMA | 1 | 2001-02-01T08:35 |", "score": 0.4923, "match_basis": "verbatim_token+domain_route:PP"}, {"md_atom_id": "md_dmPP_ex_a092", "md_file": "knowledge_base/domains/PP/examples.md", "md_atom_type": "TABLE_ROW", "md_parent_section": "§PP [PP — Examples]", "md_verbatim": "| 8 | ABC-123 | PP | ABC-123-0001 | 9 | DY8DRGX | DY8DRGX | DY8DRGX | DY8DRGX | CMAX | Max Conc | DRUG X | 46.0 | ng/mL | 46.0 | 46.0 | ng/mL | PLASMA | 8 | 2001-02-08T08:35 |", "score": 0.4923, "match_basis": "verbatim_token+domain_route:PP"}, {"md_atom_id": "md_dmPP_ex_a085", "md_file": "knowledge_base/domains/PP/examples.md", "md_atom_type": "TABLE_ROW", "md_parent_section": "§PP [PP — Examples]", "md_verbatim": "| 1 | ABC-123 | PP | ABC-123-0001 | 1 | DY1DRGX | DY1DRGX | DY1DRGX_A | TMAX | TMAX | Time of CMAX | DRUG X | 1.87 | h | 1.87 | 1.87 | h | PLASMA | 1 | 2001-02-01T08:35 |", "score": 0.4889, "match_basis": "verbatim_token+domain_route:PP"}, {"md_atom_id": "md_dmPP_ex_a087", "md_file": "knowledge_base/domains/PP/examples.md", "md_atom_type": "TABLE_ROW", "md_parent_section": "§PP [PP — Examples]", "md_verbatim": "| 3 | ABC-123 | PP | ABC-123-0001 | 3 | DY1DRGX | DY1DRGX | DY1DRGX_A | AUC | AUCALL | AUC All | DRUG X | 294.7 | h*ug/mL | 294.7 | 294.7 | h*ug/mL | PLASMA | 1 | 2001-02-01T08:35 |", "score": 0.4889, "match_basis": "verbatim_token+domain_route:PP"}], "candidate_count": 5, "zero_candidate": false}
{"pdf_atom_id": "ig34_p0283_a041", "pdf_atom_type": "TABLE_ROW", "pdf_source": "SDTMIG_v3.4", "pdf_page": 283, "pdf_parent_section": "§6.3.5.9.3 Relating PP Records to PC Records — Example 4", "pdf_verbatim": "| 29 | ABC-123 | PC | ABC-123-0001 | PCSEQ | 5 | | 3 |", "figure_ref": null, "candidates": [{"md_atom_id": "md_dmPP_ex_a095", "md_file": "knowledge_base/domains/PP/examples.md", "md_atom_type": "TABLE_ROW", "md_parent_section": "§PP [PP — Examples]", "md_verbatim": "| 11 | ABC-123 | PP | ABC-123-0001 | 13 | DY8DRGX | DY8DRGX | DY8DRGX | DY8DRGX | VZO | Vz Obs | DRUG X | 10.7 | L | 10.7 | 10.7 | L | PLASMA | 8 | 2001-02-08T08:35 |", "score": 0.5, "match_basis": "verbatim_token+domain_route:PP"}, {"md_atom_id": "md_dmPP_ex_a086", "md_file": "knowledge_base/domains/PP/examples.md", "md_atom_type": "TABLE_ROW", "md_parent_section": "§PP [PP — Examples]", "md_verbatim": "| 2 | ABC-123 | PP | ABC-123-0001 | 2 | DY1DRGX | DY1DRGX | DY1DRGX_A | CMAX | CMAX | Max Conc | DRUG X | 44.5 | ng/mL | 44.5 | 44.5 | ng/mL | PLASMA | 1 | 2001-02-01T08:35 |", "score": 0.4923, "match_basis": "verbatim_token+domain_route:PP"}, {"md_atom_id": "md_dmPP_ex_a092", "md_file": "knowledge_base/domains/PP/examples.md", "md_atom_type": "TABLE_ROW", "md_parent_section": "§PP [PP — Examples]", "md_verbatim": "| 8 | ABC-123 | PP | ABC-123-0001 | 9 | DY8DRGX | DY8DRGX | DY8DRGX | DY8DRGX | CMAX | Max Conc | DRUG X | 46.0 | ng/mL | 46.0 | 46.0 | ng/mL | PLASMA | 8 | 2001-02-08T08:35 |", "score": 0.4923, "match_basis": "verbatim_token+domain_route:PP"}, {"md_atom_id": "md_dmPP_ex_a085", "md_file": "knowledge_base/domains/PP/examples.md", "md_atom_type": "TABLE_ROW", "md_parent_section": "§PP [PP — Examples]", "md_verbatim": "| 1 | ABC-123 | PP | ABC-123-0001 | 1 | DY1DRGX | DY1DRGX | DY1DRGX_A | TMAX | TMAX | Time of CMAX | DRUG X | 1.87 | h | 1.87 | 1.87 | h | PLASMA | 1 | 2001-02-01T08:35 |", "score": 0.4889, "match_basis": "verbatim_token+domain_route:PP"}, {"md_atom_id": "md_dmPP_ex_a087", "md_file": "knowledge_base/domains/PP/examples.md", "md_atom_type": "TABLE_ROW", "md_parent_section": "§PP [PP — Examples]", "md_verbatim": "| 3 | ABC-123 | PP | ABC-123-0001 | 3 | DY1DRGX | DY1DRGX | DY1DRGX_A | AUC | AUCALL | AUC All | DRUG X | 294.7 | h*ug/mL | 294.7 | 294.7 | h*ug/mL | PLASMA | 1 | 2001-02-01T08:35 |", "score": 0.4889, "match_basis": "verbatim_token+domain_route:PP"}], "candidate_count": 5, "zero_candidate": false}
{"pdf_atom_id": "ig34_p0283_a042", "pdf_atom_type": "TABLE_ROW", "pdf_source": "SDTMIG_v3.4", "pdf_page": 283, "pdf_parent_section": "§6.3.5.9.3 Relating PP Records to PC Records — Example 4", "pdf_verbatim": "| 30 | ABC-123 | PC | ABC-123-0001 | PCSEQ | 6 | | 3 |", "figure_ref": null, "candidates": [{"md_atom_id": "md_dmPP_ex_a095", "md_file": "knowledge_base/domains/PP/examples.md", "md_atom_type": "TABLE_ROW", "md_parent_section": "§PP [PP — Examples]", "md_verbatim": "| 11 | ABC-123 | PP | ABC-123-0001 | 13 | DY8DRGX | DY8DRGX | DY8DRGX | DY8DRGX | VZO | Vz Obs | DRUG X | 10.7 | L | 10.7 | 10.7 | L | PLASMA | 8 | 2001-02-08T08:35 |", "score": 0.5, "match_basis": "verbatim_token+domain_route:PP"}, {"md_atom_id": "md_dmPP_ex_a086", "md_file": "knowledge_base/domains/PP/examples.md", "md_atom_type": "TABLE_ROW", "md_parent_section": "§PP [PP — Examples]", "md_verbatim": "| 2 | ABC-123 | PP | ABC-123-0001 | 2 | DY1DRGX | DY1DRGX | DY1DRGX_A | CMAX | CMAX | Max Conc | DRUG X | 44.5 | ng/mL | 44.5 | 44.5 | ng/mL | PLASMA | 1 | 2001-02-01T08:35 |", "score": 0.4923, "match_basis": "verbatim_token+domain_route:PP"}, {"md_atom_id": "md_dmPP_ex_a092", "md_file": "knowledge_base/domains/PP/examples.md", "md_atom_type": "TABLE_ROW", "md_parent_section": "§PP [PP — Examples]", "md_verbatim": "| 8 | ABC-123 | PP | ABC-123-0001 | 9 | DY8DRGX | DY8DRGX | DY8DRGX | DY8DRGX | CMAX | Max Conc | DRUG X | 46.0 | ng/mL | 46.0 | 46.0 | ng/mL | PLASMA | 8 | 2001-02-08T08:35 |", "score": 0.4923, "match_basis": "verbatim_token+domain_route:PP"}, {"md_atom_id": "md_dmPP_ex_a085", "md_file": "knowledge_base/domains/PP/examples.md", "md_atom_type": "TABLE_ROW", "md_parent_section": "§PP [PP — Examples]", "md_verbatim": "| 1 | ABC-123 | PP | ABC-123-0001 | 1 | DY1DRGX | DY1DRGX | DY1DRGX_A | TMAX | TMAX | Time of CMAX | DRUG X | 1.87 | h | 1.87 | 1.87 | h | PLASMA | 1 | 2001-02-01T08:35 |", "score": 0.4889, "match_basis": "verbatim_token+domain_route:PP"}, {"md_atom_id": "md_dmPP_ex_a087", "md_file": "knowledge_base/domains/PP/examples.md", "md_atom_type": "TABLE_ROW", "md_parent_section": "§PP [PP — Examples]", "md_verbatim": "| 3 | ABC-123 | PP | ABC-123-0001 | 3 | DY1DRGX | DY1DRGX | DY1DRGX_A | AUC | AUCALL | AUC All | DRUG X | 294.7 | h*ug/mL | 294.7 | 294.7 | h*ug/mL | PLASMA | 1 | 2001-02-01T08:35 |", "score": 0.4889, "match_basis": "verbatim_token+domain_route:PP"}], "candidate_count": 5, "zero_candidate": false}
{"pdf_atom_id": "ig34_p0283_a043", "pdf_atom_type": "TABLE_ROW", "pdf_source": "SDTMIG_v3.4", "pdf_page": 283, "pdf_parent_section": "§6.3.5.9.3 Relating PP Records to PC Records — Example 4", "pdf_verbatim": "| 31 | ABC-123 | PC | ABC-123-0001 | PCSEQ | 7 | | 3 |", "figure_ref": null, "candidates": [{"md_atom_id": "md_dmPP_ex_a095", "md_file": "knowledge_base/domains/PP/examples.md", "md_atom_type": "TABLE_ROW", "md_parent_section": "§PP [PP — Examples]", "md_verbatim": "| 11 | ABC-123 | PP | ABC-123-0001 | 13 | DY8DRGX | DY8DRGX | DY8DRGX | DY8DRGX | VZO | Vz Obs | DRUG X | 10.7 | L | 10.7 | 10.7 | L | PLASMA | 8 | 2001-02-08T08:35 |", "score": 0.5, "match_basis": "verbatim_token+domain_route:PP"}, {"md_atom_id": "md_dmPP_ex_a086", "md_file": "knowledge_base/domains/PP/examples.md", "md_atom_type": "TABLE_ROW", "md_parent_section": "§PP [PP — Examples]", "md_verbatim": "| 2 | ABC-123 | PP | ABC-123-0001 | 2 | DY1DRGX | DY1DRGX | DY1DRGX_A | CMAX | CMAX | Max Conc | DRUG X | 44.5 | ng/mL | 44.5 | 44.5 | ng/mL | PLASMA | 1 | 2001-02-01T08:35 |", "score": 0.4923, "match_basis": "verbatim_token+domain_route:PP"}, {"md_atom_id": "md_dmPP_ex_a092", "md_file": "knowledge_base/domains/PP/examples.md", "md_atom_type": "TABLE_ROW", "md_parent_section": "§PP [PP — Examples]", "md_verbatim": "| 8 | ABC-123 | PP | ABC-123-0001 | 9 | DY8DRGX | DY8DRGX | DY8DRGX | DY8DRGX | CMAX | Max Conc | DRUG X | 46.0 | ng/mL | 46.0 | 46.0 | ng/mL | PLASMA | 8 | 2001-02-08T08:35 |", "score": 0.4923, "match_basis": "verbatim_token+domain_route:PP"}, {"md_atom_id": "md_dmPP_ex_a085", "md_file": "knowledge_base/domains/PP/examples.md", "md_atom_type": "TABLE_ROW", "md_parent_section": "§PP [PP — Examples]", "md_verbatim": "| 1 | ABC-123 | PP | ABC-123-0001 | 1 | DY1DRGX | DY1DRGX | DY1DRGX_A | TMAX | TMAX | Time of CMAX | DRUG X | 1.87 | h | 1.87 | 1.87 | h | PLASMA | 1 | 2001-02-01T08:35 |", "score": 0.4889, "match_basis": "verbatim_token+domain_route:PP"}, {"md_atom_id": "md_dmPP_ex_a087", "md_file": "knowledge_base/domains/PP/examples.md", "md_atom_type": "TABLE_ROW", "md_parent_section": "§PP [PP — Examples]", "md_verbatim": "| 3 | ABC-123 | PP | ABC-123-0001 | 3 | DY1DRGX | DY1DRGX | DY1DRGX_A | AUC | AUCALL | AUC All | DRUG X | 294.7 | h*ug/mL | 294.7 | 294.7 | h*ug/mL | PLASMA | 1 | 2001-02-01T08:35 |", "score": 0.4889, "match_basis": "verbatim_token+domain_route:PP"}], "candidate_count": 5, "zero_candidate": false}
{"pdf_atom_id": "ig34_p0283_a044", "pdf_atom_type": "TABLE_ROW", "pdf_source": "SDTMIG_v3.4", "pdf_page": 283, "pdf_parent_section": "§6.3.5.9.3 Relating PP Records to PC Records — Example 4", "pdf_verbatim": "| 32 | ABC-123 | PC | ABC-123-0001 | PCSEQ | 8 | | 3 |", "figure_ref": null, "candidates": [{"md_atom_id": "md_dmPP_ex_a095", "md_file": "knowledge_base/domains/PP/examples.md", "md_atom_type": "TABLE_ROW", "md_parent_section": "§PP [PP — Examples]", "md_verbatim": "| 11 | ABC-123 | PP | ABC-123-0001 | 13 | DY8DRGX | DY8DRGX | DY8DRGX | DY8DRGX | VZO | Vz Obs | DRUG X | 10.7 | L | 10.7 | 10.7 | L | PLASMA | 8 | 2001-02-08T08:35 |", "score": 0.5, "match_basis": "verbatim_token+domain_route:PP"}, {"md_atom_id": "md_dmPP_ex_a086", "md_file": "knowledge_base/domains/PP/examples.md", "md_atom_type": "TABLE_ROW", "md_parent_section": "§PP [PP — Examples]", "md_verbatim": "| 2 | ABC-123 | PP | ABC-123-0001 | 2 | DY1DRGX | DY1DRGX | DY1DRGX_A | CMAX | CMAX | Max Conc | DRUG X | 44.5 | ng/mL | 44.5 | 44.5 | ng/mL | PLASMA | 1 | 2001-02-01T08:35 |", "score": 0.4923, "match_basis": "verbatim_token+domain_route:PP"}, {"md_atom_id": "md_dmPP_ex_a092", "md_file": "knowledge_base/domains/PP/examples.md", "md_atom_type": "TABLE_ROW", "md_parent_section": "§PP [PP — Examples]", "md_verbatim": "| 8 | ABC-123 | PP | ABC-123-0001 | 9 | DY8DRGX | DY8DRGX | DY8DRGX | DY8DRGX | CMAX | Max Conc | DRUG X | 46.0 | ng/mL | 46.0 | 46.0 | ng/mL | PLASMA | 8 | 2001-02-08T08:35 |", "score": 0.4923, "match_basis": "verbatim_token+domain_route:PP"}, {"md_atom_id": "md_dmPP_ex_a085", "md_file": "knowledge_base/domains/PP/examples.md", "md_atom_type": "TABLE_ROW", "md_parent_section": "§PP [PP — Examples]", "md_verbatim": "| 1 | ABC-123 | PP | ABC-123-0001 | 1 | DY1DRGX | DY1DRGX | DY1DRGX_A | TMAX | TMAX | Time of CMAX | DRUG X | 1.87 | h | 1.87 | 1.87 | h | PLASMA | 1 | 2001-02-01T08:35 |", "score": 0.4889, "match_basis": "verbatim_token+domain_route:PP"}, {"md_atom_id": "md_dmPP_ex_a087", "md_file": "knowledge_base/domains/PP/examples.md", "md_atom_type": "TABLE_ROW", "md_parent_section": "§PP [PP — Examples]", "md_verbatim": "| 3 | ABC-123 | PP | ABC-123-0001 | 3 | DY1DRGX | DY1DRGX | DY1DRGX_A | AUC | AUCALL | AUC All | DRUG X | 294.7 | h*ug/mL | 294.7 | 294.7 | h*ug/mL | PLASMA | 1 | 2001-02-01T08:35 |", "score": 0.4889, "match_basis": "verbatim_token+domain_route:PP"}], "candidate_count": 5, "zero_candidate": false}
{"pdf_atom_id": "ig34_p0283_a045", "pdf_atom_type": "TABLE_ROW", "pdf_source": "SDTMIG_v3.4", "pdf_page": 283, "pdf_parent_section": "§6.3.5.9.3 Relating PP Records to PC Records — Example 4", "pdf_verbatim": "| 33 | ABC-123 | PC | ABC-123-0001 | PCSEQ | 9 | | 3 |", "figure_ref": null, "candidates": [{"md_atom_id": "md_dmPP_ex_a095", "md_file": "knowledge_base/domains/PP/examples.md", "md_atom_type": "TABLE_ROW", "md_parent_section": "§PP [PP — Examples]", "md_verbatim": "| 11 | ABC-123 | PP | ABC-123-0001 | 13 | DY8DRGX | DY8DRGX | DY8DRGX | DY8DRGX | VZO | Vz Obs | DRUG X | 10.7 | L | 10.7 | 10.7 | L | PLASMA | 8 | 2001-02-08T08:35 |", "score": 0.5, "match_basis": "verbatim_token+domain_route:PP"}, {"md_atom_id": "md_dmPP_ex_a086", "md_file": "knowledge_base/domains/PP/examples.md", "md_atom_type": "TABLE_ROW", "md_parent_section": "§PP [PP — Examples]", "md_verbatim": "| 2 | ABC-123 | PP | ABC-123-0001 | 2 | DY1DRGX | DY1DRGX | DY1DRGX_A | CMAX | CMAX | Max Conc | DRUG X | 44.5 | ng/mL | 44.5 | 44.5 | ng/mL | PLASMA | 1 | 2001-02-01T08:35 |", "score": 0.4923, "match_basis": "verbatim_token+domain_route:PP"}, {"md_atom_id": "md_dmPP_ex_a092", "md_file": "knowledge_base/domains/PP/examples.md", "md_atom_type": "TABLE_ROW", "md_parent_section": "§PP [PP — Examples]", "md_verbatim": "| 8 | ABC-123 | PP | ABC-123-0001 | 9 | DY8DRGX | DY8DRGX | DY8DRGX | DY8DRGX | CMAX | Max Conc | DRUG X | 46.0 | ng/mL | 46.0 | 46.0 | ng/mL | PLASMA | 8 | 2001-02-08T08:35 |", "score": 0.4923, "match_basis": "verbatim_token+domain_route:PP"}, {"md_atom_id": "md_dmPP_ex_a085", "md_file": "knowledge_base/domains/PP/examples.md", "md_atom_type": "TABLE_ROW", "md_parent_section": "§PP [PP — Examples]", "md_verbatim": "| 1 | ABC-123 | PP | ABC-123-0001 | 1 | DY1DRGX | DY1DRGX | DY1DRGX_A | TMAX | TMAX | Time of CMAX | DRUG X | 1.87 | h | 1.87 | 1.87 | h | PLASMA | 1 | 2001-02-01T08:35 |", "score": 0.4889, "match_basis": "verbatim_token+domain_route:PP"}, {"md_atom_id": "md_dmPP_ex_a087", "md_file": "knowledge_base/domains/PP/examples.md", "md_atom_type": "TABLE_ROW", "md_parent_section": "§PP [PP — Examples]", "md_verbatim": "| 3 | ABC-123 | PP | ABC-123-0001 | 3 | DY1DRGX | DY1DRGX | DY1DRGX_A | AUC | AUCALL | AUC All | DRUG X | 294.7 | h*ug/mL | 294.7 | 294.7 | h*ug/mL | PLASMA | 1 | 2001-02-01T08:35 |", "score": 0.4889, "match_basis": "verbatim_token+domain_route:PP"}], "candidate_count": 5, "zero_candidate": false}
{"pdf_atom_id": "ig34_p0283_a046", "pdf_atom_type": "TABLE_ROW", "pdf_source": "SDTMIG_v3.4", "pdf_page": 283, "pdf_parent_section": "§6.3.5.9.3 Relating PP Records to PC Records — Example 4", "pdf_verbatim": "| 34 | ABC-123 | PC | ABC-123-0001 | PCSEQ | 10 | | 3 |", "figure_ref": null, "candidates": [{"md_atom_id": "md_dmPP_ex_a095", "md_file": "knowledge_base/domains/PP/examples.md", "md_atom_type": "TABLE_ROW", "md_parent_section": "§PP [PP — Examples]", "md_verbatim": "| 11 | ABC-123 | PP | ABC-123-0001 | 13 | DY8DRGX | DY8DRGX | DY8DRGX | DY8DRGX | VZO | Vz Obs | DRUG X | 10.7 | L | 10.7 | 10.7 | L | PLASMA | 8 | 2001-02-08T08:35 |", "score": 0.5, "match_basis": "verbatim_token+domain_route:PP"}, {"md_atom_id": "md_dmPP_ex_a086", "md_file": "knowledge_base/domains/PP/examples.md", "md_atom_type": "TABLE_ROW", "md_parent_section": "§PP [PP — Examples]", "md_verbatim": "| 2 | ABC-123 | PP | ABC-123-0001 | 2 | DY1DRGX | DY1DRGX | DY1DRGX_A | CMAX | CMAX | Max Conc | DRUG X | 44.5 | ng/mL | 44.5 | 44.5 | ng/mL | PLASMA | 1 | 2001-02-01T08:35 |", "score": 0.4923, "match_basis": "verbatim_token+domain_route:PP"}, {"md_atom_id": "md_dmPP_ex_a092", "md_file": "knowledge_base/domains/PP/examples.md", "md_atom_type": "TABLE_ROW", "md_parent_section": "§PP [PP — Examples]", "md_verbatim": "| 8 | ABC-123 | PP | ABC-123-0001 | 9 | DY8DRGX | DY8DRGX | DY8DRGX | DY8DRGX | CMAX | Max Conc | DRUG X | 46.0 | ng/mL | 46.0 | 46.0 | ng/mL | PLASMA | 8 | 2001-02-08T08:35 |", "score": 0.4923, "match_basis": "verbatim_token+domain_route:PP"}, {"md_atom_id": "md_dmPP_ex_a085", "md_file": "knowledge_base/domains/PP/examples.md", "md_atom_type": "TABLE_ROW", "md_parent_section": "§PP [PP — Examples]", "md_verbatim": "| 1 | ABC-123 | PP | ABC-123-0001 | 1 | DY1DRGX | DY1DRGX | DY1DRGX_A | TMAX | TMAX | Time of CMAX | DRUG X | 1.87 | h | 1.87 | 1.87 | h | PLASMA | 1 | 2001-02-01T08:35 |", "score": 0.4889, "match_basis": "verbatim_token+domain_route:PP"}, {"md_atom_id": "md_dmPP_ex_a087", "md_file": "knowledge_base/domains/PP/examples.md", "md_atom_type": "TABLE_ROW", "md_parent_section": "§PP [PP — Examples]", "md_verbatim": "| 3 | ABC-123 | PP | ABC-123-0001 | 3 | DY1DRGX | DY1DRGX | DY1DRGX_A | AUC | AUCALL | AUC All | DRUG X | 294.7 | h*ug/mL | 294.7 | 294.7 | h*ug/mL | PLASMA | 1 | 2001-02-01T08:35 |", "score": 0.4889, "match_basis": "verbatim_token+domain_route:PP"}], "candidate_count": 5, "zero_candidate": false}
{"pdf_atom_id": "ig34_p0283_a047", "pdf_atom_type": "TABLE_ROW", "pdf_source": "SDTMIG_v3.4", "pdf_page": 283, "pdf_parent_section": "§6.3.5.9.3 Relating PP Records to PC Records — Example 4", "pdf_verbatim": "| 35 | ABC-123 | PP | ABC-123-0001 | PPSEQ | 3 | | 3 |", "figure_ref": null, "candidates": [{"md_atom_id": "md_dmPP_ex_a043", "md_file": "knowledge_base/domains/PP/examples.md", "md_atom_type": "TABLE_ROW", "md_parent_section": "§PP.1 [Example 1]", "md_verbatim": "| 7 | ABC-123 | PP | 123-1001 | PPSEQ | 7 | PKCOND | Condition of PK Analysis | SINGLE DOSE | Collected | |", "score": 0.5, "match_basis": "verbatim_token+domain_route:PP"}, {"md_atom_id": "md_dmPP_ex_a095", "md_file": "knowledge_base/domains/PP/examples.md", "md_atom_type": "TABLE_ROW", "md_parent_section": "§PP [PP — Examples]", "md_verbatim": "| 11 | ABC-123 | PP | ABC-123-0001 | 13 | DY8DRGX | DY8DRGX | DY8DRGX | DY8DRGX | VZO | Vz Obs | DRUG X | 10.7 | L | 10.7 | 10.7 | L | PLASMA | 8 | 2001-02-08T08:35 |", "score": 0.5, "match_basis": "verbatim_token+domain_route:PP"}, {"md_atom_id": "md_dmPP_ex_a086", "md_file": "knowledge_base/domains/PP/examples.md", "md_atom_type": "TABLE_ROW", "md_parent_section": "§PP [PP — Examples]", "md_verbatim": "| 2 | ABC-123 | PP | ABC-123-0001 | 2 | DY1DRGX | DY1DRGX | DY1DRGX_A | CMAX | CMAX | Max Conc | DRUG X | 44.5 | ng/mL | 44.5 | 44.5 | ng/mL | PLASMA | 1 | 2001-02-01T08:35 |", "score": 0.4923, "match_basis": "verbatim_token+domain_route:PP"}, {"md_atom_id": "md_dmPP_ex_a092", "md_file": "knowledge_base/domains/PP/examples.md", "md_atom_type": "TABLE_ROW", "md_parent_section": "§PP [PP — Examples]", "md_verbatim": "| 8 | ABC-123 | PP | ABC-123-0001 | 9 | DY8DRGX | DY8DRGX | DY8DRGX | DY8DRGX | CMAX | Max Conc | DRUG X | 46.0 | ng/mL | 46.0 | 46.0 | ng/mL | PLASMA | 8 | 2001-02-08T08:35 |", "score": 0.4923, "match_basis": "verbatim_token+domain_route:PP"}, {"md_atom_id": "md_dmPP_ex_a085", "md_file": "knowledge_base/domains/PP/examples.md", "md_atom_type": "TABLE_ROW", "md_parent_section": "§PP [PP — Examples]", "md_verbatim": "| 1 | ABC-123 | PP | ABC-123-0001 | 1 | DY1DRGX | DY1DRGX | DY1DRGX_A | TMAX | TMAX | Time of CMAX | DRUG X | 1.87 | h | 1.87 | 1.87 | h | PLASMA | 1 | 2001-02-01T08:35 |", "score": 0.4889, "match_basis": "verbatim_token+domain_route:PP"}], "candidate_count": 5, "zero_candidate": false}
{"pdf_atom_id": "ig34_p0283_a048", "pdf_atom_type": "TABLE_ROW", "pdf_source": "SDTMIG_v3.4", "pdf_page": 283, "pdf_parent_section": "§6.3.5.9.3 Relating PP Records to PC Records — Example 4", "pdf_verbatim": "| 36 | ABC-123 | PC | ABC-123-0001 | PCSEQ | 1 | | 4 |", "figure_ref": null, "candidates": [{"md_atom_id": "md_dmPP_ex_a095", "md_file": "knowledge_base/domains/PP/examples.md", "md_atom_type": "TABLE_ROW", "md_parent_section": "§PP [PP — Examples]", "md_verbatim": "| 11 | ABC-123 | PP | ABC-123-0001 | 13 | DY8DRGX | DY8DRGX | DY8DRGX | DY8DRGX | VZO | Vz Obs | DRUG X | 10.7 | L | 10.7 | 10.7 | L | PLASMA | 8 | 2001-02-08T08:35 |", "score": 0.5, "match_basis": "verbatim_token+domain_route:PP"}, {"md_atom_id": "md_dmPP_ex_a086", "md_file": "knowledge_base/domains/PP/examples.md", "md_atom_type": "TABLE_ROW", "md_parent_section": "§PP [PP — Examples]", "md_verbatim": "| 2 | ABC-123 | PP | ABC-123-0001 | 2 | DY1DRGX | DY1DRGX | DY1DRGX_A | CMAX | CMAX | Max Conc | DRUG X | 44.5 | ng/mL | 44.5 | 44.5 | ng/mL | PLASMA | 1 | 2001-02-01T08:35 |", "score": 0.4923, "match_basis": "verbatim_token+domain_route:PP"}, {"md_atom_id": "md_dmPP_ex_a092", "md_file": "knowledge_base/domains/PP/examples.md", "md_atom_type": "TABLE_ROW", "md_parent_section": "§PP [PP — Examples]", "md_verbatim": "| 8 | ABC-123 | PP | ABC-123-0001 | 9 | DY8DRGX | DY8DRGX | DY8DRGX | DY8DRGX | CMAX | Max Conc | DRUG X | 46.0 | ng/mL | 46.0 | 46.0 | ng/mL | PLASMA | 8 | 2001-02-08T08:35 |", "score": 0.4923, "match_basis": "verbatim_token+domain_route:PP"}, {"md_atom_id": "md_dmPP_ex_a085", "md_file": "knowledge_base/domains/PP/examples.md", "md_atom_type": "TABLE_ROW", "md_parent_section": "§PP [PP — Examples]", "md_verbatim": "| 1 | ABC-123 | PP | ABC-123-0001 | 1 | DY1DRGX | DY1DRGX | DY1DRGX_A | TMAX | TMAX | Time of CMAX | DRUG X | 1.87 | h | 1.87 | 1.87 | h | PLASMA | 1 | 2001-02-01T08:35 |", "score": 0.4889, "match_basis": "verbatim_token+domain_route:PP"}, {"md_atom_id": "md_dmPP_ex_a087", "md_file": "knowledge_base/domains/PP/examples.md", "md_atom_type": "TABLE_ROW", "md_parent_section": "§PP [PP — Examples]", "md_verbatim": "| 3 | ABC-123 | PP | ABC-123-0001 | 3 | DY1DRGX | DY1DRGX | DY1DRGX_A | AUC | AUCALL | AUC All | DRUG X | 294.7 | h*ug/mL | 294.7 | 294.7 | h*ug/mL | PLASMA | 1 | 2001-02-01T08:35 |", "score": 0.4889, "match_basis": "verbatim_token+domain_route:PP"}], "candidate_count": 5, "zero_candidate": false}
{"pdf_atom_id": "ig34_p0283_a049", "pdf_atom_type": "TABLE_ROW", "pdf_source": "SDTMIG_v3.4", "pdf_page": 283, "pdf_parent_section": "§6.3.5.9.3 Relating PP Records to PC Records — Example 4", "pdf_verbatim": "| 37 | ABC-123 | PC | ABC-123-0001 | PCSEQ | 2 | | 4 |", "figure_ref": null, "candidates": [{"md_atom_id": "md_dmPP_ex_a095", "md_file": "knowledge_base/domains/PP/examples.md", "md_atom_type": "TABLE_ROW", "md_parent_section": "§PP [PP — Examples]", "md_verbatim": "| 11 | ABC-123 | PP | ABC-123-0001 | 13 | DY8DRGX | DY8DRGX | DY8DRGX | DY8DRGX | VZO | Vz Obs | DRUG X | 10.7 | L | 10.7 | 10.7 | L | PLASMA | 8 | 2001-02-08T08:35 |", "score": 0.5, "match_basis": "verbatim_token+domain_route:PP"}, {"md_atom_id": "md_dmPP_ex_a086", "md_file": "knowledge_base/domains/PP/examples.md", "md_atom_type": "TABLE_ROW", "md_parent_section": "§PP [PP — Examples]", "md_verbatim": "| 2 | ABC-123 | PP | ABC-123-0001 | 2 | DY1DRGX | DY1DRGX | DY1DRGX_A | CMAX | CMAX | Max Conc | DRUG X | 44.5 | ng/mL | 44.5 | 44.5 | ng/mL | PLASMA | 1 | 2001-02-01T08:35 |", "score": 0.4923, "match_basis": "verbatim_token+domain_route:PP"}, {"md_atom_id": "md_dmPP_ex_a092", "md_file": "knowledge_base/domains/PP/examples.md", "md_atom_type": "TABLE_ROW", "md_parent_section": "§PP [PP — Examples]", "md_verbatim": "| 8 | ABC-123 | PP | ABC-123-0001 | 9 | DY8DRGX | DY8DRGX | DY8DRGX | DY8DRGX | CMAX | Max Conc | DRUG X | 46.0 | ng/mL | 46.0 | 46.0 | ng/mL | PLASMA | 8 | 2001-02-08T08:35 |", "score": 0.4923, "match_basis": "verbatim_token+domain_route:PP"}, {"md_atom_id": "md_dmPP_ex_a085", "md_file": "knowledge_base/domains/PP/examples.md", "md_atom_type": "TABLE_ROW", "md_parent_section": "§PP [PP — Examples]", "md_verbatim": "| 1 | ABC-123 | PP | ABC-123-0001 | 1 | DY1DRGX | DY1DRGX | DY1DRGX_A | TMAX | TMAX | Time of CMAX | DRUG X | 1.87 | h | 1.87 | 1.87 | h | PLASMA | 1 | 2001-02-01T08:35 |", "score": 0.4889, "match_basis": "verbatim_token+domain_route:PP"}, {"md_atom_id": "md_dmPP_ex_a087", "md_file": "knowledge_base/domains/PP/examples.md", "md_atom_type": "TABLE_ROW", "md_parent_section": "§PP [PP — Examples]", "md_verbatim": "| 3 | ABC-123 | PP | ABC-123-0001 | 3 | DY1DRGX | DY1DRGX | DY1DRGX_A | AUC | AUCALL | AUC All | DRUG X | 294.7 | h*ug/mL | 294.7 | 294.7 | h*ug/mL | PLASMA | 1 | 2001-02-01T08:35 |", "score": 0.4889, "match_basis": "verbatim_token+domain_route:PP"}], "candidate_count": 5, "zero_candidate": false}
{"pdf_atom_id": "ig34_p0283_a050", "pdf_atom_type": "TABLE_ROW", "pdf_source": "SDTMIG_v3.4", "pdf_page": 283, "pdf_parent_section": "§6.3.5.9.3 Relating PP Records to PC Records — Example 4", "pdf_verbatim": "| 38 | ABC-123 | PC | ABC-123-0001 | PCSEQ | 3 | | 4 |", "figure_ref": null, "candidates": [{"md_atom_id": "md_dmPP_ex_a095", "md_file": "knowledge_base/domains/PP/examples.md", "md_atom_type": "TABLE_ROW", "md_parent_section": "§PP [PP — Examples]", "md_verbatim": "| 11 | ABC-123 | PP | ABC-123-0001 | 13 | DY8DRGX | DY8DRGX | DY8DRGX | DY8DRGX | VZO | Vz Obs | DRUG X | 10.7 | L | 10.7 | 10.7 | L | PLASMA | 8 | 2001-02-08T08:35 |", "score": 0.5, "match_basis": "verbatim_token+domain_route:PP"}, {"md_atom_id": "md_dmPP_ex_a086", "md_file": "knowledge_base/domains/PP/examples.md", "md_atom_type": "TABLE_ROW", "md_parent_section": "§PP [PP — Examples]", "md_verbatim": "| 2 | ABC-123 | PP | ABC-123-0001 | 2 | DY1DRGX | DY1DRGX | DY1DRGX_A | CMAX | CMAX | Max Conc | DRUG X | 44.5 | ng/mL | 44.5 | 44.5 | ng/mL | PLASMA | 1 | 2001-02-01T08:35 |", "score": 0.4923, "match_basis": "verbatim_token+domain_route:PP"}, {"md_atom_id": "md_dmPP_ex_a092", "md_file": "knowledge_base/domains/PP/examples.md", "md_atom_type": "TABLE_ROW", "md_parent_section": "§PP [PP — Examples]", "md_verbatim": "| 8 | ABC-123 | PP | ABC-123-0001 | 9 | DY8DRGX | DY8DRGX | DY8DRGX | DY8DRGX | CMAX | Max Conc | DRUG X | 46.0 | ng/mL | 46.0 | 46.0 | ng/mL | PLASMA | 8 | 2001-02-08T08:35 |", "score": 0.4923, "match_basis": "verbatim_token+domain_route:PP"}, {"md_atom_id": "md_dmPP_ex_a085", "md_file": "knowledge_base/domains/PP/examples.md", "md_atom_type": "TABLE_ROW", "md_parent_section": "§PP [PP — Examples]", "md_verbatim": "| 1 | ABC-123 | PP | ABC-123-0001 | 1 | DY1DRGX | DY1DRGX | DY1DRGX_A | TMAX | TMAX | Time of CMAX | DRUG X | 1.87 | h | 1.87 | 1.87 | h | PLASMA | 1 | 2001-02-01T08:35 |", "score": 0.4889, "match_basis": "verbatim_token+domain_route:PP"}, {"md_atom_id": "md_dmPP_ex_a087", "md_file": "knowledge_base/domains/PP/examples.md", "md_atom_type": "TABLE_ROW", "md_parent_section": "§PP [PP — Examples]", "md_verbatim": "| 3 | ABC-123 | PP | ABC-123-0001 | 3 | DY1DRGX | DY1DRGX | DY1DRGX_A | AUC | AUCALL | AUC All | DRUG X | 294.7 | h*ug/mL | 294.7 | 294.7 | h*ug/mL | PLASMA | 1 | 2001-02-01T08:35 |", "score": 0.4889, "match_basis": "verbatim_token+domain_route:PP"}], "candidate_count": 5, "zero_candidate": false}
{"pdf_atom_id": "ig34_p0283_a051", "pdf_atom_type": "TABLE_ROW", "pdf_source": "SDTMIG_v3.4", "pdf_page": 283, "pdf_parent_section": "§6.3.5.9.3 Relating PP Records to PC Records — Example 4", "pdf_verbatim": "| 39 | ABC-123 | PC | ABC-123-0001 | PCSEQ | 4 | | 4 |", "figure_ref": null, "candidates": [{"md_atom_id": "md_dmPP_ex_a095", "md_file": "knowledge_base/domains/PP/examples.md", "md_atom_type": "TABLE_ROW", "md_parent_section": "§PP [PP — Examples]", "md_verbatim": "| 11 | ABC-123 | PP | ABC-123-0001 | 13 | DY8DRGX | DY8DRGX | DY8DRGX | DY8DRGX | VZO | Vz Obs | DRUG X | 10.7 | L | 10.7 | 10.7 | L | PLASMA | 8 | 2001-02-08T08:35 |", "score": 0.5, "match_basis": "verbatim_token+domain_route:PP"}, {"md_atom_id": "md_dmPP_ex_a086", "md_file": "knowledge_base/domains/PP/examples.md", "md_atom_type": "TABLE_ROW", "md_parent_section": "§PP [PP — Examples]", "md_verbatim": "| 2 | ABC-123 | PP | ABC-123-0001 | 2 | DY1DRGX | DY1DRGX | DY1DRGX_A | CMAX | CMAX | Max Conc | DRUG X | 44.5 | ng/mL | 44.5 | 44.5 | ng/mL | PLASMA | 1 | 2001-02-01T08:35 |", "score": 0.4923, "match_basis": "verbatim_token+domain_route:PP"}, {"md_atom_id": "md_dmPP_ex_a092", "md_file": "knowledge_base/domains/PP/examples.md", "md_atom_type": "TABLE_ROW", "md_parent_section": "§PP [PP — Examples]", "md_verbatim": "| 8 | ABC-123 | PP | ABC-123-0001 | 9 | DY8DRGX | DY8DRGX | DY8DRGX | DY8DRGX | CMAX | Max Conc | DRUG X | 46.0 | ng/mL | 46.0 | 46.0 | ng/mL | PLASMA | 8 | 2001-02-08T08:35 |", "score": 0.4923, "match_basis": "verbatim_token+domain_route:PP"}, {"md_atom_id": "md_dmPP_ex_a085", "md_file": "knowledge_base/domains/PP/examples.md", "md_atom_type": "TABLE_ROW", "md_parent_section": "§PP [PP — Examples]", "md_verbatim": "| 1 | ABC-123 | PP | ABC-123-0001 | 1 | DY1DRGX | DY1DRGX | DY1DRGX_A | TMAX | TMAX | Time of CMAX | DRUG X | 1.87 | h | 1.87 | 1.87 | h | PLASMA | 1 | 2001-02-01T08:35 |", "score": 0.4889, "match_basis": "verbatim_token+domain_route:PP"}, {"md_atom_id": "md_dmPP_ex_a087", "md_file": "knowledge_base/domains/PP/examples.md", "md_atom_type": "TABLE_ROW", "md_parent_section": "§PP [PP — Examples]", "md_verbatim": "| 3 | ABC-123 | PP | ABC-123-0001 | 3 | DY1DRGX | DY1DRGX | DY1DRGX_A | AUC | AUCALL | AUC All | DRUG X | 294.7 | h*ug/mL | 294.7 | 294.7 | h*ug/mL | PLASMA | 1 | 2001-02-01T08:35 |", "score": 0.4889, "match_basis": "verbatim_token+domain_route:PP"}], "candidate_count": 5, "zero_candidate": false}
{"pdf_atom_id": "ig34_p0283_a052", "pdf_atom_type": "TABLE_ROW", "pdf_source": "SDTMIG_v3.4", "pdf_page": 283, "pdf_parent_section": "§6.3.5.9.3 Relating PP Records to PC Records — Example 4", "pdf_verbatim": "| 40 | ABC-123 | PC | ABC-123-0001 | PCSEQ | 5 | | 4 |", "figure_ref": null, "candidates": [{"md_atom_id": "md_dmPP_ex_a095", "md_file": "knowledge_base/domains/PP/examples.md", "md_atom_type": "TABLE_ROW", "md_parent_section": "§PP [PP — Examples]", "md_verbatim": "| 11 | ABC-123 | PP | ABC-123-0001 | 13 | DY8DRGX | DY8DRGX | DY8DRGX | DY8DRGX | VZO | Vz Obs | DRUG X | 10.7 | L | 10.7 | 10.7 | L | PLASMA | 8 | 2001-02-08T08:35 |", "score": 0.5, "match_basis": "verbatim_token+domain_route:PP"}, {"md_atom_id": "md_dmPP_ex_a086", "md_file": "knowledge_base/domains/PP/examples.md", "md_atom_type": "TABLE_ROW", "md_parent_section": "§PP [PP — Examples]", "md_verbatim": "| 2 | ABC-123 | PP | ABC-123-0001 | 2 | DY1DRGX | DY1DRGX | DY1DRGX_A | CMAX | CMAX | Max Conc | DRUG X | 44.5 | ng/mL | 44.5 | 44.5 | ng/mL | PLASMA | 1 | 2001-02-01T08:35 |", "score": 0.4923, "match_basis": "verbatim_token+domain_route:PP"}, {"md_atom_id": "md_dmPP_ex_a092", "md_file": "knowledge_base/domains/PP/examples.md", "md_atom_type": "TABLE_ROW", "md_parent_section": "§PP [PP — Examples]", "md_verbatim": "| 8 | ABC-123 | PP | ABC-123-0001 | 9 | DY8DRGX | DY8DRGX | DY8DRGX | DY8DRGX | CMAX | Max Conc | DRUG X | 46.0 | ng/mL | 46.0 | 46.0 | ng/mL | PLASMA | 8 | 2001-02-08T08:35 |", "score": 0.4923, "match_basis": "verbatim_token+domain_route:PP"}, {"md_atom_id": "md_dmPP_ex_a085", "md_file": "knowledge_base/domains/PP/examples.md", "md_atom_type": "TABLE_ROW", "md_parent_section": "§PP [PP — Examples]", "md_verbatim": "| 1 | ABC-123 | PP | ABC-123-0001 | 1 | DY1DRGX | DY1DRGX | DY1DRGX_A | TMAX | TMAX | Time of CMAX | DRUG X | 1.87 | h | 1.87 | 1.87 | h | PLASMA | 1 | 2001-02-01T08:35 |", "score": 0.4889, "match_basis": "verbatim_token+domain_route:PP"}, {"md_atom_id": "md_dmPP_ex_a087", "md_file": "knowledge_base/domains/PP/examples.md", "md_atom_type": "TABLE_ROW", "md_parent_section": "§PP [PP — Examples]", "md_verbatim": "| 3 | ABC-123 | PP | ABC-123-0001 | 3 | DY1DRGX | DY1DRGX | DY1DRGX_A | AUC | AUCALL | AUC All | DRUG X | 294.7 | h*ug/mL | 294.7 | 294.7 | h*ug/mL | PLASMA | 1 | 2001-02-01T08:35 |", "score": 0.4889, "match_basis": "verbatim_token+domain_route:PP"}], "candidate_count": 5, "zero_candidate": false}
{"pdf_atom_id": "ig34_p0283_a053", "pdf_atom_type": "TABLE_ROW", "pdf_source": "SDTMIG_v3.4", "pdf_page": 283, "pdf_parent_section": "§6.3.5.9.3 Relating PP Records to PC Records — Example 4", "pdf_verbatim": "| 41 | ABC-123 | PC | ABC-123-0001 | PCSEQ | 6 | | 4 |", "figure_ref": null, "candidates": [{"md_atom_id": "md_dmPP_ex_a095", "md_file": "knowledge_base/domains/PP/examples.md", "md_atom_type": "TABLE_ROW", "md_parent_section": "§PP [PP — Examples]", "md_verbatim": "| 11 | ABC-123 | PP | ABC-123-0001 | 13 | DY8DRGX | DY8DRGX | DY8DRGX | DY8DRGX | VZO | Vz Obs | DRUG X | 10.7 | L | 10.7 | 10.7 | L | PLASMA | 8 | 2001-02-08T08:35 |", "score": 0.5, "match_basis": "verbatim_token+domain_route:PP"}, {"md_atom_id": "md_dmPP_ex_a086", "md_file": "knowledge_base/domains/PP/examples.md", "md_atom_type": "TABLE_ROW", "md_parent_section": "§PP [PP — Examples]", "md_verbatim": "| 2 | ABC-123 | PP | ABC-123-0001 | 2 | DY1DRGX | DY1DRGX | DY1DRGX_A | CMAX | CMAX | Max Conc | DRUG X | 44.5 | ng/mL | 44.5 | 44.5 | ng/mL | PLASMA | 1 | 2001-02-01T08:35 |", "score": 0.4923, "match_basis": "verbatim_token+domain_route:PP"}, {"md_atom_id": "md_dmPP_ex_a092", "md_file": "knowledge_base/domains/PP/examples.md", "md_atom_type": "TABLE_ROW", "md_parent_section": "§PP [PP — Examples]", "md_verbatim": "| 8 | ABC-123 | PP | ABC-123-0001 | 9 | DY8DRGX | DY8DRGX | DY8DRGX | DY8DRGX | CMAX | Max Conc | DRUG X | 46.0 | ng/mL | 46.0 | 46.0 | ng/mL | PLASMA | 8 | 2001-02-08T08:35 |", "score": 0.4923, "match_basis": "verbatim_token+domain_route:PP"}, {"md_atom_id": "md_dmPP_ex_a085", "md_file": "knowledge_base/domains/PP/examples.md", "md_atom_type": "TABLE_ROW", "md_parent_section": "§PP [PP — Examples]", "md_verbatim": "| 1 | ABC-123 | PP | ABC-123-0001 | 1 | DY1DRGX | DY1DRGX | DY1DRGX_A | TMAX | TMAX | Time of CMAX | DRUG X | 1.87 | h | 1.87 | 1.87 | h | PLASMA | 1 | 2001-02-01T08:35 |", "score": 0.4889, "match_basis": "verbatim_token+domain_route:PP"}, {"md_atom_id": "md_dmPP_ex_a087", "md_file": "knowledge_base/domains/PP/examples.md", "md_atom_type": "TABLE_ROW", "md_parent_section": "§PP [PP — Examples]", "md_verbatim": "| 3 | ABC-123 | PP | ABC-123-0001 | 3 | DY1DRGX | DY1DRGX | DY1DRGX_A | AUC | AUCALL | AUC All | DRUG X | 294.7 | h*ug/mL | 294.7 | 294.7 | h*ug/mL | PLASMA | 1 | 2001-02-01T08:35 |", "score": 0.4889, "match_basis": "verbatim_token+domain_route:PP"}], "candidate_count": 5, "zero_candidate": false}
{"pdf_atom_id": "ig34_p0283_a054", "pdf_atom_type": "TABLE_ROW", "pdf_source": "SDTMIG_v3.4", "pdf_page": 283, "pdf_parent_section": "§6.3.5.9.3 Relating PP Records to PC Records — Example 4", "pdf_verbatim": "| 42 | ABC-123 | PC | ABC-123-0001 | PCSEQ | 7 | | 4 |", "figure_ref": null, "candidates": [{"md_atom_id": "md_dmPP_ex_a095", "md_file": "knowledge_base/domains/PP/examples.md", "md_atom_type": "TABLE_ROW", "md_parent_section": "§PP [PP — Examples]", "md_verbatim": "| 11 | ABC-123 | PP | ABC-123-0001 | 13 | DY8DRGX | DY8DRGX | DY8DRGX | DY8DRGX | VZO | Vz Obs | DRUG X | 10.7 | L | 10.7 | 10.7 | L | PLASMA | 8 | 2001-02-08T08:35 |", "score": 0.5, "match_basis": "verbatim_token+domain_route:PP"}, {"md_atom_id": "md_dmPP_ex_a086", "md_file": "knowledge_base/domains/PP/examples.md", "md_atom_type": "TABLE_ROW", "md_parent_section": "§PP [PP — Examples]", "md_verbatim": "| 2 | ABC-123 | PP | ABC-123-0001 | 2 | DY1DRGX | DY1DRGX | DY1DRGX_A | CMAX | CMAX | Max Conc | DRUG X | 44.5 | ng/mL | 44.5 | 44.5 | ng/mL | PLASMA | 1 | 2001-02-01T08:35 |", "score": 0.4923, "match_basis": "verbatim_token+domain_route:PP"}, {"md_atom_id": "md_dmPP_ex_a092", "md_file": "knowledge_base/domains/PP/examples.md", "md_atom_type": "TABLE_ROW", "md_parent_section": "§PP [PP — Examples]", "md_verbatim": "| 8 | ABC-123 | PP | ABC-123-0001 | 9 | DY8DRGX | DY8DRGX | DY8DRGX | DY8DRGX | CMAX | Max Conc | DRUG X | 46.0 | ng/mL | 46.0 | 46.0 | ng/mL | PLASMA | 8 | 2001-02-08T08:35 |", "score": 0.4923, "match_basis": "verbatim_token+domain_route:PP"}, {"md_atom_id": "md_dmPP_ex_a085", "md_file": "knowledge_base/domains/PP/examples.md", "md_atom_type": "TABLE_ROW", "md_parent_section": "§PP [PP — Examples]", "md_verbatim": "| 1 | ABC-123 | PP | ABC-123-0001 | 1 | DY1DRGX | DY1DRGX | DY1DRGX_A | TMAX | TMAX | Time of CMAX | DRUG X | 1.87 | h | 1.87 | 1.87 | h | PLASMA | 1 | 2001-02-01T08:35 |", "score": 0.4889, "match_basis": "verbatim_token+domain_route:PP"}, {"md_atom_id": "md_dmPP_ex_a087", "md_file": "knowledge_base/domains/PP/examples.md", "md_atom_type": "TABLE_ROW", "md_parent_section": "§PP [PP — Examples]", "md_verbatim": "| 3 | ABC-123 | PP | ABC-123-0001 | 3 | DY1DRGX | DY1DRGX | DY1DRGX_A | AUC | AUCALL | AUC All | DRUG X | 294.7 | h*ug/mL | 294.7 | 294.7 | h*ug/mL | PLASMA | 1 | 2001-02-01T08:35 |", "score": 0.4889, "match_basis": "verbatim_token+domain_route:PP"}], "candidate_count": 5, "zero_candidate": false}
{"pdf_atom_id": "ig34_p0283_a055", "pdf_atom_type": "TABLE_ROW", "pdf_source": "SDTMIG_v3.4", "pdf_page": 283, "pdf_parent_section": "§6.3.5.9.3 Relating PP Records to PC Records — Example 4", "pdf_verbatim": "| 43 | ABC-123 | PC | ABC-123-0001 | PCSEQ | 8 | | 4 |", "figure_ref": null, "candidates": [{"md_atom_id": "md_dmPP_ex_a095", "md_file": "knowledge_base/domains/PP/examples.md", "md_atom_type": "TABLE_ROW", "md_parent_section": "§PP [PP — Examples]", "md_verbatim": "| 11 | ABC-123 | PP | ABC-123-0001 | 13 | DY8DRGX | DY8DRGX | DY8DRGX | DY8DRGX | VZO | Vz Obs | DRUG X | 10.7 | L | 10.7 | 10.7 | L | PLASMA | 8 | 2001-02-08T08:35 |", "score": 0.5, "match_basis": "verbatim_token+domain_route:PP"}, {"md_atom_id": "md_dmPP_ex_a086", "md_file": "knowledge_base/domains/PP/examples.md", "md_atom_type": "TABLE_ROW", "md_parent_section": "§PP [PP — Examples]", "md_verbatim": "| 2 | ABC-123 | PP | ABC-123-0001 | 2 | DY1DRGX | DY1DRGX | DY1DRGX_A | CMAX | CMAX | Max Conc | DRUG X | 44.5 | ng/mL | 44.5 | 44.5 | ng/mL | PLASMA | 1 | 2001-02-01T08:35 |", "score": 0.4923, "match_basis": "verbatim_token+domain_route:PP"}, {"md_atom_id": "md_dmPP_ex_a092", "md_file": "knowledge_base/domains/PP/examples.md", "md_atom_type": "TABLE_ROW", "md_parent_section": "§PP [PP — Examples]", "md_verbatim": "| 8 | ABC-123 | PP | ABC-123-0001 | 9 | DY8DRGX | DY8DRGX | DY8DRGX | DY8DRGX | CMAX | Max Conc | DRUG X | 46.0 | ng/mL | 46.0 | 46.0 | ng/mL | PLASMA | 8 | 2001-02-08T08:35 |", "score": 0.4923, "match_basis": "verbatim_token+domain_route:PP"}, {"md_atom_id": "md_dmPP_ex_a085", "md_file": "knowledge_base/domains/PP/examples.md", "md_atom_type": "TABLE_ROW", "md_parent_section": "§PP [PP — Examples]", "md_verbatim": "| 1 | ABC-123 | PP | ABC-123-0001 | 1 | DY1DRGX | DY1DRGX | DY1DRGX_A | TMAX | TMAX | Time of CMAX | DRUG X | 1.87 | h | 1.87 | 1.87 | h | PLASMA | 1 | 2001-02-01T08:35 |", "score": 0.4889, "match_basis": "verbatim_token+domain_route:PP"}, {"md_atom_id": "md_dmPP_ex_a087", "md_file": "knowledge_base/domains/PP/examples.md", "md_atom_type": "TABLE_ROW", "md_parent_section": "§PP [PP — Examples]", "md_verbatim": "| 3 | ABC-123 | PP | ABC-123-0001 | 3 | DY1DRGX | DY1DRGX | DY1DRGX_A | AUC | AUCALL | AUC All | DRUG X | 294.7 | h*ug/mL | 294.7 | 294.7 | h*ug/mL | PLASMA | 1 | 2001-02-01T08:35 |", "score": 0.4889, "match_basis": "verbatim_token+domain_route:PP"}], "candidate_count": 5, "zero_candidate": false}
{"pdf_atom_id": "ig34_p0283_a056", "pdf_atom_type": "TABLE_ROW", "pdf_source": "SDTMIG_v3.4", "pdf_page": 283, "pdf_parent_section": "§6.3.5.9.3 Relating PP Records to PC Records — Example 4", "pdf_verbatim": "| 44 | ABC-123 | PC | ABC-123-0001 | PCSEQ | 9 | | 4 |", "figure_ref": null, "candidates": [{"md_atom_id": "md_dmPP_ex_a095", "md_file": "knowledge_base/domains/PP/examples.md", "md_atom_type": "TABLE_ROW", "md_parent_section": "§PP [PP — Examples]", "md_verbatim": "| 11 | ABC-123 | PP | ABC-123-0001 | 13 | DY8DRGX | DY8DRGX | DY8DRGX | DY8DRGX | VZO | Vz Obs | DRUG X | 10.7 | L | 10.7 | 10.7 | L | PLASMA | 8 | 2001-02-08T08:35 |", "score": 0.5, "match_basis": "verbatim_token+domain_route:PP"}, {"md_atom_id": "md_dmPP_ex_a086", "md_file": "knowledge_base/domains/PP/examples.md", "md_atom_type": "TABLE_ROW", "md_parent_section": "§PP [PP — Examples]", "md_verbatim": "| 2 | ABC-123 | PP | ABC-123-0001 | 2 | DY1DRGX | DY1DRGX | DY1DRGX_A | CMAX | CMAX | Max Conc | DRUG X | 44.5 | ng/mL | 44.5 | 44.5 | ng/mL | PLASMA | 1 | 2001-02-01T08:35 |", "score": 0.4923, "match_basis": "verbatim_token+domain_route:PP"}, {"md_atom_id": "md_dmPP_ex_a092", "md_file": "knowledge_base/domains/PP/examples.md", "md_atom_type": "TABLE_ROW", "md_parent_section": "§PP [PP — Examples]", "md_verbatim": "| 8 | ABC-123 | PP | ABC-123-0001 | 9 | DY8DRGX | DY8DRGX | DY8DRGX | DY8DRGX | CMAX | Max Conc | DRUG X | 46.0 | ng/mL | 46.0 | 46.0 | ng/mL | PLASMA | 8 | 2001-02-08T08:35 |", "score": 0.4923, "match_basis": "verbatim_token+domain_route:PP"}, {"md_atom_id": "md_dmPP_ex_a085", "md_file": "knowledge_base/domains/PP/examples.md", "md_atom_type": "TABLE_ROW", "md_parent_section": "§PP [PP — Examples]", "md_verbatim": "| 1 | ABC-123 | PP | ABC-123-0001 | 1 | DY1DRGX | DY1DRGX | DY1DRGX_A | TMAX | TMAX | Time of CMAX | DRUG X | 1.87 | h | 1.87 | 1.87 | h | PLASMA | 1 | 2001-02-01T08:35 |", "score": 0.4889, "match_basis": "verbatim_token+domain_route:PP"}, {"md_atom_id": "md_dmPP_ex_a087", "md_file": "knowledge_base/domains/PP/examples.md", "md_atom_type": "TABLE_ROW", "md_parent_section": "§PP [PP — Examples]", "md_verbatim": "| 3 | ABC-123 | PP | ABC-123-0001 | 3 | DY1DRGX | DY1DRGX | DY1DRGX_A | AUC | AUCALL | AUC All | DRUG X | 294.7 | h*ug/mL | 294.7 | 294.7 | h*ug/mL | PLASMA | 1 | 2001-02-01T08:35 |", "score": 0.4889, "match_basis": "verbatim_token+domain_route:PP"}], "candidate_count": 5, "zero_candidate": false}
{"pdf_atom_id": "ig34_p0283_a057", "pdf_atom_type": "TABLE_ROW", "pdf_source": "SDTMIG_v3.4", "pdf_page": 283, "pdf_parent_section": "§6.3.5.9.3 Relating PP Records to PC Records — Example 4", "pdf_verbatim": "| 45 | ABC-123 | PC | ABC-123-0001 | PCSEQ | 10 | | 4 |", "figure_ref": null, "candidates": [{"md_atom_id": "md_dmPP_ex_a095", "md_file": "knowledge_base/domains/PP/examples.md", "md_atom_type": "TABLE_ROW", "md_parent_section": "§PP [PP — Examples]", "md_verbatim": "| 11 | ABC-123 | PP | ABC-123-0001 | 13 | DY8DRGX | DY8DRGX | DY8DRGX | DY8DRGX | VZO | Vz Obs | DRUG X | 10.7 | L | 10.7 | 10.7 | L | PLASMA | 8 | 2001-02-08T08:35 |", "score": 0.5, "match_basis": "verbatim_token+domain_route:PP"}, {"md_atom_id": "md_dmPP_ex_a086", "md_file": "knowledge_base/domains/PP/examples.md", "md_atom_type": "TABLE_ROW", "md_parent_section": "§PP [PP — Examples]", "md_verbatim": "| 2 | ABC-123 | PP | ABC-123-0001 | 2 | DY1DRGX | DY1DRGX | DY1DRGX_A | CMAX | CMAX | Max Conc | DRUG X | 44.5 | ng/mL | 44.5 | 44.5 | ng/mL | PLASMA | 1 | 2001-02-01T08:35 |", "score": 0.4923, "match_basis": "verbatim_token+domain_route:PP"}, {"md_atom_id": "md_dmPP_ex_a092", "md_file": "knowledge_base/domains/PP/examples.md", "md_atom_type": "TABLE_ROW", "md_parent_section": "§PP [PP — Examples]", "md_verbatim": "| 8 | ABC-123 | PP | ABC-123-0001 | 9 | DY8DRGX | DY8DRGX | DY8DRGX | DY8DRGX | CMAX | Max Conc | DRUG X | 46.0 | ng/mL | 46.0 | 46.0 | ng/mL | PLASMA | 8 | 2001-02-08T08:35 |", "score": 0.4923, "match_basis": "verbatim_token+domain_route:PP"}, {"md_atom_id": "md_dmPP_ex_a085", "md_file": "knowledge_base/domains/PP/examples.md", "md_atom_type": "TABLE_ROW", "md_parent_section": "§PP [PP — Examples]", "md_verbatim": "| 1 | ABC-123 | PP | ABC-123-0001 | 1 | DY1DRGX | DY1DRGX | DY1DRGX_A | TMAX | TMAX | Time of CMAX | DRUG X | 1.87 | h | 1.87 | 1.87 | h | PLASMA | 1 | 2001-02-01T08:35 |", "score": 0.4889, "match_basis": "verbatim_token+domain_route:PP"}, {"md_atom_id": "md_dmPP_ex_a087", "md_file": "knowledge_base/domains/PP/examples.md", "md_atom_type": "TABLE_ROW", "md_parent_section": "§PP [PP — Examples]", "md_verbatim": "| 3 | ABC-123 | PP | ABC-123-0001 | 3 | DY1DRGX | DY1DRGX | DY1DRGX_A | AUC | AUCALL | AUC All | DRUG X | 294.7 | h*ug/mL | 294.7 | 294.7 | h*ug/mL | PLASMA | 1 | 2001-02-01T08:35 |", "score": 0.4889, "match_basis": "verbatim_token+domain_route:PP"}], "candidate_count": 5, "zero_candidate": false}
{"pdf_atom_id": "ig34_p0283_a058", "pdf_atom_type": "TABLE_ROW", "pdf_source": "SDTMIG_v3.4", "pdf_page": 283, "pdf_parent_section": "§6.3.5.9.3 Relating PP Records to PC Records — Example 4", "pdf_verbatim": "| 46 | ABC-123 | PC | ABC-123-0001 | PCSEQ | 11 | | 4 |", "figure_ref": null, "candidates": [{"md_atom_id": "md_dmPP_ex_a095", "md_file": "knowledge_base/domains/PP/examples.md", "md_atom_type": "TABLE_ROW", "md_parent_section": "§PP [PP — Examples]", "md_verbatim": "| 11 | ABC-123 | PP | ABC-123-0001 | 13 | DY8DRGX | DY8DRGX | DY8DRGX | DY8DRGX | VZO | Vz Obs | DRUG X | 10.7 | L | 10.7 | 10.7 | L | PLASMA | 8 | 2001-02-08T08:35 |", "score": 0.5, "match_basis": "verbatim_token+domain_route:PP"}, {"md_atom_id": "md_dmPP_ex_a086", "md_file": "knowledge_base/domains/PP/examples.md", "md_atom_type": "TABLE_ROW", "md_parent_section": "§PP [PP — Examples]", "md_verbatim": "| 2 | ABC-123 | PP | ABC-123-0001 | 2 | DY1DRGX | DY1DRGX | DY1DRGX_A | CMAX | CMAX | Max Conc | DRUG X | 44.5 | ng/mL | 44.5 | 44.5 | ng/mL | PLASMA | 1 | 2001-02-01T08:35 |", "score": 0.4923, "match_basis": "verbatim_token+domain_route:PP"}, {"md_atom_id": "md_dmPP_ex_a092", "md_file": "knowledge_base/domains/PP/examples.md", "md_atom_type": "TABLE_ROW", "md_parent_section": "§PP [PP — Examples]", "md_verbatim": "| 8 | ABC-123 | PP | ABC-123-0001 | 9 | DY8DRGX | DY8DRGX | DY8DRGX | DY8DRGX | CMAX | Max Conc | DRUG X | 46.0 | ng/mL | 46.0 | 46.0 | ng/mL | PLASMA | 8 | 2001-02-08T08:35 |", "score": 0.4923, "match_basis": "verbatim_token+domain_route:PP"}, {"md_atom_id": "md_dmPP_ex_a085", "md_file": "knowledge_base/domains/PP/examples.md", "md_atom_type": "TABLE_ROW", "md_parent_section": "§PP [PP — Examples]", "md_verbatim": "| 1 | ABC-123 | PP | ABC-123-0001 | 1 | DY1DRGX | DY1DRGX | DY1DRGX_A | TMAX | TMAX | Time of CMAX | DRUG X | 1.87 | h | 1.87 | 1.87 | h | PLASMA | 1 | 2001-02-01T08:35 |", "score": 0.4889, "match_basis": "verbatim_token+domain_route:PP"}, {"md_atom_id": "md_dmPP_ex_a087", "md_file": "knowledge_base/domains/PP/examples.md", "md_atom_type": "TABLE_ROW", "md_parent_section": "§PP [PP — Examples]", "md_verbatim": "| 3 | ABC-123 | PP | ABC-123-0001 | 3 | DY1DRGX | DY1DRGX | DY1DRGX_A | AUC | AUCALL | AUC All | DRUG X | 294.7 | h*ug/mL | 294.7 | 294.7 | h*ug/mL | PLASMA | 1 | 2001-02-01T08:35 |", "score": 0.4889, "match_basis": "verbatim_token+domain_route:PP"}], "candidate_count": 5, "zero_candidate": false}
{"pdf_atom_id": "ig34_p0284_a001", "pdf_atom_type": "TABLE_ROW", "pdf_source": "SDTMIG_v3.4", "pdf_page": 284, "pdf_parent_section": "§6.3.5.9.3 Relating PP Records to PC Records — Example 4", "pdf_verbatim": "| 47 | ABC-123 | PC | ABC-123-0001 | PCSEQ | 12 | | 4 |", "figure_ref": null, "candidates": [{"md_atom_id": "md_dmPP_ex_a095", "md_file": "knowledge_base/domains/PP/examples.md", "md_atom_type": "TABLE_ROW", "md_parent_section": "§PP [PP — Examples]", "md_verbatim": "| 11 | ABC-123 | PP | ABC-123-0001 | 13 | DY8DRGX | DY8DRGX | DY8DRGX | DY8DRGX | VZO | Vz Obs | DRUG X | 10.7 | L | 10.7 | 10.7 | L | PLASMA | 8 | 2001-02-08T08:35 |", "score": 0.5, "match_basis": "verbatim_token+domain_route:PP"}, {"md_atom_id": "md_dmPP_ex_a086", "md_file": "knowledge_base/domains/PP/examples.md", "md_atom_type": "TABLE_ROW", "md_parent_section": "§PP [PP — Examples]", "md_verbatim": "| 2 | ABC-123 | PP | ABC-123-0001 | 2 | DY1DRGX | DY1DRGX | DY1DRGX_A | CMAX | CMAX | Max Conc | DRUG X | 44.5 | ng/mL | 44.5 | 44.5 | ng/mL | PLASMA | 1 | 2001-02-01T08:35 |", "score": 0.4923, "match_basis": "verbatim_token+domain_route:PP"}, {"md_atom_id": "md_dmPP_ex_a092", "md_file": "knowledge_base/domains/PP/examples.md", "md_atom_type": "TABLE_ROW", "md_parent_section": "§PP [PP — Examples]", "md_verbatim": "| 8 | ABC-123 | PP | ABC-123-0001 | 9 | DY8DRGX | DY8DRGX | DY8DRGX | DY8DRGX | CMAX | Max Conc | DRUG X | 46.0 | ng/mL | 46.0 | 46.0 | ng/mL | PLASMA | 8 | 2001-02-08T08:35 |", "score": 0.4923, "match_basis": "verbatim_token+domain_route:PP"}, {"md_atom_id": "md_dmPP_ex_a085", "md_file": "knowledge_base/domains/PP/examples.md", "md_atom_type": "TABLE_ROW", "md_parent_section": "§PP [PP — Examples]", "md_verbatim": "| 1 | ABC-123 | PP | ABC-123-0001 | 1 | DY1DRGX | DY1DRGX | DY1DRGX_A | TMAX | TMAX | Time of CMAX | DRUG X | 1.87 | h | 1.87 | 1.87 | h | PLASMA | 1 | 2001-02-01T08:35 |", "score": 0.4889, "match_basis": "verbatim_token+domain_route:PP"}, {"md_atom_id": "md_dmPP_ex_a087", "md_file": "knowledge_base/domains/PP/examples.md", "md_atom_type": "TABLE_ROW", "md_parent_section": "§PP [PP — Examples]", "md_verbatim": "| 3 | ABC-123 | PP | ABC-123-0001 | 3 | DY1DRGX | DY1DRGX | DY1DRGX_A | AUC | AUCALL | AUC All | DRUG X | 294.7 | h*ug/mL | 294.7 | 294.7 | h*ug/mL | PLASMA | 1 | 2001-02-01T08:35 |", "score": 0.4889, "match_basis": "verbatim_token+domain_route:PP"}], "candidate_count": 5, "zero_candidate": false}
{"pdf_atom_id": "ig34_p0284_a002", "pdf_atom_type": "TABLE_ROW", "pdf_source": "SDTMIG_v3.4", "pdf_page": 284, "pdf_parent_section": "§6.3.5.9.3 Relating PP Records to PC Records — Example 4", "pdf_verbatim": "| 48 | ABC-123 | PP | ABC-123-0001 | PPSEQ | 4 | | 4 |", "figure_ref": null, "candidates": [{"md_atom_id": "md_dmPP_ex_a043", "md_file": "knowledge_base/domains/PP/examples.md", "md_atom_type": "TABLE_ROW", "md_parent_section": "§PP.1 [Example 1]", "md_verbatim": "| 7 | ABC-123 | PP | 123-1001 | PPSEQ | 7 | PKCOND | Condition of PK Analysis | SINGLE DOSE | Collected | |", "score": 0.5, "match_basis": "verbatim_token+domain_route:PP"}, {"md_atom_id": "md_dmPP_ex_a095", "md_file": "knowledge_base/domains/PP/examples.md", "md_atom_type": "TABLE_ROW", "md_parent_section": "§PP [PP — Examples]", "md_verbatim": "| 11 | ABC-123 | PP | ABC-123-0001 | 13 | DY8DRGX | DY8DRGX | DY8DRGX | DY8DRGX | VZO | Vz Obs | DRUG X | 10.7 | L | 10.7 | 10.7 | L | PLASMA | 8 | 2001-02-08T08:35 |", "score": 0.5, "match_basis": "verbatim_token+domain_route:PP"}, {"md_atom_id": "md_dmPP_ex_a086", "md_file": "knowledge_base/domains/PP/examples.md", "md_atom_type": "TABLE_ROW", "md_parent_section": "§PP [PP — Examples]", "md_verbatim": "| 2 | ABC-123 | PP | ABC-123-0001 | 2 | DY1DRGX | DY1DRGX | DY1DRGX_A | CMAX | CMAX | Max Conc | DRUG X | 44.5 | ng/mL | 44.5 | 44.5 | ng/mL | PLASMA | 1 | 2001-02-01T08:35 |", "score": 0.4923, "match_basis": "verbatim_token+domain_route:PP"}, {"md_atom_id": "md_dmPP_ex_a092", "md_file": "knowledge_base/domains/PP/examples.md", "md_atom_type": "TABLE_ROW", "md_parent_section": "§PP [PP — Examples]", "md_verbatim": "| 8 | ABC-123 | PP | ABC-123-0001 | 9 | DY8DRGX | DY8DRGX | DY8DRGX | DY8DRGX | CMAX | Max Conc | DRUG X | 46.0 | ng/mL | 46.0 | 46.0 | ng/mL | PLASMA | 8 | 2001-02-08T08:35 |", "score": 0.4923, "match_basis": "verbatim_token+domain_route:PP"}, {"md_atom_id": "md_dmPP_ex_a085", "md_file": "knowledge_base/domains/PP/examples.md", "md_atom_type": "TABLE_ROW", "md_parent_section": "§PP [PP — Examples]", "md_verbatim": "| 1 | ABC-123 | PP | ABC-123-0001 | 1 | DY1DRGX | DY1DRGX | DY1DRGX_A | TMAX | TMAX | Time of CMAX | DRUG X | 1.87 | h | 1.87 | 1.87 | h | PLASMA | 1 | 2001-02-01T08:35 |", "score": 0.4889, "match_basis": "verbatim_token+domain_route:PP"}], "candidate_count": 5, "zero_candidate": false}
{"pdf_atom_id": "ig34_p0284_a003", "pdf_atom_type": "TABLE_ROW", "pdf_source": "SDTMIG_v3.4", "pdf_page": 284, "pdf_parent_section": "§6.3.5.9.3 Relating PP Records to PC Records — Example 4", "pdf_verbatim": "| 49 | ABC-123 | PP | ABC-123-0001 | PPSEQ | 5 | | 4 |", "figure_ref": null, "candidates": [{"md_atom_id": "md_dmPP_ex_a043", "md_file": "knowledge_base/domains/PP/examples.md", "md_atom_type": "TABLE_ROW", "md_parent_section": "§PP.1 [Example 1]", "md_verbatim": "| 7 | ABC-123 | PP | 123-1001 | PPSEQ | 7 | PKCOND | Condition of PK Analysis | SINGLE DOSE | Collected | |", "score": 0.5, "match_basis": "verbatim_token+domain_route:PP"}, {"md_atom_id": "md_dmPP_ex_a095", "md_file": "knowledge_base/domains/PP/examples.md", "md_atom_type": "TABLE_ROW", "md_parent_section": "§PP [PP — Examples]", "md_verbatim": "| 11 | ABC-123 | PP | ABC-123-0001 | 13 | DY8DRGX | DY8DRGX | DY8DRGX | DY8DRGX | VZO | Vz Obs | DRUG X | 10.7 | L | 10.7 | 10.7 | L | PLASMA | 8 | 2001-02-08T08:35 |", "score": 0.5, "match_basis": "verbatim_token+domain_route:PP"}, {"md_atom_id": "md_dmPP_ex_a086", "md_file": "knowledge_base/domains/PP/examples.md", "md_atom_type": "TABLE_ROW", "md_parent_section": "§PP [PP — Examples]", "md_verbatim": "| 2 | ABC-123 | PP | ABC-123-0001 | 2 | DY1DRGX | DY1DRGX | DY1DRGX_A | CMAX | CMAX | Max Conc | DRUG X | 44.5 | ng/mL | 44.5 | 44.5 | ng/mL | PLASMA | 1 | 2001-02-01T08:35 |", "score": 0.4923, "match_basis": "verbatim_token+domain_route:PP"}, {"md_atom_id": "md_dmPP_ex_a092", "md_file": "knowledge_base/domains/PP/examples.md", "md_atom_type": "TABLE_ROW", "md_parent_section": "§PP [PP — Examples]", "md_verbatim": "| 8 | ABC-123 | PP | ABC-123-0001 | 9 | DY8DRGX | DY8DRGX | DY8DRGX | DY8DRGX | CMAX | Max Conc | DRUG X | 46.0 | ng/mL | 46.0 | 46.0 | ng/mL | PLASMA | 8 | 2001-02-08T08:35 |", "score": 0.4923, "match_basis": "verbatim_token+domain_route:PP"}, {"md_atom_id": "md_dmPP_ex_a085", "md_file": "knowledge_base/domains/PP/examples.md", "md_atom_type": "TABLE_ROW", "md_parent_section": "§PP [PP — Examples]", "md_verbatim": "| 1 | ABC-123 | PP | ABC-123-0001 | 1 | DY1DRGX | DY1DRGX | DY1DRGX_A | TMAX | TMAX | Time of CMAX | DRUG X | 1.87 | h | 1.87 | 1.87 | h | PLASMA | 1 | 2001-02-01T08:35 |", "score": 0.4889, "match_basis": "verbatim_token+domain_route:PP"}], "candidate_count": 5, "zero_candidate": false}
{"pdf_atom_id": "ig34_p0284_a004", "pdf_atom_type": "TABLE_ROW", "pdf_source": "SDTMIG_v3.4", "pdf_page": 284, "pdf_parent_section": "§6.3.5.9.3 Relating PP Records to PC Records — Example 4", "pdf_verbatim": "| 50 | ABC-123 | PP | ABC-123-0001 | PPSEQ | 6 | | 4 |", "figure_ref": null, "candidates": [{"md_atom_id": "md_dmPP_ex_a043", "md_file": "knowledge_base/domains/PP/examples.md", "md_atom_type": "TABLE_ROW", "md_parent_section": "§PP.1 [Example 1]", "md_verbatim": "| 7 | ABC-123 | PP | 123-1001 | PPSEQ | 7 | PKCOND | Condition of PK Analysis | SINGLE DOSE | Collected | |", "score": 0.5, "match_basis": "verbatim_token+domain_route:PP"}, {"md_atom_id": "md_dmPP_ex_a095", "md_file": "knowledge_base/domains/PP/examples.md", "md_atom_type": "TABLE_ROW", "md_parent_section": "§PP [PP — Examples]", "md_verbatim": "| 11 | ABC-123 | PP | ABC-123-0001 | 13 | DY8DRGX | DY8DRGX | DY8DRGX | DY8DRGX | VZO | Vz Obs | DRUG X | 10.7 | L | 10.7 | 10.7 | L | PLASMA | 8 | 2001-02-08T08:35 |", "score": 0.5, "match_basis": "verbatim_token+domain_route:PP"}, {"md_atom_id": "md_dmPP_ex_a086", "md_file": "knowledge_base/domains/PP/examples.md", "md_atom_type": "TABLE_ROW", "md_parent_section": "§PP [PP — Examples]", "md_verbatim": "| 2 | ABC-123 | PP | ABC-123-0001 | 2 | DY1DRGX | DY1DRGX | DY1DRGX_A | CMAX | CMAX | Max Conc | DRUG X | 44.5 | ng/mL | 44.5 | 44.5 | ng/mL | PLASMA | 1 | 2001-02-01T08:35 |", "score": 0.4923, "match_basis": "verbatim_token+domain_route:PP"}, {"md_atom_id": "md_dmPP_ex_a092", "md_file": "knowledge_base/domains/PP/examples.md", "md_atom_type": "TABLE_ROW", "md_parent_section": "§PP [PP — Examples]", "md_verbatim": "| 8 | ABC-123 | PP | ABC-123-0001 | 9 | DY8DRGX | DY8DRGX | DY8DRGX | DY8DRGX | CMAX | Max Conc | DRUG X | 46.0 | ng/mL | 46.0 | 46.0 | ng/mL | PLASMA | 8 | 2001-02-08T08:35 |", "score": 0.4923, "match_basis": "verbatim_token+domain_route:PP"}, {"md_atom_id": "md_dmPP_ex_a085", "md_file": "knowledge_base/domains/PP/examples.md", "md_atom_type": "TABLE_ROW", "md_parent_section": "§PP [PP — Examples]", "md_verbatim": "| 1 | ABC-123 | PP | ABC-123-0001 | 1 | DY1DRGX | DY1DRGX | DY1DRGX_A | TMAX | TMAX | Time of CMAX | DRUG X | 1.87 | h | 1.87 | 1.87 | h | PLASMA | 1 | 2001-02-01T08:35 |", "score": 0.4889, "match_basis": "verbatim_token+domain_route:PP"}], "candidate_count": 5, "zero_candidate": false}
{"pdf_atom_id": "ig34_p0284_a005", "pdf_atom_type": "TABLE_ROW", "pdf_source": "SDTMIG_v3.4", "pdf_page": 284, "pdf_parent_section": "§6.3.5.9.3 Relating PP Records to PC Records — Example 4", "pdf_verbatim": "| 51 | ABC-123 | PP | ABC-123-0001 | PPSEQ | 7 | | 4 |", "figure_ref": null, "candidates": [{"md_atom_id": "md_dmPP_ex_a043", "md_file": "knowledge_base/domains/PP/examples.md", "md_atom_type": "TABLE_ROW", "md_parent_section": "§PP.1 [Example 1]", "md_verbatim": "| 7 | ABC-123 | PP | 123-1001 | PPSEQ | 7 | PKCOND | Condition of PK Analysis | SINGLE DOSE | Collected | |", "score": 0.5, "match_basis": "verbatim_token+domain_route:PP"}, {"md_atom_id": "md_dmPP_ex_a095", "md_file": "knowledge_base/domains/PP/examples.md", "md_atom_type": "TABLE_ROW", "md_parent_section": "§PP [PP — Examples]", "md_verbatim": "| 11 | ABC-123 | PP | ABC-123-0001 | 13 | DY8DRGX | DY8DRGX | DY8DRGX | DY8DRGX | VZO | Vz Obs | DRUG X | 10.7 | L | 10.7 | 10.7 | L | PLASMA | 8 | 2001-02-08T08:35 |", "score": 0.5, "match_basis": "verbatim_token+domain_route:PP"}, {"md_atom_id": "md_dmPP_ex_a086", "md_file": "knowledge_base/domains/PP/examples.md", "md_atom_type": "TABLE_ROW", "md_parent_section": "§PP [PP — Examples]", "md_verbatim": "| 2 | ABC-123 | PP | ABC-123-0001 | 2 | DY1DRGX | DY1DRGX | DY1DRGX_A | CMAX | CMAX | Max Conc | DRUG X | 44.5 | ng/mL | 44.5 | 44.5 | ng/mL | PLASMA | 1 | 2001-02-01T08:35 |", "score": 0.4923, "match_basis": "verbatim_token+domain_route:PP"}, {"md_atom_id": "md_dmPP_ex_a092", "md_file": "knowledge_base/domains/PP/examples.md", "md_atom_type": "TABLE_ROW", "md_parent_section": "§PP [PP — Examples]", "md_verbatim": "| 8 | ABC-123 | PP | ABC-123-0001 | 9 | DY8DRGX | DY8DRGX | DY8DRGX | DY8DRGX | CMAX | Max Conc | DRUG X | 46.0 | ng/mL | 46.0 | 46.0 | ng/mL | PLASMA | 8 | 2001-02-08T08:35 |", "score": 0.4923, "match_basis": "verbatim_token+domain_route:PP"}, {"md_atom_id": "md_dmPP_ex_a085", "md_file": "knowledge_base/domains/PP/examples.md", "md_atom_type": "TABLE_ROW", "md_parent_section": "§PP [PP — Examples]", "md_verbatim": "| 1 | ABC-123 | PP | ABC-123-0001 | 1 | DY1DRGX | DY1DRGX | DY1DRGX_A | TMAX | TMAX | Time of CMAX | DRUG X | 1.87 | h | 1.87 | 1.87 | h | PLASMA | 1 | 2001-02-01T08:35 |", "score": 0.4889, "match_basis": "verbatim_token+domain_route:PP"}], "candidate_count": 5, "zero_candidate": false}
{"pdf_atom_id": "ig34_p0284_a006", "pdf_atom_type": "HEADING", "pdf_source": "SDTMIG_v3.4", "pdf_page": 284, "pdf_parent_section": "§6.3.5.9.3 Relating PP Records to PC Records", "pdf_verbatim": "PC-PP Conclusions", "figure_ref": null, "candidates": [{"md_atom_id": "md_dmPP_assn_a001", "md_file": "knowledge_base/domains/PP/assumptions.md", "md_atom_type": "HEADING", "md_parent_section": "§PP [PP — Assumptions]", "md_verbatim": "# PP — Assumptions", "score": 0.475, "match_basis": "verbatim_token+domain_route:PP"}, {"md_atom_id": "md_dmPP_ex_a001", "md_file": "knowledge_base/domains/PP/examples.md", "md_atom_type": "HEADING", "md_parent_section": "§PP [PP — Examples]", "md_verbatim": "# PP — Examples", "score": 0.4, "match_basis": "verbatim_token+domain_route:PP"}, {"md_atom_id": "md_dmPP_ex_a004", "md_file": "knowledge_base/domains/PP/examples.md", "md_atom_type": "HEADING", "md_parent_section": "§PP [PP — Examples]", "md_verbatim": "## Example 1", "score": 0.4, "match_basis": "verbatim_token+domain_route:PP"}, {"md_atom_id": "md_dmPP_ex_a044", "md_file": "knowledge_base/domains/PP/examples.md", "md_atom_type": "HEADING", "md_parent_section": "§PP [PP — Examples]", "md_verbatim": "## Example 2", "score": 0.4, "match_basis": "verbatim_token+domain_route:PP"}, {"md_atom_id": "md_dmPP_ex_a059", "md_file": "knowledge_base/domains/PP/examples.md", "md_atom_type": "HEADING", "md_parent_section": "§PP [PP — Examples]", "md_verbatim": "## Example 3", "score": 0.4, "match_basis": "verbatim_token+domain_route:PP"}], "candidate_count": 5, "zero_candidate": false}
{"pdf_atom_id": "ig34_p0284_a007", "pdf_atom_type": "SENTENCE", "pdf_source": "SDTMIG_v3.4", "pdf_page": 284, "pdf_parent_section": "§6.3.5.9.3 Relating PP Records to PC Records", "pdf_verbatim": "Relating the datasets (as described in Section 8, Representing Relationships and Data) is the simplest method; however, all time-point concentrations in PC must be used to calculate all parameters for all subjects. If datasets cannot be related, then individual subject records must be related. In either case, the values of PCGRPID and PPGRPID must take into account multiple analytes and multiple reference time points, if they exist.", "figure_ref": null, "candidates": [{"md_atom_id": "md_dmPP_ex_a002", "md_file": "knowledge_base/domains/PP/examples.md", "md_atom_type": "SENTENCE", "md_parent_section": "§PP [PP — Examples]", "md_verbatim": "*Note: PC and PP share a combined examples section (6.3.5.9.3 Relating PP Records to PC Records). The PP parameter data tables are shown here; see also PC examples for the concentration data and detailed RELREC method descriptions.*", "score": 0.5645, "match_basis": "verbatim_token+domain_route:PP"}, {"md_atom_id": "md_dmPP_ex_a082", "md_file": "knowledge_base/domains/PP/examples.md", "md_atom_type": "SENTENCE", "md_parent_section": "§PP [PP — Examples]", "md_verbatim": "The shared PP dataset contains 12 rows showing PK parameters (TMAX, CMAX, AUCALL, LAMZHL, VZO, CLO) for Drug X (STUDYDRUG analyte) across Day 1 and Day 8, with 4 PPGRPID columns showing the grouping values for the 4 RELREC method examples described in the PC examples section.", "score": 0.5623, "match_basis": "verbatim_token+domain_route:PP"}, {"md_atom_id": "md_dmPP_ex_a005", "md_file": "knowledge_base/domains/PP/examples.md", "md_atom_type": "SENTENCE", "md_parent_section": "§PP.1 [Example 1]", "md_verbatim": "This example shows PK parameters calculated from time-concentration profiles for the parent drug and 1 metabolite in plasma and urine for one subject. Note that PPRFDTC is populated in order to link the PP records to the respective PC records. In this example, PPSPEC is null for observed total clearance (PPTESTCD = \"CLO\") records because it is calculated from multiple specimen sources (i.e., plasma and urine).", "score": 0.5444, "match_basis": "verbatim_token+domain_route:PP"}, {"md_atom_id": "md_dmPP_ex_a047", "md_file": "knowledge_base/domains/PP/examples.md", "md_atom_type": "SENTENCE", "md_parent_section": "§PP.2 [Example 2]", "md_verbatim": "**Row 4:** Shows the \"Ratio AUC\" measurement of Drug Metabolite 1 to Drug Parent. Instead of pre-coordinating \"Ratio AUC of Drug Metabolite 1 to Drug Parent\" all into the PPTEST, PPANMETH is used to describe the numerator (Drug Metabolite 1) and the denominator (Drug Parent) values that contribute to the Ratio AUC calculation in PPTEST. This post-coordination approach liberates the PPTEST variable from having to house hyper-specific, pre-coordinated PK parameter values.", "score": 0.5176, "match_basis": "verbatim_token+domain_route:PP"}, {"md_atom_id": "md_dmPP_ex_a060", "md_file": "knowledge_base/domains/PP/examples.md", "md_atom_type": "SENTENCE", "md_parent_section": "§PP.3 [Example 3]", "md_verbatim": "This example shows the use of PPSTINT and PPENINT to describe the AUC segments for the test code \"AUCINT\", the area under the curve from time T1 to time T2. Time T1 is represented in PPSTINT as the elapsed time since PPRFDTC and time T2 is represented in PPENINT as the elapsed time since PPRFDTC.", "score": 0.4939, "match_basis": "verbatim_token+domain_route:PP"}], "candidate_count": 5, "zero_candidate": false}
{"pdf_atom_id": "ig34_p0284_a008", "pdf_atom_type": "SENTENCE", "pdf_source": "SDTMIG_v3.4", "pdf_page": 284, "pdf_parent_section": "§6.3.5.9.3 Relating PP Records to PC Records", "pdf_verbatim": "Method A is clearly the most efficient in terms of having the least number of RELREC records, but it does require the assignment of --GRPID values (which are optional) in both the PC and PP datasets. Method D, in contrast, does not require the assignment of --GRPID values, relying instead on the required --SEQ values in both datasets to relate the records. Although Method D results in the largest number of RELREC records compared to the other methods, it may be the easiest to implement consistently across the range of complexities shown in the examples. Two additional methods, methods B and C, are also shown for Examples 1-3. They represent hybrid approaches, using --GRPID values in only 1 dataset (PP and PC, respectively) and --SEQ values for the other. These methods are best suited for sponsors who want to minimize the number of RELREC records while not having to assign --GRPID values in both domains. Methods B and C would not be ideal, however, if one expected complex scenarios as shown in Example 4.", "figure_ref": null, "candidates": [{"md_atom_id": "md_dmPP_ex_a002", "md_file": "knowledge_base/domains/PP/examples.md", "md_atom_type": "SENTENCE", "md_parent_section": "§PP [PP — Examples]", "md_verbatim": "*Note: PC and PP share a combined examples section (6.3.5.9.3 Relating PP Records to PC Records). The PP parameter data tables are shown here; see also PC examples for the concentration data and detailed RELREC method descriptions.*", "score": 0.5077, "match_basis": "verbatim_token+domain_route:PP"}, {"md_atom_id": "md_dmPP_ex_a047", "md_file": "knowledge_base/domains/PP/examples.md", "md_atom_type": "SENTENCE", "md_parent_section": "§PP.2 [Example 2]", "md_verbatim": "**Row 4:** Shows the \"Ratio AUC\" measurement of Drug Metabolite 1 to Drug Parent. Instead of pre-coordinating \"Ratio AUC of Drug Metabolite 1 to Drug Parent\" all into the PPTEST, PPANMETH is used to describe the numerator (Drug Metabolite 1) and the denominator (Drug Parent) values that contribute to the Ratio AUC calculation in PPTEST. This post-coordination approach liberates the PPTEST variable from having to house hyper-specific, pre-coordinated PK parameter values.", "score": 0.5022, "match_basis": "verbatim_token+domain_route:PP"}, {"md_atom_id": "md_dmPP_ex_a082", "md_file": "knowledge_base/domains/PP/examples.md", "md_atom_type": "SENTENCE", "md_parent_section": "§PP [PP — Examples]", "md_verbatim": "The shared PP dataset contains 12 rows showing PK parameters (TMAX, CMAX, AUCALL, LAMZHL, VZO, CLO) for Drug X (STUDYDRUG analyte) across Day 1 and Day 8, with 4 PPGRPID columns showing the grouping values for the 4 RELREC method examples described in the PC examples section.", "score": 0.4983, "match_basis": "verbatim_token+domain_route:PP"}, {"md_atom_id": "md_dmPP_ex_a005", "md_file": "knowledge_base/domains/PP/examples.md", "md_atom_type": "SENTENCE", "md_parent_section": "§PP.1 [Example 1]", "md_verbatim": "This example shows PK parameters calculated from time-concentration profiles for the parent drug and 1 metabolite in plasma and urine for one subject. Note that PPRFDTC is populated in order to link the PP records to the respective PC records. In this example, PPSPEC is null for observed total clearance (PPTESTCD = \"CLO\") records because it is calculated from multiple specimen sources (i.e., plasma and urine).", "score": 0.4919, "match_basis": "verbatim_token+domain_route:PP"}, {"md_atom_id": "md_dmPP_ex_a097", "md_file": "knowledge_base/domains/PP/examples.md", "md_atom_type": "SENTENCE", "md_parent_section": "§PP [PP — Examples]", "md_verbatim": "*See PC examples for the full description of RELREC Methods A through D and their corresponding relrec.xpt tables.*", "score": 0.4664, "match_basis": "verbatim_token+domain_route:PP"}], "candidate_count": 5, "zero_candidate": false}
{"pdf_atom_id": "ig34_p0284_a009", "pdf_atom_type": "SENTENCE", "pdf_source": "SDTMIG_v3.4", "pdf_page": 284, "pdf_parent_section": "§6.3.5.9.3 Relating PP Records to PC Records — PC-PP Conclusions", "pdf_verbatim": "Note that an attempt has been made to approximate real pharmacokinetic data; however, the example values are not intended to reflect data used for actual analysis. When certain time-point concentrations have been omitted from PP calculations in Examples 2-4, the actual parameter values in the PP dataset have not been recalculated from those in Example 1 to reflect those omissions.", "figure_ref": null, "candidates": [{"md_atom_id": "md_dmPP_ex_a002", "md_file": "knowledge_base/domains/PP/examples.md", "md_atom_type": "SENTENCE", "md_parent_section": "§PP [PP — Examples]", "md_verbatim": "*Note: PC and PP share a combined examples section (6.3.5.9.3 Relating PP Records to PC Records). The PP parameter data tables are shown here; see also PC examples for the concentration data and detailed RELREC method descriptions.*", "score": 0.5333, "match_basis": "verbatim_token+domain_route:PP"}, {"md_atom_id": "md_dmPP_ex_a005", "md_file": "knowledge_base/domains/PP/examples.md", "md_atom_type": "SENTENCE", "md_parent_section": "§PP.1 [Example 1]", "md_verbatim": "This example shows PK parameters calculated from time-concentration profiles for the parent drug and 1 metabolite in plasma and urine for one subject. Note that PPRFDTC is populated in order to link the PP records to the respective PC records. In this example, PPSPEC is null for observed total clearance (PPTESTCD = \"CLO\") records because it is calculated from multiple specimen sources (i.e., plasma and urine).", "score": 0.5325, "match_basis": "verbatim_token+domain_route:PP"}, {"md_atom_id": "md_dmPP_ex_a082", "md_file": "knowledge_base/domains/PP/examples.md", "md_atom_type": "SENTENCE", "md_parent_section": "§PP [PP — Examples]", "md_verbatim": "The shared PP dataset contains 12 rows showing PK parameters (TMAX, CMAX, AUCALL, LAMZHL, VZO, CLO) for Drug X (STUDYDRUG analyte) across Day 1 and Day 8, with 4 PPGRPID columns showing the grouping values for the 4 RELREC method examples described in the PC examples section.", "score": 0.513, "match_basis": "verbatim_token+domain_route:PP"}, {"md_atom_id": "md_dmPP_ex_a047", "md_file": "knowledge_base/domains/PP/examples.md", "md_atom_type": "SENTENCE", "md_parent_section": "§PP.2 [Example 2]", "md_verbatim": "**Row 4:** Shows the \"Ratio AUC\" measurement of Drug Metabolite 1 to Drug Parent. Instead of pre-coordinating \"Ratio AUC of Drug Metabolite 1 to Drug Parent\" all into the PPTEST, PPANMETH is used to describe the numerator (Drug Metabolite 1) and the denominator (Drug Parent) values that contribute to the Ratio AUC calculation in PPTEST. This post-coordination approach liberates the PPTEST variable from having to house hyper-specific, pre-coordinated PK parameter values.", "score": 0.5047, "match_basis": "verbatim_token+domain_route:PP"}, {"md_atom_id": "md_dmPP_ex_a034", "md_file": "knowledge_base/domains/PP/examples.md", "md_atom_type": "SENTENCE", "md_parent_section": "§PP.1 [Example 1]", "md_verbatim": "The SUPPPP dataset example shows the specific condition under which the PK analysis was performed.", "score": 0.4841, "match_basis": "verbatim_token+domain_route:PP"}], "candidate_count": 5, "zero_candidate": false}
{"pdf_atom_id": "ig34_p0284_a010", "pdf_atom_type": "HEADING", "pdf_source": "SDTMIG_v3.4", "pdf_page": 284, "pdf_parent_section": "§6.3.5.9.3 Relating PP Records to PC Records", "pdf_verbatim": "PC-PP – Suggestions for Implementing RELREC in the Submission of PK Data", "figure_ref": null, "candidates": [{"md_atom_id": "md_dmPP_ex_a081", "md_file": "knowledge_base/domains/PP/examples.md", "md_atom_type": "HEADING", "md_parent_section": "§PP [PP — Examples]", "md_verbatim": "## Shared PP Dataset for RELREC Examples", "score": 0.52, "match_basis": "verbatim_token+domain_route:PP"}, {"md_atom_id": "md_dmPP_assn_a001", "md_file": "knowledge_base/domains/PP/assumptions.md", "md_atom_type": "HEADING", "md_parent_section": "§PP [PP — Assumptions]", "md_verbatim": "# PP — Assumptions", "score": 0.445, "match_basis": "verbatim_token+domain_route:PP"}, {"md_atom_id": "md_dmPP_ex_a004", "md_file": "knowledge_base/domains/PP/examples.md", "md_atom_type": "HEADING", "md_parent_section": "§PP [PP — Examples]", "md_verbatim": "## Example 1", "score": 0.4324, "match_basis": "verbatim_token+domain_route:PP"}, {"md_atom_id": "md_dmPP_ex_a044", "md_file": "knowledge_base/domains/PP/examples.md", "md_atom_type": "HEADING", "md_parent_section": "§PP [PP — Examples]", "md_verbatim": "## Example 2", "score": 0.4324, "match_basis": "verbatim_token+domain_route:PP"}, {"md_atom_id": "md_dmPP_ex_a059", "md_file": "knowledge_base/domains/PP/examples.md", "md_atom_type": "HEADING", "md_parent_section": "§PP [PP — Examples]", "md_verbatim": "## Example 3", "score": 0.4324, "match_basis": "verbatim_token+domain_route:PP"}], "candidate_count": 5, "zero_candidate": false}
{"pdf_atom_id": "ig34_p0284_a011", "pdf_atom_type": "SENTENCE", "pdf_source": "SDTMIG_v3.4", "pdf_page": 284, "pdf_parent_section": "§6.3.5.9.3 Relating PP Records to PC Records", "pdf_verbatim": "Determine which of the scenarios best reflects how PP data are related to PC data. Questions that should be considered include:", "figure_ref": null, "candidates": [{"md_atom_id": "md_dmPP_ex_a002", "md_file": "knowledge_base/domains/PP/examples.md", "md_atom_type": "SENTENCE", "md_parent_section": "§PP [PP — Examples]", "md_verbatim": "*Note: PC and PP share a combined examples section (6.3.5.9.3 Relating PP Records to PC Records). The PP parameter data tables are shown here; see also PC examples for the concentration data and detailed RELREC method descriptions.*", "score": 0.4984, "match_basis": "verbatim_token+domain_route:PP"}, {"md_atom_id": "md_dmPP_ex_a003", "md_file": "knowledge_base/domains/PP/examples.md", "md_atom_type": "SENTENCE", "md_parent_section": "§PP [PP — Examples]", "md_verbatim": "Due to space limitations, not all expected or permissible findings variables are included in the example for this domain.", "score": 0.4849, "match_basis": "verbatim_token+domain_route:PP"}, {"md_atom_id": "md_dmPP_ex_a034", "md_file": "knowledge_base/domains/PP/examples.md", "md_atom_type": "SENTENCE", "md_parent_section": "§PP.1 [Example 1]", "md_verbatim": "The SUPPPP dataset example shows the specific condition under which the PK analysis was performed.", "score": 0.4742, "match_basis": "verbatim_token+domain_route:PP"}, {"md_atom_id": "md_dmPP_ex_a047", "md_file": "knowledge_base/domains/PP/examples.md", "md_atom_type": "SENTENCE", "md_parent_section": "§PP.2 [Example 2]", "md_verbatim": "**Row 4:** Shows the \"Ratio AUC\" measurement of Drug Metabolite 1 to Drug Parent. Instead of pre-coordinating \"Ratio AUC of Drug Metabolite 1 to Drug Parent\" all into the PPTEST, PPANMETH is used to describe the numerator (Drug Metabolite 1) and the denominator (Drug Parent) values that contribute to the Ratio AUC calculation in PPTEST. This post-coordination approach liberates the PPTEST variable from having to house hyper-specific, pre-coordinated PK parameter values.", "score": 0.4637, "match_basis": "verbatim_token+domain_route:PP"}, {"md_atom_id": "md_dmPP_ex_a049", "md_file": "knowledge_base/domains/PP/examples.md", "md_atom_type": "SENTENCE", "md_parent_section": "§PP.2 [Example 2]", "md_verbatim": "**Rows 6-7:** Show AUC Infinity Obs and AUC Infinity Pred for the DRUG PARENT. Both are calculated using the LIN-LOG TRAPEZOIDAL METHOD which is in PPANMETH.", "score": 0.4623, "match_basis": "verbatim_token+domain_route:PP"}], "candidate_count": 5, "zero_candidate": false}
{"pdf_atom_id": "ig34_p0284_a012", "pdf_atom_type": "LIST_ITEM", "pdf_source": "SDTMIG_v3.4", "pdf_page": 284, "pdf_parent_section": "§6.3.5.9.3 Relating PP Records to PC Records", "pdf_verbatim": "Do all parameters for each PK profile use all concentrations for all subjects? If so, create a PPGRPID value for all PP records and a PCGRPID value for all PC records for each profile for each subject, analyte, and reference time point. Decide whether to relate datasets or records. If choosing the latter, create records in RELREC for each PCGRPID value and each PPGRPID value (method A). Use RELID to show which PCGRPID and PPGRPID records are related. Consider RELREC methods B, C, and D as applicable.", "figure_ref": null, "candidates": [{"md_atom_id": "md_dmPP_assn_a003", "md_file": "knowledge_base/domains/PP/assumptions.md", "md_atom_type": "LIST_ITEM", "md_parent_section": "§PP [PP — Assumptions]", "md_verbatim": "2. Information pertaining to all parameters (e.g., number of exponents, model weighting) should be submitted in the SUPPPP dataset.", "score": 0.4915, "match_basis": "verbatim_token+domain_route:PP"}, {"md_atom_id": "md_dmPP_assn_a005", "md_file": "knowledge_base/domains/PP/assumptions.md", "md_atom_type": "LIST_ITEM", "md_parent_section": "§PP [PP — Assumptions]", "md_verbatim": "4. Multiple subset codelists were created for the unique unit expressions of the same concept across codelists. This approach allows study-context appropriate use of unit values for pharmacokinetics (PK) analysis subtypes. Controlled Terminology Rules for PK are available at https://www.cdisc.org/standards/terminology/controlled-terminology.", "score": 0.4897, "match_basis": "verbatim_token+domain_route:PP"}, {"md_atom_id": "md_dmPP_ex_a002", "md_file": "knowledge_base/domains/PP/examples.md", "md_atom_type": "SENTENCE", "md_parent_section": "§PP [PP — Examples]", "md_verbatim": "*Note: PC and PP share a combined examples section (6.3.5.9.3 Relating PP Records to PC Records). The PP parameter data tables are shown here; see also PC examples for the concentration data and detailed RELREC method descriptions.*", "score": 0.4874, "match_basis": "verbatim_token+domain_route:PP"}, {"md_atom_id": "md_dmPP_assn_a002", "md_file": "knowledge_base/domains/PP/assumptions.md", "md_atom_type": "LIST_ITEM", "md_parent_section": "§PP [PP — Assumptions]", "md_verbatim": "1. Pharmacokinetics Parameters is a derived dataset, and may be produced from an analysis dataset with a different structure. As a result, some sponsors may need to normalize their analysis dataset in order for it to fit into the SDTM-based PP domain.", "score": 0.4857, "match_basis": "verbatim_token+domain_route:PP"}, {"md_atom_id": "md_dmPP_assn_a004", "md_file": "knowledge_base/domains/PP/assumptions.md", "md_atom_type": "LIST_ITEM", "md_parent_section": "§PP [PP — Assumptions]", "md_verbatim": "3. There are separate codelists used for PPORRESU/PPSTRESU where the choice depends on whether the value of the pharmacokinetic parameter is normalized.\n   a. Codelist \"PKUNIT\" is used for non-normalized parameters.\n   b. Codelists \"PKUDMG\" and \"PKUDUG\" are used when parameters are normalized by dose amount in milligrams or micrograms, respectively.\n   c. Codelists \"PKUWG\" and \"PKUWKG\" are used when parameters are normalized by weight in grams or kilograms, respectively.", "score": 0.4716, "match_basis": "verbatim_token+domain_route:PP"}], "candidate_count": 5, "zero_candidate": false}
{"pdf_atom_id": "ig34_p0284_a013", "pdf_atom_type": "LIST_ITEM", "pdf_source": "SDTMIG_v3.4", "pdf_page": 284, "pdf_parent_section": "§6.3.5.9.3 Relating PP Records to PC Records", "pdf_verbatim": "Do all parameters use the same concentrations, although maybe not all of them (Example 2)? If so, create a single PPGRPID value for all PP records, and 2 PCGRPID values for the PC records: a PCGRPID value for ones that were used and a PCGRPID value for those that were not used. Create records in RELREC for each PCGRPID value and each PPGRPID value (method A). Use RELID to show which PCGRPID and PPGRPID records are related. Consider RELREC methods B, C, and D as applicable.", "figure_ref": null, "candidates": [{"md_atom_id": "md_dmPP_ex_a002", "md_file": "knowledge_base/domains/PP/examples.md", "md_atom_type": "SENTENCE", "md_parent_section": "§PP [PP — Examples]", "md_verbatim": "*Note: PC and PP share a combined examples section (6.3.5.9.3 Relating PP Records to PC Records). The PP parameter data tables are shown here; see also PC examples for the concentration data and detailed RELREC method descriptions.*", "score": 0.5143, "match_basis": "verbatim_token+domain_route:PP"}, {"md_atom_id": "md_dmPP_assn_a005", "md_file": "knowledge_base/domains/PP/assumptions.md", "md_atom_type": "LIST_ITEM", "md_parent_section": "§PP [PP — Assumptions]", "md_verbatim": "4. Multiple subset codelists were created for the unique unit expressions of the same concept across codelists. This approach allows study-context appropriate use of unit values for pharmacokinetics (PK) analysis subtypes. Controlled Terminology Rules for PK are available at https://www.cdisc.org/standards/terminology/controlled-terminology.", "score": 0.4904, "match_basis": "verbatim_token+domain_route:PP"}, {"md_atom_id": "md_dmPP_assn_a003", "md_file": "knowledge_base/domains/PP/assumptions.md", "md_atom_type": "LIST_ITEM", "md_parent_section": "§PP [PP — Assumptions]", "md_verbatim": "2. Information pertaining to all parameters (e.g., number of exponents, model weighting) should be submitted in the SUPPPP dataset.", "score": 0.4789, "match_basis": "verbatim_token+domain_route:PP"}, {"md_atom_id": "md_dmPP_assn_a004", "md_file": "knowledge_base/domains/PP/assumptions.md", "md_atom_type": "LIST_ITEM", "md_parent_section": "§PP [PP — Assumptions]", "md_verbatim": "3. There are separate codelists used for PPORRESU/PPSTRESU where the choice depends on whether the value of the pharmacokinetic parameter is normalized.\n   a. Codelist \"PKUNIT\" is used for non-normalized parameters.\n   b. Codelists \"PKUDMG\" and \"PKUDUG\" are used when parameters are normalized by dose amount in milligrams or micrograms, respectively.\n   c. Codelists \"PKUWG\" and \"PKUWKG\" are used when parameters are normalized by weight in grams or kilograms, respectively.", "score": 0.4676, "match_basis": "verbatim_token+domain_route:PP"}, {"md_atom_id": "md_dmPP_assn_a006", "md_file": "knowledge_base/domains/PP/assumptions.md", "md_atom_type": "LIST_ITEM", "md_parent_section": "§PP [PP — Assumptions]", "md_verbatim": "5. Any Identifiers, Timing variables, or Findings general observation class qualifiers may be added to the PP domain, but the following qualifiers would not generally be used: --BODSYS, --SEV.", "score": 0.4578, "match_basis": "verbatim_token+domain_route:PP"}], "candidate_count": 5, "zero_candidate": false}
{"pdf_atom_id": "ig34_p0284_a014", "pdf_atom_type": "LIST_ITEM", "pdf_source": "SDTMIG_v3.4", "pdf_page": 284, "pdf_parent_section": "§6.3.5.9.3 Relating PP Records to PC Records", "pdf_verbatim": "Do any parameters use the same concentrations, but not as consistently as shown in Examples 1 and 2? If so, refer to Example 3. Assign a GRPID value to the PP records that use the same concentrations. More than 1 PPGRPID value may be necessary. Assign as many PCGRPID values in the PC domain as needed to group these records. Create records in RELREC for each PCGRPID value and each PPGRPID value (method A). Use RELID to show which PCGRPID and PPGRPID records are related. Consider RELREC methods B, C, and D as applicable.", "figure_ref": null, "candidates": [{"md_atom_id": "md_dmPP_assn_a005", "md_file": "knowledge_base/domains/PP/assumptions.md", "md_atom_type": "LIST_ITEM", "md_parent_section": "§PP [PP — Assumptions]", "md_verbatim": "4. Multiple subset codelists were created for the unique unit expressions of the same concept across codelists. This approach allows study-context appropriate use of unit values for pharmacokinetics (PK) analysis subtypes. Controlled Terminology Rules for PK are available at https://www.cdisc.org/standards/terminology/controlled-terminology.", "score": 0.4882, "match_basis": "verbatim_token+domain_route:PP"}, {"md_atom_id": "md_dmPP_ex_a002", "md_file": "knowledge_base/domains/PP/examples.md", "md_atom_type": "SENTENCE", "md_parent_section": "§PP [PP — Examples]", "md_verbatim": "*Note: PC and PP share a combined examples section (6.3.5.9.3 Relating PP Records to PC Records). The PP parameter data tables are shown here; see also PC examples for the concentration data and detailed RELREC method descriptions.*", "score": 0.4878, "match_basis": "verbatim_token+domain_route:PP"}, {"md_atom_id": "md_dmPP_assn_a006", "md_file": "knowledge_base/domains/PP/assumptions.md", "md_atom_type": "LIST_ITEM", "md_parent_section": "§PP [PP — Assumptions]", "md_verbatim": "5. Any Identifiers, Timing variables, or Findings general observation class qualifiers may be added to the PP domain, but the following qualifiers would not generally be used: --BODSYS, --SEV.", "score": 0.4729, "match_basis": "verbatim_token+domain_route:PP"}, {"md_atom_id": "md_dmPP_assn_a002", "md_file": "knowledge_base/domains/PP/assumptions.md", "md_atom_type": "LIST_ITEM", "md_parent_section": "§PP [PP — Assumptions]", "md_verbatim": "1. Pharmacokinetics Parameters is a derived dataset, and may be produced from an analysis dataset with a different structure. As a result, some sponsors may need to normalize their analysis dataset in order for it to fit into the SDTM-based PP domain.", "score": 0.4706, "match_basis": "verbatim_token+domain_route:PP"}, {"md_atom_id": "md_dmPP_assn_a003", "md_file": "knowledge_base/domains/PP/assumptions.md", "md_atom_type": "LIST_ITEM", "md_parent_section": "§PP [PP — Assumptions]", "md_verbatim": "2. Information pertaining to all parameters (e.g., number of exponents, model weighting) should be submitted in the SUPPPP dataset.", "score": 0.458, "match_basis": "verbatim_token+domain_route:PP"}], "candidate_count": 5, "zero_candidate": false}
{"pdf_atom_id": "ig34_p0284_a015", "pdf_atom_type": "LIST_ITEM", "pdf_source": "SDTMIG_v3.4", "pdf_page": 284, "pdf_parent_section": "§6.3.5.9.3 Relating PP Records to PC Records", "pdf_verbatim": "If none of the above applies, or the data become difficult to group, then start with Example 4, and decide which RELREC method would be easiest to implement and represent.", "figure_ref": null, "candidates": [{"md_atom_id": "md_dmPP_assn_a002", "md_file": "knowledge_base/domains/PP/assumptions.md", "md_atom_type": "LIST_ITEM", "md_parent_section": "§PP [PP — Assumptions]", "md_verbatim": "1. Pharmacokinetics Parameters is a derived dataset, and may be produced from an analysis dataset with a different structure. As a result, some sponsors may need to normalize their analysis dataset in order for it to fit into the SDTM-based PP domain.", "score": 0.4487, "match_basis": "verbatim_token+domain_route:PP"}, {"md_atom_id": "md_dmPP_assn_a003", "md_file": "knowledge_base/domains/PP/assumptions.md", "md_atom_type": "LIST_ITEM", "md_parent_section": "§PP [PP — Assumptions]", "md_verbatim": "2. Information pertaining to all parameters (e.g., number of exponents, model weighting) should be submitted in the SUPPPP dataset.", "score": 0.4369, "match_basis": "verbatim_token+domain_route:PP"}, {"md_atom_id": "md_dmPP_assn_a006", "md_file": "knowledge_base/domains/PP/assumptions.md", "md_atom_type": "LIST_ITEM", "md_parent_section": "§PP [PP — Assumptions]", "md_verbatim": "5. Any Identifiers, Timing variables, or Findings general observation class qualifiers may be added to the PP domain, but the following qualifiers would not generally be used: --BODSYS, --SEV.", "score": 0.4254, "match_basis": "verbatim_token+domain_route:PP"}, {"md_atom_id": "md_dmPP_assn_a005", "md_file": "knowledge_base/domains/PP/assumptions.md", "md_atom_type": "LIST_ITEM", "md_parent_section": "§PP [PP — Assumptions]", "md_verbatim": "4. Multiple subset codelists were created for the unique unit expressions of the same concept across codelists. This approach allows study-context appropriate use of unit values for pharmacokinetics (PK) analysis subtypes. Controlled Terminology Rules for PK are available at https://www.cdisc.org/standards/terminology/controlled-terminology.", "score": 0.4229, "match_basis": "verbatim_token+domain_route:PP"}, {"md_atom_id": "md_dmPP_assn_a004", "md_file": "knowledge_base/domains/PP/assumptions.md", "md_atom_type": "LIST_ITEM", "md_parent_section": "§PP [PP — Assumptions]", "md_verbatim": "3. There are separate codelists used for PPORRESU/PPSTRESU where the choice depends on whether the value of the pharmacokinetic parameter is normalized.\n   a. Codelist \"PKUNIT\" is used for non-normalized parameters.\n   b. Codelists \"PKUDMG\" and \"PKUDUG\" are used when parameters are normalized by dose amount in milligrams or micrograms, respectively.\n   c. Codelists \"PKUWG\" and \"PKUWKG\" are used when parameters are normalized by weight in grams or kilograms, respectively.", "score": 0.4226, "match_basis": "verbatim_token+domain_route:PP"}], "candidate_count": 5, "zero_candidate": false}
{"pdf_atom_id": "ig34_p0285_a001", "pdf_atom_type": "HEADING", "pdf_source": "SDTMIG_v3.4", "pdf_page": 285, "pdf_parent_section": "§6.3 [MODELS FOR FINDINGS DOMAINS]", "pdf_verbatim": "6.3.6 Morphology (MO)", "figure_ref": null, "candidates": [{"md_atom_id": "md_ch10_a159", "md_file": "knowledge_base/chapters/ch10_appendices.md", "md_atom_type": "HEADING", "md_parent_section": "§10.E [Revision History]", "md_verbatim": "### Decommissioning of MO (Morphology)", "score": 0.5286, "match_basis": "verbatim_token+global_search"}, {"md_atom_id": "md_index_a105", "md_file": "knowledge_base/INDEX.md", "md_atom_type": "HEADING", "md_parent_section": "§ SDTM Knowledge Base — Index", "md_verbatim": "## Terminology (91 files)", "score": 0.4059, "match_basis": "verbatim_token+global_search"}, {"md_atom_id": "md_index_a107", "md_file": "knowledge_base/INDEX.md", "md_atom_type": "HEADING", "md_parent_section": "§ Terminology (91 files)", "md_verbatim": "### Core Terminology (42 files)", "score": 0.3947, "match_basis": "verbatim_token+global_search"}, {"md_atom_id": "md_ch04_a426", "md_file": "knowledge_base/chapters/ch04_general_assumptions.md", "md_atom_type": "HEADING", "md_parent_section": "§4.3 [Coding and Controlled Terminology Assumptions]", "md_verbatim": "### 4.3.2 Controlled Terminology Text Case", "score": 0.3692, "match_basis": "verbatim_token+global_search"}, {"md_atom_id": "md_ch04_a429", "md_file": "knowledge_base/chapters/ch04_general_assumptions.md", "md_atom_type": "HEADING", "md_parent_section": "§4.3 [Coding and Controlled Terminology Assumptions]", "md_verbatim": "### 4.3.3 Controlled Terminology Values", "score": 0.3692, "match_basis": "verbatim_token+global_search"}], "candidate_count": 5, "zero_candidate": false}
{"pdf_atom_id": "ig34_p0285_a002", "pdf_atom_type": "NOTE", "pdf_source": "SDTMIG_v3.4", "pdf_page": 285, "pdf_parent_section": "§6.3.6 Morphology (MO)", "pdf_verbatim": "Domain Decommissioning Update", "figure_ref": null, "candidates": [{"md_atom_id": "md_ch01_a036", "md_file": "knowledge_base/chapters/ch01_introduction.md", "md_atom_type": "LIST_ITEM", "md_parent_section": "§1.3 [Relationship to Prior CDISC Documents]", "md_verbatim": "- Decommissioned the Morphology (MO) domain", "score": 0.4125, "match_basis": "verbatim_token+global_search"}, {"md_atom_id": "md_ch04_a068", "md_file": "knowledge_base/chapters/ch04_general_assumptions.md", "md_atom_type": "NOTE", "md_parent_section": "§4.1.7 [Splitting Domains]", "md_verbatim": "> **Note:** Submission of split SDTM domains may be subject to additional dataset-splitting conventions as defined by regulators via technical specifications and/or as negotiated with regulatory reviewers.", "score": 0.3686, "match_basis": "verbatim_token+global_search"}, {"md_atom_id": "md_model06_a036", "md_file": "knowledge_base/model/06_relationship_datasets.md", "md_atom_type": "NOTE", "md_parent_section": "§6.2 Supplemental Qualifiers (SUPP--)", "md_verbatim": "**Structure:** One record per supplemental qualifier per related parent domain record(s)", "score": 0.3632, "match_basis": "verbatim_token+global_search"}, {"md_atom_id": "md_ch04_a344", "md_file": "knowledge_base/chapters/ch04_general_assumptions.md", "md_atom_type": "NOTE", "md_parent_section": "§4.2.7.4 [\"Specify\" Values for --OBJ]", "md_verbatim": "**Figure. Decision Tree for Populating --OBJ**", "score": 0.3615, "match_basis": "verbatim_token+global_search"}, {"md_atom_id": "md_model01_a014", "md_file": "knowledge_base/model/01_concepts_and_terms.md", "md_atom_type": "NOTE", "md_parent_section": "§2.1 [Model Concepts and Terms — Variables]", "md_verbatim": "> **Key:** Plain box = Group of individually specified datasets. Green filled box = Extensible set of domains based on a common model.", "score": 0.3575, "match_basis": "verbatim_token+global_search"}], "candidate_count": 5, "zero_candidate": false}
{"pdf_atom_id": "ig34_p0285_a003", "pdf_atom_type": "SENTENCE", "pdf_source": "SDTMIG_v3.4", "pdf_page": 285, "pdf_parent_section": "§6.3.6 Morphology (MO)", "pdf_verbatim": "The MO domain has been decommissioned as of SDTMIG v3.4.", "figure_ref": null, "candidates": [{"md_atom_id": "md_ch01_a036", "md_file": "knowledge_base/chapters/ch01_introduction.md", "md_atom_type": "LIST_ITEM", "md_parent_section": "§1.3 [Relationship to Prior CDISC Documents]", "md_verbatim": "- Decommissioned the Morphology (MO) domain", "score": 0.5287, "match_basis": "verbatim_token+global_search"}, {"md_atom_id": "md_dmSS_ex_a002", "md_file": "knowledge_base/domains/SS/examples.md", "md_atom_type": "SENTENCE", "md_parent_section": "§SS [SS — Examples]", "md_verbatim": "No dataset examples are provided for the SS domain in the SDTMIG v3.4.", "score": 0.4256, "match_basis": "verbatim_token+global_search"}, {"md_atom_id": "md_dmAE_ex_a086", "md_file": "knowledge_base/domains/AE/examples.md", "md_atom_type": "SENTENCE", "md_parent_section": "§AE.6 [Example 6]", "md_verbatim": "The DI domain and other related device domains have not been modeled here; for further information about the device domains, see the SDTMIG-MD.", "score": 0.418, "match_basis": "verbatim_token+global_search"}, {"md_atom_id": "md_ch01_a023", "md_file": "knowledge_base/chapters/ch01_introduction.md", "md_atom_type": "SENTENCE", "md_parent_section": "§1.3 [Relationship to Prior CDISC Documents]", "md_verbatim": "This document, together with the SDTM, represents the most recent version of the CDISC submission data domain models.", "score": 0.4091, "match_basis": "verbatim_token+global_search"}, {"md_atom_id": "md_ch01_a006", "md_file": "knowledge_base/chapters/ch01_introduction.md", "md_atom_type": "SENTENCE", "md_parent_section": "§1.1 [Purpose]", "md_verbatim": "Version 3.4 supersedes all prior versions of the SDTMIG.", "score": 0.4077, "match_basis": "verbatim_token+global_search"}], "candidate_count": 5, "zero_candidate": false}
{"pdf_atom_id": "ig34_p0285_a004", "pdf_atom_type": "SENTENCE", "pdf_source": "SDTMIG_v3.4", "pdf_page": 285, "pdf_parent_section": "§6.3.6 Morphology (MO)", "pdf_verbatim": "When the Morphology domain was introduced in SDTMIG v3.2, the SDS Team planned to represent morphology and physiology findings in separate domains: morphology findings in the MO domain and physiology findings in separate domains by body systems. Since then, the team found that separating morphology and physiology findings was more difficult than anticipated and provided little added value. This led to the decision to expand the body system-based domains to cover both morphology and physiology findings and to deprecate MO in a future version of the SDTMIG. Submissions using that later SDTMIG version would represent morphology results in the appropriate body system-based physiology/morphology domain.", "figure_ref": null, "candidates": [{"md_atom_id": "md_ch10_a163", "md_file": "knowledge_base/chapters/ch10_appendices.md", "md_atom_type": "SENTENCE", "md_parent_section": "§10.E [Revision History]", "md_verbatim": "Since then, the team found that separating morphology and physiology findings was more difficult than anticipated and provided little added value.", "score": 0.5687, "match_basis": "verbatim_token+global_search"}, {"md_atom_id": "md_ch10_a165", "md_file": "knowledge_base/chapters/ch10_appendices.md", "md_atom_type": "SENTENCE", "md_parent_section": "§10.E [Revision History]", "md_verbatim": "Submissions using that later SDTMIG version would represent morphology results in the appropriate body system-based physiology/morphology domain.", "score": 0.565, "match_basis": "verbatim_token+global_search"}, {"md_atom_id": "md_ch10_a162", "md_file": "knowledge_base/chapters/ch10_appendices.md", "md_atom_type": "SENTENCE", "md_parent_section": "§10.E [Revision History]", "md_verbatim": "When the Morphology domain was introduced in SDTMIG v3.2, the SDS Team planned to represent morphology and physiology findings in separate domains: morphology findings in the MO domain and physiology findings in separate domains by body systems.", "score": 0.554, "match_basis": "verbatim_token+global_search"}, {"md_atom_id": "md_ch10_a164", "md_file": "knowledge_base/chapters/ch10_appendices.md", "md_atom_type": "SENTENCE", "md_parent_section": "§10.E [Revision History]", "md_verbatim": "This led to the decision to expand the body system-based domains to cover both morphology and physiology findings and to deprecate MO in SDTMIG v3.4.", "score": 0.5282, "match_basis": "verbatim_token+global_search"}, {"md_atom_id": "md_ch10_a166", "md_file": "knowledge_base/chapters/ch10_appendices.md", "md_atom_type": "SENTENCE", "md_parent_section": "§10.E [Revision History]", "md_verbatim": "For data prepared using a version of the SDTMIG that includes both the MO domain and body system-based physiology/morphology domains, morphology findings may be represented in either the MO domain or in a body-system based physiology/morphology domain.", "score": 0.5022, "match_basis": "verbatim_token+global_search"}], "candidate_count": 5, "zero_candidate": false}
{"pdf_atom_id": "ig34_p0285_a005", "pdf_atom_type": "SENTENCE", "pdf_source": "SDTMIG_v3.4", "pdf_page": 285, "pdf_parent_section": "§6.3.6 Morphology (MO)", "pdf_verbatim": "For data prepared using a version of the SDTMIG that includes both the MO domain and body system-based physiology/morphology domains, morphology findings may be represented in either the MO domain or in a body-system based physiology/morphology domain. Custom body system-based domains may be used if the appropriate body system-based domain is not included in the SDTMIG version being used.", "figure_ref": null, "candidates": [{"md_atom_id": "md_ch10_a166", "md_file": "knowledge_base/chapters/ch10_appendices.md", "md_atom_type": "SENTENCE", "md_parent_section": "§10.E [Revision History]", "md_verbatim": "For data prepared using a version of the SDTMIG that includes both the MO domain and body system-based physiology/morphology domains, morphology findings may be represented in either the MO domain or in a body-system based physiology/morphology domain.", "score": 0.7839, "match_basis": "verbatim_token+global_search"}, {"md_atom_id": "md_ch10_a167", "md_file": "knowledge_base/chapters/ch10_appendices.md", "md_atom_type": "SENTENCE", "md_parent_section": "§10.E [Revision History]", "md_verbatim": "Custom body system-based domains may be used if the appropriate body system-based domain is not included in the SDTMIG version being used.", "score": 0.6161, "match_basis": "verbatim_token+global_search"}, {"md_atom_id": "md_ch10_a165", "md_file": "knowledge_base/chapters/ch10_appendices.md", "md_atom_type": "SENTENCE", "md_parent_section": "§10.E [Revision History]", "md_verbatim": "Submissions using that later SDTMIG version would represent morphology results in the appropriate body system-based physiology/morphology domain.", "score": 0.6083, "match_basis": "verbatim_token+global_search"}, {"md_atom_id": "md_ch10_a164", "md_file": "knowledge_base/chapters/ch10_appendices.md", "md_atom_type": "SENTENCE", "md_parent_section": "§10.E [Revision History]", "md_verbatim": "This led to the decision to expand the body system-based domains to cover both morphology and physiology findings and to deprecate MO in SDTMIG v3.4.", "score": 0.5532, "match_basis": "verbatim_token+global_search"}, {"md_atom_id": "md_ch10_a162", "md_file": "knowledge_base/chapters/ch10_appendices.md", "md_atom_type": "SENTENCE", "md_parent_section": "§10.E [Revision History]", "md_verbatim": "When the Morphology domain was introduced in SDTMIG v3.2, the SDS Team planned to represent morphology and physiology findings in separate domains: morphology findings in the MO domain and physiology findings in separate domains by body systems.", "score": 0.5379, "match_basis": "verbatim_token+global_search"}], "candidate_count": 5, "zero_candidate": false}
{"pdf_atom_id": "ig34_p0285_a006", "pdf_atom_type": "HEADING", "pdf_source": "SDTMIG_v3.4", "pdf_page": 285, "pdf_parent_section": "§6.3 [MODELS FOR FINDINGS DOMAINS]", "pdf_verbatim": "6.3.7 Morphology/Physiology Domains", "figure_ref": null, "candidates": [{"md_atom_id": "md_ch10_a159", "md_file": "knowledge_base/chapters/ch10_appendices.md", "md_atom_type": "HEADING", "md_parent_section": "§10.E [Revision History]", "md_verbatim": "### Decommissioning of MO (Morphology)", "score": 0.48, "match_basis": "verbatim_token+global_search"}, {"md_atom_id": "md_index_a023", "md_file": "knowledge_base/INDEX.md", "md_atom_type": "HEADING", "md_parent_section": "§ SDTM Knowledge Base — Index", "md_verbatim": "## Domains (63 domains)", "score": 0.4667, "match_basis": "verbatim_token+global_search"}, {"md_atom_id": "md_index_a044", "md_file": "knowledge_base/INDEX.md", "md_atom_type": "HEADING", "md_parent_section": "§ Domains (63 domains)", "md_verbatim": "### Events Domains", "score": 0.4364, "match_basis": "verbatim_token+global_search"}, {"md_atom_id": "md_ch10_a152", "md_file": "knowledge_base/chapters/ch10_appendices.md", "md_atom_type": "HEADING", "md_parent_section": "§10.E [Revision History]", "md_verbatim": "### New Domains for SDTMIG v3.4", "score": 0.425, "match_basis": "verbatim_token+global_search"}, {"md_atom_id": "md_index_a053", "md_file": "knowledge_base/INDEX.md", "md_atom_type": "HEADING", "md_parent_section": "§ Domains (63 domains)", "md_verbatim": "### Findings Domains", "score": 0.425, "match_basis": "verbatim_token+global_search"}], "candidate_count": 5, "zero_candidate": false}
