{"pdf_atom_id": "sv20_p0067_a015", "pdf_atom_type": "TABLE_ROW", "pdf_source": "SDTM_v2.0", "pdf_page": 67, "pdf_parent_section": "§6.4 [Related Subjects Dataset]", "pdf_verbatim": "1 | STUDYID | Study Identifier | Char | | Identifier | | | C83082 | A sequence of characters used by the sponsor to uniquely identify the study. | | | |", "figure_ref": null, "candidates": [{"md_atom_id": "md_ch08_a073", "md_file": "knowledge_base/chapters/ch08_relationships.md", "md_atom_type": "TABLE_ROW", "md_parent_section": "§8.2.1 [Related Records (RELREC)]", "md_verbatim": "| STUDYID | Study Identifier | Char | | Identifier | Unique identifier for a study. | Req |", "score": 0.5426, "match_basis": "verbatim_token+global_search"}, {"md_atom_id": "md_ch08_a321", "md_file": "knowledge_base/chapters/ch08_relationships.md", "md_atom_type": "TABLE_ROW", "md_parent_section": "§8.8 [Related Specimens (RELSPEC)]", "md_verbatim": "| STUDYID | Study Identifier | Char | | Identifier | Unique identifier for a study. | Req |", "score": 0.5426, "match_basis": "verbatim_token+global_search"}, {"md_atom_id": "md_model02_a173", "md_file": "knowledge_base/model/02_observation_classes.md", "md_atom_type": "TABLE_ROW", "md_parent_section": "§3.1.4 Identifiers for All Classes", "md_verbatim": "| 9 | --SEQ | Sequence Number | Num | Identifier | Unique within STUDYID, USUBJID, and DOMAIN |", "score": 0.5095, "match_basis": "verbatim_token+global_search"}, {"md_atom_id": "md_model06_a019", "md_file": "knowledge_base/model/06_relationship_datasets.md", "md_atom_type": "TABLE_ROW", "md_parent_section": "§6.1 Related Records (RELREC)", "md_verbatim": "| 1 | STUDYID | Study Identifier | Char | Identifier | |", "score": 0.5, "match_basis": "verbatim_token+global_search"}, {"md_atom_id": "md_model06_a040", "md_file": "knowledge_base/model/06_relationship_datasets.md", "md_atom_type": "TABLE_ROW", "md_parent_section": "§6.2 Supplemental Qualifiers (SUPP--)", "md_verbatim": "| 1 | STUDYID | Study Identifier | Char | Identifier | |", "score": 0.5, "match_basis": "verbatim_token+global_search"}], "candidate_count": 5, "zero_candidate": false}
{"pdf_atom_id": "sv20_p0067_a016", "pdf_atom_type": "TABLE_ROW", "pdf_source": "SDTM_v2.0", "pdf_page": 67, "pdf_parent_section": "§6.4 [Related Subjects Dataset]", "pdf_verbatim": "2 | USUBJID | Unique Subject Identifier | Char | | Identifier | | | C69256 | A sequence of characters used to uniquely identify a subject across all studies for all applications or submissions involving the product. | Either USUBJID or POOLID must be populated. | | |", "figure_ref": null, "candidates": [{"md_atom_id": "md_ch08_a075", "md_file": "knowledge_base/chapters/ch08_relationships.md", "md_atom_type": "TABLE_ROW", "md_parent_section": "§8.2.1 [Related Records (RELREC)]", "md_verbatim": "| USUBJID | Unique Subject Identifier | Char | | Identifier | Identifier used to uniquely identify a subject across all studies for all applications or submissions involving the product. | Exp |", "score": 0.7061, "match_basis": "verbatim_token+global_search"}, {"md_atom_id": "md_ch08_a322", "md_file": "knowledge_base/chapters/ch08_relationships.md", "md_atom_type": "TABLE_ROW", "md_parent_section": "§8.8 [Related Specimens (RELSPEC)]", "md_verbatim": "| USUBJID | Unique Subject Identifier | Char | | Identifier | Identifier used to uniquely identify a subject across all studies for all applications or submissions involving the product. | Req |", "score": 0.7061, "match_basis": "verbatim_token+global_search"}, {"md_atom_id": "md_ch08_a160", "md_file": "knowledge_base/chapters/ch08_relationships.md", "md_atom_type": "TABLE_ROW", "md_parent_section": "§8.4.1 [Supplemental Qualifiers (SUPP--)]", "md_verbatim": "| USUBJID | Unique Subject Identifier | Char | | Identifier | Identifier used to uniquely identify a subject across all studies for all applications or submissions involving the product. This is the value of USUBJID in the parent record(s). | Req |", "score": 0.6622, "match_basis": "verbatim_token+global_search"}, {"md_atom_id": "md_model02_a167", "md_file": "knowledge_base/model/02_observation_classes.md", "md_atom_type": "TABLE_ROW", "md_parent_section": "§3.1.4 Identifiers for All Classes", "md_verbatim": "| 3 | USUBJID | Unique Subject Identifier | Char | Identifier | Unique identifier for a subject across all studies for the submission |", "score": 0.551, "match_basis": "verbatim_token+global_search"}, {"md_atom_id": "md_model04_a020", "md_file": "knowledge_base/model/04_associated_persons.md", "md_atom_type": "TABLE_ROW", "md_parent_section": "§4 [SDTM v2.0 — Chapter 4: Associated Persons Data]", "md_verbatim": "| RSUBJID | Related Subject or Pool Identifier | Char | Identifier | Identifier for a related subject or pool of subjects. RSUBJID may be populated with the USUBJID of the related subject or the POOLID of the related pool. |", "score": 0.4846, "match_basis": "verbatim_token+global_search"}], "candidate_count": 5, "zero_candidate": false}
{"pdf_atom_id": "sv20_p0067_a017", "pdf_atom_type": "TABLE_ROW", "pdf_source": "SDTM_v2.0", "pdf_page": 67, "pdf_parent_section": "§6.4 [Related Subjects Dataset]", "pdf_verbatim": "3 | POOLID | Pool Identifier | Char | | Identifier | | | C117053 | A sequence of characters used to uniquely identify a group of subjects that have been pooled together. | If POOLID is entered, POOLDEF records must exist for each subject in the pool and USUBJID must be null. Either USUBJID or POOLID must be populated. | | |", "figure_ref": null, "candidates": [{"md_atom_id": "md_model04_a020", "md_file": "knowledge_base/model/04_associated_persons.md", "md_atom_type": "TABLE_ROW", "md_parent_section": "§4 [SDTM v2.0 — Chapter 4: Associated Persons Data]", "md_verbatim": "| RSUBJID | Related Subject or Pool Identifier | Char | Identifier | Identifier for a related subject or pool of subjects. RSUBJID may be populated with the USUBJID of the related subject or the POOLID of the related pool. |", "score": 0.496, "match_basis": "verbatim_token+global_search"}, {"md_atom_id": "md_model04_a019", "md_file": "knowledge_base/model/04_associated_persons.md", "md_atom_type": "TABLE_ROW", "md_parent_section": "§4 [SDTM v2.0 — Chapter 4: Associated Persons Data]", "md_verbatim": "| APID | Associated Persons Identifier | Char | Identifier | Identifier for a single associated person, a group of associated persons, or a pool of associated persons. If APID identifies a pool, POOLDEF records must exist for each associated person (see Section 6.3, Pool Definition Dataset, and Section 4, Associated Persons Data). |", "score": 0.4688, "match_basis": "verbatim_token+global_search"}, {"md_atom_id": "md_model02_a174", "md_file": "knowledge_base/model/02_observation_classes.md", "md_atom_type": "TABLE_ROW", "md_parent_section": "§3.1.4 Identifiers for All Classes", "md_verbatim": "| 10 | --GRPID | Group ID | Char | Identifier | Used to tie together a block of related records |", "score": 0.4657, "match_basis": "verbatim_token+global_search"}, {"md_atom_id": "md_model06_a028", "md_file": "knowledge_base/model/06_relationship_datasets.md", "md_atom_type": "TABLE_ROW", "md_parent_section": "§6.1 Related Records (RELREC)", "md_verbatim": "| 10 | RELID | Relationship Identifier | Char | Record Qualifier | RELID value should be unique within the ID variable (e.g., USUBJID, APID, POOLID, SPDEVID) that is the subject of the relationship |", "score": 0.4579, "match_basis": "verbatim_token+global_search"}, {"md_atom_id": "md_model03_a018", "md_file": "knowledge_base/model/03_special_purpose_domains.md", "md_atom_type": "TABLE_ROW", "md_parent_section": "§ Demographics (DM) > Variables (38 variables)", "md_verbatim": "| 4 | SUBJID | Subject Identifier for the Study | Char | Topic | Subject identifier, which must be unique within the study |", "score": 0.4444, "match_basis": "verbatim_token+global_search"}], "candidate_count": 5, "zero_candidate": false}
{"pdf_atom_id": "sv20_p0067_a018", "pdf_atom_type": "TABLE_ROW", "pdf_source": "SDTM_v2.0", "pdf_page": 67, "pdf_parent_section": "§6.4 [Related Subjects Dataset]", "pdf_verbatim": "4 | RSUBJID | Related Subject or Pool Identifier | Char | | Identifier | | | | | Identifier used to identify a related subject or pool of subjects. RSUBJID will be populated with either the USUBJID of the related subject or the POOLID of the related pool. | | |", "figure_ref": null, "candidates": [{"md_atom_id": "md_model04_a020", "md_file": "knowledge_base/model/04_associated_persons.md", "md_atom_type": "TABLE_ROW", "md_parent_section": "§4 [SDTM v2.0 — Chapter 4: Associated Persons Data]", "md_verbatim": "| RSUBJID | Related Subject or Pool Identifier | Char | Identifier | Identifier for a related subject or pool of subjects. RSUBJID may be populated with the USUBJID of the related subject or the POOLID of the related pool. |", "score": 0.78, "match_basis": "verbatim_token+global_search"}, {"md_atom_id": "md_model06_a071", "md_file": "knowledge_base/model/06_relationship_datasets.md", "md_atom_type": "TABLE_ROW", "md_parent_section": "§6.4 Related Subjects (RELSUB)", "md_verbatim": "| 4 | RSUBJID | Related Subject or Pool Identifier | Char | Identifier |", "score": 0.6488, "match_basis": "verbatim_token+global_search"}, {"md_atom_id": "md_model06_a087", "md_file": "knowledge_base/model/06_relationship_datasets.md", "md_atom_type": "TABLE_ROW", "md_parent_section": "§6.6 Associated Persons Related Subjects (APRELSUB)", "md_verbatim": "| 3 | RSUBJID | Related Subject or Pool Identifier | Char | Identifier |", "score": 0.6488, "match_basis": "verbatim_token+global_search"}, {"md_atom_id": "md_ch08_a281", "md_file": "knowledge_base/chapters/ch08_relationships.md", "md_atom_type": "TABLE_ROW", "md_parent_section": "§8.7 [Related Subjects (RELSUB)]", "md_verbatim": "| RSUBJID | Related Subject or Pool Identifier | Char | Req |", "score": 0.6409, "match_basis": "verbatim_token+global_search"}, {"md_atom_id": "md_varindex_a1294", "md_file": "knowledge_base/VARIABLE_INDEX.md", "md_atom_type": "TABLE_ROW", "md_parent_section": "§ 二、领域专属变量（仅 1 个域，共 1499 个），按域分组", "md_verbatim": "| RSUBJID | Related Subject or Pool Identifier | Char | Identifier | Req | — |", "score": 0.6409, "match_basis": "verbatim_token+global_search"}], "candidate_count": 5, "zero_candidate": false}
{"pdf_atom_id": "sv20_p0067_a019", "pdf_atom_type": "TABLE_ROW", "pdf_source": "SDTM_v2.0", "pdf_page": 67, "pdf_parent_section": "§6.4 [Related Subjects Dataset]", "pdf_verbatim": "5 | SREL | Subject Relationship | Char | | Record Qualifier | | | | | Describes the relationship of the subject identified in USUBJID or the pool identified in POOLID to the subject or pool identified in RSUBJID. | | |", "figure_ref": null, "candidates": [{"md_atom_id": "md_model04_a022", "md_file": "knowledge_base/model/04_associated_persons.md", "md_atom_type": "TABLE_ROW", "md_parent_section": "§4 [SDTM v2.0 — Chapter 4: Associated Persons Data]", "md_verbatim": "| SREL | Subject, Device, or Study Relationship | Char | Identifier | If RSUBJID is populated, describes the relationship to the subject or pool. If RDEVID is populated, describes the relationship to the device. If both are null, describes the relationship to the study. |", "score": 0.6296, "match_basis": "verbatim_token+global_search"}, {"md_atom_id": "md_varindex_a1284", "md_file": "knowledge_base/VARIABLE_INDEX.md", "md_atom_type": "TABLE_ROW", "md_parent_section": "§ 二、领域专属变量（仅 1 个域，共 1499 个），按域分组", "md_verbatim": "| RELID | Relationship Identifier | Char | Record Qualifier | Req | — |", "score": 0.6283, "match_basis": "verbatim_token+global_search"}, {"md_atom_id": "md_varindex_a1295", "md_file": "knowledge_base/VARIABLE_INDEX.md", "md_atom_type": "TABLE_ROW", "md_parent_section": "§ 二、领域专属变量（仅 1 个域，共 1499 个），按域分组", "md_verbatim": "| SREL | Subject Relationship | Char | Record Qualifier | Req | C100130 |", "score": 0.6053, "match_basis": "verbatim_token+global_search"}, {"md_atom_id": "md_model06_a028", "md_file": "knowledge_base/model/06_relationship_datasets.md", "md_atom_type": "TABLE_ROW", "md_parent_section": "§6.1 Related Records (RELREC)", "md_verbatim": "| 10 | RELID | Relationship Identifier | Char | Record Qualifier | RELID value should be unique within the ID variable (e.g., USUBJID, APID, POOLID, SPDEVID) that is the subject of the relationship |", "score": 0.6, "match_basis": "verbatim_token+global_search"}, {"md_atom_id": "md_model06_a072", "md_file": "knowledge_base/model/06_relationship_datasets.md", "md_atom_type": "TABLE_ROW", "md_parent_section": "§6.4 Related Subjects (RELSUB)", "md_verbatim": "| 5 | SREL | Subject, Device, or Study Relationship | Char | Record Qualifier |", "score": 0.6, "match_basis": "verbatim_token+global_search"}], "candidate_count": 5, "zero_candidate": false}
{"pdf_atom_id": "sv20_p0068_a001", "pdf_atom_type": "HEADING", "pdf_source": "SDTM_v2.0", "pdf_page": 68, "pdf_parent_section": "§6 [DATASETS FOR REPRESENTING RELATIONSHIPS]", "pdf_verbatim": "6.5 Device-subject Relationships Dataset", "figure_ref": null, "candidates": [{"md_atom_id": "md_model06_a073", "md_file": "knowledge_base/model/06_relationship_datasets.md", "md_atom_type": "HEADING", "md_parent_section": "§6.5 Device-subject Relationships (DR)", "md_verbatim": "## 6.5 Device-subject Relationships (DR)", "score": 0.78, "match_basis": "verbatim_token+global_search"}, {"md_atom_id": "md_varindex_a1291", "md_file": "knowledge_base/VARIABLE_INDEX.md", "md_atom_type": "HEADING", "md_parent_section": "§ 二、领域专属变量（仅 1 个域，共 1499 个），按域分组", "md_verbatim": "### RELSUB — Related Subjects (Relationship)", "score": 0.6, "match_basis": "verbatim_token+global_search"}, {"md_atom_id": "md_dmRELREC_ex_a033", "md_file": "knowledge_base/domains/RELREC/examples.md", "md_atom_type": "HEADING", "md_parent_section": "§RELREC [RELREC — Examples]", "md_verbatim": "## Dataset Relationship Example", "score": 0.6, "match_basis": "verbatim_token+global_search"}, {"md_atom_id": "md_model06_a101", "md_file": "knowledge_base/model/06_relationship_datasets.md", "md_atom_type": "HEADING", "md_parent_section": "§ Summary of Relationship Datasets", "md_verbatim": "## Summary of Relationship Datasets", "score": 0.5903, "match_basis": "verbatim_token+global_search"}, {"md_atom_id": "md_ch04_a010", "md_file": "knowledge_base/chapters/ch04_general_assumptions.md", "md_atom_type": "HEADING", "md_parent_section": "§4.1 [General Domain Assumptions]", "md_verbatim": "### 4.1.2 Relationship to Analysis Datasets", "score": 0.5813, "match_basis": "verbatim_token+global_search"}], "candidate_count": 5, "zero_candidate": false}
{"pdf_atom_id": "sv20_p0068_a002", "pdf_atom_type": "SENTENCE", "pdf_source": "SDTM_v2.0", "pdf_page": 68, "pdf_parent_section": "§6.5 [Device-subject Relationships Dataset]", "pdf_verbatim": "The Device-subject Relationships (DR) domain is a special-purpose domain that links each subject to the associated devices.", "figure_ref": null, "candidates": [{"md_atom_id": "md_model06_a075", "md_file": "knowledge_base/model/06_relationship_datasets.md", "md_atom_type": "SENTENCE", "md_parent_section": "§6.5 Device-subject Relationships (DR)", "md_verbatim": "Links devices to subjects when the device is associated with a subject.", "score": 0.54, "match_basis": "verbatim_token+global_search"}, {"md_atom_id": "md_model04_a023", "md_file": "knowledge_base/model/04_associated_persons.md", "md_atom_type": "SENTENCE", "md_parent_section": "§4 [SDTM v2.0 — Chapter 4: Associated Persons Data]", "md_verbatim": "Relationships of an associated person to study subjects may be represented in the Associated Persons Relationships dataset.", "score": 0.5083, "match_basis": "verbatim_token+global_search"}, {"md_atom_id": "md_ch08_a053", "md_file": "knowledge_base/chapters/ch08_relationships.md", "md_atom_type": "SENTENCE", "md_parent_section": "§8.2 [Relating Peer Records]", "md_verbatim": "The Related Records (RELREC) special-purpose dataset is used to describe relationships between records for a subject (as described in this section), and relationships between datasets (as described in Section 8.3, Relating Datasets).", "score": 0.5047, "match_basis": "verbatim_token+global_search"}, {"md_atom_id": "md_model04_a005", "md_file": "knowledge_base/model/04_associated_persons.md", "md_atom_type": "SENTENCE", "md_parent_section": "§4 [SDTM v2.0 — Chapter 4: Associated Persons Data]", "md_verbatim": "The structures of SDTM datasets that represent data about associated persons are based on the structures for data about study subjects, either general observation class structures or special-purpose domain structures.", "score": 0.4922, "match_basis": "verbatim_token+global_search"}, {"md_atom_id": "md_model06_a083", "md_file": "knowledge_base/model/06_relationship_datasets.md", "md_atom_type": "SENTENCE", "md_parent_section": "§6.6 Associated Persons Related Subjects (APRELSUB)", "md_verbatim": "Links associated persons to subjects.", "score": 0.4855, "match_basis": "verbatim_token+global_search"}], "candidate_count": 5, "zero_candidate": false}
{"pdf_atom_id": "sv20_p0068_a003", "pdf_atom_type": "SENTENCE", "pdf_source": "SDTM_v2.0", "pdf_page": 68, "pdf_parent_section": "§6.5 [Device-subject Relationships Dataset]", "pdf_verbatim": "Information in this domain may have been collected and submitted in other domains (e.g., Device Exposure, Device Tracking and Disposition, Device Events).", "figure_ref": null, "candidates": [{"md_atom_id": "md_dmAE_ex_a086", "md_file": "knowledge_base/domains/AE/examples.md", "md_atom_type": "SENTENCE", "md_parent_section": "§AE.6 [Example 6]", "md_verbatim": "The DI domain and other related device domains have not been modeled here; for further information about the device domains, see the SDTMIG-MD.", "score": 0.4884, "match_basis": "verbatim_token+global_search"}, {"md_atom_id": "md_model03_a067", "md_file": "knowledge_base/model/03_special_purpose_domains.md", "md_atom_type": "SENTENCE", "md_parent_section": "§ Comments (CO)", "md_verbatim": "When collected, comments should be submitted in a single Comments domain, defined here.", "score": 0.4518, "match_basis": "verbatim_token+global_search"}, {"md_atom_id": "md_dmAE_ex_a039", "md_file": "knowledge_base/domains/AE/examples.md", "md_atom_type": "SENTENCE", "md_parent_section": "§AE.3 [Example 3]", "md_verbatim": "No other AE information was collected via general questions.", "score": 0.45, "match_basis": "verbatim_token+global_search"}, {"md_atom_id": "md_dmAE_ex_a072", "md_file": "knowledge_base/domains/AE/examples.md", "md_atom_type": "SENTENCE", "md_parent_section": "§AE.5 [Example 5]", "md_verbatim": "Device Identifiers (DI) and other related device domains have not been modeled here; for more information about device domains, see the SDTMIG-MD (https://www.cdisc.org/standards/foundational/medical-devices).", "score": 0.4475, "match_basis": "verbatim_token+global_search"}, {"md_atom_id": "md_dmDD_ex_a017", "md_file": "knowledge_base/domains/DD/examples.md", "md_atom_type": "SENTENCE", "md_parent_section": "§DD.2 [Example 2]", "md_verbatim": "This example illustrates how the DD, Disposition (DS), and AE data for a subject were linked using RELREC. Note that each of these domains serves a different purpose, even though the information is related. This subject had a fatal adverse event, represented in the AE domain.", "score": 0.4456, "match_basis": "verbatim_token+global_search"}], "candidate_count": 5, "zero_candidate": false}
{"pdf_atom_id": "sv20_p0068_a004", "pdf_atom_type": "SENTENCE", "pdf_source": "SDTM_v2.0", "pdf_page": 68, "pdf_parent_section": "§6.5 [Device-subject Relationships Dataset]", "pdf_verbatim": "This domain, however, provides a single, consistent location to find the relationship between a subject and a device, regardless of the device or the domain in which subject-related data may have been collected or submitted.", "figure_ref": null, "candidates": [{"md_atom_id": "md_ch08_a082", "md_file": "knowledge_base/chapters/ch08_relationships.md", "md_atom_type": "SENTENCE", "md_parent_section": "§8.2.2 [RELREC Dataset Examples]", "md_verbatim": "**Example 1:** This example illustrates the use of the RELREC dataset to relate records stored in separate domains for USUBJID = \"123456\". This example represents a situation in which a single adverse event is part of 2 collected relationships, one with 2 concomitant medications and the other with 2 laboratory findings, but there is no collected relationship between the 2 laboratory findings and the 2 concomitant medications.", "score": 0.4724, "match_basis": "verbatim_token+global_search"}, {"md_atom_id": "md_dmRELREC_ex_a004", "md_file": "knowledge_base/domains/RELREC/examples.md", "md_atom_type": "SENTENCE", "md_parent_section": "§RELREC.1.1 [Example 1]", "md_verbatim": "This example illustrates the use of the RELREC dataset to relate records stored in separate domains for USUBJID = \"123456\". This example represents a situation in which a single adverse event is part of 2 collected relationships, one with 2 concomitant medications and the other with 2 laboratory findings, but there is no collected relationship between the 2 laboratory findings and the 2 concomitant medications.", "score": 0.4724, "match_basis": "verbatim_token+global_search"}, {"md_atom_id": "md_dmRELREC_ex_a016", "md_file": "knowledge_base/domains/RELREC/examples.md", "md_atom_type": "SENTENCE", "md_parent_section": "§RELREC.1.2 [Example 2]", "md_verbatim": "Example 2 is the same scenario as Example 1. In this case, however, the way the data were collected indicated that the concomitant medications and laboratory findings were all in a single relationship to each other and the adverse event.", "score": 0.4671, "match_basis": "verbatim_token+global_search"}, {"md_atom_id": "md_ch08_a005", "md_file": "knowledge_base/chapters/ch08_relationships.md", "md_atom_type": "SENTENCE", "md_parent_section": "§8 [Representing Relationships and Data]", "md_verbatim": "Collected data that may not entirely fit includes relationships between records within a domain, records in separate domains, and sponsor-defined \"variables.\"", "score": 0.4662, "match_basis": "verbatim_token+global_search"}, {"md_atom_id": "md_ch08_a228", "md_file": "knowledge_base/chapters/ch08_relationships.md", "md_atom_type": "SENTENCE", "md_parent_section": "§8.6.1 [Guidelines for Determining the General Observation Class]", "md_verbatim": "However, medical history data (data about previous conditions or events) is events data regardless of whether dates were collected.", "score": 0.4641, "match_basis": "verbatim_token+global_search"}], "candidate_count": 5, "zero_candidate": false}
{"pdf_atom_id": "sv20_p0068_a005", "pdf_atom_type": "HEADING", "pdf_source": "SDTM_v2.0", "pdf_page": 68, "pdf_parent_section": "§6.5 [Device-subject Relationships Dataset]", "pdf_verbatim": "Device-subject Relationships Dataset", "figure_ref": null, "candidates": [{"md_atom_id": "md_model06_a073", "md_file": "knowledge_base/model/06_relationship_datasets.md", "md_atom_type": "HEADING", "md_parent_section": "§6.5 Device-subject Relationships (DR)", "md_verbatim": "## 6.5 Device-subject Relationships (DR)", "score": 0.78, "match_basis": "verbatim_token+global_search"}, {"md_atom_id": "md_varindex_a1291", "md_file": "knowledge_base/VARIABLE_INDEX.md", "md_atom_type": "HEADING", "md_parent_section": "§ 二、领域专属变量（仅 1 个域，共 1499 个），按域分组", "md_verbatim": "### RELSUB — Related Subjects (Relationship)", "score": 0.6, "match_basis": "verbatim_token+global_search"}, {"md_atom_id": "md_dmRELREC_ex_a033", "md_file": "knowledge_base/domains/RELREC/examples.md", "md_atom_type": "HEADING", "md_parent_section": "§RELREC [RELREC — Examples]", "md_verbatim": "## Dataset Relationship Example", "score": 0.6, "match_basis": "verbatim_token+global_search"}, {"md_atom_id": "md_model06_a101", "md_file": "knowledge_base/model/06_relationship_datasets.md", "md_atom_type": "HEADING", "md_parent_section": "§ Summary of Relationship Datasets", "md_verbatim": "## Summary of Relationship Datasets", "score": 0.5903, "match_basis": "verbatim_token+global_search"}, {"md_atom_id": "md_ch04_a010", "md_file": "knowledge_base/chapters/ch04_general_assumptions.md", "md_atom_type": "HEADING", "md_parent_section": "§4.1 [General Domain Assumptions]", "md_verbatim": "### 4.1.2 Relationship to Analysis Datasets", "score": 0.5813, "match_basis": "verbatim_token+global_search"}], "candidate_count": 5, "zero_candidate": false}
{"pdf_atom_id": "sv20_p0068_a006", "pdf_atom_type": "TABLE_HEADER", "pdf_source": "SDTM_v2.0", "pdf_page": 68, "pdf_parent_section": "§6.5 [Device-subject Relationships Dataset]", "pdf_verbatim": "# | Variable Name | Variable Label | Type | Format | Role | Variable(s) Qualified | Usage Restrictions | Variable C-code | Definition | Notes | Examples", "figure_ref": null, "candidates": [{"md_atom_id": "md_model02_a195", "md_file": "knowledge_base/model/02_observation_classes.md", "md_atom_type": "TABLE_HEADER", "md_parent_section": "§3.1.5 > Date/Time Variables", "md_verbatim": "| # | Variable | Label | Type | Format | Notes |\n|---|----------|-------|------|--------|-------|", "score": 0.4929, "match_basis": "verbatim_token+global_search"}, {"md_atom_id": "md_ch08_a072", "md_file": "knowledge_base/chapters/ch08_relationships.md", "md_atom_type": "TABLE_HEADER", "md_parent_section": "§8.2.1 [Related Records (RELREC)]", "md_verbatim": "| Variable Name | Variable Label | Type | Controlled Terms, Codelist or Format | Role | CDISC Notes | Core |\n|--------------|----------------|------|--------------------------------------|------|-------------|------|", "score": 0.492, "match_basis": "verbatim_token+global_search"}, {"md_atom_id": "md_ch08_a157", "md_file": "knowledge_base/chapters/ch08_relationships.md", "md_atom_type": "TABLE_HEADER", "md_parent_section": "§8.4.1 [Supplemental Qualifiers (SUPP--)]", "md_verbatim": "| Variable Name | Variable Label | Type | Controlled Terms, Codelist or Format | Role | CDISC Notes | Core |\n|--------------|----------------|------|--------------------------------------|------|-------------|------|", "score": 0.492, "match_basis": "verbatim_token+global_search"}, {"md_atom_id": "md_ch08_a320", "md_file": "knowledge_base/chapters/ch08_relationships.md", "md_atom_type": "TABLE_HEADER", "md_parent_section": "§8.8 [Related Specimens (RELSPEC)]", "md_verbatim": "| Variable Name | Variable Label | Type | Controlled Terms, Codelist or Format | Role | CDISC Notes | Core |\n|--------------|----------------|------|--------------------------------------|------|-------------|------|", "score": 0.492, "match_basis": "verbatim_token+global_search"}, {"md_atom_id": "md_model04_a018", "md_file": "knowledge_base/model/04_associated_persons.md", "md_atom_type": "TABLE_HEADER", "md_parent_section": "§4 [SDTM v2.0 — Chapter 4: Associated Persons Data]", "md_verbatim": "| Variable | Label | Type | Role | Notes |\n|----------|-------|------|------|-------|", "score": 0.4714, "match_basis": "verbatim_token+global_search"}], "candidate_count": 5, "zero_candidate": false}
{"pdf_atom_id": "sv20_p0068_a007", "pdf_atom_type": "TABLE_ROW", "pdf_source": "SDTM_v2.0", "pdf_page": 68, "pdf_parent_section": "§6.5 [Device-subject Relationships Dataset]", "pdf_verbatim": "1 | STUDYID | Study Identifier | Char | | Identifier | | | C83082 | A sequence of characters used by the sponsor to uniquely identify the study. | Study identifier of the domain record(s). | | |", "figure_ref": null, "candidates": [{"md_atom_id": "md_model02_a173", "md_file": "knowledge_base/model/02_observation_classes.md", "md_atom_type": "TABLE_ROW", "md_parent_section": "§3.1.4 Identifiers for All Classes", "md_verbatim": "| 9 | --SEQ | Sequence Number | Num | Identifier | Unique within STUDYID, USUBJID, and DOMAIN |", "score": 0.5328, "match_basis": "verbatim_token+global_search"}, {"md_atom_id": "md_model02_a176", "md_file": "knowledge_base/model/02_observation_classes.md", "md_atom_type": "TABLE_ROW", "md_parent_section": "§3.1.4 Identifiers for All Classes", "md_verbatim": "| 12 | --RECID | Invariant Record Identifier | Char | Identifier | Identifier for a record that is unique within a domain for a study and remains invariant through subsequent versions |", "score": 0.5118, "match_basis": "verbatim_token+global_search"}, {"md_atom_id": "md_ch08_a158", "md_file": "knowledge_base/chapters/ch08_relationships.md", "md_atom_type": "TABLE_ROW", "md_parent_section": "§8.4.1 [Supplemental Qualifiers (SUPP--)]", "md_verbatim": "| STUDYID | Study Identifier | Char | | Identifier | Study identifier of the parent record(s). | Req |", "score": 0.5105, "match_basis": "verbatim_token+global_search"}, {"md_atom_id": "md_ch08_a073", "md_file": "knowledge_base/chapters/ch08_relationships.md", "md_atom_type": "TABLE_ROW", "md_parent_section": "§8.2.1 [Related Records (RELREC)]", "md_verbatim": "| STUDYID | Study Identifier | Char | | Identifier | Unique identifier for a study. | Req |", "score": 0.5073, "match_basis": "verbatim_token+global_search"}, {"md_atom_id": "md_ch08_a321", "md_file": "knowledge_base/chapters/ch08_relationships.md", "md_atom_type": "TABLE_ROW", "md_parent_section": "§8.8 [Related Specimens (RELSPEC)]", "md_verbatim": "| STUDYID | Study Identifier | Char | | Identifier | Unique identifier for a study. | Req |", "score": 0.5073, "match_basis": "verbatim_token+global_search"}], "candidate_count": 5, "zero_candidate": false}
{"pdf_atom_id": "sv20_p0068_a008", "pdf_atom_type": "TABLE_ROW", "pdf_source": "SDTM_v2.0", "pdf_page": 68, "pdf_parent_section": "§6.5 [Device-subject Relationships Dataset]", "pdf_verbatim": "2 | DOMAIN | Domain Abbreviation | Char | | Identifier | | | C49558 | An abbreviation for a collection of observations, with a topic-specific commonality. | 2-character abbreviation, which must be \"DR\". | | |", "figure_ref": null, "candidates": [{"md_atom_id": "md_ch10_a023", "md_file": "knowledge_base/chapters/ch10_appendices.md", "md_atom_type": "TABLE_ROW", "md_parent_section": "§10.B [Glossary and Abbreviations]", "md_verbatim": "| Domain | A collection of observations with a topic-specific commonality |", "score": 0.638, "match_basis": "verbatim_token+global_search"}, {"md_atom_id": "md_model02_a166", "md_file": "knowledge_base/model/02_observation_classes.md", "md_atom_type": "TABLE_ROW", "md_parent_section": "§3.1.4 Identifiers for All Classes", "md_verbatim": "| 2 | DOMAIN | Domain Abbreviation | Char | Identifier | Two-character abbreviation for the domain |", "score": 0.5466, "match_basis": "verbatim_token+global_search"}, {"md_atom_id": "md_model06_a020", "md_file": "knowledge_base/model/06_relationship_datasets.md", "md_atom_type": "TABLE_ROW", "md_parent_section": "§6.1 Related Records (RELREC)", "md_verbatim": "| 2 | RDOMAIN | Related Domain Abbreviation | Char | Identifier | 2-character abbreviation for the domain of the parent record(s) |", "score": 0.5118, "match_basis": "verbatim_token+global_search"}, {"md_atom_id": "md_model06_a041", "md_file": "knowledge_base/model/06_relationship_datasets.md", "md_atom_type": "TABLE_ROW", "md_parent_section": "§6.2 Supplemental Qualifiers (SUPP--)", "md_verbatim": "| 2 | RDOMAIN | Related Domain Abbreviation | Char | Identifier | 2-character abbreviation for the domain of the parent record(s) |", "score": 0.5118, "match_basis": "verbatim_token+global_search"}, {"md_atom_id": "md_ch08_a159", "md_file": "knowledge_base/chapters/ch08_relationships.md", "md_atom_type": "TABLE_ROW", "md_parent_section": "§8.4.1 [Supplemental Qualifiers (SUPP--)]", "md_verbatim": "| RDOMAIN | Related Domain Abbreviation | Char | (DOMAIN) | Identifier | Two-character abbreviation for the domain of the parent record(s). | Req |", "score": 0.5069, "match_basis": "verbatim_token+global_search"}], "candidate_count": 5, "zero_candidate": false}
{"pdf_atom_id": "sv20_p0068_a009", "pdf_atom_type": "TABLE_ROW", "pdf_source": "SDTM_v2.0", "pdf_page": 68, "pdf_parent_section": "§6.5 [Device-subject Relationships Dataset]", "pdf_verbatim": "3 | USUBJID | Unique Subject Identifier | Char | | Identifier | | | C69256 | A sequence of characters used to uniquely identify a subject across all studies for all applications or submissions involving the product. | | | |", "figure_ref": null, "candidates": [{"md_atom_id": "md_ch08_a075", "md_file": "knowledge_base/chapters/ch08_relationships.md", "md_atom_type": "TABLE_ROW", "md_parent_section": "§8.2.1 [Related Records (RELREC)]", "md_verbatim": "| USUBJID | Unique Subject Identifier | Char | | Identifier | Identifier used to uniquely identify a subject across all studies for all applications or submissions involving the product. | Exp |", "score": 0.7843, "match_basis": "verbatim_token+global_search"}, {"md_atom_id": "md_ch08_a322", "md_file": "knowledge_base/chapters/ch08_relationships.md", "md_atom_type": "TABLE_ROW", "md_parent_section": "§8.8 [Related Specimens (RELSPEC)]", "md_verbatim": "| USUBJID | Unique Subject Identifier | Char | | Identifier | Identifier used to uniquely identify a subject across all studies for all applications or submissions involving the product. | Req |", "score": 0.7843, "match_basis": "verbatim_token+global_search"}, {"md_atom_id": "md_ch08_a160", "md_file": "knowledge_base/chapters/ch08_relationships.md", "md_atom_type": "TABLE_ROW", "md_parent_section": "§8.4.1 [Supplemental Qualifiers (SUPP--)]", "md_verbatim": "| USUBJID | Unique Subject Identifier | Char | | Identifier | Identifier used to uniquely identify a subject across all studies for all applications or submissions involving the product. This is the value of USUBJID in the parent record(s). | Req |", "score": 0.7232, "match_basis": "verbatim_token+global_search"}, {"md_atom_id": "md_model02_a167", "md_file": "knowledge_base/model/02_observation_classes.md", "md_atom_type": "TABLE_ROW", "md_parent_section": "§3.1.4 Identifiers for All Classes", "md_verbatim": "| 3 | USUBJID | Unique Subject Identifier | Char | Identifier | Unique identifier for a subject across all studies for the submission |", "score": 0.6, "match_basis": "verbatim_token+global_search"}, {"md_atom_id": "md_ch04_a203", "md_file": "knowledge_base/chapters/ch04_general_assumptions.md", "md_atom_type": "SENTENCE", "md_parent_section": "§4.2.3 [Use of \"Subject\" and USUBJID]", "md_verbatim": "To identify a subject uniquely across all studies for all applications or submissions involving the product, a unique identifier (USUBJID) should be assigned and included in all datasets.", "score": 0.4835, "match_basis": "verbatim_token+global_search"}], "candidate_count": 5, "zero_candidate": false}
{"pdf_atom_id": "sv20_p0068_a010", "pdf_atom_type": "TABLE_ROW", "pdf_source": "SDTM_v2.0", "pdf_page": 68, "pdf_parent_section": "§6.5 [Device-subject Relationships Dataset]", "pdf_verbatim": "4 | SPDEVID | Sponsor Device Identifier | Char | | Identifier | | | | | Sponsor-defined identifier for the device. It must be unique for each tracked unit of the device under study, and can be at whatever level of granularity the device should be identified (e.g., model or serial number, combination of identifiers) as defined in DI. | | |", "figure_ref": null, "candidates": [{"md_atom_id": "md_model06_a024", "md_file": "knowledge_base/model/06_relationship_datasets.md", "md_atom_type": "TABLE_ROW", "md_parent_section": "§6.1 Related Records (RELREC)", "md_verbatim": "| 6 | SPDEVID | Sponsor Device Identifier | Char | Identifier | |", "score": 0.4404, "match_basis": "verbatim_token+global_search"}, {"md_atom_id": "md_model06_a045", "md_file": "knowledge_base/model/06_relationship_datasets.md", "md_atom_type": "TABLE_ROW", "md_parent_section": "§6.2 Supplemental Qualifiers (SUPP--)", "md_verbatim": "| 6 | SPDEVID | Sponsor Device Identifier | Char | Identifier | |", "score": 0.4404, "match_basis": "verbatim_token+global_search"}, {"md_atom_id": "md_model06_a080", "md_file": "knowledge_base/model/06_relationship_datasets.md", "md_atom_type": "TABLE_ROW", "md_parent_section": "§6.5 Device-subject Relationships (DR)", "md_verbatim": "| 4 | SPDEVID | Sponsor Device Identifier | Char | Identifier |", "score": 0.4404, "match_basis": "verbatim_token+global_search"}, {"md_atom_id": "md_model02_a169", "md_file": "knowledge_base/model/02_observation_classes.md", "md_atom_type": "TABLE_ROW", "md_parent_section": "§3.1.4 Identifiers for All Classes", "md_verbatim": "| 5 | SPDEVID | Sponsor Device Identifier | Char | Identifier | |", "score": 0.4404, "match_basis": "verbatim_token+global_search"}, {"md_atom_id": "md_model03_a075", "md_file": "knowledge_base/model/03_special_purpose_domains.md", "md_atom_type": "TABLE_ROW", "md_parent_section": "§ Comments (CO) > Variables (15 variables)", "md_verbatim": "| 6 | SPDEVID | Sponsor Device Identifier | Char | Identifier |", "score": 0.4404, "match_basis": "verbatim_token+global_search"}], "candidate_count": 5, "zero_candidate": false}
{"pdf_atom_id": "sv20_p0068_a011", "pdf_atom_type": "HEADING", "pdf_source": "SDTM_v2.0", "pdf_page": 68, "pdf_parent_section": "§6 [DATASETS FOR REPRESENTING RELATIONSHIPS]", "pdf_verbatim": "6.6 Associated Persons Relationships", "figure_ref": null, "candidates": [{"md_atom_id": "md_model06_a081", "md_file": "knowledge_base/model/06_relationship_datasets.md", "md_atom_type": "HEADING", "md_parent_section": "§6.6 Associated Persons Related Subjects (APRELSUB)", "md_verbatim": "## 6.6 Associated Persons Related Subjects (APRELSUB)", "score": 0.5909, "match_basis": "verbatim_token+global_search"}, {"md_atom_id": "md_model04_a001", "md_file": "knowledge_base/model/04_associated_persons.md", "md_atom_type": "HEADING", "md_parent_section": "§4 [SDTM v2.0 — Chapter 4: Associated Persons Data]", "md_verbatim": "# SDTM v2.0 — Chapter 4: Associated Persons Data", "score": 0.5437, "match_basis": "verbatim_token+global_search"}, {"md_atom_id": "md_varindex_a1281", "md_file": "knowledge_base/VARIABLE_INDEX.md", "md_atom_type": "HEADING", "md_parent_section": "§ 二、领域专属变量（仅 1 个域，共 1499 个），按域分组", "md_verbatim": "### RELREC — Related Records (Relationship)", "score": 0.54, "match_basis": "verbatim_token+global_search"}, {"md_atom_id": "md_varindex_a1291", "md_file": "knowledge_base/VARIABLE_INDEX.md", "md_atom_type": "HEADING", "md_parent_section": "§ 二、领域专属变量（仅 1 个域，共 1499 个），按域分组", "md_verbatim": "### RELSUB — Related Subjects (Relationship)", "score": 0.5323, "match_basis": "verbatim_token+global_search"}, {"md_atom_id": "md_model04_a016", "md_file": "knowledge_base/model/04_associated_persons.md", "md_atom_type": "HEADING", "md_parent_section": "§4 [SDTM v2.0 — Chapter 4: Associated Persons Data]", "md_verbatim": "### Variables Used in Associated Persons Data", "score": 0.5294, "match_basis": "verbatim_token+global_search"}], "candidate_count": 5, "zero_candidate": false}
{"pdf_atom_id": "sv20_p0068_a012", "pdf_atom_type": "SENTENCE", "pdf_source": "SDTM_v2.0", "pdf_page": 68, "pdf_parent_section": "§6.6 [Associated Persons Relationships]", "pdf_verbatim": "To justify collection of AP data, some sort of a relationship is necessary between the associated person and a study, a subject, or a device.", "figure_ref": null, "candidates": [{"md_atom_id": "md_model04_a023", "md_file": "knowledge_base/model/04_associated_persons.md", "md_atom_type": "SENTENCE", "md_parent_section": "§4 [SDTM v2.0 — Chapter 4: Associated Persons Data]", "md_verbatim": "Relationships of an associated person to study subjects may be represented in the Associated Persons Relationships dataset.", "score": 0.5538, "match_basis": "verbatim_token+global_search"}, {"md_atom_id": "md_model06_a010", "md_file": "knowledge_base/model/06_relationship_datasets.md", "md_atom_type": "LIST_ITEM", "md_parent_section": "§ Overview", "md_verbatim": "- **Associated Persons Relationships Dataset** — represents relationships between associated person(s) and study subjects", "score": 0.5061, "match_basis": "verbatim_token+global_search"}, {"md_atom_id": "md_dmRELSUB_assn_a002", "md_file": "knowledge_base/domains/RELSUB/assumptions.md", "md_atom_type": "SENTENCE", "md_parent_section": "§RELSUB [RELSUB — Assumptions]", "md_verbatim": "A dataset used to represent relationships between study subjects.", "score": 0.4923, "match_basis": "verbatim_token+global_search"}, {"md_atom_id": "md_ch08_a053", "md_file": "knowledge_base/chapters/ch08_relationships.md", "md_atom_type": "SENTENCE", "md_parent_section": "§8.2 [Relating Peer Records]", "md_verbatim": "The Related Records (RELREC) special-purpose dataset is used to describe relationships between records for a subject (as described in this section), and relationships between datasets (as described in Section 8.3, Relating Datasets).", "score": 0.468, "match_basis": "verbatim_token+global_search"}, {"md_atom_id": "md_model04_a004", "md_file": "knowledge_base/model/04_associated_persons.md", "md_atom_type": "SENTENCE", "md_parent_section": "§4 [SDTM v2.0 — Chapter 4: Associated Persons Data]", "md_verbatim": "Associated persons are individuals other than study subjects who can be associated with a study, a particular study subject, or a device used in the study.", "score": 0.4677, "match_basis": "verbatim_token+global_search"}], "candidate_count": 5, "zero_candidate": false}
{"pdf_atom_id": "sv20_p0068_a013", "pdf_atom_type": "SENTENCE", "pdf_source": "SDTM_v2.0", "pdf_page": 68, "pdf_parent_section": "§6.6 [Associated Persons Relationships]", "pdf_verbatim": "However, a single value in SREL is inadequate to describe relationships to multiple subjects or devices and/or multiple relationships to a single subject or device.", "figure_ref": null, "candidates": [{"md_atom_id": "md_model06_a066", "md_file": "knowledge_base/model/06_relationship_datasets.md", "md_atom_type": "SENTENCE", "md_parent_section": "§6.4 Related Subjects (RELSUB)", "md_verbatim": "Describes relationships between subjects in a study (e.g., family relationships in genetic studies).", "score": 0.4792, "match_basis": "verbatim_token+global_search"}, {"md_atom_id": "md_ch08_a053", "md_file": "knowledge_base/chapters/ch08_relationships.md", "md_atom_type": "SENTENCE", "md_parent_section": "§8.2 [Relating Peer Records]", "md_verbatim": "The Related Records (RELREC) special-purpose dataset is used to describe relationships between records for a subject (as described in this section), and relationships between datasets (as described in Section 8.3, Relating Datasets).", "score": 0.4579, "match_basis": "verbatim_token+global_search"}, {"md_atom_id": "md_ch08_a069", "md_file": "knowledge_base/chapters/ch08_relationships.md", "md_atom_type": "SENTENCE", "md_parent_section": "§8.2.1 [Related Records (RELREC)]", "md_verbatim": "A dataset used to describe relationships between records for a subject within or across domains, and relationships of records across datasets.", "score": 0.4568, "match_basis": "verbatim_token+global_search"}, {"md_atom_id": "md_model04_a024", "md_file": "knowledge_base/model/04_associated_persons.md", "md_atom_type": "SENTENCE", "md_parent_section": "§4 [SDTM v2.0 — Chapter 4: Associated Persons Data]", "md_verbatim": "When an individual has multiple collected relationships to a study subject or study subjects, those multiple relationships must be represented in that relationships dataset.", "score": 0.4437, "match_basis": "verbatim_token+global_search"}, {"md_atom_id": "md_dmPC_ex_a442", "md_file": "knowledge_base/domains/PC/examples.md", "md_atom_type": "SENTENCE", "md_parent_section": "§PC [PC — Examples]", "md_verbatim": "Relating the datasets (as described in Section 8, Representing Relationships and Data) is the simplest method; however, all time-point concentrations in PC must be used to calculate all parameters for all subjects. If datasets cannot be related, then individual subject records must be related. In either case, the values of PCGRPID and PPGRPID must take into account multiple analytes and multiple reference time points, if they exist.", "score": 0.4412, "match_basis": "verbatim_token+global_search"}], "candidate_count": 5, "zero_candidate": false}
{"pdf_atom_id": "sv20_p0068_a014", "pdf_atom_type": "SENTENCE", "pdf_source": "SDTM_v2.0", "pdf_page": 68, "pdf_parent_section": "§6.6 [Associated Persons Relationships]", "pdf_verbatim": "In such cases, the value MULTIPLE should appear in SREL.", "figure_ref": null, "candidates": [{"md_atom_id": "md_ch08_a151", "md_file": "knowledge_base/chapters/ch08_relationships.md", "md_atom_type": "SENTENCE", "md_parent_section": "§8.4 [Relating Non-standard Variable Values to a Parent Domain]", "md_verbatim": "That is, there should not be multiple records in a SUPP-- dataset for the same QNAM value, as it relates to IDVAR/IDVARVAL for a USUBJID in a domain.", "score": 0.45, "match_basis": "verbatim_token+global_search"}, {"md_atom_id": "md_ch08_a271", "md_file": "knowledge_base/chapters/ch08_relationships.md", "md_atom_type": "SENTENCE", "md_parent_section": "§8.6.3 [Guidelines for Differentiating Between Interventions, Events, Findings, and Findings About Events or Interventions]", "md_verbatim": "If there are multiple assessments of an event, then each should be stored in a separate FA record.", "score": 0.4309, "match_basis": "verbatim_token+global_search"}, {"md_atom_id": "md_dmTA_ex_a256", "md_file": "knowledge_base/domains/TA/examples.md", "md_atom_type": "SENTENCE", "md_parent_section": "§TA.8.1 [Distinguishing Between Branches and Transitions]", "md_verbatim": "The rule underlying a branch appears in multiple records, once for each \"fork\" of the branch.", "score": 0.4294, "match_basis": "verbatim_token+global_search"}, {"md_atom_id": "md_dmTE_assn_a003", "md_file": "knowledge_base/domains/TE/assumptions.md", "md_atom_type": "SENTENCE", "md_parent_section": "§TE [TE — Assumptions]", "md_verbatim": "An element may appear multiple times in the TA table because it appears either (1) in multiple arms, (2) multiple times within an arm, or (3) both.", "score": 0.4245, "match_basis": "verbatim_token+global_search"}, {"md_atom_id": "md_ch04_a353", "md_file": "knowledge_base/chapters/ch04_general_assumptions.md", "md_atom_type": "SENTENCE", "md_parent_section": "§4.2.8.2 [Multiple Values for a Findings Result Variable]", "md_verbatim": "If multiple result values (--ORRES) are reported for a test in a Findings class dataset, multiple records should be submitted for that --TESTCD.", "score": 0.4217, "match_basis": "verbatim_token+global_search"}], "candidate_count": 5, "zero_candidate": false}
{"pdf_atom_id": "sv20_p0068_a015", "pdf_atom_type": "SENTENCE", "pdf_source": "SDTM_v2.0", "pdf_page": 68, "pdf_parent_section": "§6.6 [Associated Persons Relationships]", "pdf_verbatim": "MULTIPLE may also appear in RSUBJID to describe relationships with multiple subjects.", "figure_ref": null, "candidates": [{"md_atom_id": "md_model06_a066", "md_file": "knowledge_base/model/06_relationship_datasets.md", "md_atom_type": "SENTENCE", "md_parent_section": "§6.4 Related Subjects (RELSUB)", "md_verbatim": "Describes relationships between subjects in a study (e.g., family relationships in genetic studies).", "score": 0.5226, "match_basis": "verbatim_token+global_search"}, {"md_atom_id": "md_ch08_a069", "md_file": "knowledge_base/chapters/ch08_relationships.md", "md_atom_type": "SENTENCE", "md_parent_section": "§8.2.1 [Related Records (RELREC)]", "md_verbatim": "A dataset used to describe relationships between records for a subject within or across domains, and relationships of records across datasets.", "score": 0.5, "match_basis": "verbatim_token+global_search"}, {"md_atom_id": "md_model04_a024", "md_file": "knowledge_base/model/04_associated_persons.md", "md_atom_type": "SENTENCE", "md_parent_section": "§4 [SDTM v2.0 — Chapter 4: Associated Persons Data]", "md_verbatim": "When an individual has multiple collected relationships to a study subject or study subjects, those multiple relationships must be represented in that relationships dataset.", "score": 0.4704, "match_basis": "verbatim_token+global_search"}, {"md_atom_id": "md_dmRELSUB_assn_a002", "md_file": "knowledge_base/domains/RELSUB/assumptions.md", "md_atom_type": "SENTENCE", "md_parent_section": "§RELSUB [RELSUB — Assumptions]", "md_verbatim": "A dataset used to represent relationships between study subjects.", "score": 0.4619, "match_basis": "verbatim_token+global_search"}, {"md_atom_id": "md_ch08_a053", "md_file": "knowledge_base/chapters/ch08_relationships.md", "md_atom_type": "SENTENCE", "md_parent_section": "§8.2 [Relating Peer Records]", "md_verbatim": "The Related Records (RELREC) special-purpose dataset is used to describe relationships between records for a subject (as described in this section), and relationships between datasets (as described in Section 8.3, Relating Datasets).", "score": 0.459, "match_basis": "verbatim_token+global_search"}], "candidate_count": 5, "zero_candidate": false}
{"pdf_atom_id": "sv20_p0068_a016", "pdf_atom_type": "SENTENCE", "pdf_source": "SDTM_v2.0", "pdf_page": 68, "pdf_parent_section": "§6.6 [Associated Persons Relationships]", "pdf_verbatim": "When other SDTM variables are populated with MULTIPLE, the multiple values are stored in supplemental qualifiers.", "figure_ref": null, "candidates": [{"md_atom_id": "md_ch08_a219", "md_file": "knowledge_base/chapters/ch08_relationships.md", "md_atom_type": "SENTENCE", "md_parent_section": "§8.5 [Relating Comments to a Parent Domain]", "md_verbatim": "As with Supplemental Qualifiers (SUPP--) and Related Records (RELREC), --GRPID and other grouping variables can be used as the value in IDVAR to identify comments with relationships to multiple domain records.", "score": 0.546, "match_basis": "verbatim_token+global_search"}, {"md_atom_id": "md_ch04_a954", "md_file": "knowledge_base/chapters/ch04_general_assumptions.md", "md_atom_type": "SENTENCE", "md_parent_section": "§4.5.4 [Evaluators in the Interventions and Events Observation Classes]", "md_verbatim": "The QEVAL variable can be used to describe the evaluator for any data item in a SUPP-- dataset (see Section 8.4.1, Supplemental Qualifiers -- SUPP-- Datasets), but is not required when the data are objective.", "score": 0.4979, "match_basis": "verbatim_token+global_search"}, {"md_atom_id": "md_ch04_a982", "md_file": "knowledge_base/chapters/ch04_general_assumptions.md", "md_atom_type": "SENTENCE", "md_parent_section": "§4.5.6 [Supplemental Reason Variables]", "md_verbatim": "If multiple reasons are reported, refer to Section 4.2.8.3, Multiple Values for a Non-result Qualifier Variable.", "score": 0.4923, "match_basis": "verbatim_token+global_search"}, {"md_atom_id": "md_ch04_a361", "md_file": "knowledge_base/chapters/ch04_general_assumptions.md", "md_atom_type": "SENTENCE", "md_parent_section": "§4.2.8.3 [Multiple Values for a Non-result Qualifier Variable]", "md_verbatim": "If multiple values exist (e.g., due to a \"Check all that apply\" instruction on a CRF), then the value for the qualifier variable should be \"MULTIPLE\" and SUPP-- should be used to store the individual responses.", "score": 0.4879, "match_basis": "verbatim_token+global_search"}, {"md_atom_id": "md_ch04_a148", "md_file": "knowledge_base/chapters/ch04_general_assumptions.md", "md_atom_type": "SENTENCE", "md_parent_section": "§4.1.9 [Assigning Natural Keys in the Metadata]", "md_verbatim": "Supplemental Qualifier variables should be referenced in the natural key by using a 2-part name.", "score": 0.4875, "match_basis": "verbatim_token+global_search"}], "candidate_count": 5, "zero_candidate": false}
{"pdf_atom_id": "sv20_p0068_a017", "pdf_atom_type": "SENTENCE", "pdf_source": "SDTM_v2.0", "pdf_page": 68, "pdf_parent_section": "§6.6 [Associated Persons Relationships]", "pdf_verbatim": "However, this approach has been found to be an indirect and cumbersome way to handle multiple associated person-subject relationships.", "figure_ref": null, "candidates": [{"md_atom_id": "md_model04_a023", "md_file": "knowledge_base/model/04_associated_persons.md", "md_atom_type": "SENTENCE", "md_parent_section": "§4 [SDTM v2.0 — Chapter 4: Associated Persons Data]", "md_verbatim": "Relationships of an associated person to study subjects may be represented in the Associated Persons Relationships dataset.", "score": 0.4909, "match_basis": "verbatim_token+global_search"}, {"md_atom_id": "md_model06_a083", "md_file": "knowledge_base/model/06_relationship_datasets.md", "md_atom_type": "SENTENCE", "md_parent_section": "§6.6 Associated Persons Related Subjects (APRELSUB)", "md_verbatim": "Links associated persons to subjects.", "score": 0.4479, "match_basis": "verbatim_token+global_search"}, {"md_atom_id": "md_model04_a024", "md_file": "knowledge_base/model/04_associated_persons.md", "md_atom_type": "SENTENCE", "md_parent_section": "§4 [SDTM v2.0 — Chapter 4: Associated Persons Data]", "md_verbatim": "When an individual has multiple collected relationships to a study subject or study subjects, those multiple relationships must be represented in that relationships dataset.", "score": 0.4472, "match_basis": "verbatim_token+global_search"}, {"md_atom_id": "md_ch08_a240", "md_file": "knowledge_base/chapters/ch08_relationships.md", "md_atom_type": "SENTENCE", "md_parent_section": "§8.6.1 [Guidelines for Determining the General Observation Class]", "md_verbatim": "Sometimes the relationship between a subject and a finding is less direct; a finding may be about an event that happened to the subject or an intervention received.", "score": 0.4444, "match_basis": "verbatim_token+global_search"}, {"md_atom_id": "md_ch08_a053", "md_file": "knowledge_base/chapters/ch08_relationships.md", "md_atom_type": "SENTENCE", "md_parent_section": "§8.2 [Relating Peer Records]", "md_verbatim": "The Related Records (RELREC) special-purpose dataset is used to describe relationships between records for a subject (as described in this section), and relationships between datasets (as described in Section 8.3, Relating Datasets).", "score": 0.4321, "match_basis": "verbatim_token+global_search"}], "candidate_count": 5, "zero_candidate": false}
{"pdf_atom_id": "sv20_p0068_a018", "pdf_atom_type": "SENTENCE", "pdf_source": "SDTM_v2.0", "pdf_page": 68, "pdf_parent_section": "§6.6 [Associated Persons Relationships]", "pdf_verbatim": "In addition, when there is AP data in multiple domains, the supplemental qualifier approach would require the same set of supplemental qualifiers to be repeated for each domain.", "figure_ref": null, "candidates": [{"md_atom_id": "md_ch03_a088", "md_file": "knowledge_base/chapters/ch03_submitting_data.md", "md_atom_type": "SENTENCE", "md_parent_section": "§3.2.1 [Dataset-level Metadata]", "md_verbatim": "Separate Supplemental Qualifier datasets of the form supp--.xpt are required.", "score": 0.5154, "match_basis": "verbatim_token+global_search"}, {"md_atom_id": "md_ch08_a177", "md_file": "knowledge_base/chapters/ch08_relationships.md", "md_atom_type": "SENTENCE", "md_parent_section": "§8.4.2 [Submitting Supplemental Qualifiers in Separate Datasets]", "md_verbatim": "The set of supplemental qualifiers for each domain is included in a separate dataset with the name SUPP-- (where \"--\" denotes the source domain which the supplemental qualifiers relate back to).", "score": 0.5061, "match_basis": "verbatim_token+global_search"}, {"md_atom_id": "md_model06_a054", "md_file": "knowledge_base/model/06_relationship_datasets.md", "md_atom_type": "SENTENCE", "md_parent_section": "§6.2 Supplemental Qualifiers (SUPP--)", "md_verbatim": "Separate Supplemental Qualifier datasets of the form `supp--.xpt` are required (e.g., `suppae.xpt`, `suppcm.xpt`).", "score": 0.5049, "match_basis": "verbatim_token+global_search"}, {"md_atom_id": "md_ch08_a156", "md_file": "knowledge_base/chapters/ch08_relationships.md", "md_atom_type": "SENTENCE", "md_parent_section": "§8.4.1 [Supplemental Qualifiers (SUPP--)]", "md_verbatim": "supp--.xpt, Supplemental Qualifiers for [domain name] — Relationship. One record per supplemental qualifier per related parent domain record(s), Tabulation.", "score": 0.4888, "match_basis": "verbatim_token+global_search"}, {"md_atom_id": "md_ch08_a175", "md_file": "knowledge_base/chapters/ch08_relationships.md", "md_atom_type": "SENTENCE", "md_parent_section": "§8.4.2 [Submitting Supplemental Qualifiers in Separate Datasets]", "md_verbatim": "There is a one-to-one correspondence between a domain dataset and its Supplemental Qualifier dataset.", "score": 0.4841, "match_basis": "verbatim_token+global_search"}], "candidate_count": 5, "zero_candidate": false}
{"pdf_atom_id": "sv20_p0068_a019", "pdf_atom_type": "SENTENCE", "pdf_source": "SDTM_v2.0", "pdf_page": 68, "pdf_parent_section": "§6.6 [Associated Persons Relationships]", "pdf_verbatim": "The APRELSUB dataset, which parallels the structure of the RELSUB dataset, was created as a more efficient and simpler way to record these multiple relationships.", "figure_ref": null, "candidates": [{"md_atom_id": "md_dmEX_ex_a241", "md_file": "knowledge_base/domains/EX/examples.md", "md_atom_type": "SENTENCE", "md_parent_section": "§EX.7 [Example 7]", "md_verbatim": "The RELREC dataset represents relationships between EC, EX, and VS.", "score": 0.459, "match_basis": "verbatim_token+global_search"}, {"md_atom_id": "md_model04_a024", "md_file": "knowledge_base/model/04_associated_persons.md", "md_atom_type": "SENTENCE", "md_parent_section": "§4 [SDTM v2.0 — Chapter 4: Associated Persons Data]", "md_verbatim": "When an individual has multiple collected relationships to a study subject or study subjects, those multiple relationships must be represented in that relationships dataset.", "score": 0.4585, "match_basis": "verbatim_token+global_search"}, {"md_atom_id": "md_dmTR_ex_a042", "md_file": "knowledge_base/domains/TR/examples.md", "md_atom_type": "SENTENCE", "md_parent_section": "§TR.1 [Example 2 (continued from TU)]", "md_verbatim": "The relationship between the TU and TR datasets is represented in RELREC.", "score": 0.4571, "match_basis": "verbatim_token+global_search"}, {"md_atom_id": "md_dmCE_ex_a119", "md_file": "knowledge_base/domains/CE/examples.md", "md_atom_type": "SENTENCE", "md_parent_section": "§CE.3 [Example 3]", "md_verbatim": "**Rows 1-2:** Show the dataset-to-dataset relationship between MH and PR records.", "score": 0.4556, "match_basis": "verbatim_token+global_search"}, {"md_atom_id": "md_ch08_a071", "md_file": "knowledge_base/chapters/ch08_relationships.md", "md_atom_type": "SENTENCE", "md_parent_section": "§8.2.1 [Related Records (RELREC)]", "md_verbatim": "relrec.xpt, Related Records — Relationship. One record per related record, group of records or dataset, Tabulation.", "score": 0.45, "match_basis": "verbatim_token+global_search"}], "candidate_count": 5, "zero_candidate": false}
{"pdf_atom_id": "sv20_p0068_a020", "pdf_atom_type": "SENTENCE", "pdf_source": "SDTM_v2.0", "pdf_page": 68, "pdf_parent_section": "§6.6 [Associated Persons Relationships]", "pdf_verbatim": "The APRELSUB dataset is required for studies in which SREL values of MULTIPLE appear, but would not be needed if each associated person has only 1 relationship to a study, a subject, or a device.", "figure_ref": null, "candidates": [{"md_atom_id": "md_model04_a023", "md_file": "knowledge_base/model/04_associated_persons.md", "md_atom_type": "SENTENCE", "md_parent_section": "§4 [SDTM v2.0 — Chapter 4: Associated Persons Data]", "md_verbatim": "Relationships of an associated person to study subjects may be represented in the Associated Persons Relationships dataset.", "score": 0.5312, "match_basis": "verbatim_token+global_search"}, {"md_atom_id": "md_model04_a024", "md_file": "knowledge_base/model/04_associated_persons.md", "md_atom_type": "SENTENCE", "md_parent_section": "§4 [SDTM v2.0 — Chapter 4: Associated Persons Data]", "md_verbatim": "When an individual has multiple collected relationships to a study subject or study subjects, those multiple relationships must be represented in that relationships dataset.", "score": 0.4641, "match_basis": "verbatim_token+global_search"}, {"md_atom_id": "md_dmSC_ex_a015", "md_file": "knowledge_base/domains/SC/examples.md", "md_atom_type": "SENTENCE", "md_parent_section": "§SC.2 [Example 2]", "md_verbatim": "In this example, only infants were study subjects. However, with the possible exception of USUBJID values, the example would be unchanged for a study in which mothers were study subjects. If these data were collected for an infant who was an associated person, they would be represented in the APSC domain and the dataset would include APID, RSUBJID, and SREL, rather than USUBJID.", "score": 0.4636, "match_basis": "verbatim_token+global_search"}, {"md_atom_id": "md_model01_a053", "md_file": "knowledge_base/model/01_concepts_and_terms.md", "md_atom_type": "SENTENCE", "md_parent_section": "§2.1 [Model Concepts and Terms — Variables]", "md_verbatim": "The Device-subject Relationships dataset includes the variable DOMAIN, but other study reference datasets do not.", "score": 0.4593, "match_basis": "verbatim_token+global_search"}, {"md_atom_id": "md_dmRELSUB_assn_a002", "md_file": "knowledge_base/domains/RELSUB/assumptions.md", "md_atom_type": "SENTENCE", "md_parent_section": "§RELSUB [RELSUB — Assumptions]", "md_verbatim": "A dataset used to represent relationships between study subjects.", "score": 0.4426, "match_basis": "verbatim_token+global_search"}], "candidate_count": 5, "zero_candidate": false}
{"pdf_atom_id": "sv20_p0068_a021", "pdf_atom_type": "HEADING", "pdf_source": "SDTM_v2.0", "pdf_page": 68, "pdf_parent_section": "§6.6 [Associated Persons Relationships]", "pdf_verbatim": "APRELSUB Dataset", "figure_ref": null, "candidates": [{"md_atom_id": "md_dmPC_ex_a050", "md_file": "knowledge_base/domains/PC/examples.md", "md_atom_type": "HEADING", "md_parent_section": "§PC.2 [Relating PC and PP — Overview]", "md_verbatim": "### PC-PP Relating Datasets", "score": 0.5118, "match_basis": "verbatim_token+global_search"}, {"md_atom_id": "md_dmRELREC_assn_a013", "md_file": "knowledge_base/domains/RELREC/assumptions.md", "md_atom_type": "HEADING", "md_parent_section": "§RELREC [RELREC — Assumptions]", "md_verbatim": "## Relating Datasets", "score": 0.5118, "match_basis": "verbatim_token+global_search"}, {"md_atom_id": "md_ch08_a081", "md_file": "knowledge_base/chapters/ch08_relationships.md", "md_atom_type": "HEADING", "md_parent_section": "§8.2 [Relating Peer Records]", "md_verbatim": "### 8.2.2 RELREC Dataset Examples", "score": 0.48, "match_basis": "verbatim_token+global_search"}, {"md_atom_id": "md_ch03_a021", "md_file": "knowledge_base/chapters/ch03_submitting_data.md", "md_atom_type": "HEADING", "md_parent_section": "§3.2 [Using the CDISC Domain Models in Regulatory Submissions — Dataset Metadata]", "md_verbatim": "### 3.2.1 Dataset-level Metadata", "score": 0.4667, "match_basis": "verbatim_token+global_search"}, {"md_atom_id": "md_ch02_a026", "md_file": "knowledge_base/chapters/ch02_fundamentals.md", "md_atom_type": "HEADING", "md_parent_section": "§2 [Fundamentals of the SDTM]", "md_verbatim": "## 2.2 Datasets and Domains", "score": 0.4667, "match_basis": "verbatim_token+global_search"}], "candidate_count": 5, "zero_candidate": false}
{"pdf_atom_id": "sv20_p0068_a022", "pdf_atom_type": "TABLE_HEADER", "pdf_source": "SDTM_v2.0", "pdf_page": 68, "pdf_parent_section": "§6.6 [Associated Persons Relationships]", "pdf_verbatim": "# | Variable Name | Variable Label | Type | Format | Role | Variable(s) Qualified | Usage Restrictions | Variable C-code | Definition | Notes | Examples", "figure_ref": null, "candidates": [{"md_atom_id": "md_model02_a195", "md_file": "knowledge_base/model/02_observation_classes.md", "md_atom_type": "TABLE_HEADER", "md_parent_section": "§3.1.5 > Date/Time Variables", "md_verbatim": "| # | Variable | Label | Type | Format | Notes |\n|---|----------|-------|------|--------|-------|", "score": 0.4929, "match_basis": "verbatim_token+global_search"}, {"md_atom_id": "md_ch08_a072", "md_file": "knowledge_base/chapters/ch08_relationships.md", "md_atom_type": "TABLE_HEADER", "md_parent_section": "§8.2.1 [Related Records (RELREC)]", "md_verbatim": "| Variable Name | Variable Label | Type | Controlled Terms, Codelist or Format | Role | CDISC Notes | Core |\n|--------------|----------------|------|--------------------------------------|------|-------------|------|", "score": 0.492, "match_basis": "verbatim_token+global_search"}, {"md_atom_id": "md_ch08_a157", "md_file": "knowledge_base/chapters/ch08_relationships.md", "md_atom_type": "TABLE_HEADER", "md_parent_section": "§8.4.1 [Supplemental Qualifiers (SUPP--)]", "md_verbatim": "| Variable Name | Variable Label | Type | Controlled Terms, Codelist or Format | Role | CDISC Notes | Core |\n|--------------|----------------|------|--------------------------------------|------|-------------|------|", "score": 0.492, "match_basis": "verbatim_token+global_search"}, {"md_atom_id": "md_ch08_a320", "md_file": "knowledge_base/chapters/ch08_relationships.md", "md_atom_type": "TABLE_HEADER", "md_parent_section": "§8.8 [Related Specimens (RELSPEC)]", "md_verbatim": "| Variable Name | Variable Label | Type | Controlled Terms, Codelist or Format | Role | CDISC Notes | Core |\n|--------------|----------------|------|--------------------------------------|------|-------------|------|", "score": 0.492, "match_basis": "verbatim_token+global_search"}, {"md_atom_id": "md_model04_a018", "md_file": "knowledge_base/model/04_associated_persons.md", "md_atom_type": "TABLE_HEADER", "md_parent_section": "§4 [SDTM v2.0 — Chapter 4: Associated Persons Data]", "md_verbatim": "| Variable | Label | Type | Role | Notes |\n|----------|-------|------|------|-------|", "score": 0.4714, "match_basis": "verbatim_token+global_search"}], "candidate_count": 5, "zero_candidate": false}
{"pdf_atom_id": "sv20_p0068_a023", "pdf_atom_type": "TABLE_ROW", "pdf_source": "SDTM_v2.0", "pdf_page": 68, "pdf_parent_section": "§6.6 [Associated Persons Relationships]", "pdf_verbatim": "1 | STUDYID | Study Identifier | Char | | Identifier | | | C83082 | A sequence of characters used by the sponsor to uniquely identify the study. | | | |", "figure_ref": null, "candidates": [{"md_atom_id": "md_ch08_a073", "md_file": "knowledge_base/chapters/ch08_relationships.md", "md_atom_type": "TABLE_ROW", "md_parent_section": "§8.2.1 [Related Records (RELREC)]", "md_verbatim": "| STUDYID | Study Identifier | Char | | Identifier | Unique identifier for a study. | Req |", "score": 0.5426, "match_basis": "verbatim_token+global_search"}, {"md_atom_id": "md_ch08_a321", "md_file": "knowledge_base/chapters/ch08_relationships.md", "md_atom_type": "TABLE_ROW", "md_parent_section": "§8.8 [Related Specimens (RELSPEC)]", "md_verbatim": "| STUDYID | Study Identifier | Char | | Identifier | Unique identifier for a study. | Req |", "score": 0.5426, "match_basis": "verbatim_token+global_search"}, {"md_atom_id": "md_model02_a173", "md_file": "knowledge_base/model/02_observation_classes.md", "md_atom_type": "TABLE_ROW", "md_parent_section": "§3.1.4 Identifiers for All Classes", "md_verbatim": "| 9 | --SEQ | Sequence Number | Num | Identifier | Unique within STUDYID, USUBJID, and DOMAIN |", "score": 0.5095, "match_basis": "verbatim_token+global_search"}, {"md_atom_id": "md_model06_a019", "md_file": "knowledge_base/model/06_relationship_datasets.md", "md_atom_type": "TABLE_ROW", "md_parent_section": "§6.1 Related Records (RELREC)", "md_verbatim": "| 1 | STUDYID | Study Identifier | Char | Identifier | |", "score": 0.5, "match_basis": "verbatim_token+global_search"}, {"md_atom_id": "md_model06_a040", "md_file": "knowledge_base/model/06_relationship_datasets.md", "md_atom_type": "TABLE_ROW", "md_parent_section": "§6.2 Supplemental Qualifiers (SUPP--)", "md_verbatim": "| 1 | STUDYID | Study Identifier | Char | Identifier | |", "score": 0.5, "match_basis": "verbatim_token+global_search"}], "candidate_count": 5, "zero_candidate": false}
{"pdf_atom_id": "sv20_p0069_a001", "pdf_atom_type": "TABLE_ROW", "pdf_source": "SDTM_v2.0", "pdf_page": 69, "pdf_parent_section": "§6.6 [Associated Persons Relationships]", "pdf_verbatim": "2 | APID | Associated Persons Identifier | Char | | Identifier | | | | | Identifier for a single associated person, a group of associated persons, or a pool of associated persons. If APID identifies a pool, POOLDEF records must exist for each associated person (see Section 6.3, Pool Definition Dataset, and Section 4, Associated Persons Data). | | |", "figure_ref": null, "candidates": [{"md_atom_id": "md_model04_a019", "md_file": "knowledge_base/model/04_associated_persons.md", "md_atom_type": "TABLE_ROW", "md_parent_section": "§4 [SDTM v2.0 — Chapter 4: Associated Persons Data]", "md_verbatim": "| APID | Associated Persons Identifier | Char | Identifier | Identifier for a single associated person, a group of associated persons, or a pool of associated persons. If APID identifies a pool, POOLDEF records must exist for each associated person (see Section 6.3, Pool Definition Dataset, and Section 4, Associated Persons Data). |", "score": 0.9, "match_basis": "verbatim_token+global_search"}, {"md_atom_id": "md_model06_a022", "md_file": "knowledge_base/model/06_relationship_datasets.md", "md_atom_type": "TABLE_ROW", "md_parent_section": "§6.1 Related Records (RELREC)", "md_verbatim": "| 4 | APID | Associated Persons Identifier | Char | Identifier | Identifier for a single associated person, a group, or a pool of associated persons |", "score": 0.6088, "match_basis": "verbatim_token+global_search"}, {"md_atom_id": "md_model06_a043", "md_file": "knowledge_base/model/06_relationship_datasets.md", "md_atom_type": "TABLE_ROW", "md_parent_section": "§6.2 Supplemental Qualifiers (SUPP--)", "md_verbatim": "| 4 | APID | Associated Persons Identifier | Char | Identifier | |", "score": 0.5206, "match_basis": "verbatim_token+global_search"}, {"md_atom_id": "md_model06_a063", "md_file": "knowledge_base/model/06_relationship_datasets.md", "md_atom_type": "TABLE_ROW", "md_parent_section": "§6.3 Pool Definition (POOLDEF)", "md_verbatim": "| 4 | APID | Associated Persons Identifier | Char | Identifier |", "score": 0.5206, "match_basis": "verbatim_token+global_search"}, {"md_atom_id": "md_model06_a086", "md_file": "knowledge_base/model/06_relationship_datasets.md", "md_atom_type": "TABLE_ROW", "md_parent_section": "§6.6 Associated Persons Related Subjects (APRELSUB)", "md_verbatim": "| 2 | APID | Associated Person Identifier | Char | Identifier |", "score": 0.5118, "match_basis": "verbatim_token+global_search"}], "candidate_count": 5, "zero_candidate": false}
{"pdf_atom_id": "sv20_p0069_a002", "pdf_atom_type": "TABLE_ROW", "pdf_source": "SDTM_v2.0", "pdf_page": 69, "pdf_parent_section": "§6.6 [Associated Persons Relationships]", "pdf_verbatim": "3 | RSUBJID | Related Subject or Pool Identifier | Char | | Identifier | | | | | Identifier for a related subject or pool of subjects. RSUBJID may be populated with the USUBJID of the related subject or the POOLID of the related pool. RSUBJID will be null for data about associated persons who are related to the study but not to any study subjects. | | |", "figure_ref": null, "candidates": [{"md_atom_id": "md_model04_a020", "md_file": "knowledge_base/model/04_associated_persons.md", "md_atom_type": "TABLE_ROW", "md_parent_section": "§4 [SDTM v2.0 — Chapter 4: Associated Persons Data]", "md_verbatim": "| RSUBJID | Related Subject or Pool Identifier | Char | Identifier | Identifier for a related subject or pool of subjects. RSUBJID may be populated with the USUBJID of the related subject or the POOLID of the related pool. |", "score": 0.6455, "match_basis": "verbatim_token+global_search"}, {"md_atom_id": "md_ch01_a048", "md_file": "knowledge_base/chapters/ch01_introduction.md", "md_atom_type": "TABLE_ROW", "md_parent_section": "§1.3 [Relationship to Prior CDISC Documents]", "md_verbatim": "| SDTMIG-AP | Associated Persons — data about persons who are not study subjects |", "score": 0.5571, "match_basis": "verbatim_token+global_search"}, {"md_atom_id": "md_model04_a022", "md_file": "knowledge_base/model/04_associated_persons.md", "md_atom_type": "TABLE_ROW", "md_parent_section": "§4 [SDTM v2.0 — Chapter 4: Associated Persons Data]", "md_verbatim": "| SREL | Subject, Device, or Study Relationship | Char | Identifier | If RSUBJID is populated, describes the relationship to the subject or pool. If RDEVID is populated, describes the relationship to the device. If both are null, describes the relationship to the study. |", "score": 0.5523, "match_basis": "verbatim_token+global_search"}, {"md_atom_id": "md_model06_a071", "md_file": "knowledge_base/model/06_relationship_datasets.md", "md_atom_type": "TABLE_ROW", "md_parent_section": "§6.4 Related Subjects (RELSUB)", "md_verbatim": "| 4 | RSUBJID | Related Subject or Pool Identifier | Char | Identifier |", "score": 0.5273, "match_basis": "verbatim_token+global_search"}, {"md_atom_id": "md_model06_a087", "md_file": "knowledge_base/model/06_relationship_datasets.md", "md_atom_type": "TABLE_ROW", "md_parent_section": "§6.6 Associated Persons Related Subjects (APRELSUB)", "md_verbatim": "| 3 | RSUBJID | Related Subject or Pool Identifier | Char | Identifier |", "score": 0.5273, "match_basis": "verbatim_token+global_search"}], "candidate_count": 5, "zero_candidate": false}
{"pdf_atom_id": "sv20_p0069_a003", "pdf_atom_type": "TABLE_ROW", "pdf_source": "SDTM_v2.0", "pdf_page": 69, "pdf_parent_section": "§6.6 [Associated Persons Relationships]", "pdf_verbatim": "4 | RDEVID | Related Device Identifier | Char | | Identifier | | | | | Identifier for a related device. RDEVID will be populated with the SPDEVID of the related device. | | |", "figure_ref": null, "candidates": [{"md_atom_id": "md_model04_a021", "md_file": "knowledge_base/model/04_associated_persons.md", "md_atom_type": "TABLE_ROW", "md_parent_section": "§4 [SDTM v2.0 — Chapter 4: Associated Persons Data]", "md_verbatim": "| RDEVID | Related Device Identifier | Char | Identifier | Identifier for a related device. RDEVID will be populated with the SPDEVID of the related device. |", "score": 0.9, "match_basis": "verbatim_token+global_search"}, {"md_atom_id": "md_model06_a088", "md_file": "knowledge_base/model/06_relationship_datasets.md", "md_atom_type": "TABLE_ROW", "md_parent_section": "§6.6 Associated Persons Related Subjects (APRELSUB)", "md_verbatim": "| 4 | RDEVID | Related Device Identifier | Char | Identifier |", "score": 0.6818, "match_basis": "verbatim_token+global_search"}, {"md_atom_id": "md_model04_a020", "md_file": "knowledge_base/model/04_associated_persons.md", "md_atom_type": "TABLE_ROW", "md_parent_section": "§4 [SDTM v2.0 — Chapter 4: Associated Persons Data]", "md_verbatim": "| RSUBJID | Related Subject or Pool Identifier | Char | Identifier | Identifier for a related subject or pool of subjects. RSUBJID may be populated with the USUBJID of the related subject or the POOLID of the related pool. |", "score": 0.5875, "match_basis": "verbatim_token+global_search"}, {"md_atom_id": "md_model06_a024", "md_file": "knowledge_base/model/06_relationship_datasets.md", "md_atom_type": "TABLE_ROW", "md_parent_section": "§6.1 Related Records (RELREC)", "md_verbatim": "| 6 | SPDEVID | Sponsor Device Identifier | Char | Identifier | |", "score": 0.5684, "match_basis": "verbatim_token+global_search"}, {"md_atom_id": "md_model06_a045", "md_file": "knowledge_base/model/06_relationship_datasets.md", "md_atom_type": "TABLE_ROW", "md_parent_section": "§6.2 Supplemental Qualifiers (SUPP--)", "md_verbatim": "| 6 | SPDEVID | Sponsor Device Identifier | Char | Identifier | |", "score": 0.5684, "match_basis": "verbatim_token+global_search"}], "candidate_count": 5, "zero_candidate": false}
{"pdf_atom_id": "sv20_p0069_a004", "pdf_atom_type": "TABLE_ROW", "pdf_source": "SDTM_v2.0", "pdf_page": 69, "pdf_parent_section": "§6.6 [Associated Persons Relationships]", "pdf_verbatim": "5 | SREL | Subject, Device, or Study Relationship | Char | | Record Qualifier | | | | | If RSUBJID is populated, describes the relationship of the associated person(s) identified in APID to the subject or pool identified in RSUBJID. If RDEVID is populated, describes the relationship of the associated person(s) identified in APID to the subject or pool identified in RDEVID. If RSUBJID and RDEVID are null, SREL describes the relationship of the associated person(s) identified in APID to the study identified in STUDYID. | | |", "figure_ref": null, "candidates": [{"md_atom_id": "md_model04_a022", "md_file": "knowledge_base/model/04_associated_persons.md", "md_atom_type": "TABLE_ROW", "md_parent_section": "§4 [SDTM v2.0 — Chapter 4: Associated Persons Data]", "md_verbatim": "| SREL | Subject, Device, or Study Relationship | Char | Identifier | If RSUBJID is populated, describes the relationship to the subject or pool. If RDEVID is populated, describes the relationship to the device. If both are null, describes the relationship to the study. |", "score": 0.712, "match_basis": "verbatim_token+global_search"}, {"md_atom_id": "md_model06_a072", "md_file": "knowledge_base/model/06_relationship_datasets.md", "md_atom_type": "TABLE_ROW", "md_parent_section": "§6.4 Related Subjects (RELSUB)", "md_verbatim": "| 5 | SREL | Subject, Device, or Study Relationship | Char | Record Qualifier |", "score": 0.5667, "match_basis": "verbatim_token+global_search"}, {"md_atom_id": "md_model06_a089", "md_file": "knowledge_base/model/06_relationship_datasets.md", "md_atom_type": "TABLE_ROW", "md_parent_section": "§6.6 Associated Persons Related Subjects (APRELSUB)", "md_verbatim": "| 5 | SREL | Subject, Device, or Study Relationship | Char | Record Qualifier |", "score": 0.5667, "match_basis": "verbatim_token+global_search"}, {"md_atom_id": "md_model06_a028", "md_file": "knowledge_base/model/06_relationship_datasets.md", "md_atom_type": "TABLE_ROW", "md_parent_section": "§6.1 Related Records (RELREC)", "md_verbatim": "| 10 | RELID | Relationship Identifier | Char | Record Qualifier | RELID value should be unique within the ID variable (e.g., USUBJID, APID, POOLID, SPDEVID) that is the subject of the relationship |", "score": 0.5345, "match_basis": "verbatim_token+global_search"}, {"md_atom_id": "md_ch03_a084", "md_file": "knowledge_base/chapters/ch03_submitting_data.md", "md_atom_type": "TABLE_ROW", "md_parent_section": "§3.2.1 [Dataset-level Metadata]", "md_verbatim": "| RELSPEC | Related Specimens | Relationship | One record per specimen identifier per subject | Tabulation | STUDYID, USUBJID, REFID | relspec.xpt |", "score": 0.5303, "match_basis": "verbatim_token+global_search"}], "candidate_count": 5, "zero_candidate": false}
{"pdf_atom_id": "sv20_p0069_a005", "pdf_atom_type": "HEADING", "pdf_source": "SDTM_v2.0", "pdf_page": 69, "pdf_parent_section": "§6 [DATASETS FOR REPRESENTING RELATIONSHIPS]", "pdf_verbatim": "6.7 Related Specimens Dataset", "figure_ref": null, "candidates": [{"md_atom_id": "md_model06_a090", "md_file": "knowledge_base/model/06_relationship_datasets.md", "md_atom_type": "HEADING", "md_parent_section": "§6.7 Related Specimens (RELSPEC)", "md_verbatim": "## 6.7 Related Specimens (RELSPEC)", "score": 0.6789, "match_basis": "verbatim_token+global_search"}, {"md_atom_id": "md_ch08_a314", "md_file": "knowledge_base/chapters/ch08_relationships.md", "md_atom_type": "HEADING", "md_parent_section": "§8 [Representing Relationships and Data]", "md_verbatim": "## 8.8 Related Specimens (RELSPEC)", "score": 0.6789, "match_basis": "verbatim_token+global_search"}, {"md_atom_id": "md_varindex_a1285", "md_file": "knowledge_base/VARIABLE_INDEX.md", "md_atom_type": "HEADING", "md_parent_section": "§ 二、领域专属变量（仅 1 个域，共 1499 个），按域分组", "md_verbatim": "### RELSPEC — Related Specimens (Relationship)", "score": 0.5769, "match_basis": "verbatim_token+global_search"}, {"md_atom_id": "md_dmPC_ex_a050", "md_file": "knowledge_base/domains/PC/examples.md", "md_atom_type": "HEADING", "md_parent_section": "§PC.2 [Relating PC and PP — Overview]", "md_verbatim": "### PC-PP Relating Datasets", "score": 0.5286, "match_basis": "verbatim_token+global_search"}, {"md_atom_id": "md_dmRELREC_assn_a013", "md_file": "knowledge_base/domains/RELREC/assumptions.md", "md_atom_type": "HEADING", "md_parent_section": "§RELREC [RELREC — Assumptions]", "md_verbatim": "## Relating Datasets", "score": 0.5286, "match_basis": "verbatim_token+global_search"}], "candidate_count": 5, "zero_candidate": false}
{"pdf_atom_id": "sv20_p0069_a006", "pdf_atom_type": "HEADING", "pdf_source": "SDTM_v2.0", "pdf_page": 69, "pdf_parent_section": "§6.7 [Related Specimens Dataset]", "pdf_verbatim": "RELSPEC Dataset", "figure_ref": null, "candidates": [{"md_atom_id": "md_dmPC_ex_a050", "md_file": "knowledge_base/domains/PC/examples.md", "md_atom_type": "HEADING", "md_parent_section": "§PC.2 [Relating PC and PP — Overview]", "md_verbatim": "### PC-PP Relating Datasets", "score": 0.525, "match_basis": "verbatim_token+global_search"}, {"md_atom_id": "md_dmRELREC_assn_a013", "md_file": "knowledge_base/domains/RELREC/assumptions.md", "md_atom_type": "HEADING", "md_parent_section": "§RELREC [RELREC — Assumptions]", "md_verbatim": "## Relating Datasets", "score": 0.525, "match_basis": "verbatim_token+global_search"}, {"md_atom_id": "md_ch08_a081", "md_file": "knowledge_base/chapters/ch08_relationships.md", "md_atom_type": "HEADING", "md_parent_section": "§8.2 [Relating Peer Records]", "md_verbatim": "### 8.2.2 RELREC Dataset Examples", "score": 0.4895, "match_basis": "verbatim_token+global_search"}, {"md_atom_id": "md_dmRELSPEC_ex_a001", "md_file": "knowledge_base/domains/RELSPEC/examples.md", "md_atom_type": "HEADING", "md_parent_section": "§RELSPEC [RELSPEC — Examples]", "md_verbatim": "# RELSPEC — Examples", "score": 0.4875, "match_basis": "verbatim_token+global_search"}, {"md_atom_id": "md_ch03_a021", "md_file": "knowledge_base/chapters/ch03_submitting_data.md", "md_atom_type": "HEADING", "md_parent_section": "§3.2 [Using the CDISC Domain Models in Regulatory Submissions — Dataset Metadata]", "md_verbatim": "### 3.2.1 Dataset-level Metadata", "score": 0.4765, "match_basis": "verbatim_token+global_search"}], "candidate_count": 5, "zero_candidate": false}
{"pdf_atom_id": "sv20_p0069_a007", "pdf_atom_type": "TABLE_HEADER", "pdf_source": "SDTM_v2.0", "pdf_page": 69, "pdf_parent_section": "§6.7 [Related Specimens Dataset]", "pdf_verbatim": "# | Variable Name | Variable Label | Type | Format | Role | Variable(s) Qualified | Usage Restrictions | Variable C-code | Definition | Notes | Examples", "figure_ref": null, "candidates": [{"md_atom_id": "md_model02_a195", "md_file": "knowledge_base/model/02_observation_classes.md", "md_atom_type": "TABLE_HEADER", "md_parent_section": "§3.1.5 > Date/Time Variables", "md_verbatim": "| # | Variable | Label | Type | Format | Notes |\n|---|----------|-------|------|--------|-------|", "score": 0.4929, "match_basis": "verbatim_token+global_search"}, {"md_atom_id": "md_ch08_a072", "md_file": "knowledge_base/chapters/ch08_relationships.md", "md_atom_type": "TABLE_HEADER", "md_parent_section": "§8.2.1 [Related Records (RELREC)]", "md_verbatim": "| Variable Name | Variable Label | Type | Controlled Terms, Codelist or Format | Role | CDISC Notes | Core |\n|--------------|----------------|------|--------------------------------------|------|-------------|------|", "score": 0.492, "match_basis": "verbatim_token+global_search"}, {"md_atom_id": "md_ch08_a157", "md_file": "knowledge_base/chapters/ch08_relationships.md", "md_atom_type": "TABLE_HEADER", "md_parent_section": "§8.4.1 [Supplemental Qualifiers (SUPP--)]", "md_verbatim": "| Variable Name | Variable Label | Type | Controlled Terms, Codelist or Format | Role | CDISC Notes | Core |\n|--------------|----------------|------|--------------------------------------|------|-------------|------|", "score": 0.492, "match_basis": "verbatim_token+global_search"}, {"md_atom_id": "md_ch08_a320", "md_file": "knowledge_base/chapters/ch08_relationships.md", "md_atom_type": "TABLE_HEADER", "md_parent_section": "§8.8 [Related Specimens (RELSPEC)]", "md_verbatim": "| Variable Name | Variable Label | Type | Controlled Terms, Codelist or Format | Role | CDISC Notes | Core |\n|--------------|----------------|------|--------------------------------------|------|-------------|------|", "score": 0.492, "match_basis": "verbatim_token+global_search"}, {"md_atom_id": "md_model04_a018", "md_file": "knowledge_base/model/04_associated_persons.md", "md_atom_type": "TABLE_HEADER", "md_parent_section": "§4 [SDTM v2.0 — Chapter 4: Associated Persons Data]", "md_verbatim": "| Variable | Label | Type | Role | Notes |\n|----------|-------|------|------|-------|", "score": 0.4714, "match_basis": "verbatim_token+global_search"}], "candidate_count": 5, "zero_candidate": false}
{"pdf_atom_id": "sv20_p0069_a008", "pdf_atom_type": "TABLE_ROW", "pdf_source": "SDTM_v2.0", "pdf_page": 69, "pdf_parent_section": "§6.7 [Related Specimens Dataset]", "pdf_verbatim": "1 | STUDYID | Study Identifier | Char | | Identifier | | | C83082 | A sequence of characters used by the sponsor to uniquely identify the study. | | | |", "figure_ref": null, "candidates": [{"md_atom_id": "md_ch08_a073", "md_file": "knowledge_base/chapters/ch08_relationships.md", "md_atom_type": "TABLE_ROW", "md_parent_section": "§8.2.1 [Related Records (RELREC)]", "md_verbatim": "| STUDYID | Study Identifier | Char | | Identifier | Unique identifier for a study. | Req |", "score": 0.5426, "match_basis": "verbatim_token+global_search"}, {"md_atom_id": "md_ch08_a321", "md_file": "knowledge_base/chapters/ch08_relationships.md", "md_atom_type": "TABLE_ROW", "md_parent_section": "§8.8 [Related Specimens (RELSPEC)]", "md_verbatim": "| STUDYID | Study Identifier | Char | | Identifier | Unique identifier for a study. | Req |", "score": 0.5426, "match_basis": "verbatim_token+global_search"}, {"md_atom_id": "md_model02_a173", "md_file": "knowledge_base/model/02_observation_classes.md", "md_atom_type": "TABLE_ROW", "md_parent_section": "§3.1.4 Identifiers for All Classes", "md_verbatim": "| 9 | --SEQ | Sequence Number | Num | Identifier | Unique within STUDYID, USUBJID, and DOMAIN |", "score": 0.5095, "match_basis": "verbatim_token+global_search"}, {"md_atom_id": "md_model06_a019", "md_file": "knowledge_base/model/06_relationship_datasets.md", "md_atom_type": "TABLE_ROW", "md_parent_section": "§6.1 Related Records (RELREC)", "md_verbatim": "| 1 | STUDYID | Study Identifier | Char | Identifier | |", "score": 0.5, "match_basis": "verbatim_token+global_search"}, {"md_atom_id": "md_model06_a040", "md_file": "knowledge_base/model/06_relationship_datasets.md", "md_atom_type": "TABLE_ROW", "md_parent_section": "§6.2 Supplemental Qualifiers (SUPP--)", "md_verbatim": "| 1 | STUDYID | Study Identifier | Char | Identifier | |", "score": 0.5, "match_basis": "verbatim_token+global_search"}], "candidate_count": 5, "zero_candidate": false}
{"pdf_atom_id": "sv20_p0069_a009", "pdf_atom_type": "TABLE_ROW", "pdf_source": "SDTM_v2.0", "pdf_page": 69, "pdf_parent_section": "§6.7 [Related Specimens Dataset]", "pdf_verbatim": "2 | USUBJID | Unique Subject Identifier | Char | | Identifier | | | C69256 | A sequence of characters used to uniquely identify a subject across all studies for all applications or submissions involving the product. | | | |", "figure_ref": null, "candidates": [{"md_atom_id": "md_ch08_a075", "md_file": "knowledge_base/chapters/ch08_relationships.md", "md_atom_type": "TABLE_ROW", "md_parent_section": "§8.2.1 [Related Records (RELREC)]", "md_verbatim": "| USUBJID | Unique Subject Identifier | Char | | Identifier | Identifier used to uniquely identify a subject across all studies for all applications or submissions involving the product. | Exp |", "score": 0.7843, "match_basis": "verbatim_token+global_search"}, {"md_atom_id": "md_ch08_a322", "md_file": "knowledge_base/chapters/ch08_relationships.md", "md_atom_type": "TABLE_ROW", "md_parent_section": "§8.8 [Related Specimens (RELSPEC)]", "md_verbatim": "| USUBJID | Unique Subject Identifier | Char | | Identifier | Identifier used to uniquely identify a subject across all studies for all applications or submissions involving the product. | Req |", "score": 0.7843, "match_basis": "verbatim_token+global_search"}, {"md_atom_id": "md_ch08_a160", "md_file": "knowledge_base/chapters/ch08_relationships.md", "md_atom_type": "TABLE_ROW", "md_parent_section": "§8.4.1 [Supplemental Qualifiers (SUPP--)]", "md_verbatim": "| USUBJID | Unique Subject Identifier | Char | | Identifier | Identifier used to uniquely identify a subject across all studies for all applications or submissions involving the product. This is the value of USUBJID in the parent record(s). | Req |", "score": 0.7232, "match_basis": "verbatim_token+global_search"}, {"md_atom_id": "md_model02_a167", "md_file": "knowledge_base/model/02_observation_classes.md", "md_atom_type": "TABLE_ROW", "md_parent_section": "§3.1.4 Identifiers for All Classes", "md_verbatim": "| 3 | USUBJID | Unique Subject Identifier | Char | Identifier | Unique identifier for a subject across all studies for the submission |", "score": 0.6, "match_basis": "verbatim_token+global_search"}, {"md_atom_id": "md_ch04_a203", "md_file": "knowledge_base/chapters/ch04_general_assumptions.md", "md_atom_type": "SENTENCE", "md_parent_section": "§4.2.3 [Use of \"Subject\" and USUBJID]", "md_verbatim": "To identify a subject uniquely across all studies for all applications or submissions involving the product, a unique identifier (USUBJID) should be assigned and included in all datasets.", "score": 0.4835, "match_basis": "verbatim_token+global_search"}], "candidate_count": 5, "zero_candidate": false}
{"pdf_atom_id": "sv20_p0069_a010", "pdf_atom_type": "TABLE_ROW", "pdf_source": "SDTM_v2.0", "pdf_page": 69, "pdf_parent_section": "§6.7 [Related Specimens Dataset]", "pdf_verbatim": "3 | REFID | Reference ID | Char | | Identifier | | | C82531 | A sequence of characters used to uniquely identify a source of information. | | | |", "figure_ref": null, "candidates": [{"md_atom_id": "md_model06_a096", "md_file": "knowledge_base/model/06_relationship_datasets.md", "md_atom_type": "TABLE_ROW", "md_parent_section": "§6.7 Related Specimens (RELSPEC)", "md_verbatim": "| 3 | REFID | Reference ID | Char | Identifier | C82531 |", "score": 0.5556, "match_basis": "verbatim_token+global_search"}, {"md_atom_id": "md_varindex_a132", "md_file": "knowledge_base/VARIABLE_INDEX.md", "md_atom_type": "TABLE_ROW", "md_parent_section": "§ 二、领域专属变量（仅 1 个域，共 1499 个），按域分组", "md_verbatim": "| BEREFID | Reference ID | Char | Identifier | Exp | — |", "score": 0.5036, "match_basis": "verbatim_token+global_search"}, {"md_atom_id": "md_varindex_a041", "md_file": "knowledge_base/VARIABLE_INDEX.md", "md_atom_type": "TABLE_ROW", "md_parent_section": "§ 二、领域专属变量（仅 1 个域，共 1499 个），按域分组", "md_verbatim": "| AEREFID | Reference ID | Char | Identifier | Perm | — |", "score": 0.5, "match_basis": "verbatim_token+global_search"}, {"md_atom_id": "md_varindex_a152", "md_file": "knowledge_base/VARIABLE_INDEX.md", "md_atom_type": "TABLE_ROW", "md_parent_section": "§ 二、领域专属变量（仅 1 个域，共 1499 个），按域分组", "md_verbatim": "| BSREFID | Reference ID | Char | Identifier | Exp | — |", "score": 0.5, "match_basis": "verbatim_token+global_search"}, {"md_atom_id": "md_varindex_a182", "md_file": "knowledge_base/VARIABLE_INDEX.md", "md_atom_type": "TABLE_ROW", "md_parent_section": "§ 二、领域专属变量（仅 1 个域，共 1499 个），按域分组", "md_verbatim": "| CEREFID | Reference ID | Char | Identifier | Perm | — |", "score": 0.5, "match_basis": "verbatim_token+global_search"}], "candidate_count": 5, "zero_candidate": false}
{"pdf_atom_id": "sv20_p0069_a011", "pdf_atom_type": "TABLE_ROW", "pdf_source": "SDTM_v2.0", "pdf_page": 69, "pdf_parent_section": "§6.7 [Related Specimens Dataset]", "pdf_verbatim": "4 | SPEC | Specimen Type | Char | | Variable Qualifier | REFID | | C70713 | The type of sample material taken from a biological entity. | | | |", "figure_ref": null, "candidates": [{"md_atom_id": "md_model06_a097", "md_file": "knowledge_base/model/06_relationship_datasets.md", "md_atom_type": "TABLE_ROW", "md_parent_section": "§6.7 Related Specimens (RELSPEC)", "md_verbatim": "| 4 | SPEC | Specimen Type | Char | Variable Qualifier (REFID) | C70713 |", "score": 0.6158, "match_basis": "verbatim_token+global_search"}, {"md_atom_id": "md_varindex_a1288", "md_file": "knowledge_base/VARIABLE_INDEX.md", "md_atom_type": "TABLE_ROW", "md_parent_section": "§ 二、领域专属变量（仅 1 个域，共 1499 个），按域分组", "md_verbatim": "| SPEC | Specimen Type | Char | Variable Qualifier | Perm | C78734; C111114 |", "score": 0.5091, "match_basis": "verbatim_token+global_search"}, {"md_atom_id": "md_varindex_a639", "md_file": "knowledge_base/VARIABLE_INDEX.md", "md_atom_type": "TABLE_ROW", "md_parent_section": "§ 二、领域专属变量（仅 1 个域，共 1499 个），按域分组", "md_verbatim": "| GFSPEC | Specimen Material Type | Char | Record Qualifier | Perm | C111114 |", "score": 0.5029, "match_basis": "verbatim_token+global_search"}, {"md_atom_id": "md_varindex_a874", "md_file": "knowledge_base/VARIABLE_INDEX.md", "md_atom_type": "TABLE_ROW", "md_parent_section": "§ 二、领域专属变量（仅 1 个域，共 1499 个），按域分组", "md_verbatim": "| MISPEC | Specimen Material Type | Char | Record Qualifier | Req | C78734 |", "score": 0.5029, "match_basis": "verbatim_token+global_search"}, {"md_atom_id": "md_varindex_a1109", "md_file": "knowledge_base/VARIABLE_INDEX.md", "md_atom_type": "TABLE_ROW", "md_parent_section": "§ 二、领域专属变量（仅 1 个域，共 1499 个），按域分组", "md_verbatim": "| PCSPEC | Specimen Material Type | Char | Record Qualifier | Exp | C78734 |", "score": 0.5029, "match_basis": "verbatim_token+global_search"}], "candidate_count": 5, "zero_candidate": false}
{"pdf_atom_id": "sv20_p0069_a012", "pdf_atom_type": "TABLE_ROW", "pdf_source": "SDTM_v2.0", "pdf_page": 69, "pdf_parent_section": "§6.7 [Related Specimens Dataset]", "pdf_verbatim": "5 | PARENT | Specimen Parent | Char | | Identifier | | | | | Identifies the REFID of the parent of a specimen to support tracking its genealogy. | | |", "figure_ref": null, "candidates": [{"md_atom_id": "md_model06_a098", "md_file": "knowledge_base/model/06_relationship_datasets.md", "md_atom_type": "TABLE_ROW", "md_parent_section": "§6.7 Related Specimens (RELSPEC)", "md_verbatim": "| 5 | PARENT | Specimen Parent | Char | Identifier | Identifies the REFID of the parent of a specimen to support tracking its genealogy |", "score": 0.9, "match_basis": "verbatim_token+global_search"}, {"md_atom_id": "md_ch08_a325", "md_file": "knowledge_base/chapters/ch08_relationships.md", "md_atom_type": "TABLE_ROW", "md_parent_section": "§8.8 [Related Specimens (RELSPEC)]", "md_verbatim": "| PARENT | Specimen Parent | Char | | Identifier | Identifies the REFID of the parent of a specimen to support tracking its genealogy. | Exp |", "score": 0.8864, "match_basis": "verbatim_token+global_search"}, {"md_atom_id": "md_varindex_a1287", "md_file": "knowledge_base/VARIABLE_INDEX.md", "md_atom_type": "TABLE_ROW", "md_parent_section": "§ 二、领域专属变量（仅 1 个域，共 1499 个），按域分组", "md_verbatim": "| REFID | Specimen ID | Char | Identifier | Req | — |", "score": 0.5591, "match_basis": "verbatim_token+global_search"}, {"md_atom_id": "md_varindex_a1289", "md_file": "knowledge_base/VARIABLE_INDEX.md", "md_atom_type": "TABLE_ROW", "md_parent_section": "§ 二、领域专属变量（仅 1 个域，共 1499 个），按域分组", "md_verbatim": "| PARENT | Specimen Parent | Char | Identifier | Exp | — |", "score": 0.5591, "match_basis": "verbatim_token+global_search"}, {"md_atom_id": "md_varindex_a738", "md_file": "knowledge_base/VARIABLE_INDEX.md", "md_atom_type": "TABLE_ROW", "md_parent_section": "§ 二、领域专属变量（仅 1 个域，共 1499 个），按域分组", "md_verbatim": "| LBREFID | Specimen ID | Char | Identifier | Perm | — |", "score": 0.5426, "match_basis": "verbatim_token+global_search"}], "candidate_count": 5, "zero_candidate": false}
{"pdf_atom_id": "sv20_p0069_a013", "pdf_atom_type": "TABLE_ROW", "pdf_source": "SDTM_v2.0", "pdf_page": 69, "pdf_parent_section": "§6.7 [Related Specimens Dataset]", "pdf_verbatim": "6 | LEVEL | Specimen Level | Num | | Variable Qualifier | REFID | | | | Identifies the generation number of the sample where the collected sample is considered the first generation. | | |", "figure_ref": null, "candidates": [{"md_atom_id": "md_model06_a099", "md_file": "knowledge_base/model/06_relationship_datasets.md", "md_atom_type": "TABLE_ROW", "md_parent_section": "§6.7 Related Specimens (RELSPEC)", "md_verbatim": "| 6 | LEVEL | Specimen Level | Num | Variable Qualifier (REFID) | Identifies the generation number of the sample where the collected sample is considered the first generation |", "score": 0.9, "match_basis": "verbatim_token+global_search"}, {"md_atom_id": "md_ch08_a326", "md_file": "knowledge_base/chapters/ch08_relationships.md", "md_atom_type": "TABLE_ROW", "md_parent_section": "§8.8 [Related Specimens (RELSPEC)]", "md_verbatim": "| LEVEL | Specimen Level | Num | | Variable Qualifier | Identifies the generation number of the sample where the collected sample is considered the first generation. | Req |", "score": 0.8647, "match_basis": "verbatim_token+global_search"}, {"md_atom_id": "md_varindex_a1290", "md_file": "knowledge_base/VARIABLE_INDEX.md", "md_atom_type": "TABLE_ROW", "md_parent_section": "§ 二、领域专属变量（仅 1 个域，共 1499 个），按域分组", "md_verbatim": "| LEVEL | Specimen Level | Num | Variable Qualifier | Req | — |", "score": 0.5029, "match_basis": "verbatim_token+global_search"}, {"md_atom_id": "md_model06_a097", "md_file": "knowledge_base/model/06_relationship_datasets.md", "md_atom_type": "TABLE_ROW", "md_parent_section": "§6.7 Related Specimens (RELSPEC)", "md_verbatim": "| 4 | SPEC | Specimen Type | Char | Variable Qualifier (REFID) | C70713 |", "score": 0.476, "match_basis": "verbatim_token+global_search"}, {"md_atom_id": "md_varindex_a961", "md_file": "knowledge_base/VARIABLE_INDEX.md", "md_atom_type": "TABLE_ROW", "md_parent_section": "§ 二、领域专属变量（仅 1 个域，共 1499 个），按域分组", "md_verbatim": "| MSCONC | Agent Concentration | Num | Variable Qualifier | Perm | — |", "score": 0.4636, "match_basis": "verbatim_token+global_search"}], "candidate_count": 5, "zero_candidate": false}
{"pdf_atom_id": "sv20_p0070_a001", "pdf_atom_type": "HEADING", "pdf_source": "SDTM_v2.0", "pdf_page": 70, "pdf_parent_section": "§7 [Changes from SDTM v1.8 to SDTM v2.0]", "pdf_verbatim": "7 Changes from SDTM v1.8 to SDTM v2.0", "figure_ref": null, "candidates": [{"md_atom_id": "md_ch10_a168", "md_file": "knowledge_base/chapters/ch10_appendices.md", "md_atom_type": "HEADING", "md_parent_section": "§10.E [Revision History]", "md_verbatim": "### Key Section-by-Section Changes", "score": 0.5, "match_basis": "verbatim_token+global_search"}, {"md_atom_id": "md_ch10_a140", "md_file": "knowledge_base/chapters/ch10_appendices.md", "md_atom_type": "HEADING", "md_parent_section": "§10.E [Revision History]", "md_verbatim": "### General Changes Throughout", "score": 0.4364, "match_basis": "verbatim_token+global_search"}, {"md_atom_id": "md_model05_a001", "md_file": "knowledge_base/model/05_study_level_data.md", "md_atom_type": "HEADING", "md_parent_section": "§ SDTM v2.0 — Chapter 5: Study-level Data", "md_verbatim": "# SDTM v2.0 — Chapter 5: Study-level Data", "score": 0.3857, "match_basis": "verbatim_token+global_search"}, {"md_atom_id": "md_ch10_a001", "md_file": "knowledge_base/chapters/ch10_appendices.md", "md_atom_type": "HEADING", "md_parent_section": "§10 [Appendices]", "md_verbatim": "# SDTMIG v3.4 — Chapter 10: Appendices", "score": 0.3783, "match_basis": "verbatim_token+global_search"}, {"md_atom_id": "md_model01_a001", "md_file": "knowledge_base/model/01_concepts_and_terms.md", "md_atom_type": "HEADING", "md_parent_section": "§2 [SDTM v2.0 — Chapter 2: Model Concepts and Terms]", "md_verbatim": "# SDTM v2.0 — Chapter 2: Model Concepts and Terms", "score": 0.372, "match_basis": "verbatim_token+global_search"}], "candidate_count": 5, "zero_candidate": false}
{"pdf_atom_id": "sv20_p0070_a002", "pdf_atom_type": "SENTENCE", "pdf_source": "SDTM_v2.0", "pdf_page": 70, "pdf_parent_section": "§7 [Changes from SDTM v1.8 to SDTM v2.0]", "pdf_verbatim": "Minor updates to the introduction were made to broaden the use cases and describe the relationship to older versions of the SDTM.", "figure_ref": null, "candidates": [{"md_atom_id": "md_ch08_a053", "md_file": "knowledge_base/chapters/ch08_relationships.md", "md_atom_type": "SENTENCE", "md_parent_section": "§8.2 [Relating Peer Records]", "md_verbatim": "The Related Records (RELREC) special-purpose dataset is used to describe relationships between records for a subject (as described in this section), and relationships between datasets (as described in Section 8.3, Relating Datasets).", "score": 0.4437, "match_basis": "verbatim_token+global_search"}, {"md_atom_id": "md_dmOE_ex_a077", "md_file": "knowledge_base/domains/OE/examples.md", "md_atom_type": "SENTENCE", "md_parent_section": "§OE.3 [Example 3]", "md_verbatim": "The many-to-one relationship between records in the PR and OE domains is described in RELREC.", "score": 0.4421, "match_basis": "verbatim_token+global_search"}, {"md_atom_id": "md_model06_a005", "md_file": "knowledge_base/model/06_relationship_datasets.md", "md_atom_type": "SENTENCE", "md_parent_section": "§ Overview", "md_verbatim": "The SDTM includes the following relationship datasets:", "score": 0.4352, "match_basis": "verbatim_token+global_search"}, {"md_atom_id": "md_model06_a016", "md_file": "knowledge_base/model/06_relationship_datasets.md", "md_atom_type": "SENTENCE", "md_parent_section": "§6.1 Related Records (RELREC)", "md_verbatim": "The Related Records dataset describes relationships between records within a domain, between records across domains, or between entire datasets.", "score": 0.4348, "match_basis": "verbatim_token+global_search"}, {"md_atom_id": "md_ch08_a069", "md_file": "knowledge_base/chapters/ch08_relationships.md", "md_atom_type": "SENTENCE", "md_parent_section": "§8.2.1 [Related Records (RELREC)]", "md_verbatim": "A dataset used to describe relationships between records for a subject within or across domains, and relationships of records across datasets.", "score": 0.4333, "match_basis": "verbatim_token+global_search"}], "candidate_count": 5, "zero_candidate": false}
{"pdf_atom_id": "sv20_p0070_a003", "pdf_atom_type": "SENTENCE", "pdf_source": "SDTM_v2.0", "pdf_page": 70, "pdf_parent_section": "§7 [Changes from SDTM v1.8 to SDTM v2.0]", "pdf_verbatim": "A concept map showing the organization of the model was also added.", "figure_ref": null, "candidates": [{"md_atom_id": "md_dmDS_ex_a188", "md_file": "knowledge_base/domains/DS/examples.md", "md_atom_type": "SENTENCE", "md_parent_section": "§DS.10 [Example 10]", "md_verbatim": "**Rows 1, 8:** Show randomization to either DRUG 1 or DRUG 2 in the study.", "score": 0.4021, "match_basis": "verbatim_token+global_search"}, {"md_atom_id": "md_model01_a005", "md_file": "knowledge_base/model/01_concepts_and_terms.md", "md_atom_type": "SENTENCE", "md_parent_section": "§2.1 [Model Concepts and Terms — Variables]", "md_verbatim": "The model is built around the concept of **observations**, which consist of discrete pieces of information collected during a study.", "score": 0.3975, "match_basis": "verbatim_token+global_search"}, {"md_atom_id": "md_ch04_a557", "md_file": "knowledge_base/chapters/ch04_general_assumptions.md", "md_atom_type": "SENTENCE", "md_parent_section": "§4.4.3.1 [Intervals of Time and Use of Duration]", "md_verbatim": "The values provided in --DUR should follow 1 of the following ISO 8601 duration formats:", "score": 0.3931, "match_basis": "verbatim_token+global_search"}, {"md_atom_id": "md_ch04_a004", "md_file": "knowledge_base/chapters/ch04_general_assumptions.md", "md_atom_type": "SENTENCE", "md_parent_section": "§4.0 [Overview]", "md_verbatim": "This section describes basic concepts, business rules, and assumptions that should be taken into consideration before applying the domain models.", "score": 0.3894, "match_basis": "verbatim_token+global_search"}, {"md_atom_id": "md_dmDS_ex_a248", "md_file": "knowledge_base/domains/DS/examples.md", "md_atom_type": "SENTENCE", "md_parent_section": "§DS.11 [Example 11]", "md_verbatim": "**Rows 1-2:** Show that informed consent was obtained and randomization occurred during the screening epoch.", "score": 0.388, "match_basis": "verbatim_token+global_search"}], "candidate_count": 5, "zero_candidate": false}
{"pdf_atom_id": "sv20_p0070_a004", "pdf_atom_type": "SENTENCE", "pdf_source": "SDTM_v2.0", "pdf_page": 70, "pdf_parent_section": "§7 [Changes from SDTM v1.8 to SDTM v2.0]", "pdf_verbatim": "In examples of qualifier types, specific variable names have been replaced with descriptions because the variables are introduced later in the document.", "figure_ref": null, "candidates": [{"md_atom_id": "md_ch04_a180", "md_file": "knowledge_base/chapters/ch04_general_assumptions.md", "md_atom_type": "SENTENCE", "md_parent_section": "§4.2.1 [Variable-Naming Conventions]", "md_verbatim": "Variable descriptive names (labels), up to 40 characters, should be provided as data variable labels for all variables, including Supplemental Qualifier variables.", "score": 0.4448, "match_basis": "verbatim_token+global_search"}, {"md_atom_id": "md_dmFA_ex_a106", "md_file": "knowledge_base/domains/FA/examples.md", "md_atom_type": "SENTENCE", "md_parent_section": "§FA.5 [Example 5]", "md_verbatim": "The collected data were represented in FA because they meet criterion 1 in Section 6.4.1, When to Use Findings About Events or Interventions, that is, data that do not describe an event or intervention as a whole. In addition, the volume of vomit data met criterion 2 data (\"about\" an event or intervention), having qualifiers that can be represented in Findings variables (e.g., units, method).", "score": 0.4347, "match_basis": "verbatim_token+global_search"}, {"md_atom_id": "md_ch04_a138", "md_file": "knowledge_base/chapters/ch04_general_assumptions.md", "md_atom_type": "SENTENCE", "md_parent_section": "§4.1.9 [Assigning Natural Keys in the Metadata]", "md_verbatim": "The following example illustrates how to do this, and include a case where a Supplemental Qualifier variable is referenced because it forms part of the natural key.", "score": 0.4313, "match_basis": "verbatim_token+global_search"}, {"md_atom_id": "md_dmMB_ex_a077", "md_file": "knowledge_base/domains/MB/examples.md", "md_atom_type": "SENTENCE", "md_parent_section": "§MB.3 [Example 3]", "md_verbatim": "Information about the BE and BS domains including the specification tables, assumptions, and examples can be found in Sections 6.2.2 and 6.3.5.2 of this document.", "score": 0.4304, "match_basis": "verbatim_token+global_search"}, {"md_atom_id": "md_ch04_a955", "md_file": "knowledge_base/chapters/ch04_general_assumptions.md", "md_atom_type": "SENTENCE", "md_parent_section": "§4.5.4 [Evaluators in the Interventions and Events Observation Classes]", "md_verbatim": "For observations that have primary and secondary evaluations of specific qualifier variables, sponsors should put data from the primary evaluation into the standard domain dataset and data from the secondary evaluation into the Supplemental Qualifier datasets (SUPP--).", "score": 0.4289, "match_basis": "verbatim_token+global_search"}], "candidate_count": 5, "zero_candidate": false}
{"pdf_atom_id": "sv20_p0070_a005", "pdf_atom_type": "SENTENCE", "pdf_source": "SDTM_v2.0", "pdf_page": 70, "pdf_parent_section": "§7 [Changes from SDTM v1.8 to SDTM v2.0]", "pdf_verbatim": "The description of Synonym Qualifiers was updated to reflect that some variables are synonym qualifiers of multiple variables.", "figure_ref": null, "candidates": [{"md_atom_id": "md_ch04_a982", "md_file": "knowledge_base/chapters/ch04_general_assumptions.md", "md_atom_type": "SENTENCE", "md_parent_section": "§4.5.6 [Supplemental Reason Variables]", "md_verbatim": "If multiple reasons are reported, refer to Section 4.2.8.3, Multiple Values for a Non-result Qualifier Variable.", "score": 0.5108, "match_basis": "verbatim_token+global_search"}, {"md_atom_id": "md_model01_a024", "md_file": "knowledge_base/model/01_concepts_and_terms.md", "md_atom_type": "SENTENCE", "md_parent_section": "§2.1 [Model Concepts and Terms — Variables]", "md_verbatim": "Variables which appear in multiple general observation classes have the same role, although the variable qualified by a variable qualifier or synonym qualifier can be different in different general observation classes.", "score": 0.4732, "match_basis": "verbatim_token+global_search"}, {"md_atom_id": "md_ch04_a954", "md_file": "knowledge_base/chapters/ch04_general_assumptions.md", "md_atom_type": "SENTENCE", "md_parent_section": "§4.5.4 [Evaluators in the Interventions and Events Observation Classes]", "md_verbatim": "The QEVAL variable can be used to describe the evaluator for any data item in a SUPP-- dataset (see Section 8.4.1, Supplemental Qualifiers -- SUPP-- Datasets), but is not required when the data are objective.", "score": 0.4485, "match_basis": "verbatim_token+global_search"}, {"md_atom_id": "md_ch04_a180", "md_file": "knowledge_base/chapters/ch04_general_assumptions.md", "md_atom_type": "SENTENCE", "md_parent_section": "§4.2.1 [Variable-Naming Conventions]", "md_verbatim": "Variable descriptive names (labels), up to 40 characters, should be provided as data variable labels for all variables, including Supplemental Qualifier variables.", "score": 0.4485, "match_basis": "verbatim_token+global_search"}, {"md_atom_id": "md_ch04_a262", "md_file": "knowledge_base/chapters/ch04_general_assumptions.md", "md_atom_type": "SENTENCE", "md_parent_section": "§4.2.7.1 [\"Specify\" Values for Non-Result Qualifier Variables]", "md_verbatim": "When free-text information is collected to supplement a standard non-result qualifier field, the free-text value should be placed in the SUPP-- dataset described in Section 8.4, Relating Non-standard Variable Values to a Parent Domain.", "score": 0.4412, "match_basis": "verbatim_token+global_search"}], "candidate_count": 5, "zero_candidate": false}
{"pdf_atom_id": "sv20_p0070_a006", "pdf_atom_type": "SENTENCE", "pdf_source": "SDTM_v2.0", "pdf_page": 70, "pdf_parent_section": "§7 [Changes from SDTM v1.8 to SDTM v2.0]", "pdf_verbatim": "The relationships domain Related Specimens (RELSPEC) was added.", "figure_ref": null, "candidates": [{"md_atom_id": "md_dmRELSPEC_ex_a004", "md_file": "knowledge_base/domains/RELSPEC/examples.md", "md_atom_type": "SENTENCE", "md_parent_section": "§RELSPEC.1 [Example 1]", "md_verbatim": "**Specimen Relationship Diagram:**", "score": 0.5667, "match_basis": "verbatim_token+global_search"}, {"md_atom_id": "md_ch08_a333", "md_file": "knowledge_base/chapters/ch08_relationships.md", "md_atom_type": "SENTENCE", "md_parent_section": "§8.8 [Related Specimens (RELSPEC)]", "md_verbatim": "**Figure. Sample Specimen Relationship**", "score": 0.5462, "match_basis": "verbatim_token+global_search"}, {"md_atom_id": "md_ch08_a319", "md_file": "knowledge_base/chapters/ch08_relationships.md", "md_atom_type": "SENTENCE", "md_parent_section": "§8.8 [Related Specimens (RELSPEC)]", "md_verbatim": "relspec.xpt, Related Specimens — Relationship. One record per specimen identifier per subject, Tabulation.", "score": 0.5291, "match_basis": "verbatim_token+global_search"}, {"md_atom_id": "md_ch08_a317", "md_file": "knowledge_base/chapters/ch08_relationships.md", "md_atom_type": "SENTENCE", "md_parent_section": "§8.8 [Related Specimens (RELSPEC)]", "md_verbatim": "A dataset used to represent relationships between specimens.", "score": 0.516, "match_basis": "verbatim_token+global_search"}, {"md_atom_id": "md_dmRELSPEC_assn_a003", "md_file": "knowledge_base/domains/RELSPEC/assumptions.md", "md_atom_type": "SENTENCE", "md_parent_section": "§RELSPEC [RELSPEC — Assumptions]", "md_verbatim": "A dataset used to represent relationships between specimens.", "score": 0.516, "match_basis": "verbatim_token+global_search"}], "candidate_count": 5, "zero_candidate": false}
{"pdf_atom_id": "sv20_p0070_a007", "pdf_atom_type": "SENTENCE", "pdf_source": "SDTM_v2.0", "pdf_page": 70, "pdf_parent_section": "§7 [Changes from SDTM v1.8 to SDTM v2.0]", "pdf_verbatim": "Sections were reordered and regrouped, which resulted in the renumbering of sections and the elimination of some unnecessary section layers.", "figure_ref": null, "candidates": [{"md_atom_id": "md_dmRE_ex_a034", "md_file": "knowledge_base/domains/RE/examples.md", "md_atom_type": "SENTENCE", "md_parent_section": "§RE.2 [Example 2]", "md_verbatim": "Supplemental qualifiers were used to indicate which was the best result and to provide information on the attempt that was considered to produce inadequate results.", "score": 0.3934, "match_basis": "verbatim_token+global_search"}, {"md_atom_id": "md_ch04_a031", "md_file": "knowledge_base/chapters/ch04_general_assumptions.md", "md_atom_type": "SENTENCE", "md_parent_section": "§4.1.4 [Order of the Variables]", "md_verbatim": "Within each role, variables must be ordered as shown in SDTM Sections 3.1.1, The Interventions Observation Class; 3.1.2, The Events Observation Class; 3.1.3, The Findings Observation Class; 3.1.3.1, Findings About Events or Interventions; 3.1.4, Identifiers for All Classes; and 3.1.5, Timing Variables for All Classes.", "score": 0.3885, "match_basis": "verbatim_token+global_search"}, {"md_atom_id": "md_dmMB_ex_a013", "md_file": "knowledge_base/domains/MB/examples.md", "md_atom_type": "SENTENCE", "md_parent_section": "§MB.1 [Example 1]", "md_verbatim": "The quantitative and qualitative results are grouped together using MSGRPID.", "score": 0.3876, "match_basis": "verbatim_token+global_search"}, {"md_atom_id": "md_dmFA_ex_a040", "md_file": "knowledge_base/domains/FA/examples.md", "md_atom_type": "SENTENCE", "md_parent_section": "§FA.2 [Example 2]", "md_verbatim": "Additional data about the rash were collected at visits 3 and 4, which occurred 2 days and 9 days after the start of the rash. These data were represented in an FA dataset because they were not about the event as a whole (see Section 6.4.1, When to Use Findings About Events or Interventions, criterion 1). In addition, the measurement of the rash requires multiple variables (value and unit) for its representation and the numbers of various kinds of lesions within the rash are a set of similar assessments of the event (see Section 6.4.1, When to Use Findings About Events or Interventions, criterion 2).", "score": 0.3848, "match_basis": "verbatim_token+global_search"}, {"md_atom_id": "md_dmAE_ex_a089", "md_file": "knowledge_base/domains/AE/examples.md", "md_atom_type": "SENTENCE", "md_parent_section": "§AE.6 [Example 6]", "md_verbatim": "The sensor attachment to the skin caused some skin irritation, which was considered to be caused by the device; the action taken was to reposition the device, and the subject recovered.", "score": 0.3842, "match_basis": "verbatim_token+global_search"}], "candidate_count": 5, "zero_candidate": false}
{"pdf_atom_id": "sv20_p0070_a008", "pdf_atom_type": "SENTENCE", "pdf_source": "SDTM_v2.0", "pdf_page": 70, "pdf_parent_section": "§7 [Changes from SDTM v1.8 to SDTM v2.0]", "pdf_verbatim": "The metadata tables now have Variable(s) Qualified, Usage Restrictions, Variable C-code, Definition, and Examples columns.", "figure_ref": null, "candidates": [{"md_atom_id": "md_model01_a049", "md_file": "knowledge_base/model/01_concepts_and_terms.md", "md_atom_type": "SENTENCE", "md_parent_section": "§2.1 [Model Concepts and Terms — Variables]", "md_verbatim": "The Usage Restrictions column of the table indicates the domains in which the variable is allowed.", "score": 0.4948, "match_basis": "verbatim_token+global_search"}, {"md_atom_id": "md_dmTA_ex_a270", "md_file": "knowledge_base/domains/TA/examples.md", "md_atom_type": "SENTENCE", "md_parent_section": "§TA.8.4 [Rule Variables]", "md_verbatim": "The Branch and Transition columns shown in the example tables are variables with a Role of \"Rule.\"", "score": 0.484, "match_basis": "verbatim_token+global_search"}, {"md_atom_id": "md_model01_a016", "md_file": "knowledge_base/model/01_concepts_and_terms.md", "md_atom_type": "SENTENCE", "md_parent_section": "§2.1 [Model Concepts and Terms — Variables]", "md_verbatim": "All datasets are structured as flat files with rows representing observations and columns representing variables; each dataset is described by metadata definitions that provide information about the variables used in the dataset.", "score": 0.4537, "match_basis": "verbatim_token+global_search"}, {"md_atom_id": "md_ch03_a091", "md_file": "knowledge_base/chapters/ch03_submitting_data.md", "md_atom_type": "SENTENCE", "md_parent_section": "§3.2.1.1 [Primary Keys]", "md_verbatim": "The table in Section 3.2.1, Dataset-level Metadata, shows examples of what a sponsor might submit as variables that comprise the primary key for SDTM datasets.", "score": 0.4485, "match_basis": "verbatim_token+global_search"}, {"md_atom_id": "md_model01_a055", "md_file": "knowledge_base/model/01_concepts_and_terms.md", "md_atom_type": "SENTENCE", "md_parent_section": "§2.1 [Model Concepts and Terms — Variables]", "md_verbatim": "This imposes certain restrictions on variables.", "score": 0.4478, "match_basis": "verbatim_token+global_search"}], "candidate_count": 5, "zero_candidate": false}
{"pdf_atom_id": "sv20_p0070_a009", "pdf_atom_type": "SENTENCE", "pdf_source": "SDTM_v2.0", "pdf_page": 70, "pdf_parent_section": "§7 [Changes from SDTM v1.8 to SDTM v2.0]", "pdf_verbatim": "The Notes column replaces the former Description column.", "figure_ref": null, "candidates": [{"md_atom_id": "md_ch08_a068", "md_file": "knowledge_base/chapters/ch08_relationships.md", "md_atom_type": "SENTENCE", "md_parent_section": "§8.2.1 [Related Records (RELREC)]", "md_verbatim": "**RELREC — Description/Overview**", "score": 0.4459, "match_basis": "verbatim_token+global_search"}, {"md_atom_id": "md_dmMB_ex_a125", "md_file": "knowledge_base/domains/MB/examples.md", "md_atom_type": "SENTENCE", "md_parent_section": "§MB.3 [Example 3]", "md_verbatim": "The variable MBTSTDTL is used to provide further description of the test performed in producing the MB result.", "score": 0.4292, "match_basis": "verbatim_token+global_search"}, {"md_atom_id": "md_ch04_a272", "md_file": "knowledge_base/chapters/ch04_general_assumptions.md", "md_atom_type": "SENTENCE", "md_parent_section": "§4.2.7.1 [\"Specify\" Values for Non-Result Qualifier Variables]", "md_verbatim": "The free-text description should be stored in the SUPPEX dataset.", "score": 0.425, "match_basis": "verbatim_token+global_search"}, {"md_atom_id": "md_model05_a059", "md_file": "knowledge_base/model/05_study_level_data.md", "md_atom_type": "SENTENCE", "md_parent_section": "§ Trial Reproductive Stages (TT)", "md_verbatim": "Describes the unique repro stages in a study, with repro stage description, code (short name), and rules for start and end.", "score": 0.422, "match_basis": "verbatim_token+global_search"}, {"md_atom_id": "md_ch04_a336", "md_file": "knowledge_base/chapters/ch04_general_assumptions.md", "md_atom_type": "SENTENCE", "md_parent_section": "§4.2.7.3 [\"Specify\" Values for Topic Variables]", "md_verbatim": "--TESTCD and --TEST should be populated with the code and description of the test found in the specified text.", "score": 0.4138, "match_basis": "verbatim_token+global_search"}], "candidate_count": 5, "zero_candidate": false}
{"pdf_atom_id": "sv20_p0070_a010", "pdf_atom_type": "SENTENCE", "pdf_source": "SDTM_v2.0", "pdf_page": 70, "pdf_parent_section": "§7 [Changes from SDTM v1.8 to SDTM v2.0]", "pdf_verbatim": "A section called Table Structure has been added to show the variable metadata included in the tables.", "figure_ref": null, "candidates": [{"md_atom_id": "md_model01_a059", "md_file": "knowledge_base/model/01_concepts_and_terms.md", "md_atom_type": "SENTENCE", "md_parent_section": "§2.2 [Table Structure]", "md_verbatim": "Tables in the SDTM v2.0 document include the following variable metadata:", "score": 0.5034, "match_basis": "verbatim_token+global_search"}, {"md_atom_id": "md_ch03_a023", "md_file": "knowledge_base/chapters/ch03_submitting_data.md", "md_atom_type": "SENTENCE", "md_parent_section": "§3.2.1 [Dataset-level Metadata]", "md_verbatim": "The Dataset-level Metadata table provides examples of dataset structures:", "score": 0.4742, "match_basis": "verbatim_token+global_search"}, {"md_atom_id": "md_ch04_a898", "md_file": "knowledge_base/chapters/ch04_general_assumptions.md", "md_atom_type": "SENTENCE", "md_parent_section": "§4.5.3.1 [Test Name (--TEST) Greater than 40 Characters]", "md_verbatim": "Sponsors have the following options for including the full description for these variables in the study metadata:", "score": 0.4558, "match_basis": "verbatim_token+global_search"}, {"md_atom_id": "md_ch03_a091", "md_file": "knowledge_base/chapters/ch03_submitting_data.md", "md_atom_type": "SENTENCE", "md_parent_section": "§3.2.1.1 [Primary Keys]", "md_verbatim": "The table in Section 3.2.1, Dataset-level Metadata, shows examples of what a sponsor might submit as variables that comprise the primary key for SDTM datasets.", "score": 0.4535, "match_basis": "verbatim_token+global_search"}, {"md_atom_id": "md_ch03_a018", "md_file": "knowledge_base/chapters/ch03_submitting_data.md", "md_atom_type": "SENTENCE", "md_parent_section": "§3.2 [Using the CDISC Domain Models in Regulatory Submissions — Dataset Metadata]", "md_verbatim": "Dataset definition metadata should include:", "score": 0.45, "match_basis": "verbatim_token+global_search"}], "candidate_count": 5, "zero_candidate": false}
{"pdf_atom_id": "sv20_p0070_a011", "pdf_atom_type": "SENTENCE", "pdf_source": "SDTM_v2.0", "pdf_page": 70, "pdf_parent_section": "§7 [Changes from SDTM v1.8 to SDTM v2.0]", "pdf_verbatim": "The section header Version History was removed.", "figure_ref": null, "candidates": [{"md_atom_id": "md_ch10_a160", "md_file": "knowledge_base/chapters/ch10_appendices.md", "md_atom_type": "SENTENCE", "md_parent_section": "§10.E [Revision History]", "md_verbatim": "The following domain was removed:", "score": 0.4167, "match_basis": "verbatim_token+global_search"}, {"md_atom_id": "md_dmAE_ex_a077", "md_file": "knowledge_base/domains/AE/examples.md", "md_atom_type": "SENTENCE", "md_parent_section": "§AE.5 [Example 5]", "md_verbatim": "The device was removed as the AE was probably related to the device.", "score": 0.405, "match_basis": "verbatim_token+global_search"}, {"md_atom_id": "md_ch01_a025", "md_file": "knowledge_base/chapters/ch01_introduction.md", "md_atom_type": "SENTENCE", "md_parent_section": "§1.3 [Relationship to Prior CDISC Documents]", "md_verbatim": "A detailed list of changes between versions is provided in Appendix E, Revision History.", "score": 0.4017, "match_basis": "verbatim_token+global_search"}, {"md_atom_id": "md_dmFA_ex_a085", "md_file": "knowledge_base/domains/FA/examples.md", "md_atom_type": "SENTENCE", "md_parent_section": "§FA.4 [Example 4]", "md_verbatim": "**Rows 2, 5:** \"Respiratory infection\" was not present at either visit.", "score": 0.4, "match_basis": "verbatim_token+global_search"}, {"md_atom_id": "md_dmAE_ex_a090", "md_file": "knowledge_base/domains/AE/examples.md", "md_atom_type": "SENTENCE", "md_parent_section": "§AE.6 [Example 6]", "md_verbatim": "**Row 2:** Shows an adverse event of infection at the sensor site.", "score": 0.3955, "match_basis": "verbatim_token+global_search"}], "candidate_count": 5, "zero_candidate": false}
{"pdf_atom_id": "sv20_p0070_a012", "pdf_atom_type": "SENTENCE", "pdf_source": "SDTM_v2.0", "pdf_page": 70, "pdf_parent_section": "§7 [Changes from SDTM v1.8 to SDTM v2.0]", "pdf_verbatim": "It was an unnecessary extra layer, because this section deals only with the changes from one version to the next.", "figure_ref": null, "candidates": [{"md_atom_id": "md_dmCM_ex_a004", "md_file": "knowledge_base/domains/CM/examples.md", "md_atom_type": "SENTENCE", "md_parent_section": "§CM.1 [Example 1]", "md_verbatim": "It is often unnecessary to record every unique instance of medication use, since the same information can be conveyed with start and end dates and frequency of use.", "score": 0.3923, "match_basis": "verbatim_token+global_search"}, {"md_atom_id": "md_dmOE_ex_a020", "md_file": "knowledge_base/domains/OE/examples.md", "md_atom_type": "SENTENCE", "md_parent_section": "§OE.2 [Example 2]", "md_verbatim": "The test for iris color is in the OE domain because in this use case, the medication is likely to change the result over the course of the study. Otherwise, iris color should be represented in the Subject Characteristics (SC) domain (see Section 6.3.10, Subject Characteristics).", "score": 0.3908, "match_basis": "verbatim_token+global_search"}, {"md_atom_id": "md_ch08_a153", "md_file": "knowledge_base/chapters/ch08_relationships.md", "md_atom_type": "SENTENCE", "md_parent_section": "§8.4 [Relating Non-standard Variable Values to a Parent Domain]", "md_verbatim": "This is necessary to ensure that reviewers can join/merge/transpose the information back with the records in the original domain without risk of losing information.", "score": 0.3906, "match_basis": "verbatim_token+global_search"}, {"md_atom_id": "md_dmDD_ex_a003", "md_file": "knowledge_base/domains/DD/examples.md", "md_atom_type": "SENTENCE", "md_parent_section": "§DD.1 [Example 1]", "md_verbatim": "This example shows the primary cause of death for 3 subjects. The CRF also collected the location of the subject's death and a secondary cause of death.", "score": 0.3897, "match_basis": "verbatim_token+global_search"}, {"md_atom_id": "md_dmBE_ex_a012", "md_file": "knowledge_base/domains/BE/examples.md", "md_atom_type": "SENTENCE", "md_parent_section": "§BE.1 [Example 1]", "md_verbatim": "Because there is only one ABC Lab, BEPRTYID is null.", "score": 0.3885, "match_basis": "verbatim_token+global_search"}], "candidate_count": 5, "zero_candidate": false}
{"pdf_atom_id": "sv20_p0070_a013", "pdf_atom_type": "SENTENCE", "pdf_source": "SDTM_v2.0", "pdf_page": 70, "pdf_parent_section": "§7 [Changes from SDTM v1.8 to SDTM v2.0]", "pdf_verbatim": "The Variable, Dataset, and Section Changes and Additions subsection was removed, as this was also an unnecessary extra layer.", "figure_ref": null, "candidates": [{"md_atom_id": "md_ch10_a169", "md_file": "knowledge_base/chapters/ch10_appendices.md", "md_atom_type": "SENTENCE", "md_parent_section": "§10.E [Revision History]", "md_verbatim": "In addition to the general changes described above, the following table provides an overview of changes by section.", "score": 0.4227, "match_basis": "verbatim_token+global_search"}, {"md_atom_id": "md_ch03_a091", "md_file": "knowledge_base/chapters/ch03_submitting_data.md", "md_atom_type": "SENTENCE", "md_parent_section": "§3.2.1.1 [Primary Keys]", "md_verbatim": "The table in Section 3.2.1, Dataset-level Metadata, shows examples of what a sponsor might submit as variables that comprise the primary key for SDTM datasets.", "score": 0.42, "match_basis": "verbatim_token+global_search"}, {"md_atom_id": "md_ch08_a135", "md_file": "knowledge_base/chapters/ch08_relationships.md", "md_atom_type": "SENTENCE", "md_parent_section": "§8.4 [Relating Non-standard Variable Values to a Parent Domain]", "md_verbatim": "The SDTM does not allow the addition of new variables.", "score": 0.4182, "match_basis": "verbatim_token+global_search"}, {"md_atom_id": "md_ch04_a475", "md_file": "knowledge_base/chapters/ch04_general_assumptions.md", "md_atom_type": "SENTENCE", "md_parent_section": "§4.4 [Actual and Relative Time Assumptions]", "md_verbatim": "Timing variables (SDTM Section 3.1.5, Timing Variables for All Classes) are an essential component of all SDTM subject-level domain datasets.", "score": 0.4161, "match_basis": "verbatim_token+global_search"}, {"md_atom_id": "md_ch04_a015", "md_file": "knowledge_base/chapters/ch04_general_assumptions.md", "md_atom_type": "SENTENCE", "md_parent_section": "§4.1.3 [Additional Timing Variables]", "md_verbatim": "Timing variables cannot be added to SUPPQUAL datasets or to RELREC (described in Section 8, Representing Relationships and Data).", "score": 0.4129, "match_basis": "verbatim_token+global_search"}], "candidate_count": 5, "zero_candidate": false}
{"pdf_atom_id": "sv20_p0070_a014", "pdf_atom_type": "SENTENCE", "pdf_source": "SDTM_v2.0", "pdf_page": 70, "pdf_parent_section": "§7 [Changes from SDTM v1.8 to SDTM v2.0]", "pdf_verbatim": "Table numbers were removed, as they are redundant with section numbers.", "figure_ref": null, "candidates": [{"md_atom_id": "md_ch04_a047", "md_file": "knowledge_base/chapters/ch04_general_assumptions.md", "md_atom_type": "SENTENCE", "md_parent_section": "§4.1.6 [Additional Guidance on Dataset Naming]", "md_verbatim": "Any letter or number may be used in the second position.", "score": 0.4021, "match_basis": "verbatim_token+global_search"}, {"md_atom_id": "md_dmTV_ex_a003", "md_file": "knowledge_base/domains/TV/examples.md", "md_atom_type": "SENTENCE", "md_parent_section": "§TV.1 [Example 1]", "md_verbatim": "The following diagram represents visits as numbered \"flags\" with visit numbers.", "score": 0.4017, "match_basis": "verbatim_token+global_search"}, {"md_atom_id": "md_dmGF_ex_a012", "md_file": "knowledge_base/domains/GF/examples.md", "md_atom_type": "SENTENCE", "md_parent_section": "§GF.1 [Example 1]", "md_verbatim": "**Row 9:** Shows the interpretation of the copy number of the gene of interest within the genome of the tumor cell.", "score": 0.3968, "match_basis": "verbatim_token+global_search"}, {"md_atom_id": "md_dmEC_ex_a002", "md_file": "knowledge_base/domains/EC/examples.md", "md_atom_type": "SENTENCE", "md_parent_section": "§EC [EC — Examples]", "md_verbatim": "Note: Examples for EX and EC are shared in Section 6.1.3.3 of the SDTMIG. See also [EX Examples](../EX/examples.md).", "score": 0.3941, "match_basis": "verbatim_token+global_search"}, {"md_atom_id": "md_dmEX_ex_a002", "md_file": "knowledge_base/domains/EX/examples.md", "md_atom_type": "SENTENCE", "md_parent_section": "§EX [EX — Examples]", "md_verbatim": "Note: Examples for EX and EC are shared in Section 6.1.3.3 of the SDTMIG. See also [EC Examples](../EC/examples.md).", "score": 0.3941, "match_basis": "verbatim_token+global_search"}], "candidate_count": 5, "zero_candidate": false}
{"pdf_atom_id": "sv20_p0070_a015", "pdf_atom_type": "SENTENCE", "pdf_source": "SDTM_v2.0", "pdf_page": 70, "pdf_parent_section": "§7 [Changes from SDTM v1.8 to SDTM v2.0]", "pdf_verbatim": "Usage restrictions of \"Not in nonclinical trials\" were added.", "figure_ref": null, "candidates": [{"md_atom_id": "md_model01_a049", "md_file": "knowledge_base/model/01_concepts_and_terms.md", "md_atom_type": "SENTENCE", "md_parent_section": "§2.1 [Model Concepts and Terms — Variables]", "md_verbatim": "The Usage Restrictions column of the table indicates the domains in which the variable is allowed.", "score": 0.4475, "match_basis": "verbatim_token+global_search"}, {"md_atom_id": "md_model01_a055", "md_file": "knowledge_base/model/01_concepts_and_terms.md", "md_atom_type": "SENTENCE", "md_parent_section": "§2.1 [Model Concepts and Terms — Variables]", "md_verbatim": "This imposes certain restrictions on variables.", "score": 0.4347, "match_basis": "verbatim_token+global_search"}, {"md_atom_id": "md_ch04_a177", "md_file": "knowledge_base/chapters/ch04_general_assumptions.md", "md_atom_type": "SENTENCE", "md_parent_section": "§4.2.1 [Variable-Naming Conventions]", "md_verbatim": "Values of other \"CD\" variables are **not** subject to the same restrictions as --TESTCD:", "score": 0.4309, "match_basis": "verbatim_token+global_search"}, {"md_atom_id": "md_ch08_a234", "md_file": "knowledge_base/chapters/ch08_relationships.md", "md_atom_type": "SENTENCE", "md_parent_section": "§8.6.1 [Guidelines for Determining the General Observation Class]", "md_verbatim": "Most, although not all, events data captured in clinical trials is about medical events.", "score": 0.4138, "match_basis": "verbatim_token+global_search"}, {"md_atom_id": "md_ch04_a073", "md_file": "knowledge_base/chapters/ch04_general_assumptions.md", "md_atom_type": "SENTENCE", "md_parent_section": "§4.1.7.1 [Example of Splitting Questionnaires]", "md_verbatim": "**Dataset for Clinical Global Impressions — qscg.xpt**", "score": 0.408, "match_basis": "verbatim_token+global_search"}], "candidate_count": 5, "zero_candidate": false}
{"pdf_atom_id": "sv20_p0070_a016", "pdf_atom_type": "SENTENCE", "pdf_source": "SDTM_v2.0", "pdf_page": 70, "pdf_parent_section": "§7 [Changes from SDTM v1.8 to SDTM v2.0]", "pdf_verbatim": "A new section, Study Subject Data, was created which groups the general observation classes and special-purpose domains.", "figure_ref": null, "candidates": [{"md_atom_id": "md_model02_a005", "md_file": "knowledge_base/model/02_observation_classes.md", "md_atom_type": "SENTENCE", "md_parent_section": "§ Overview", "md_verbatim": "SDTM datasets that represent data about study subjects are of 2 types: general observation class datasets and special-purpose datasets.", "score": 0.5682, "match_basis": "verbatim_token+global_search"}, {"md_atom_id": "md_model04_a005", "md_file": "knowledge_base/model/04_associated_persons.md", "md_atom_type": "SENTENCE", "md_parent_section": "§4 [SDTM v2.0 — Chapter 4: Associated Persons Data]", "md_verbatim": "The structures of SDTM datasets that represent data about associated persons are based on the structures for data about study subjects, either general observation class structures or special-purpose domain structures.", "score": 0.5538, "match_basis": "verbatim_token+global_search"}, {"md_atom_id": "md_ch03_a009", "md_file": "knowledge_base/chapters/ch03_submitting_data.md", "md_atom_type": "SENTENCE", "md_parent_section": "§3.1 [Standard Metadata for Dataset Contents and Attributes]", "md_verbatim": "The domain models in Section 6, Domain Models Based on the General Observation Classes, illustrate how to apply the SDTM when creating a specific domain dataset.", "score": 0.5374, "match_basis": "verbatim_token+global_search"}, {"md_atom_id": "md_model02_a161", "md_file": "knowledge_base/model/02_observation_classes.md", "md_atom_type": "SENTENCE", "md_parent_section": "§3.1.4 Identifiers for All Classes", "md_verbatim": "STUDYID, DOMAIN, and --SEQ are required in all domains based on one of the 3 general observation classes.", "score": 0.526, "match_basis": "verbatim_token+global_search"}, {"md_atom_id": "md_ch03_a095", "md_file": "knowledge_base/chapters/ch03_submitting_data.md", "md_atom_type": "SENTENCE", "md_parent_section": "§3.2.1.1 [Primary Keys]", "md_verbatim": "For all the general observation-class domains (and for some special-purpose domains), the --SEQ variable was created so that a unique record could be identified consistently across all of these domains via its use, along with STUDYID, USUBJID, and DOMAIN.", "score": 0.5213, "match_basis": "verbatim_token+global_search"}], "candidate_count": 5, "zero_candidate": false}
{"pdf_atom_id": "sv20_p0070_a017", "pdf_atom_type": "SENTENCE", "pdf_source": "SDTM_v2.0", "pdf_page": 70, "pdf_parent_section": "§7 [Changes from SDTM v1.8 to SDTM v2.0]", "pdf_verbatim": "The variable APID was removed from Section 3.1.4, Identifiers for All Classes, because APID is only allowed in AP domains.", "figure_ref": null, "candidates": [{"md_atom_id": "md_model04_a009", "md_file": "knowledge_base/model/04_associated_persons.md", "md_atom_type": "LIST_ITEM", "md_parent_section": "§4 [SDTM v2.0 — Chapter 4: Associated Persons Data]", "md_verbatim": "2. **APID:** The variable APID is used as an identifier in AP domains (instead of USUBJID for subjects). APID was removed from Section 3.1.4 (Identifiers for All Classes) because APID is only allowed in AP domains. It is still listed in Section 3 as an identifier.", "score": 0.6538, "match_basis": "verbatim_token+global_search"}, {"md_atom_id": "md_model02_a006", "md_file": "knowledge_base/model/02_observation_classes.md", "md_atom_type": "SENTENCE", "md_parent_section": "§ Overview", "md_verbatim": "Domains based on the general observation classes share a set of common identifier and timing variables (see Section 3.1.4, Identifiers for All Classes, and Section 3.1.5, Timing Variables for All Classes).", "score": 0.5357, "match_basis": "verbatim_token+global_search"}, {"md_atom_id": "md_model02_a163", "md_file": "knowledge_base/model/02_observation_classes.md", "md_atom_type": "SENTENCE", "md_parent_section": "§3.1.4 Identifiers for All Classes", "md_verbatim": "All identifier variables are allowed for any domain based on one of the 3 general observation classes, unless otherwise noted in the Usage Restrictions.", "score": 0.5084, "match_basis": "verbatim_token+global_search"}, {"md_atom_id": "md_ch08_a023", "md_file": "knowledge_base/chapters/ch08_relationships.md", "md_atom_type": "SENTENCE", "md_parent_section": "§8.1 [Relating Groups of Records Within a Domain Using --GRPID]", "md_verbatim": "The optional grouping identifier variable --GRPID is Permissible in all domains that are based on the general observation classes.", "score": 0.4891, "match_basis": "verbatim_token+global_search"}, {"md_atom_id": "md_ch04_a030", "md_file": "knowledge_base/chapters/ch04_general_assumptions.md", "md_atom_type": "SENTENCE", "md_parent_section": "§4.1.4 [Order of the Variables]", "md_verbatim": "Variables for the 3 general observation classes must be ordered with Identifiers variables first, followed by Topic, Qualifier, and Timing variables.", "score": 0.4806, "match_basis": "verbatim_token+global_search"}], "candidate_count": 5, "zero_candidate": false}
{"pdf_atom_id": "sv20_p0070_a018", "pdf_atom_type": "SENTENCE", "pdf_source": "SDTM_v2.0", "pdf_page": 70, "pdf_parent_section": "§7 [Changes from SDTM v1.8 to SDTM v2.0]", "pdf_verbatim": "It is still listed in new Section 4, Associated Persons Data.", "figure_ref": null, "candidates": [{"md_atom_id": "md_model06_a083", "md_file": "knowledge_base/model/06_relationship_datasets.md", "md_atom_type": "SENTENCE", "md_parent_section": "§6.6 Associated Persons Related Subjects (APRELSUB)", "md_verbatim": "Links associated persons to subjects.", "score": 0.54, "match_basis": "verbatim_token+global_search"}, {"md_atom_id": "md_model04_a023", "md_file": "knowledge_base/model/04_associated_persons.md", "md_atom_type": "SENTENCE", "md_parent_section": "§4 [SDTM v2.0 — Chapter 4: Associated Persons Data]", "md_verbatim": "Relationships of an associated person to study subjects may be represented in the Associated Persons Relationships dataset.", "score": 0.4929, "match_basis": "verbatim_token+global_search"}, {"md_atom_id": "md_ch01_a063", "md_file": "knowledge_base/chapters/ch01_introduction.md", "md_atom_type": "SENTENCE", "md_parent_section": "§1.4 [How to Read this Implementation Guide]", "md_verbatim": "See the SDTMIG for Associated Persons (SDTMIG-AP) and the SDTMIG for Medical Devices (SDTMIG-MD).", "score": 0.4733, "match_basis": "verbatim_token+global_search"}, {"md_atom_id": "md_ch04_a706", "md_file": "knowledge_base/chapters/ch04_general_assumptions.md", "md_atom_type": "SENTENCE", "md_parent_section": "§4.4.10 [Representing Time Points]", "md_verbatim": "Time-point data will usually have an associated --DTC value.", "score": 0.45, "match_basis": "verbatim_token+global_search"}, {"md_atom_id": "md_dmCE_ex_a090", "md_file": "knowledge_base/domains/CE/examples.md", "md_atom_type": "SENTENCE", "md_parent_section": "§CE.3 [Example 3]", "md_verbatim": "**Rows 2-3:** Show the subject's second fracture and its associated complication.", "score": 0.4309, "match_basis": "verbatim_token+global_search"}], "candidate_count": 5, "zero_candidate": false}
{"pdf_atom_id": "sv20_p0070_a019", "pdf_atom_type": "SENTENCE", "pdf_source": "SDTM_v2.0", "pdf_page": 70, "pdf_parent_section": "§7 [Changes from SDTM v1.8 to SDTM v2.0]", "pdf_verbatim": "The variables qualified for --DOSFRM, --DOSFRQ, and --DOSRGM were changed from --DOSE, --DOSTXT, and --DOSTOT to --TRT.", "figure_ref": null, "candidates": [{"md_atom_id": "md_ch04_a360", "md_file": "knowledge_base/chapters/ch04_general_assumptions.md", "md_atom_type": "SENTENCE", "md_parent_section": "§4.2.8.3 [Multiple Values for a Non-result Qualifier Variable]", "md_verbatim": "The SDTM permits 1 value for each qualifier variable per record.", "score": 0.4448, "match_basis": "verbatim_token+global_search"}, {"md_atom_id": "md_model01_a033", "md_file": "knowledge_base/model/01_concepts_and_terms.md", "md_atom_type": "SENTENCE", "md_parent_section": "§2.1 [Model Concepts and Terms — Variables]", "md_verbatim": "The set of Qualifier variables can be further categorized into 5 subclasses:", "score": 0.4254, "match_basis": "verbatim_token+global_search"}, {"md_atom_id": "md_ch04_a996", "md_file": "knowledge_base/chapters/ch04_general_assumptions.md", "md_atom_type": "SENTENCE", "md_parent_section": "§4.5.7 [Presence or Absence of Prespecified Interventions and Events]", "md_verbatim": "It is a permissible variable and may be omitted from the dataset if no topic-variable values were prespecified.", "score": 0.4216, "match_basis": "verbatim_token+global_search"}, {"md_atom_id": "md_model01_a023", "md_file": "knowledge_base/model/01_concepts_and_terms.md", "md_atom_type": "SENTENCE", "md_parent_section": "§2.1 [Model Concepts and Terms — Variables]", "md_verbatim": "For example, ARMCD is the topic variable in Trial Arms (TA), but a record qualifier in Demographics (DM) and Trial Visits (TV).", "score": 0.42, "match_basis": "verbatim_token+global_search"}, {"md_atom_id": "md_model03_a012", "md_file": "knowledge_base/model/03_special_purpose_domains.md", "md_atom_type": "SENTENCE", "md_parent_section": "§ Demographics (DM)", "md_verbatim": "The DM domain, as with other datasets, includes identifiers, a topic variable, timing variables, and qualifiers.", "score": 0.42, "match_basis": "verbatim_token+global_search"}], "candidate_count": 5, "zero_candidate": false}
{"pdf_atom_id": "sv20_p0070_a020", "pdf_atom_type": "SENTENCE", "pdf_source": "SDTM_v2.0", "pdf_page": 70, "pdf_parent_section": "§7 [Changes from SDTM v1.8 to SDTM v2.0]", "pdf_verbatim": "Because the role of the domain-specific variable --BEATNO was changed to Identifier, it was moved from Section 3.1.3, The Findings Observation Class, to Section 3.1.4, Identifiers for All Classes.", "figure_ref": null, "candidates": [{"md_atom_id": "md_model02_a006", "md_file": "knowledge_base/model/02_observation_classes.md", "md_atom_type": "SENTENCE", "md_parent_section": "§ Overview", "md_verbatim": "Domains based on the general observation classes share a set of common identifier and timing variables (see Section 3.1.4, Identifiers for All Classes, and Section 3.1.5, Timing Variables for All Classes).", "score": 0.5526, "match_basis": "verbatim_token+global_search"}, {"md_atom_id": "md_ch04_a031", "md_file": "knowledge_base/chapters/ch04_general_assumptions.md", "md_atom_type": "SENTENCE", "md_parent_section": "§4.1.4 [Order of the Variables]", "md_verbatim": "Within each role, variables must be ordered as shown in SDTM Sections 3.1.1, The Interventions Observation Class; 3.1.2, The Events Observation Class; 3.1.3, The Findings Observation Class; 3.1.3.1, Findings About Events or Interventions; 3.1.4, Identifiers for All Classes; and 3.1.5, Timing Variables for All Classes.", "score": 0.5434, "match_basis": "verbatim_token+global_search"}, {"md_atom_id": "md_model04_a017", "md_file": "knowledge_base/model/04_associated_persons.md", "md_atom_type": "SENTENCE", "md_parent_section": "§4 [SDTM v2.0 — Chapter 4: Associated Persons Data]", "md_verbatim": "The table of variables used in Associated Persons Data includes all variables from the general observation classes, with the addition of AP-specific identifiers:", "score": 0.5229, "match_basis": "verbatim_token+global_search"}, {"md_atom_id": "md_ch08_a023", "md_file": "knowledge_base/chapters/ch08_relationships.md", "md_atom_type": "SENTENCE", "md_parent_section": "§8.1 [Relating Groups of Records Within a Domain Using --GRPID]", "md_verbatim": "The optional grouping identifier variable --GRPID is Permissible in all domains that are based on the general observation classes.", "score": 0.5019, "match_basis": "verbatim_token+global_search"}, {"md_atom_id": "md_model02_a163", "md_file": "knowledge_base/model/02_observation_classes.md", "md_atom_type": "SENTENCE", "md_parent_section": "§3.1.4 Identifiers for All Classes", "md_verbatim": "All identifier variables are allowed for any domain based on one of the 3 general observation classes, unless otherwise noted in the Usage Restrictions.", "score": 0.4964, "match_basis": "verbatim_token+global_search"}], "candidate_count": 5, "zero_candidate": false}
{"pdf_atom_id": "sv20_p0070_a021", "pdf_atom_type": "SENTENCE", "pdf_source": "SDTM_v2.0", "pdf_page": 70, "pdf_parent_section": "§7 [Changes from SDTM v1.8 to SDTM v2.0]", "pdf_verbatim": "--LNKID and --LNKGRP have been revised to clarify that the relationships are within a subject.", "figure_ref": null, "candidates": [{"md_atom_id": "md_ch08_a069", "md_file": "knowledge_base/chapters/ch08_relationships.md", "md_atom_type": "SENTENCE", "md_parent_section": "§8.2.1 [Related Records (RELREC)]", "md_verbatim": "A dataset used to describe relationships between records for a subject within or across domains, and relationships of records across datasets.", "score": 0.4792, "match_basis": "verbatim_token+global_search"}, {"md_atom_id": "md_dmDD_ex_a033", "md_file": "knowledge_base/domains/DD/examples.md", "md_atom_type": "SENTENCE", "md_parent_section": "§DD.2 [Example 2]", "md_verbatim": "The relationship between the DS, AE, and DD records that reflect the subject's death is represented in RELREC.", "score": 0.4667, "match_basis": "verbatim_token+global_search"}, {"md_atom_id": "md_dmRELSUB_assn_a002", "md_file": "knowledge_base/domains/RELSUB/assumptions.md", "md_atom_type": "SENTENCE", "md_parent_section": "§RELSUB [RELSUB — Assumptions]", "md_verbatim": "A dataset used to represent relationships between study subjects.", "score": 0.4636, "match_basis": "verbatim_token+global_search"}, {"md_atom_id": "md_ch08_a024", "md_file": "knowledge_base/chapters/ch08_relationships.md", "md_atom_type": "SENTENCE", "md_parent_section": "§8.1 [Relating Groups of Records Within a Domain Using --GRPID]", "md_verbatim": "It is used to identify relationships between records within a USUBJID within a single domain (e.g., intervention records for a combination therapy where treatments in the combination varies from subject to subject).", "score": 0.4471, "match_basis": "verbatim_token+global_search"}, {"md_atom_id": "md_ch08_a053", "md_file": "knowledge_base/chapters/ch08_relationships.md", "md_atom_type": "SENTENCE", "md_parent_section": "§8.2 [Relating Peer Records]", "md_verbatim": "The Related Records (RELREC) special-purpose dataset is used to describe relationships between records for a subject (as described in this section), and relationships between datasets (as described in Section 8.3, Relating Datasets).", "score": 0.4432, "match_basis": "verbatim_token+global_search"}], "candidate_count": 5, "zero_candidate": false}
{"pdf_atom_id": "sv20_p0070_a022", "pdf_atom_type": "SENTENCE", "pdf_source": "SDTM_v2.0", "pdf_page": 70, "pdf_parent_section": "§7 [Changes from SDTM v1.8 to SDTM v2.0]", "pdf_verbatim": "The special-purpose Subject Visits (SV) domain remains a special-purpose domain, but additional variables have been added to address the effect of an epidemic or pandemic on visits.", "figure_ref": null, "candidates": [{"md_atom_id": "md_ch04_a014", "md_file": "knowledge_base/chapters/ch04_general_assumptions.md", "md_atom_type": "SENTENCE", "md_parent_section": "§4.1.3 [Additional Timing Variables]", "md_verbatim": "Timing variables can be added to special-purpose domains only where specified in the SDTMIG domain model assumptions.", "score": 0.4806, "match_basis": "verbatim_token+global_search"}, {"md_atom_id": "md_model01_a052", "md_file": "knowledge_base/model/01_concepts_and_terms.md", "md_atom_type": "SENTENCE", "md_parent_section": "§2.1 [Model Concepts and Terms — Variables]", "md_verbatim": "The Comments special-purpose domain includes the variable RDOMAIN, but other special-purpose domains do not.", "score": 0.4704, "match_basis": "verbatim_token+global_search"}, {"md_atom_id": "md_model03_a006", "md_file": "knowledge_base/model/03_special_purpose_domains.md", "md_atom_type": "SENTENCE", "md_parent_section": "§ Overview", "md_verbatim": "Other special-purpose domains may be included.", "score": 0.4397, "match_basis": "verbatim_token+global_search"}, {"md_atom_id": "md_model05_a015", "md_file": "knowledge_base/model/05_study_level_data.md", "md_atom_type": "SENTENCE", "md_parent_section": "§ 5.1 Trial Design Model", "md_verbatim": "Many Trial Design domains define study-specific terminology, and variables and variable values from these domains are used in subject-level domains.", "score": 0.4314, "match_basis": "verbatim_token+global_search"}, {"md_atom_id": "md_dmMB_ex_a076", "md_file": "knowledge_base/domains/MB/examples.md", "md_atom_type": "SENTENCE", "md_parent_section": "§MB.3 [Example 3]", "md_verbatim": "If the same sample is used in many domains, the use of --REFID may result in a potentially undesirable many-to-many merge; users may need to make use of additional linking variables such as --LNKID and --LNKGRP.", "score": 0.4293, "match_basis": "verbatim_token+global_search"}], "candidate_count": 5, "zero_candidate": false}
{"pdf_atom_id": "sv20_p0070_a023", "pdf_atom_type": "SENTENCE", "pdf_source": "SDTM_v2.0", "pdf_page": 70, "pdf_parent_section": "§7 [Changes from SDTM v1.8 to SDTM v2.0]", "pdf_verbatim": "The role of the --LOINC variable was changed from Synonym Qualifier of --TESTCD to Record Qualifier.", "figure_ref": null, "candidates": [{"md_atom_id": "md_ch04_a360", "md_file": "knowledge_base/chapters/ch04_general_assumptions.md", "md_atom_type": "SENTENCE", "md_parent_section": "§4.2.8.3 [Multiple Values for a Non-result Qualifier Variable]", "md_verbatim": "The SDTM permits 1 value for each qualifier variable per record.", "score": 0.5038, "match_basis": "verbatim_token+global_search"}, {"md_atom_id": "md_model02_a157", "md_file": "knowledge_base/model/02_observation_classes.md", "md_atom_type": "SENTENCE", "md_parent_section": "§3.1.3 > Findings About (Subtype)", "md_verbatim": "The order of the --OBJ variable among Findings qualifiers is immediately after the --TEST variable.", "score": 0.4569, "match_basis": "verbatim_token+global_search"}, {"md_atom_id": "md_model01_a023", "md_file": "knowledge_base/model/01_concepts_and_terms.md", "md_atom_type": "SENTENCE", "md_parent_section": "§2.1 [Model Concepts and Terms — Variables]", "md_verbatim": "For example, ARMCD is the topic variable in Trial Arms (TA), but a record qualifier in Demographics (DM) and Trial Visits (TV).", "score": 0.4521, "match_basis": "verbatim_token+global_search"}, {"md_atom_id": "md_model01_a024", "md_file": "knowledge_base/model/01_concepts_and_terms.md", "md_atom_type": "SENTENCE", "md_parent_section": "§2.1 [Model Concepts and Terms — Variables]", "md_verbatim": "Variables which appear in multiple general observation classes have the same role, although the variable qualified by a variable qualifier or synonym qualifier can be different in different general observation classes.", "score": 0.437, "match_basis": "verbatim_token+global_search"}, {"md_atom_id": "md_ch02_a007", "md_file": "knowledge_base/chapters/ch02_fundamentals.md", "md_atom_type": "SENTENCE", "md_parent_section": "§2.1 [Observations and Variables]", "md_verbatim": "Each variable can be classified according to its **role**.", "score": 0.4309, "match_basis": "verbatim_token+global_search"}], "candidate_count": 5, "zero_candidate": false}
{"pdf_atom_id": "sv20_p0070_a024", "pdf_atom_type": "SENTENCE", "pdf_source": "SDTM_v2.0", "pdf_page": 70, "pdf_parent_section": "§7 [Changes from SDTM v1.8 to SDTM v2.0]", "pdf_verbatim": "A single variable of --TESTCD may be associated with multiple values of --LOINC, depending on the values of other variables, such as --SPEC and --METHOD.", "figure_ref": null, "candidates": [{"md_atom_id": "md_ch04_a435", "md_file": "knowledge_base/chapters/ch04_general_assumptions.md", "md_atom_type": "SENTENCE", "md_parent_section": "§4.3.3 [Controlled Terminology Values]", "md_verbatim": "For example, --PRESP variables are associated with the NY codelist, but only the value \"Y\" is allowed in --PRESP variables.", "score": 0.465, "match_basis": "verbatim_token+global_search"}, {"md_atom_id": "md_ch04_a174", "md_file": "knowledge_base/chapters/ch04_general_assumptions.md", "md_atom_type": "SENTENCE", "md_parent_section": "§4.2.1 [Variable-Naming Conventions]", "md_verbatim": "SDTM variables are named according to a set of conventions, using fragment names (see Appendix D, CDISC Variable-naming Fragments). Variables with names ending in \"CD\" are \"short\" versions of associated variables that do not include the \"CD\" suffix (e.g., --TESTCD is the short version of --TEST).", "score": 0.454, "match_basis": "verbatim_token+global_search"}, {"md_atom_id": "md_ch04_a177", "md_file": "knowledge_base/chapters/ch04_general_assumptions.md", "md_atom_type": "SENTENCE", "md_parent_section": "§4.2.1 [Variable-Naming Conventions]", "md_verbatim": "Values of other \"CD\" variables are **not** subject to the same restrictions as --TESTCD:", "score": 0.444, "match_basis": "verbatim_token+global_search"}, {"md_atom_id": "md_ch04_a339", "md_file": "knowledge_base/chapters/ch04_general_assumptions.md", "md_atom_type": "SENTENCE", "md_parent_section": "§4.2.7.3 [\"Specify\" Values for Topic Variables]", "md_verbatim": "The value the investigator wrote for \"Other, specify\" was \"Prothrombin time\" with an associated result and units.", "score": 0.4416, "match_basis": "verbatim_token+global_search"}, {"md_atom_id": "md_ch04_a365", "md_file": "knowledge_base/chapters/ch04_general_assumptions.md", "md_atom_type": "SENTENCE", "md_parent_section": "§4.2.8.3 [Multiple Values for a Non-result Qualifier Variable]", "md_verbatim": "The values stored in QVAL should be consistent with the controlled terminology associated with the standard variable.", "score": 0.4389, "match_basis": "verbatim_token+global_search"}], "candidate_count": 5, "zero_candidate": false}
{"pdf_atom_id": "sv20_p0070_a025", "pdf_atom_type": "SENTENCE", "pdf_source": "SDTM_v2.0", "pdf_page": 70, "pdf_parent_section": "§7 [Changes from SDTM v1.8 to SDTM v2.0]", "pdf_verbatim": "The order of --METHOD was changed so that the variable appears after --PORTOT, rather than after --LOC.", "figure_ref": null, "candidates": [{"md_atom_id": "md_model02_a157", "md_file": "knowledge_base/model/02_observation_classes.md", "md_atom_type": "SENTENCE", "md_parent_section": "§3.1.3 > Findings About (Subtype)", "md_verbatim": "The order of the --OBJ variable among Findings qualifiers is immediately after the --TEST variable.", "score": 0.4164, "match_basis": "verbatim_token+global_search"}, {"md_atom_id": "md_ch04_a028", "md_file": "knowledge_base/chapters/ch04_general_assumptions.md", "md_atom_type": "SENTENCE", "md_parent_section": "§4.1.4 [Order of the Variables]", "md_verbatim": "The order of variables in the Define-XML document must reflect the order of variables in the dataset.", "score": 0.3968, "match_basis": "verbatim_token+global_search"}, {"md_atom_id": "md_dmTA_ex_a271", "md_file": "knowledge_base/domains/TA/examples.md", "md_atom_type": "SENTENCE", "md_parent_section": "§TA.8.4 [Rule Variables]", "md_verbatim": "The values of a Rule variable describe conditions under which something is planned to happen.", "score": 0.396, "match_basis": "verbatim_token+global_search"}, {"md_atom_id": "md_ch04_a904", "md_file": "knowledge_base/chapters/ch04_general_assumptions.md", "md_atom_type": "SENTENCE", "md_parent_section": "§4.5.3.2 [Text Strings Greater than 200 Characters in Other Variables]", "md_verbatim": "Some sponsors may collect data values longer than 200 characters for some variables.", "score": 0.3943, "match_basis": "verbatim_token+global_search"}, {"md_atom_id": "md_ch04_a454", "md_file": "knowledge_base/chapters/ch04_general_assumptions.md", "md_atom_type": "SENTENCE", "md_parent_section": "§4.3.6 [Storing Topic Variables for General Domain Models]", "md_verbatim": "For an Events domain, the topic variable is --TERM.", "score": 0.3941, "match_basis": "verbatim_token+global_search"}], "candidate_count": 5, "zero_candidate": false}
{"pdf_atom_id": "sv20_p0070_a026", "pdf_atom_type": "SENTENCE", "pdf_source": "SDTM_v2.0", "pdf_page": 70, "pdf_parent_section": "§7 [Changes from SDTM v1.8 to SDTM v2.0]", "pdf_verbatim": "The Trial Design Model has been reorganized and revised.", "figure_ref": null, "candidates": [{"md_atom_id": "md_dmTA_ex_a002", "md_file": "knowledge_base/domains/TA/examples.md", "md_atom_type": "SENTENCE", "md_parent_section": "§TA [TA — Examples]", "md_verbatim": "The core of the Trial Design Model is the TA dataset.", "score": 0.4833, "match_basis": "verbatim_token+global_search"}, {"md_atom_id": "md_model03_a126", "md_file": "knowledge_base/model/03_special_purpose_domains.md", "md_atom_type": "SENTENCE", "md_parent_section": "§ Subject Visits (SV)", "md_verbatim": "Planned trial visits are described in the Trial Design Model.", "score": 0.4636, "match_basis": "verbatim_token+global_search"}, {"md_atom_id": "md_model03_a088", "md_file": "knowledge_base/model/03_special_purpose_domains.md", "md_atom_type": "SENTENCE", "md_parent_section": "§ Subject Elements (SE)", "md_verbatim": "Planned elements are described in the Trial Design Model.", "score": 0.4404, "match_basis": "verbatim_token+global_search"}, {"md_atom_id": "md_model03_a109", "md_file": "knowledge_base/model/03_special_purpose_domains.md", "md_atom_type": "SENTENCE", "md_parent_section": "§ Subject Repro Stages", "md_verbatim": "Planned repro stages are described in the Trial Design Model.", "score": 0.4375, "match_basis": "verbatim_token+global_search"}, {"md_atom_id": "md_dmTA_ex_a025", "md_file": "knowledge_base/domains/TA/examples.md", "md_atom_type": "SENTENCE", "md_parent_section": "§TA.1 [Example 1]", "md_verbatim": "**Trial Design Matrix**", "score": 0.4313, "match_basis": "verbatim_token+global_search"}], "candidate_count": 5, "zero_candidate": false}
{"pdf_atom_id": "sv20_p0070_a027", "pdf_atom_type": "SENTENCE", "pdf_source": "SDTM_v2.0", "pdf_page": 70, "pdf_parent_section": "§7 [Changes from SDTM v1.8 to SDTM v2.0]", "pdf_verbatim": "Text in the top-level section was revised to replace a specific list of trial design concepts with a more general statement about the use of variables from trial design domains being used in subject-level domains.", "figure_ref": null, "candidates": [{"md_atom_id": "md_model05_a015", "md_file": "knowledge_base/model/05_study_level_data.md", "md_atom_type": "SENTENCE", "md_parent_section": "§ 5.1 Trial Design Model", "md_verbatim": "Many Trial Design domains define study-specific terminology, and variables and variable values from these domains are used in subject-level domains.", "score": 0.5018, "match_basis": "verbatim_token+global_search"}, {"md_atom_id": "md_model01_a047", "md_file": "knowledge_base/model/01_concepts_and_terms.md", "md_atom_type": "SENTENCE", "md_parent_section": "§2.1 [Model Concepts and Terms — Variables]", "md_verbatim": "**Domain-specific variables** are for use in a limited number of designated domains based on general observation classes.", "score": 0.473, "match_basis": "verbatim_token+global_search"}, {"md_atom_id": "md_model04_a006", "md_file": "knowledge_base/model/04_associated_persons.md", "md_atom_type": "SENTENCE", "md_parent_section": "§4 [SDTM v2.0 — Chapter 4: Associated Persons Data]", "md_verbatim": "AP domains are created using SDTM variables, with the application of specific AP rules:", "score": 0.4471, "match_basis": "verbatim_token+global_search"}, {"md_atom_id": "md_model04_a017", "md_file": "knowledge_base/model/04_associated_persons.md", "md_atom_type": "SENTENCE", "md_parent_section": "§4 [SDTM v2.0 — Chapter 4: Associated Persons Data]", "md_verbatim": "The table of variables used in Associated Persons Data includes all variables from the general observation classes, with the addition of AP-specific identifiers:", "score": 0.4429, "match_basis": "verbatim_token+global_search"}, {"md_atom_id": "md_dmTA_ex_a004", "md_file": "knowledge_base/domains/TA/examples.md", "md_atom_type": "SENTENCE", "md_parent_section": "§TA [TA — Examples]", "md_verbatim": "Although the TA dataset has 1 record for each trial element traversed by subjects assigned to an arm, it is generally more useful to work out the overall design of the trial at the study cell level first, then to work out the elements within each study cell, and finally to develop the definitions of the elements that are contained in the Trial Elements (TE) table.", "score": 0.4405, "match_basis": "verbatim_token+global_search"}], "candidate_count": 5, "zero_candidate": false}
{"pdf_atom_id": "sv20_p0070_a028", "pdf_atom_type": "SENTENCE", "pdf_source": "SDTM_v2.0", "pdf_page": 70, "pdf_parent_section": "§7 [Changes from SDTM v1.8 to SDTM v2.0]", "pdf_verbatim": "The role of the Trial Disease Milestones variable TMDEF was changed to Variable Qualifier with MIDSTYPE as the variable qualified.", "figure_ref": null, "candidates": [{"md_atom_id": "md_model05_a116", "md_file": "knowledge_base/model/05_study_level_data.md", "md_atom_type": "TABLE_ROW", "md_parent_section": "§ Trial Disease Milestones (TM)", "md_verbatim": "| 4 | TMDEF | Disease Milestone Definition | Char | Variable Qualifier (MIDSTYPE) |", "score": 0.4884, "match_basis": "verbatim_token+global_search"}, {"md_atom_id": "md_ch10_a227", "md_file": "knowledge_base/chapters/ch10_appendices.md", "md_atom_type": "TABLE_ROW", "md_parent_section": "§10.E [Revision History]", "md_verbatim": "| 7.3.3 | Trial Disease Milestones (TM) | Role of TMDEF changed from \"Rule\" to \"Variable Qualifier\" for consistency with clarification of the Rule role in SDTM |", "score": 0.4524, "match_basis": "verbatim_token+global_search"}, {"md_atom_id": "md_ch04_a784", "md_file": "knowledge_base/chapters/ch04_general_assumptions.md", "md_atom_type": "SENTENCE", "md_parent_section": "§4.4.11 [Disease Milestones and Disease Milestone Timing Variables]", "md_verbatim": "The character string used in the name of a disease milestone is usually a short form of the disease milestone type.", "score": 0.4521, "match_basis": "verbatim_token+global_search"}, {"md_atom_id": "md_model05_a111", "md_file": "knowledge_base/model/05_study_level_data.md", "md_atom_type": "SENTENCE", "md_parent_section": "§ Trial Disease Milestones (TM)", "md_verbatim": "Describes the types of disease milestones that may occur in a study.", "score": 0.4455, "match_basis": "verbatim_token+global_search"}, {"md_atom_id": "md_dmSM_ex_a014", "md_file": "knowledge_base/domains/SM/examples.md", "md_atom_type": "SENTENCE", "md_parent_section": "§SM.1 [Example 1]", "md_verbatim": "The MH records for diabetes (MHEVDTYP = \"DIAGNOSIS\") are the records which represent the disease milestones for the defined MIDSTYPE of \"DIAGNOSIS\", so these records include the MIDS variable with the value \"DIAG\". Because these are records for disease milestones rather than associated records, the variables RELMIDS and MIDSDTC are not needed.", "score": 0.4452, "match_basis": "verbatim_token+global_search"}], "candidate_count": 5, "zero_candidate": false}
{"pdf_atom_id": "sv20_p0070_a029", "pdf_atom_type": "SENTENCE", "pdf_source": "SDTM_v2.0", "pdf_page": 70, "pdf_parent_section": "§7 [Changes from SDTM v1.8 to SDTM v2.0]", "pdf_verbatim": "New variables have been added to the following sections.", "figure_ref": null, "candidates": [{"md_atom_id": "md_ch08_a135", "md_file": "knowledge_base/chapters/ch08_relationships.md", "md_atom_type": "SENTENCE", "md_parent_section": "§8.4 [Relating Non-standard Variable Values to a Parent Domain]", "md_verbatim": "The SDTM does not allow the addition of new variables.", "score": 0.5211, "match_basis": "verbatim_token+global_search"}, {"md_atom_id": "md_ch08_a018", "md_file": "knowledge_base/chapters/ch08_relationships.md", "md_atom_type": "SENTENCE", "md_parent_section": "§8 [Representing Relationships and Data]", "md_verbatim": "The following are examples of variables that could be used in IDVAR:", "score": 0.5045, "match_basis": "verbatim_token+global_search"}, {"md_atom_id": "md_dmRELREC_assn_a009", "md_file": "knowledge_base/domains/RELREC/assumptions.md", "md_atom_type": "SENTENCE", "md_parent_section": "§RELREC [RELREC — Assumptions]", "md_verbatim": "The following are examples of variables that could be used in IDVAR:", "score": 0.5045, "match_basis": "verbatim_token+global_search"}, {"md_atom_id": "md_dmFA_ex_a097", "md_file": "knowledge_base/domains/FA/examples.md", "md_atom_type": "SENTENCE", "md_parent_section": "§FA.4 [Example 4]", "md_verbatim": "Note that not all AE expected variables are included in the following example.", "score": 0.504, "match_basis": "verbatim_token+global_search"}, {"md_atom_id": "md_ch04_a898", "md_file": "knowledge_base/chapters/ch04_general_assumptions.md", "md_atom_type": "SENTENCE", "md_parent_section": "§4.5.3.1 [Test Name (--TEST) Greater than 40 Characters]", "md_verbatim": "Sponsors have the following options for including the full description for these variables in the study metadata:", "score": 0.4935, "match_basis": "verbatim_token+global_search"}], "candidate_count": 5, "zero_candidate": false}
{"pdf_atom_id": "sv20_p0070_a030", "pdf_atom_type": "SENTENCE", "pdf_source": "SDTM_v2.0", "pdf_page": 70, "pdf_parent_section": "§7 [Changes from SDTM v1.8 to SDTM v2.0]", "pdf_verbatim": "Many of these are restricted to use in particular domains, as noted in the Usage Restrictions column.", "figure_ref": null, "candidates": [{"md_atom_id": "md_model01_a049", "md_file": "knowledge_base/model/01_concepts_and_terms.md", "md_atom_type": "SENTENCE", "md_parent_section": "§2.1 [Model Concepts and Terms — Variables]", "md_verbatim": "The Usage Restrictions column of the table indicates the domains in which the variable is allowed.", "score": 0.519, "match_basis": "verbatim_token+global_search"}, {"md_atom_id": "md_model01_a007", "md_file": "knowledge_base/model/01_concepts_and_terms.md", "md_atom_type": "SENTENCE", "md_parent_section": "§2.1 [Model Concepts and Terms — Variables]", "md_verbatim": "A **domain** is a collection of observations on a particular topic.", "score": 0.4855, "match_basis": "verbatim_token+global_search"}, {"md_atom_id": "md_model02_a163", "md_file": "knowledge_base/model/02_observation_classes.md", "md_atom_type": "SENTENCE", "md_parent_section": "§3.1.4 Identifiers for All Classes", "md_verbatim": "All identifier variables are allowed for any domain based on one of the 3 general observation classes, unless otherwise noted in the Usage Restrictions.", "score": 0.45, "match_basis": "verbatim_token+global_search"}, {"md_atom_id": "md_dmMK_ex_a009", "md_file": "knowledge_base/domains/MK/examples.md", "md_atom_type": "SENTENCE", "md_parent_section": "§MK.1 [Example 1]", "md_verbatim": "The data collected are represented in the MK domain.", "score": 0.4245, "match_basis": "verbatim_token+global_search"}, {"md_atom_id": "md_dmMK_ex_a038", "md_file": "knowledge_base/domains/MK/examples.md", "md_atom_type": "SENTENCE", "md_parent_section": "§MK.2 [Example 2]", "md_verbatim": "The data collected are represented in the MK domain.", "score": 0.4245, "match_basis": "verbatim_token+global_search"}], "candidate_count": 5, "zero_candidate": false}
{"pdf_atom_id": "sv20_p0070_a031", "pdf_atom_type": "LIST_ITEM", "pdf_source": "SDTM_v2.0", "pdf_page": 70, "pdf_parent_section": "§7 [Changes from SDTM v1.8 to SDTM v2.0]", "pdf_verbatim": "Section 3.1.1, The Interventions Observation Class", "figure_ref": null, "candidates": [{"md_atom_id": "md_model02_a010", "md_file": "knowledge_base/model/02_observation_classes.md", "md_atom_type": "HEADING", "md_parent_section": "§3.1.1 The Interventions Observation Class", "md_verbatim": "## 3.1.1 The Interventions Observation Class", "score": 0.585, "match_basis": "verbatim_token+global_search"}, {"md_atom_id": "md_ch04_a477", "md_file": "knowledge_base/chapters/ch04_general_assumptions.md", "md_atom_type": "SENTENCE", "md_parent_section": "§4.4 [Actual and Relative Time Assumptions]", "md_verbatim": "In the Events or Interventions general observation class, this could be the start date of the event or intervention.", "score": 0.5173, "match_basis": "verbatim_token+global_search"}, {"md_atom_id": "md_model04_a012", "md_file": "knowledge_base/model/04_associated_persons.md", "md_atom_type": "LIST_ITEM", "md_parent_section": "§4 [SDTM v2.0 — Chapter 4: Associated Persons Data]", "md_verbatim": "- AP domains conform to the same general observation class models (Interventions, Events, Findings) used for subject data", "score": 0.5164, "match_basis": "verbatim_token+global_search"}, {"md_atom_id": "md_dmAG_assn_a018", "md_file": "knowledge_base/domains/AG/assumptions.md", "md_atom_type": "LIST_ITEM", "md_parent_section": "§AG [AG — Assumptions]", "md_verbatim": "5. Any identifier variables, timing variables, or interventions general observation-class qualifiers may be added to the AG domain.", "score": 0.51, "match_basis": "verbatim_token+global_search"}, {"md_atom_id": "md_ch04_a607", "md_file": "knowledge_base/chapters/ch04_general_assumptions.md", "md_atom_type": "SENTENCE", "md_parent_section": "§4.4.5 [Clinical Encounters and Visits]", "md_verbatim": "For domains in the Events or Interventions observation classes, this could be the start date of the event or intervention.", "score": 0.4964, "match_basis": "verbatim_token+global_search"}], "candidate_count": 5, "zero_candidate": false}
{"pdf_atom_id": "sv20_p0070_a032", "pdf_atom_type": "LIST_ITEM", "pdf_source": "SDTM_v2.0", "pdf_page": 70, "pdf_parent_section": "§7 [Changes from SDTM v1.8 to SDTM v2.0]", "pdf_verbatim": "--REASOC, Reason for Occur Value", "figure_ref": null, "candidates": [{"md_atom_id": "md_dmEC_assn_a018", "md_file": "knowledge_base/domains/EC/assumptions.md", "md_atom_type": "LIST_ITEM", "md_parent_section": "§EC [EC — Assumptions]", "md_verbatim": "   c. If a reason why a dose was not given is collected, it is represented in ECREASOC, the reason why ECOCCUR = \"N\".", "score": 0.42, "match_basis": "verbatim_token+global_search"}, {"md_atom_id": "md_ch04_a273", "md_file": "knowledge_base/chapters/ch04_general_assumptions.md", "md_atom_type": "LIST_ITEM", "md_parent_section": "§4.2.7.1 [\"Specify\" Values for Non-Result Qualifier Variables]", "md_verbatim": "- EXADJ = \"NONMEDICAL REASON\"", "score": 0.4043, "match_basis": "verbatim_token+global_search"}, {"md_atom_id": "md_varindex_a448", "md_file": "knowledge_base/VARIABLE_INDEX.md", "md_atom_type": "TABLE_ROW", "md_parent_section": "§ 二、领域专属变量（仅 1 个域，共 1499 个），按域分组", "md_verbatim": "| ECREASOC | Reason for Occur Value | Char | Record Qualifier | Perm | — |", "score": 0.3983, "match_basis": "verbatim_token+global_search"}, {"md_atom_id": "md_varindex_a1493", "md_file": "knowledge_base/VARIABLE_INDEX.md", "md_atom_type": "TABLE_ROW", "md_parent_section": "§ 二、领域专属变量（仅 1 个域，共 1499 个），按域分组", "md_verbatim": "| SVREASOC | Reason for Occur Value | Char | Record Qualifier | Perm | — |", "score": 0.3983, "match_basis": "verbatim_token+global_search"}, {"md_atom_id": "md_dmDS_assn_a021", "md_file": "knowledge_base/domains/DS/assumptions.md", "md_atom_type": "LIST_ITEM", "md_parent_section": "§DS [DS — Assumptions]", "md_verbatim": "      ii. If no reason was collected, then DSTERM should be populated with the value in DSDECOD.", "score": 0.3977, "match_basis": "verbatim_token+global_search"}], "candidate_count": 5, "zero_candidate": false}
{"pdf_atom_id": "sv20_p0070_a033", "pdf_atom_type": "LIST_ITEM", "pdf_source": "SDTM_v2.0", "pdf_page": 70, "pdf_parent_section": "§7 [Changes from SDTM v1.8 to SDTM v2.0]", "pdf_verbatim": "--CNTMOD, Contact Mode", "figure_ref": null, "candidates": [{"md_atom_id": "md_ch04_a679", "md_file": "knowledge_base/chapters/ch04_general_assumptions.md", "md_atom_type": "LIST_ITEM", "md_parent_section": "§4.4.7 [Use of Relative Timing Variables]", "md_verbatim": "- AEENTPT = final subject contact date (e.g., \"2006-11-02\")", "score": 0.4111, "match_basis": "verbatim_token+global_search"}, {"md_atom_id": "md_model03_a138", "md_file": "knowledge_base/model/03_special_purpose_domains.md", "md_atom_type": "TABLE_ROW", "md_parent_section": "§ Subject Visits (SV) > Variables (16 variables)", "md_verbatim": "| 9 | SVCNTMOD | Contact Mode | Char | Record Qualifier | |", "score": 0.39, "match_basis": "verbatim_token+global_search"}, {"md_atom_id": "md_dmEX_ex_a083", "md_file": "knowledge_base/domains/EX/examples.md", "md_atom_type": "LIST_ITEM", "md_parent_section": "§EX.3 [Example 3]", "md_verbatim": "- Bottle A contained 10 mg/tablet", "score": 0.3818, "match_basis": "verbatim_token+global_search"}, {"md_atom_id": "md_dmEX_ex_a084", "md_file": "knowledge_base/domains/EX/examples.md", "md_atom_type": "LIST_ITEM", "md_parent_section": "§EX.3 [Example 3]", "md_verbatim": "- Bottle B contained 10 mg/tablet", "score": 0.3818, "match_basis": "verbatim_token+global_search"}, {"md_atom_id": "md_ch04_a163", "md_file": "knowledge_base/chapters/ch04_general_assumptions.md", "md_atom_type": "LIST_ITEM", "md_parent_section": "§4.1.9 [Assigning Natural Keys in the Metadata]", "md_verbatim": "- Machine make and model", "score": 0.3632, "match_basis": "verbatim_token+global_search"}], "candidate_count": 5, "zero_candidate": false}
{"pdf_atom_id": "sv20_p0070_a034", "pdf_atom_type": "LIST_ITEM", "pdf_source": "SDTM_v2.0", "pdf_page": 70, "pdf_parent_section": "§7 [Changes from SDTM v1.8 to SDTM v2.0]", "pdf_verbatim": "--EPCHGI, Epi/Pandemic Change Indicator", "figure_ref": null, "candidates": [{"md_atom_id": "md_model02_a089", "md_file": "knowledge_base/model/02_observation_classes.md", "md_atom_type": "TABLE_ROW", "md_parent_section": "§3.1.2 > Topic and Qualifier Variables (56 variables)", "md_verbatim": "| 24 | --EPCHGI | Epi/Pandemic Related Change Indicator | Char | Record Qualifier | |", "score": 0.4885, "match_basis": "verbatim_token+global_search"}, {"md_atom_id": "md_model03_a139", "md_file": "knowledge_base/model/03_special_purpose_domains.md", "md_atom_type": "TABLE_ROW", "md_parent_section": "§ Subject Visits (SV) > Variables (16 variables)", "md_verbatim": "| 10 | SVEPCHGI | Epi/Pandemic Related Change Indicator | Char | Record Qualifier | |", "score": 0.472, "match_basis": "verbatim_token+global_search"}, {"md_atom_id": "md_varindex_a1495", "md_file": "knowledge_base/VARIABLE_INDEX.md", "md_atom_type": "TABLE_ROW", "md_parent_section": "§ 二、领域专属变量（仅 1 个域，共 1499 个），按域分组", "md_verbatim": "| SVEPCHGI | Epi/Pandemic Related Change Indicator | Char | Record Qualifier | Perm | C66742 |", "score": 0.4309, "match_basis": "verbatim_token+global_search"}, {"md_atom_id": "md_ch04_a489", "md_file": "knowledge_base/chapters/ch04_general_assumptions.md", "md_atom_type": "LIST_ITEM", "md_parent_section": "§4.4.1 [Formats for Date/Time Variables]", "md_verbatim": "- [T] = (time designator) indicates time information follows", "score": 0.3913, "match_basis": "verbatim_token+global_search"}, {"md_atom_id": "md_model02_a028", "md_file": "knowledge_base/model/02_observation_classes.md", "md_atom_type": "TABLE_ROW", "md_parent_section": "§3.1.1 > Topic and Qualifier Variables (43 variables)", "md_verbatim": "| 13 | --EPCHGI | Epi/Pandemic Related Change Indicator | Char | Record Qualifier | Whether intervention was changed due to epidemic or pandemic |", "score": 0.3737, "match_basis": "verbatim_token+global_search"}], "candidate_count": 5, "zero_candidate": false}
{"pdf_atom_id": "sv20_p0070_a035", "pdf_atom_type": "LIST_ITEM", "pdf_source": "SDTM_v2.0", "pdf_page": 70, "pdf_parent_section": "§7 [Changes from SDTM v1.8 to SDTM v2.0]", "pdf_verbatim": "Section 3.1.2, The Events Observation Class", "figure_ref": null, "candidates": [{"md_atom_id": "md_model02_a061", "md_file": "knowledge_base/model/02_observation_classes.md", "md_atom_type": "HEADING", "md_parent_section": "§3.1.2 The Events Observation Class", "md_verbatim": "## 3.1.2 The Events Observation Class", "score": 0.57, "match_basis": "verbatim_token+global_search"}, {"md_atom_id": "md_model04_a012", "md_file": "knowledge_base/model/04_associated_persons.md", "md_atom_type": "LIST_ITEM", "md_parent_section": "§4 [SDTM v2.0 — Chapter 4: Associated Persons Data]", "md_verbatim": "- AP domains conform to the same general observation class models (Interventions, Events, Findings) used for subject data", "score": 0.477, "match_basis": "verbatim_token+global_search"}, {"md_atom_id": "md_ch04_a477", "md_file": "knowledge_base/chapters/ch04_general_assumptions.md", "md_atom_type": "SENTENCE", "md_parent_section": "§4.4 [Actual and Relative Time Assumptions]", "md_verbatim": "In the Events or Interventions general observation class, this could be the start date of the event or intervention.", "score": 0.4588, "match_basis": "verbatim_token+global_search"}, {"md_atom_id": "md_dmAG_assn_a018", "md_file": "knowledge_base/domains/AG/assumptions.md", "md_atom_type": "LIST_ITEM", "md_parent_section": "§AG [AG — Assumptions]", "md_verbatim": "5. Any identifier variables, timing variables, or interventions general observation-class qualifiers may be added to the AG domain.", "score": 0.4452, "match_basis": "verbatim_token+global_search"}, {"md_atom_id": "md_ch04_a607", "md_file": "knowledge_base/chapters/ch04_general_assumptions.md", "md_atom_type": "SENTENCE", "md_parent_section": "§4.4.5 [Clinical Encounters and Visits]", "md_verbatim": "For domains in the Events or Interventions observation classes, this could be the start date of the event or intervention.", "score": 0.4418, "match_basis": "verbatim_token+global_search"}], "candidate_count": 5, "zero_candidate": false}
{"pdf_atom_id": "sv20_p0070_a036", "pdf_atom_type": "LIST_ITEM", "pdf_source": "SDTM_v2.0", "pdf_page": 70, "pdf_parent_section": "§7 [Changes from SDTM v1.8 to SDTM v2.0]", "pdf_verbatim": "--REASOC, Reason for Occur Value", "figure_ref": null, "candidates": [{"md_atom_id": "md_dmEC_assn_a018", "md_file": "knowledge_base/domains/EC/assumptions.md", "md_atom_type": "LIST_ITEM", "md_parent_section": "§EC [EC — Assumptions]", "md_verbatim": "   c. If a reason why a dose was not given is collected, it is represented in ECREASOC, the reason why ECOCCUR = \"N\".", "score": 0.42, "match_basis": "verbatim_token+global_search"}, {"md_atom_id": "md_ch04_a273", "md_file": "knowledge_base/chapters/ch04_general_assumptions.md", "md_atom_type": "LIST_ITEM", "md_parent_section": "§4.2.7.1 [\"Specify\" Values for Non-Result Qualifier Variables]", "md_verbatim": "- EXADJ = \"NONMEDICAL REASON\"", "score": 0.4043, "match_basis": "verbatim_token+global_search"}, {"md_atom_id": "md_varindex_a448", "md_file": "knowledge_base/VARIABLE_INDEX.md", "md_atom_type": "TABLE_ROW", "md_parent_section": "§ 二、领域专属变量（仅 1 个域，共 1499 个），按域分组", "md_verbatim": "| ECREASOC | Reason for Occur Value | Char | Record Qualifier | Perm | — |", "score": 0.3983, "match_basis": "verbatim_token+global_search"}, {"md_atom_id": "md_varindex_a1493", "md_file": "knowledge_base/VARIABLE_INDEX.md", "md_atom_type": "TABLE_ROW", "md_parent_section": "§ 二、领域专属变量（仅 1 个域，共 1499 个），按域分组", "md_verbatim": "| SVREASOC | Reason for Occur Value | Char | Record Qualifier | Perm | — |", "score": 0.3983, "match_basis": "verbatim_token+global_search"}, {"md_atom_id": "md_dmDS_assn_a021", "md_file": "knowledge_base/domains/DS/assumptions.md", "md_atom_type": "LIST_ITEM", "md_parent_section": "§DS [DS — Assumptions]", "md_verbatim": "      ii. If no reason was collected, then DSTERM should be populated with the value in DSDECOD.", "score": 0.3977, "match_basis": "verbatim_token+global_search"}], "candidate_count": 5, "zero_candidate": false}
{"pdf_atom_id": "sv20_p0071_a001", "pdf_atom_type": "LIST_ITEM", "pdf_source": "SDTM_v2.0", "pdf_page": 71, "pdf_parent_section": "§7 [Changes from SDTM v1.8 to SDTM v2.0]", "pdf_verbatim": "--CNTMOD, Contact Mode", "figure_ref": null, "candidates": [{"md_atom_id": "md_ch04_a679", "md_file": "knowledge_base/chapters/ch04_general_assumptions.md", "md_atom_type": "LIST_ITEM", "md_parent_section": "§4.4.7 [Use of Relative Timing Variables]", "md_verbatim": "- AEENTPT = final subject contact date (e.g., \"2006-11-02\")", "score": 0.4111, "match_basis": "verbatim_token+global_search"}, {"md_atom_id": "md_model03_a138", "md_file": "knowledge_base/model/03_special_purpose_domains.md", "md_atom_type": "TABLE_ROW", "md_parent_section": "§ Subject Visits (SV) > Variables (16 variables)", "md_verbatim": "| 9 | SVCNTMOD | Contact Mode | Char | Record Qualifier | |", "score": 0.39, "match_basis": "verbatim_token+global_search"}, {"md_atom_id": "md_dmEX_ex_a083", "md_file": "knowledge_base/domains/EX/examples.md", "md_atom_type": "LIST_ITEM", "md_parent_section": "§EX.3 [Example 3]", "md_verbatim": "- Bottle A contained 10 mg/tablet", "score": 0.3818, "match_basis": "verbatim_token+global_search"}, {"md_atom_id": "md_dmEX_ex_a084", "md_file": "knowledge_base/domains/EX/examples.md", "md_atom_type": "LIST_ITEM", "md_parent_section": "§EX.3 [Example 3]", "md_verbatim": "- Bottle B contained 10 mg/tablet", "score": 0.3818, "match_basis": "verbatim_token+global_search"}, {"md_atom_id": "md_ch04_a163", "md_file": "knowledge_base/chapters/ch04_general_assumptions.md", "md_atom_type": "LIST_ITEM", "md_parent_section": "§4.1.9 [Assigning Natural Keys in the Metadata]", "md_verbatim": "- Machine make and model", "score": 0.3632, "match_basis": "verbatim_token+global_search"}], "candidate_count": 5, "zero_candidate": false}
{"pdf_atom_id": "sv20_p0071_a002", "pdf_atom_type": "LIST_ITEM", "pdf_source": "SDTM_v2.0", "pdf_page": 71, "pdf_parent_section": "§7 [Changes from SDTM v1.8 to SDTM v2.0]", "pdf_verbatim": "--EPCHGI, Epi/Pandemic Change Indicator", "figure_ref": null, "candidates": [{"md_atom_id": "md_model02_a089", "md_file": "knowledge_base/model/02_observation_classes.md", "md_atom_type": "TABLE_ROW", "md_parent_section": "§3.1.2 > Topic and Qualifier Variables (56 variables)", "md_verbatim": "| 24 | --EPCHGI | Epi/Pandemic Related Change Indicator | Char | Record Qualifier | |", "score": 0.4885, "match_basis": "verbatim_token+global_search"}, {"md_atom_id": "md_model03_a139", "md_file": "knowledge_base/model/03_special_purpose_domains.md", "md_atom_type": "TABLE_ROW", "md_parent_section": "§ Subject Visits (SV) > Variables (16 variables)", "md_verbatim": "| 10 | SVEPCHGI | Epi/Pandemic Related Change Indicator | Char | Record Qualifier | |", "score": 0.472, "match_basis": "verbatim_token+global_search"}, {"md_atom_id": "md_varindex_a1495", "md_file": "knowledge_base/VARIABLE_INDEX.md", "md_atom_type": "TABLE_ROW", "md_parent_section": "§ 二、领域专属变量（仅 1 个域，共 1499 个），按域分组", "md_verbatim": "| SVEPCHGI | Epi/Pandemic Related Change Indicator | Char | Record Qualifier | Perm | C66742 |", "score": 0.4309, "match_basis": "verbatim_token+global_search"}, {"md_atom_id": "md_ch04_a489", "md_file": "knowledge_base/chapters/ch04_general_assumptions.md", "md_atom_type": "LIST_ITEM", "md_parent_section": "§4.4.1 [Formats for Date/Time Variables]", "md_verbatim": "- [T] = (time designator) indicates time information follows", "score": 0.3913, "match_basis": "verbatim_token+global_search"}, {"md_atom_id": "md_model02_a028", "md_file": "knowledge_base/model/02_observation_classes.md", "md_atom_type": "TABLE_ROW", "md_parent_section": "§3.1.1 > Topic and Qualifier Variables (43 variables)", "md_verbatim": "| 13 | --EPCHGI | Epi/Pandemic Related Change Indicator | Char | Record Qualifier | Whether intervention was changed due to epidemic or pandemic |", "score": 0.3737, "match_basis": "verbatim_token+global_search"}], "candidate_count": 5, "zero_candidate": false}
{"pdf_atom_id": "sv20_p0071_a003", "pdf_atom_type": "LIST_ITEM", "pdf_source": "SDTM_v2.0", "pdf_page": 71, "pdf_parent_section": "§7 [Changes from SDTM v1.8 to SDTM v2.0]", "pdf_verbatim": "--RELDEV, Relationship of Event to Device", "figure_ref": null, "candidates": [{"md_atom_id": "md_ch01_a059", "md_file": "knowledge_base/chapters/ch01_introduction.md", "md_atom_type": "LIST_ITEM", "md_parent_section": "§1.4 [How to Read this Implementation Guide]", "md_verbatim": "6. Review Section 8, Representing Relationships and Data", "score": 0.4895, "match_basis": "verbatim_token+global_search"}, {"md_atom_id": "md_model06_a011", "md_file": "knowledge_base/model/06_relationship_datasets.md", "md_atom_type": "LIST_ITEM", "md_parent_section": "§ Overview", "md_verbatim": "- **Device-subject Relationships Dataset** — represents relationships between devices and study subjects", "score": 0.4875, "match_basis": "verbatim_token+global_search"}, {"md_atom_id": "md_model01_a045", "md_file": "knowledge_base/model/01_concepts_and_terms.md", "md_atom_type": "LIST_ITEM", "md_parent_section": "§2.1 [Model Concepts and Terms — Variables]", "md_verbatim": "- In the RDOMAIN variable in relationship tables", "score": 0.4818, "match_basis": "verbatim_token+global_search"}, {"md_atom_id": "md_ch02_a033", "md_file": "knowledge_base/chapters/ch02_fundamentals.md", "md_atom_type": "LIST_ITEM", "md_parent_section": "§2.2 [Datasets and Domains]", "md_verbatim": "4. As a value in the RDOMAIN variable in relationship tables", "score": 0.4667, "match_basis": "verbatim_token+global_search"}, {"md_atom_id": "md_ch04_a614", "md_file": "knowledge_base/chapters/ch04_general_assumptions.md", "md_atom_type": "LIST_ITEM", "md_parent_section": "§4.4.5 [Clinical Encounters and Visits]", "md_verbatim": "- There must be a **one-to-one relationship** between VISIT and VISITNUM", "score": 0.4622, "match_basis": "verbatim_token+global_search"}], "candidate_count": 5, "zero_candidate": false}
{"pdf_atom_id": "sv20_p0071_a004", "pdf_atom_type": "LIST_ITEM", "pdf_source": "SDTM_v2.0", "pdf_page": 71, "pdf_parent_section": "§7 [Changes from SDTM v1.8 to SDTM v2.0]", "pdf_verbatim": "--SINTV, Needs Intervention to Prevent Impairment", "figure_ref": null, "candidates": [{"md_atom_id": "md_varindex_a079", "md_file": "knowledge_base/VARIABLE_INDEX.md", "md_atom_type": "TABLE_ROW", "md_parent_section": "§ 二、领域专属变量（仅 1 个域，共 1499 个），按域分组", "md_verbatim": "| AESINTV | Needs Intervention to Prevent Impairment | Char | Record Qualifier | Perm | C66742 |", "score": 0.4761, "match_basis": "verbatim_token+global_search"}, {"md_atom_id": "md_dmEC_assn_a023", "md_file": "knowledge_base/domains/EC/assumptions.md", "md_atom_type": "LIST_ITEM", "md_parent_section": "§EC [EC — Assumptions]", "md_verbatim": "7. Additional interventions qualifiers", "score": 0.45, "match_basis": "verbatim_token+global_search"}, {"md_atom_id": "md_dmEX_assn_a023", "md_file": "knowledge_base/domains/EX/assumptions.md", "md_atom_type": "LIST_ITEM", "md_parent_section": "§EX [EX — Assumptions]", "md_verbatim": "6. Additional interventions qualifiers", "score": 0.45, "match_basis": "verbatim_token+global_search"}, {"md_atom_id": "md_dmSV_assn_a009", "md_file": "knowledge_base/domains/SV/assumptions.md", "md_atom_type": "LIST_ITEM", "md_parent_section": "§SV [SV — Assumptions]", "md_verbatim": "   d. See Section 4.5.7, Presence or Absence of Prespecified Interventions and Events, for more information on the use of --PRESP and --OCCUR.", "score": 0.418, "match_basis": "verbatim_token+global_search"}, {"md_atom_id": "md_ch04_a233", "md_file": "knowledge_base/chapters/ch04_general_assumptions.md", "md_atom_type": "LIST_ITEM", "md_parent_section": "§4.2.6 [Grouping Variables and Categorization]", "md_verbatim": "      - Treatments (e.g., oxygen) administered during the stress test (in an Interventions domain)", "score": 0.4119, "match_basis": "verbatim_token+global_search"}], "candidate_count": 5, "zero_candidate": false}
{"pdf_atom_id": "sv20_p0071_a005", "pdf_atom_type": "LIST_ITEM", "pdf_source": "SDTM_v2.0", "pdf_page": 71, "pdf_parent_section": "§7 [Changes from SDTM v1.8 to SDTM v2.0]", "pdf_verbatim": "--UNANT, Unanticipated Adverse Effect/Event", "figure_ref": null, "candidates": [{"md_atom_id": "md_ch04_a653", "md_file": "knowledge_base/chapters/ch04_general_assumptions.md", "md_atom_type": "LIST_ITEM", "md_parent_section": "§4.4.7 [Use of Relative Timing Variables]", "md_verbatim": "- **Adverse Events (--ENRTPT):** --ENRTPT = \"ONGOING\", --ENTPT = \"DATE OF LAST DOSE\"", "score": 0.4385, "match_basis": "verbatim_token+global_search"}, {"md_atom_id": "md_model02_a115", "md_file": "knowledge_base/model/02_observation_classes.md", "md_atom_type": "TABLE_ROW", "md_parent_section": "§3.1.2 > Topic and Qualifier Variables (56 variables)", "md_verbatim": "| 50 | --UNANT | Unanticipated Adverse Device Effect | Char | Record Qualifier | AE domain only |", "score": 0.4109, "match_basis": "verbatim_token+global_search"}, {"md_atom_id": "md_dmFA_ex_a134", "md_file": "knowledge_base/domains/FA/examples.md", "md_atom_type": "LIST_ITEM", "md_parent_section": "§FA.6 [Example 6]", "md_verbatim": "- A module for the adverse event, where a record would be entered for each event", "score": 0.4091, "match_basis": "verbatim_token+global_search"}, {"md_atom_id": "md_dmBE_assn_a004", "md_file": "knowledge_base/domains/BE/assumptions.md", "md_atom_type": "LIST_ITEM", "md_parent_section": "§BE [BE — Assumptions]", "md_verbatim": "3. BELOC holds the relevant anatomic location of the subject, so it should only be populated when the subject participates in and is directly affected by the event given in BETERM.", "score": 0.4037, "match_basis": "verbatim_token+global_search"}, {"md_atom_id": "md_ch08_a256", "md_file": "knowledge_base/chapters/ch08_relationships.md", "md_atom_type": "LIST_ITEM", "md_parent_section": "§8.6.3 [Guidelines for Differentiating Between Interventions, Events, Findings, and Findings About Events or Interventions]", "md_verbatim": "- Sponsors may choose how they define an event. See Section 6.2.1, Adverse Events, assumption 7e.", "score": 0.4019, "match_basis": "verbatim_token+global_search"}], "candidate_count": 5, "zero_candidate": false}
{"pdf_atom_id": "sv20_p0071_a006", "pdf_atom_type": "LIST_ITEM", "pdf_source": "SDTM_v2.0", "pdf_page": 71, "pdf_parent_section": "§7 [Changes from SDTM v1.8 to SDTM v2.0]", "pdf_verbatim": "--RLPRT, Rel of AE to Device-Related Procedure", "figure_ref": null, "candidates": [{"md_atom_id": "md_varindex_a082", "md_file": "knowledge_base/VARIABLE_INDEX.md", "md_atom_type": "TABLE_ROW", "md_parent_section": "§ 二、领域专属变量（仅 1 个域，共 1499 个），按域分组", "md_verbatim": "| AERLPRC | Rel of AE to Device-Related Procedure | Char | Record Qualifier | Perm | — |", "score": 0.4419, "match_basis": "verbatim_token+global_search"}, {"md_atom_id": "md_dmAE_ex_a077", "md_file": "knowledge_base/domains/AE/examples.md", "md_atom_type": "SENTENCE", "md_parent_section": "§AE.5 [Example 5]", "md_verbatim": "The device was removed as the AE was probably related to the device.", "score": 0.4035, "match_basis": "verbatim_token+global_search"}, {"md_atom_id": "md_dmAG_assn_a014", "md_file": "knowledge_base/domains/AG/assumptions.md", "md_atom_type": "LIST_ITEM", "md_parent_section": "§AG [AG — Assumptions]", "md_verbatim": "4. Prespecified terms; presence or absence of procedure agents", "score": 0.4, "match_basis": "verbatim_token+global_search"}, {"md_atom_id": "md_dmDM_assn_a006", "md_file": "knowledge_base/domains/DM/assumptions.md", "md_atom_type": "LIST_ITEM", "md_parent_section": "§DM [DM — Assumptions]", "md_verbatim": "   a. Rules for the arm-related variables:", "score": 0.3968, "match_basis": "verbatim_token+global_search"}, {"md_atom_id": "md_ch04_a187", "md_file": "knowledge_base/chapters/ch04_general_assumptions.md", "md_atom_type": "LIST_ITEM", "md_parent_section": "§4.2.1.2 [--TRT Conventions (Interventions)]", "md_verbatim": "- Contains the verbatim name of the treatment, drug, procedure, or therapy", "score": 0.3894, "match_basis": "verbatim_token+global_search"}], "candidate_count": 5, "zero_candidate": false}
{"pdf_atom_id": "sv20_p0071_a007", "pdf_atom_type": "LIST_ITEM", "pdf_source": "SDTM_v2.0", "pdf_page": 71, "pdf_parent_section": "§7 [Changes from SDTM v1.8 to SDTM v2.0]", "pdf_verbatim": "--RLPRC, Rel of AE to Non-Dev-Rel Study Activity", "figure_ref": null, "candidates": [{"md_atom_id": "md_varindex_a081", "md_file": "knowledge_base/VARIABLE_INDEX.md", "md_atom_type": "TABLE_ROW", "md_parent_section": "§ 二、领域专属变量（仅 1 个域，共 1499 个），按域分组", "md_verbatim": "| AERLPRT | Rel of AE to Non-Dev-Rel Study Activity | Char | Record Qualifier | Perm | — |", "score": 0.4045, "match_basis": "verbatim_token+global_search"}, {"md_atom_id": "md_dmAE_assn_a022", "md_file": "knowledge_base/domains/AE/assumptions.md", "md_atom_type": "LIST_ITEM", "md_parent_section": "§AE [AE — Assumptions]", "md_verbatim": "      - AEACN, only for actions taken with study treatment", "score": 0.3833, "match_basis": "verbatim_token+global_search"}, {"md_atom_id": "md_ch01_a060", "md_file": "knowledge_base/chapters/ch01_introduction.md", "md_atom_type": "LIST_ITEM", "md_parent_section": "§1.4 [How to Read this Implementation Guide]", "md_verbatim": "7. Review Section 9, Study References", "score": 0.3774, "match_basis": "verbatim_token+global_search"}, {"md_atom_id": "md_model05_a012", "md_file": "knowledge_base/model/05_study_level_data.md", "md_atom_type": "LIST_ITEM", "md_parent_section": "§ 5.1 Trial Design Model", "md_verbatim": "- Study eligibility criteria (Section 5.1.5, Trial Inclusion/Exclusion Criteria)", "score": 0.3698, "match_basis": "verbatim_token+global_search"}, {"md_atom_id": "md_model05_a014", "md_file": "knowledge_base/model/05_study_level_data.md", "md_atom_type": "LIST_ITEM", "md_parent_section": "§ 5.1 Trial Design Model", "md_verbatim": "- Characteristics of a study challenge agent (Section 5.1.7, Challenge Agent Characterization)", "score": 0.3682, "match_basis": "verbatim_token+global_search"}], "candidate_count": 5, "zero_candidate": false}
{"pdf_atom_id": "sv20_p0071_a008", "pdf_atom_type": "LIST_ITEM", "pdf_source": "SDTM_v2.0", "pdf_page": 71, "pdf_parent_section": "§7 [Changes from SDTM v1.8 to SDTM v2.0]", "pdf_verbatim": "Section 3.1.3, The Findings Observation Class", "figure_ref": null, "candidates": [{"md_atom_id": "md_model02_a122", "md_file": "knowledge_base/model/02_observation_classes.md", "md_atom_type": "HEADING", "md_parent_section": "§3.1.3 The Findings Observation Class", "md_verbatim": "## 3.1.3 The Findings Observation Class", "score": 0.5782, "match_basis": "verbatim_token+global_search"}, {"md_atom_id": "md_model04_a012", "md_file": "knowledge_base/model/04_associated_persons.md", "md_atom_type": "LIST_ITEM", "md_parent_section": "§4 [SDTM v2.0 — Chapter 4: Associated Persons Data]", "md_verbatim": "- AP domains conform to the same general observation class models (Interventions, Events, Findings) used for subject data", "score": 0.4967, "match_basis": "verbatim_token+global_search"}, {"md_atom_id": "md_dmFA_assn_a002", "md_file": "knowledge_base/domains/FA/assumptions.md", "md_atom_type": "LIST_ITEM", "md_parent_section": "§FA [FA — Assumptions]", "md_verbatim": "1. The Findings About domain shares all qualities and conventions of findings observations.", "score": 0.4959, "match_basis": "verbatim_token+global_search"}, {"md_atom_id": "md_dmIS_assn_a017", "md_file": "knowledge_base/domains/IS/assumptions.md", "md_atom_type": "LIST_ITEM", "md_parent_section": "§IS [IS — Assumptions]", "md_verbatim": "10. Any Identifier variables, Timing variables, or Findings general observation class qualifiers may be added to the IS domain.", "score": 0.4932, "match_basis": "verbatim_token+global_search"}, {"md_atom_id": "md_dmFA_assn_a004", "md_file": "knowledge_base/domains/FA/assumptions.md", "md_atom_type": "LIST_ITEM", "md_parent_section": "§FA [FA — Assumptions]", "md_verbatim": "3. See Section 6.4.2, Naming Findings About Domains, for advice on splitting the FA domain.", "score": 0.46, "match_basis": "verbatim_token+global_search"}], "candidate_count": 5, "zero_candidate": false}
{"pdf_atom_id": "sv20_p0071_a009", "pdf_atom_type": "LIST_ITEM", "pdf_source": "SDTM_v2.0", "pdf_page": 71, "pdf_parent_section": "§7 [Changes from SDTM v1.8 to SDTM v2.0]", "pdf_verbatim": "--SBMRKS, Sublineage Marker String", "figure_ref": null, "candidates": [{"md_atom_id": "md_varindex_a264", "md_file": "knowledge_base/VARIABLE_INDEX.md", "md_atom_type": "TABLE_ROW", "md_parent_section": "§ 二、领域专属变量（仅 1 个域，共 1499 个），按域分组", "md_verbatim": "| CPSBMRKS | Sublineage Marker String | Char | Variable Qualifier | Perm | — |", "score": 0.4577, "match_basis": "verbatim_token+global_search"}, {"md_atom_id": "md_dmCP_assn_a010", "md_file": "knowledge_base/domains/CP/assumptions.md", "md_atom_type": "LIST_ITEM", "md_parent_section": "§CP [CP — Assumptions]", "md_verbatim": "      ii. It is expected that CPMRKSTR is populated, and that it contains the entire set of markers used to define the test, including those that are also present in CPSBMRKS and/or CPCSMRKS.", "score": 0.3825, "match_basis": "verbatim_token+global_search"}, {"md_atom_id": "md_dmCP_assn_a023", "md_file": "knowledge_base/domains/CP/assumptions.md", "md_atom_type": "LIST_ITEM", "md_parent_section": "§CP [CP — Assumptions]", "md_verbatim": "   b. Forward slash \"/\" is only used to separate the portion of the marker string defining a numerator from the portion defining a denominator.", "score": 0.375, "match_basis": "verbatim_token+global_search"}, {"md_atom_id": "md_dmCP_assn_a034", "md_file": "knowledge_base/domains/CP/assumptions.md", "md_atom_type": "LIST_ITEM", "md_parent_section": "§CP [CP — Assumptions]", "md_verbatim": "      ii. \"lo\" (the marker is expressed at a low level)", "score": 0.375, "match_basis": "verbatim_token+global_search"}, {"md_atom_id": "md_dmCP_assn_a012", "md_file": "knowledge_base/domains/CP/assumptions.md", "md_atom_type": "LIST_ITEM", "md_parent_section": "§CP [CP — Assumptions]", "md_verbatim": "   b. Quantitative single-marker expression", "score": 0.3732, "match_basis": "verbatim_token+global_search"}], "candidate_count": 5, "zero_candidate": false}
