{"pdf_atom_id": "ig34_p0338_a010", "pdf_atom_type": "LIST_ITEM", "pdf_source": "SDTMIG_v3.4", "pdf_page": 338, "pdf_parent_section": "§6.3.9.3.2 Clinical Classifications Use Case", "pdf_verbatim": "If the variable --TEST is represented with verbatim text >40 characters, represent the abbreviated meaningful text in --TEST within 40 characters and describe the full text of the item in the study metadata. If the verbatim item in the study metadata. If the verbatim item text in the study metadata is >200 characters, represent the abbreviated meaningful text in SSORRES within the 200 characters and describe the full text in the study metadata; see Section 4.5.3, Text Strings that Exceed the Maximum Length for General Observation-class Findings. For further information.", "figure_ref": null, "candidates": [{"md_atom_id": "md_dmFT_assn_a031", "md_file": "knowledge_base/domains/FT/assumptions.md", "md_atom_type": "LIST_ITEM", "md_parent_section": "§FT [FT — Assumptions]", "md_verbatim": "7. If the variable --TEST is represented with verbatim text >40 characters, represent the abbreviated meaningful text in --TEST within 40 characters and describe the full text of the item in the study metadata. If the verbatim item response (e.g., --QSORRES) is >200 characters, represent the abbreviated meaningful text in QSORRES within the 200 characters and describe the full text in the study metadata; see Section 4 of the QRS supplement. See Section 4.5.3, Text Strings that Exceed the Maximum Length for General Observation-class Domain Variables, for further information.", "score": 0.804, "match_basis": "verbatim_token+global_search"}, {"md_atom_id": "md_dmQS_assn_a011", "md_file": "knowledge_base/domains/QS/assumptions.md", "md_atom_type": "LIST_ITEM", "md_parent_section": "§QS [QS — Assumptions]", "md_verbatim": "7. If the variable --TEST is represented with verbatim text >40 characters, represent the abbreviated meaningful text in --TEST within 40 characters and describe the full text of the item in the study metadata. If the verbatim item response (e.g., --QSORRES) is >200 characters, represent the abbreviated meaningful text in QSORRES within the 200 characters and describe the full text in the study metadata; see Section 4 of the QRS supplement. See Section 4.5.3, Text Strings that Exceed the Maximum Length for General Observation-class Domain Variables, for further information.\n   a. The instrument's annotated CRF can also be used as a reference for the full text in both of these situations.", "score": 0.72, "match_basis": "verbatim_token+global_search"}, {"md_atom_id": "md_ch08_a172", "md_file": "knowledge_base/chapters/ch08_relationships.md", "md_atom_type": "LIST_ITEM", "md_parent_section": "§8.4 [Relating Non-standard Variable Values to a Parent Domain]", "md_verbatim": "- See Section 4.5.3, Text Strings that Exceed the Maximum Length for General Observation-class Domain Variables, for information on representing data values greater than 200 characters in length", "score": 0.6082, "match_basis": "verbatim_token+global_search"}, {"md_atom_id": "md_dmIE_assn_a004", "md_file": "knowledge_base/domains/IE/assumptions.md", "md_atom_type": "LIST_ITEM", "md_parent_section": "§IE [IE — Assumptions]", "md_verbatim": "3. IETEST is to be used only for the verbatim description of the inclusion or exclusion criteria. If the text is no more than 200 characters, it goes in IETEST; if the text is more than 200 characters, put meaningful text in IETEST and describe the full text in the study metadata. See Section 4.5.3.1, Test Name (--TEST) Greater than 40 Characters, for further information.", "score": 0.5475, "match_basis": "verbatim_token+global_search"}, {"md_atom_id": "md_dmTI_assn_a008", "md_file": "knowledge_base/domains/TI/assumptions.md", "md_atom_type": "LIST_ITEM", "md_parent_section": "§TI [TI — Assumptions]", "md_verbatim": "5. If a criterion text is <200 characters, it goes in IETEST; if the text is >200 characters, put meaningful text in IETEST and describe the full text in the study metadata. See Section 4.5.3.1, Test Name (--TEST) Greater than 40 Characters, for further information.", "score": 0.5441, "match_basis": "verbatim_token+global_search"}], "candidate_count": 5, "zero_candidate": false}
{"pdf_atom_id": "ig34_p0338_a011", "pdf_atom_type": "LIST_ITEM", "pdf_source": "SDTMIG_v3.4", "pdf_page": 338, "pdf_parent_section": "§6.3.9.3.2 Clinical Classifications Use Case", "pdf_verbatim": "The instrument's annotated CRF can also be used as a reference for the full text in both of these situations.", "figure_ref": null, "candidates": [{"md_atom_id": "md_dmFT_assn_a032", "md_file": "knowledge_base/domains/FT/assumptions.md", "md_atom_type": "LIST_ITEM", "md_parent_section": "§FT [FT — Assumptions]", "md_verbatim": "   a. The instrument's annotated CRF can also be used as a reference for the full text in both of these situations.", "score": 0.9, "match_basis": "verbatim_token+global_search"}, {"md_atom_id": "md_ch04_a899", "md_file": "knowledge_base/chapters/ch04_general_assumptions.md", "md_atom_type": "LIST_ITEM", "md_parent_section": "§4.5.3.1 [Test Name (--TEST) Greater than 40 Characters]", "md_verbatim": "- If the annotated CRF contains the full text, provide a reference to the aCRF page containing the full test description in the Define-XML document origin definition for --TEST.", "score": 0.4906, "match_basis": "verbatim_token+global_search"}, {"md_atom_id": "md_dmQS_assn_a011", "md_file": "knowledge_base/domains/QS/assumptions.md", "md_atom_type": "LIST_ITEM", "md_parent_section": "§QS [QS — Assumptions]", "md_verbatim": "7. If the variable --TEST is represented with verbatim text >40 characters, represent the abbreviated meaningful text in --TEST within 40 characters and describe the full text of the item in the study metadata. If the verbatim item response (e.g., --QSORRES) is >200 characters, represent the abbreviated meaningful text in QSORRES within the 200 characters and describe the full text in the study metadata; see Section 4 of the QRS supplement. See Section 4.5.3, Text Strings that Exceed the Maximum Length for General Observation-class Domain Variables, for further information.\n   a. The instrument's annotated CRF can also be used as a reference for the full text in both of these situations.", "score": 0.4577, "match_basis": "verbatim_token+global_search"}, {"md_atom_id": "md_ch04_a503", "md_file": "knowledge_base/chapters/ch04_general_assumptions.md", "md_atom_type": "LIST_ITEM", "md_parent_section": "§4.4.1 [Formats for Date/Time Variables]", "md_verbatim": "- ISO 8601 represents dates as a text string using the notation YYYY-MM-DD.", "score": 0.4238, "match_basis": "verbatim_token+global_search"}, {"md_atom_id": "md_dmFT_assn_a020", "md_file": "knowledge_base/domains/FT/assumptions.md", "md_atom_type": "LIST_ITEM", "md_parent_section": "§FT [FT — Assumptions]", "md_verbatim": "      ii. QRS subtotal, total, etc. scores not listed on the CRF but documented in an associated instrument manual or reference paper are considered captured data and are included in the instrument's controlled terminology.", "score": 0.4148, "match_basis": "verbatim_token+global_search"}], "candidate_count": 5, "zero_candidate": false}
{"pdf_atom_id": "ig34_p0338_a012", "pdf_atom_type": "LIST_ITEM", "pdf_source": "SDTMIG_v3.4", "pdf_page": 338, "pdf_parent_section": "§6.3.9.3.2 Clinical Classifications Use Case", "pdf_verbatim": "--EVAL and --EVALID must not be used to model QRS data in SDTM. These variables have had various interpretations on QRS CRFs and were used to represent a multitude of evaluator information about QRS instruments. This has made it more difficult for users of SDTM QRS data to interpret this data and more difficult to pool data for analyses. If needed, supplemental qualifiers may be used to represent this data. Updated information on a proposed solution to this issue will be posted on the CDISC QRS webpage (https://www.cdisc.org/standards/foundational/qrs).", "figure_ref": null, "candidates": [{"md_atom_id": "md_dmFT_assn_a033", "md_file": "knowledge_base/domains/FT/assumptions.md", "md_atom_type": "LIST_ITEM", "md_parent_section": "§FT [FT — Assumptions]", "md_verbatim": "8. --EVAL and --EVALID must not be used to model QRS data in SDTM. These variables have had various interpretations on QRS CRFs and were used to represent a multitude of evaluator information about QRS instruments. This has made it more difficult for users of SDTM QRS data to interpret this data and more difficult to pool data for analyses. If needed, supplemental qualifiers may be used to represent this data. Updated information on a proposed solution to this issue will be posted on the CDISC QRS webpage (https://www.cdisc.org/standards/foundational/qrs).", "score": 0.9, "match_basis": "verbatim_token+global_search"}, {"md_atom_id": "md_dmQS_assn_a012", "md_file": "knowledge_base/domains/QS/assumptions.md", "md_atom_type": "LIST_ITEM", "md_parent_section": "§QS [QS — Assumptions]", "md_verbatim": "8. --EVAL and --EVALID must not be used to model QRS data in SDTM. These variables have had various interpretations on QRS CRFs and were used to represent a multitude of evaluator information about QRS instruments. This has made it more difficult for users of SDTM QRS data to interpret this data and more difficult to pool data for analyses. If needed, supplemental qualifiers may be used to represent this data. Updated information on a proposed solution to this issue will be posted on the CDISC QRS webpage (https://www.cdisc.org/standards/foundational/qrs).", "score": 0.9, "match_basis": "verbatim_token+global_search"}, {"md_atom_id": "md_dmDM_assn_a018", "md_file": "knowledge_base/domains/DM/assumptions.md", "md_atom_type": "LIST_ITEM", "md_parent_section": "§DM [DM — Assumptions]", "md_verbatim": "5. Study population flags should not be included in SDTM data. The standard supplemental qualifiers included in previous versions of the SDTMIG (COMPLT, FULLSET, ITT, PPROT, SAFETY) should not be used. Note: The ADaM Subject-level Analysis Dataset (ADSL) specifies standard variable names for the most common populations and requires the inclusion of these flags when necessary for analysis; consult the ADaMIG for more information about these variables.", "score": 0.4609, "match_basis": "verbatim_token+global_search"}, {"md_atom_id": "md_dmQS_assn_a013", "md_file": "knowledge_base/domains/QS/assumptions.md", "md_atom_type": "LIST_ITEM", "md_parent_section": "§QS [QS — Assumptions]", "md_verbatim": "9. All standard QRS supplement development is coordinated with the CDISC SDS QRS Subteam as the governing body. The process involves drafting the controlled terminology and defining instrument-specific standardized values for qualifier, timing, and result variables to populate the SDTMIG FT, QS, and RS domains. These supplements are developed based on user demand and therapeutic area standards development needs. Sponsors should always consult the CDISC website to review the terminology and supplements prior to modeling any QRS instrument.\n   a. Sponsors may participate and/or request the development of additional QRS supplements and terminology through the CDISC SDS QRS subteam and the Controlled Terminology QRS subteam.\n      i. Once generated, the QRS supplement is posted on the CDISC website (https://www.cdisc.org/standards/foundational/qrs).\n      ii. Sponsors should always consult the published QRS supplements for guidance on submitting derived information in SDTMIG-based domains.", "score": 0.453, "match_basis": "verbatim_token+global_search"}, {"md_atom_id": "md_ch04_a450", "md_file": "knowledge_base/chapters/ch04_general_assumptions.md", "md_atom_type": "LIST_ITEM", "md_parent_section": "§4.3.5 [Storing Controlled Terminology for Synonym Qualifier Variables (MedDRA and WHODrug)]", "md_verbatim": "- For concomitant medications, supplemental qualifiers may be used to represent additional coding dictionary information (e.g., a drug's ATC codes from the WHO Drug Dictionary); see Section 8.4, Relating Non-standard Variable Values to a Parent Domain", "score": 0.4507, "match_basis": "verbatim_token+global_search"}], "candidate_count": 5, "zero_candidate": false}
{"pdf_atom_id": "ig34_p0338_a013", "pdf_atom_type": "LIST_ITEM", "pdf_source": "SDTMIG_v3.4", "pdf_page": 338, "pdf_parent_section": "§6.3.9.3.2 Clinical Classifications Use Case", "pdf_verbatim": "All standard QRS supplement development is coordinated with the CDISC SDS QRS Subteam as the governing body. The process involves drafting the controlled terminology and defining instrument-specific standardized value for qualifier, timing, and result variables to populate the SDTMIG for FT, QS, and RS domains. These supplements are developed based on user demand and therapeutic area standards development needs. Sponsors should always consult the CDISC website to review the terminology and supplements prior to modeling any QRS instruments.", "figure_ref": null, "candidates": [{"md_atom_id": "md_dmFT_assn_a034", "md_file": "knowledge_base/domains/FT/assumptions.md", "md_atom_type": "LIST_ITEM", "md_parent_section": "§FT [FT — Assumptions]", "md_verbatim": "9. All standard QRS supplement development is coordinated with the CDISC SDS QRS Subteam as the governing body. The process involves drafting the controlled terminology and defining instrument-specific standardized values for qualifier, timing, and result variables to populate the SDTMIG FT, QS, and RS domains. These supplements are developed based on user demand and therapeutic area standards development needs. Sponsors should always consult the CDISC website to review the terminology and supplements prior to modeling any QRS instrument.", "score": 0.897, "match_basis": "verbatim_token+global_search"}, {"md_atom_id": "md_dmQS_assn_a013", "md_file": "knowledge_base/domains/QS/assumptions.md", "md_atom_type": "LIST_ITEM", "md_parent_section": "§QS [QS — Assumptions]", "md_verbatim": "9. All standard QRS supplement development is coordinated with the CDISC SDS QRS Subteam as the governing body. The process involves drafting the controlled terminology and defining instrument-specific standardized values for qualifier, timing, and result variables to populate the SDTMIG FT, QS, and RS domains. These supplements are developed based on user demand and therapeutic area standards development needs. Sponsors should always consult the CDISC website to review the terminology and supplements prior to modeling any QRS instrument.\n   a. Sponsors may participate and/or request the development of additional QRS supplements and terminology through the CDISC SDS QRS subteam and the Controlled Terminology QRS subteam.\n      i. Once generated, the QRS supplement is posted on the CDISC website (https://www.cdisc.org/standards/foundational/qrs).\n      ii. Sponsors should always consult the published QRS supplements for guidance on submitting derived information in SDTMIG-based domains.", "score": 0.7418, "match_basis": "verbatim_token+global_search"}, {"md_atom_id": "md_dmQS_assn_a008", "md_file": "knowledge_base/domains/QS/assumptions.md", "md_atom_type": "LIST_ITEM", "md_parent_section": "§QS [QS — Assumptions]", "md_verbatim": "4. Sponsors should always consult published QRS supplements for guidance on submitting derived information in a SDTMIG QRS domain. Derived variable results in QRS are usually considered captured data. If sponsors operationally derive variable results, then the derived records that are submitted in a QRS domain should be flagged by --DRVFL.\n   a. The following rules apply for \"total\"-type scores in QRS datasets.\n      i. QRS subtotal, total, etc. scores listed on the CRF are considered captured data and are included in the instrument's controlled terminology.\n      ii. QRS subtotal, total, etc. scores not listed on the CRF but documented in an associated instrument manual or reference paper are considered captured data and are included in the instrument's controlled terminology.\n      iii. QRS subtotal, total, etc. scores not listed on the CRF, but known to be included in eData by sponsors are considered as captured data, are included in the instrument's controlled terminology. The QRS instrument's CT is considered extensible for this case and the subtotal or total score should be requested to be added.\n         1. Any imputations/calculations done to numeric \"standardized responses\" to produce the total score via transforming numeric \"standardized responses\" in any way would be done as ADaM derivations.\n   b. The QRS instrument subtotal or total score, which is the sum of the numeric responses for an instrument, is populated in --ORRES, --STRESC, and --STRESN. It is considered a captured subtotal or total score without any knowledge of the sponsor-data management processes related to the score.\n      i. If operationally derived by the sponsor, it is the sponsor's responsibility to set the --DRVFL flag based on their eCRF process to derive subtotal and total scores. An investigator-derived score written on a CRF will be considered a captured score and not flagged. When subtotal and total scores are derived by the sponsor, the derived flag (--DRVFL) is set to \"Y\". However, when the subtotal and total scores are received from a central provider or vendor, the value would go into --ORRES and --DRVFL would be null (see Section 4.1.8.1, Origin Metadata for Variables).", "score": 0.4581, "match_basis": "verbatim_token+global_search"}, {"md_atom_id": "md_dmGF_assn_a009", "md_file": "knowledge_base/domains/GF/assumptions.md", "md_atom_type": "LIST_ITEM", "md_parent_section": "§GF [GF — Assumptions]", "md_verbatim": "4. Values populated in GFCAT and GFSCAT are sponsor-defined and there is no CDISC Controlled Terminology for these variables.", "score": 0.4479, "match_basis": "verbatim_token+global_search"}, {"md_atom_id": "md_dmAE_assn_a033", "md_file": "knowledge_base/domains/AE/assumptions.md", "md_atom_type": "LIST_ITEM", "md_parent_section": "§AE [AE — Assumptions]", "md_verbatim": "   d. In studies using toxicity grade according to a standard toxicity scale such as the Common Terminology Criteria for Adverse Events v3.0 (CTCAE), published by the National Cancer Institute (NCI; available at https://ctep.cancer.gov/protocoldevelopment/), AETOXGR should be used instead of AESEV. In most cases, either AESEV or AETOXGR is populated but not both. There may be cases when a sponsor may need to populate both variables. The sponsor is expected to provide the dictionary name and version used to map the terms utilizing the external codelist element in the Define-XML document.", "score": 0.4473, "match_basis": "verbatim_token+global_search"}], "candidate_count": 5, "zero_candidate": false}
{"pdf_atom_id": "ig34_p0338_a014", "pdf_atom_type": "LIST_ITEM", "pdf_source": "SDTMIG_v3.4", "pdf_page": 338, "pdf_parent_section": "§6.3.9.3.2 Clinical Classifications Use Case", "pdf_verbatim": "Sponsors may participate and/or request the development of additional QRS supplements and terminology through the CDISC SDS QRS subteam and the Controlled Terminology QRS subteam.", "figure_ref": null, "candidates": [{"md_atom_id": "md_dmFT_assn_a035", "md_file": "knowledge_base/domains/FT/assumptions.md", "md_atom_type": "LIST_ITEM", "md_parent_section": "§FT [FT — Assumptions]", "md_verbatim": "   a. Sponsors may participate and/or request the development of additional QRS supplements and terminology through the CDISC SDS QRS subteam and the Controlled Terminology QRS subteam.", "score": 0.9, "match_basis": "verbatim_token+global_search"}, {"md_atom_id": "md_ch04_a421", "md_file": "knowledge_base/chapters/ch04_general_assumptions.md", "md_atom_type": "LIST_ITEM", "md_parent_section": "§4.3.1 [Controlled Terms, Codelist or Format Column]", "md_verbatim": "- A single asterisk (*) when CDISC Controlled Terminology is not currently available but the SDS Team expects that sponsors may have their own controlled terminology and/or the CDISC Controlled Terminology Team may develop controlled terminology in the future", "score": 0.4884, "match_basis": "verbatim_token+global_search"}, {"md_atom_id": "md_dmDS_assn_a009", "md_file": "knowledge_base/domains/DS/assumptions.md", "md_atom_type": "LIST_ITEM", "md_parent_section": "§DS [DS — Assumptions]", "md_verbatim": "   c. DSSCAT may be used when DSCAT = \"PROTOCOL MILESTONE\" or \"OTHER EVENT\", but would be subject to additional CDISC Controlled Terminology.", "score": 0.4838, "match_basis": "verbatim_token+global_search"}, {"md_atom_id": "md_dmQS_assn_a013", "md_file": "knowledge_base/domains/QS/assumptions.md", "md_atom_type": "LIST_ITEM", "md_parent_section": "§QS [QS — Assumptions]", "md_verbatim": "9. All standard QRS supplement development is coordinated with the CDISC SDS QRS Subteam as the governing body. The process involves drafting the controlled terminology and defining instrument-specific standardized values for qualifier, timing, and result variables to populate the SDTMIG FT, QS, and RS domains. These supplements are developed based on user demand and therapeutic area standards development needs. Sponsors should always consult the CDISC website to review the terminology and supplements prior to modeling any QRS instrument.\n   a. Sponsors may participate and/or request the development of additional QRS supplements and terminology through the CDISC SDS QRS subteam and the Controlled Terminology QRS subteam.\n      i. Once generated, the QRS supplement is posted on the CDISC website (https://www.cdisc.org/standards/foundational/qrs).\n      ii. Sponsors should always consult the published QRS supplements for guidance on submitting derived information in SDTMIG-based domains.", "score": 0.4736, "match_basis": "verbatim_token+global_search"}, {"md_atom_id": "md_dmQS_assn_a006", "md_file": "knowledge_base/domains/QS/assumptions.md", "md_atom_type": "LIST_ITEM", "md_parent_section": "§QS [QS — Assumptions]", "md_verbatim": "2. Names of subcategories for groups of items/questions are described under the --SCAT variable.\n   a. --SCAT values are not included in the CDISC Controlled Terminology system but rather controlled as described in the QRS supplements in which they are used.", "score": 0.4714, "match_basis": "verbatim_token+global_search"}], "candidate_count": 5, "zero_candidate": false}
{"pdf_atom_id": "ig34_p0338_a015", "pdf_atom_type": "LIST_ITEM", "pdf_source": "SDTMIG_v3.4", "pdf_page": 338, "pdf_parent_section": "§6.3.9.3.2 Clinical Classifications Use Case", "pdf_verbatim": "Once generated, the QRS supplement is posted on the CDISC website (https://www.cdisc.org/standards/foundational/qrs).", "figure_ref": null, "candidates": [{"md_atom_id": "md_dmFT_assn_a036", "md_file": "knowledge_base/domains/FT/assumptions.md", "md_atom_type": "LIST_ITEM", "md_parent_section": "§FT [FT — Assumptions]", "md_verbatim": "      i. Once generated, the QRS supplement is posted on the CDISC website (https://www.cdisc.org/standards/foundational/qrs).", "score": 0.9, "match_basis": "verbatim_token+global_search"}, {"md_atom_id": "md_ch04_a066", "md_file": "knowledge_base/chapters/ch04_general_assumptions.md", "md_atom_type": "LIST_ITEM", "md_parent_section": "§4.1.7 [Splitting Domains]", "md_verbatim": "9. See the SDTM Implementation Guide: Associated Persons (https://www.cdisc.org/standards/foundational/sdtmig/) for the naming of split AP datasets.", "score": 0.5207, "match_basis": "verbatim_token+global_search"}, {"md_atom_id": "md_dmDA_assn_a003", "md_file": "knowledge_base/domains/DA/assumptions.md", "md_atom_type": "LIST_ITEM", "md_parent_section": "§DA [DA — Assumptions]", "md_verbatim": "   a. Transfers of devices are not represented in this domain, but in the Device Tracking and Disposition (DT) domain. See the SDTMIG for Medical Devices (available at https://www.cdisc.org/standards/foundational/medical-devices-sdtmig/).", "score": 0.4642, "match_basis": "verbatim_token+global_search"}, {"md_atom_id": "md_dmDM_ex_a068", "md_file": "knowledge_base/domains/DM/examples.md", "md_atom_type": "SENTENCE", "md_parent_section": "§DM.4 [Example 4]", "md_verbatim": "See the CDASH Model and Implementation Guide for additional information: https://www.cdisc.org/standards/foundational/cdash.", "score": 0.45, "match_basis": "verbatim_token+global_search"}, {"md_atom_id": "md_dmDM_ex_a137", "md_file": "knowledge_base/domains/DM/examples.md", "md_atom_type": "SENTENCE", "md_parent_section": "§DM.6 [Example 6]", "md_verbatim": "See the CDASH Model and Implementation Guide for additional information: https://www.cdisc.org/standards/foundational/cdash.", "score": 0.45, "match_basis": "verbatim_token+global_search"}], "candidate_count": 5, "zero_candidate": false}
{"pdf_atom_id": "ig34_p0339_a001", "pdf_atom_type": "LIST_ITEM", "pdf_source": "SDTMIG_v3.4", "pdf_page": 339, "pdf_parent_section": "§6.3.9.3.2 Clinical Classifications Use Case", "pdf_verbatim": "Any identifiers, timing variables, or findings general observation class qualifiers may be added to any QRS domain. In general, identifiers should be considered generated observation class qualifiers that are generally not used: --POS, --BODYSYS, --ORNRLO, --ORNRHI, --STNRLO, --STNRHI, --STRNC, --NRIND, --XFN, --LOINC, --SPEC, --SPCCND, --LOC, --FAST, --TOX, --TOXGR, --SEV.", "figure_ref": null, "candidates": [{"md_atom_id": "md_dmFT_assn_a038", "md_file": "knowledge_base/domains/FT/assumptions.md", "md_atom_type": "LIST_ITEM", "md_parent_section": "§FT [FT — Assumptions]", "md_verbatim": "10. Any identifiers, timing variables, or findings general observation class qualifiers may be added to a QRS domain, but the following qualifiers would generally not be used: --POS, --BODSYS, --ORNRLO, --ORNRHI, --STNRLO, --STNRHI, --STNRC, --NRIND, --XFN, --LOINC, --SPEC, --SPCCND, --LOC, --FAST, --TOX, --TOXGR, --SEV.", "score": 0.7429, "match_basis": "verbatim_token+global_search"}, {"md_atom_id": "md_dmQS_assn_a014", "md_file": "knowledge_base/domains/QS/assumptions.md", "md_atom_type": "LIST_ITEM", "md_parent_section": "§QS [QS — Assumptions]", "md_verbatim": "10. Any identifiers, timing variables, or findings general observation class qualifiers may be added to a QRS domain, but the following qualifiers would generally not be used: --POS, --BODSYS, --ORNRLO, --ORNRHI, --STNRLO, --STNRHI, --STNRC, --NRIND, --XFN, --LOINC, --SPEC, --SPCCND, --LOC, --FAST, --TOX, --TOXGR, --SEV.", "score": 0.7429, "match_basis": "verbatim_token+global_search"}, {"md_atom_id": "md_dmRS_assn_a026", "md_file": "knowledge_base/domains/RS/assumptions.md", "md_atom_type": "LIST_ITEM", "md_parent_section": "§RS [RS — Assumptions]", "md_verbatim": "11. Any Identifiers, Timing variables, or Findings general observation class qualifiers may be added to the RS domain, but the following qualifiers would not generally be used: --POS, --BODSYS, --ORNRLO, --ORNRHI, --STNRLO, --STNRHI, --STNRC, --NRIND, --XFN, --LOINC, --SPEC, --SPCCND, --FAST, --TOX, --TOXGR, --SEV.", "score": 0.7333, "match_basis": "verbatim_token+global_search"}, {"md_atom_id": "md_dmTR_assn_a020", "md_file": "knowledge_base/domains/TR/assumptions.md", "md_atom_type": "LIST_ITEM", "md_parent_section": "§TR [TR — Assumptions]", "md_verbatim": "8. Any Identifiers, Timing variables, or Findings general observation class qualifiers may be added to the TR domain, but the following qualifiers would not generally be used: --POS, --BODSYS, --ORNRLO, --ORNRHI, --STNRLO, --STNRHI, --STNRC, --NRIND, --XFN, --LOINC, --SPEC, --SPCCND, --FAST, --TOX, --TOXGR, --SEV.", "score": 0.7333, "match_basis": "verbatim_token+global_search"}, {"md_atom_id": "md_dmTU_assn_a075", "md_file": "knowledge_base/domains/TU/assumptions.md", "md_atom_type": "LIST_ITEM", "md_parent_section": "§TU [TU — Assumptions]", "md_verbatim": "13. Any Identifiers, Timing variables, or Findings general observation class qualifiers may be added to the TU domain, but the following qualifiers would not generally be used: --MODIFY, --POS, --BODSYS, --ORNRLO, --ORNRHI, --STNRLO, --STNRHI, --STNRC, --NRIND, --XFN, --LOINC, --SPEC, --SPCCND, --FAST, --TOX, --TOXGR, --SEV.", "score": 0.72, "match_basis": "verbatim_token+global_search"}], "candidate_count": 5, "zero_candidate": false}
{"pdf_atom_id": "ig34_p0339_a002", "pdf_atom_type": "HEADING", "pdf_source": "SDTMIG_v3.4", "pdf_page": 339, "pdf_parent_section": "§6.3.9.3.2 Clinical Classifications Use Case", "pdf_verbatim": "RS – Examples - Clinical Classifications", "figure_ref": null, "candidates": [{"md_atom_id": "md_dmRS_ex_a044", "md_file": "knowledge_base/domains/RS/examples.md", "md_atom_type": "HEADING", "md_parent_section": "§RS [RS — Examples]", "md_verbatim": "## RS — Examples - Clinical Classifications", "score": 0.9, "match_basis": "verbatim_token+global_search"}, {"md_atom_id": "md_dmRS_assn_a027", "md_file": "knowledge_base/domains/RS/assumptions.md", "md_atom_type": "HEADING", "md_parent_section": "§RS [RS — Assumptions]", "md_verbatim": "## RS — Clinical Classifications Use Case Assumptions", "score": 0.6375, "match_basis": "verbatim_token+global_search"}, {"md_atom_id": "md_varindex_a1326", "md_file": "knowledge_base/VARIABLE_INDEX.md", "md_atom_type": "HEADING", "md_parent_section": "§ 二、领域专属变量（仅 1 个域，共 1499 个），按域分组", "md_verbatim": "### RS — Disease Response and Clin Classification (Findings)", "score": 0.5195, "match_basis": "verbatim_token+global_search"}, {"md_atom_id": "md_ch04_a968", "md_file": "knowledge_base/chapters/ch04_general_assumptions.md", "md_atom_type": "HEADING", "md_parent_section": "§4.5 [Other Assumptions]", "md_verbatim": "### 4.5.5 Clinical Significance for Findings Observation Class Data", "score": 0.4826, "match_basis": "verbatim_token+global_search"}, {"md_atom_id": "md_dmRELREC_ex_a033", "md_file": "knowledge_base/domains/RELREC/examples.md", "md_atom_type": "HEADING", "md_parent_section": "§RELREC [RELREC — Examples]", "md_verbatim": "## Dataset Relationship Example", "score": 0.4543, "match_basis": "verbatim_token+global_search"}], "candidate_count": 5, "zero_candidate": false}
{"pdf_atom_id": "ig34_p0339_a003", "pdf_atom_type": "SENTENCE", "pdf_source": "SDTMIG_v3.4", "pdf_page": 339, "pdf_parent_section": "§6.3.9.3.2 Clinical Classifications Use Case", "pdf_verbatim": "The following example is for a clinical classification. For additional RS examples, see the CDISC-published supplements for individual clinical classifications, at https://www.cdisc.org/standards/foundational/qrs.", "figure_ref": null, "candidates": [{"md_atom_id": "md_dmRS_ex_a045", "md_file": "knowledge_base/domains/RS/examples.md", "md_atom_type": "SENTENCE", "md_parent_section": "§RS.2 [RS — Examples - Clinical Classifications]", "md_verbatim": "The following example is for a clinical classification. For additional RS examples, see the CDISC-published supplements for individual clinical classifications, at https://www.cdisc.org/standards/foundational/qrs.", "score": 0.9, "match_basis": "verbatim_token+global_search"}, {"md_atom_id": "md_dmFT_ex_a002", "md_file": "knowledge_base/domains/FT/examples.md", "md_atom_type": "SENTENCE", "md_parent_section": "§FT [FT — Examples]", "md_verbatim": "CDISC publishes supplements for individual functional tests (at https://www.cdisc.org/standards/foundational/qrs). Additional FT examples can be found in supplements on that webpage.", "score": 0.6515, "match_basis": "verbatim_token+global_search"}, {"md_atom_id": "md_dmQS_ex_a002", "md_file": "knowledge_base/domains/QS/examples.md", "md_atom_type": "SENTENCE", "md_parent_section": "§QS [QS — Examples]", "md_verbatim": "CDISC publishes supplements for individual questionnaires (at https://www.cdisc.org/standards/foundational/qrs). Additional QS examples can be found in supplements on that webpage.", "score": 0.6412, "match_basis": "verbatim_token+global_search"}, {"md_atom_id": "md_dmDM_ex_a068", "md_file": "knowledge_base/domains/DM/examples.md", "md_atom_type": "SENTENCE", "md_parent_section": "§DM.4 [Example 4]", "md_verbatim": "See the CDASH Model and Implementation Guide for additional information: https://www.cdisc.org/standards/foundational/cdash.", "score": 0.522, "match_basis": "verbatim_token+global_search"}, {"md_atom_id": "md_dmDM_ex_a137", "md_file": "knowledge_base/domains/DM/examples.md", "md_atom_type": "SENTENCE", "md_parent_section": "§DM.6 [Example 6]", "md_verbatim": "See the CDASH Model and Implementation Guide for additional information: https://www.cdisc.org/standards/foundational/cdash.", "score": 0.522, "match_basis": "verbatim_token+global_search"}], "candidate_count": 5, "zero_candidate": false}
{"pdf_atom_id": "ig34_p0339_a004", "pdf_atom_type": "HEADING", "pdf_source": "SDTMIG_v3.4", "pdf_page": 339, "pdf_parent_section": "§6.3.9.3.2 Clinical Classifications Use Case", "pdf_verbatim": "Example 1", "figure_ref": null, "candidates": [{"md_atom_id": "md_dmCM_ex_a002", "md_file": "knowledge_base/domains/CM/examples.md", "md_atom_type": "HEADING", "md_parent_section": "§CM.1 [Example 1]", "md_verbatim": "## Example 1", "score": 0.9, "match_basis": "verbatim_token+global_search"}, {"md_atom_id": "md_dmCM_ex_a022", "md_file": "knowledge_base/domains/CM/examples.md", "md_atom_type": "HEADING", "md_parent_section": "§CM.2 [Example 2]", "md_verbatim": "## Example 2", "score": 0.9, "match_basis": "verbatim_token+global_search"}, {"md_atom_id": "md_dmCM_ex_a029", "md_file": "knowledge_base/domains/CM/examples.md", "md_atom_type": "HEADING", "md_parent_section": "§CM.3 [Example 3]", "md_verbatim": "## Example 3", "score": 0.9, "match_basis": "verbatim_token+global_search"}, {"md_atom_id": "md_dmCM_ex_a047", "md_file": "knowledge_base/domains/CM/examples.md", "md_atom_type": "HEADING", "md_parent_section": "§CM.4 [Example 4]", "md_verbatim": "## Example 4", "score": 0.9, "match_basis": "verbatim_token+global_search"}, {"md_atom_id": "md_dmCM_ex_a060", "md_file": "knowledge_base/domains/CM/examples.md", "md_atom_type": "HEADING", "md_parent_section": "§CM.5 [Example 5]", "md_verbatim": "## Example 5", "score": 0.9, "match_basis": "verbatim_token+global_search"}, {"md_atom_id": "md_ch08_a292", "md_file": "knowledge_base/chapters/ch08_relationships.md", "md_atom_type": "HEADING", "md_parent_section": "§8.7 [Related Subjects (RELSUB)]", "md_verbatim": "### Example", "score": 0.9, "match_basis": "verbatim_token+global_search"}, {"md_atom_id": "md_ch08_a331", "md_file": "knowledge_base/chapters/ch08_relationships.md", "md_atom_type": "HEADING", "md_parent_section": "§8.8 [Related Specimens (RELSPEC)]", "md_verbatim": "### Example", "score": 0.9, "match_basis": "verbatim_token+global_search"}, {"md_atom_id": "md_dmAE_ex_a002", "md_file": "knowledge_base/domains/AE/examples.md", "md_atom_type": "HEADING", "md_parent_section": "§AE.1 [Example 1]", "md_verbatim": "## Example 1", "score": 0.9, "match_basis": "verbatim_token+global_search"}, {"md_atom_id": "md_dmAE_ex_a020", "md_file": "knowledge_base/domains/AE/examples.md", "md_atom_type": "HEADING", "md_parent_section": "§AE.2 [Example 2]", "md_verbatim": "## Example 2", "score": 0.9, "match_basis": "verbatim_token+global_search"}, {"md_atom_id": "md_dmAE_ex_a035", "md_file": "knowledge_base/domains/AE/examples.md", "md_atom_type": "HEADING", "md_parent_section": "§AE.3 [Example 3]", "md_verbatim": "## Example 3", "score": 0.9, "match_basis": "verbatim_token+global_search"}], "candidate_count": 10, "zero_candidate": false}
{"pdf_atom_id": "ig34_p0339_a005", "pdf_atom_type": "SENTENCE", "pdf_source": "SDTMIG_v3.4", "pdf_page": 339, "pdf_parent_section": "§6.3.9.3.2 Clinical Classifications Use Case", "pdf_verbatim": "Glasgow Coma Scale NINDS Version (GCS NINDS VERSION)", "figure_ref": null, "candidates": [{"md_atom_id": "md_dmRS_ex_a047", "md_file": "knowledge_base/domains/RS/examples.md", "md_atom_type": "SENTENCE", "md_parent_section": "§RS.2.1 [Example 1]", "md_verbatim": "**Glasgow Coma Scale NINDS Version (GCS NINDS VERSION)**", "score": 0.9, "match_basis": "verbatim_token+global_search"}, {"md_atom_id": "md_dmRS_ex_a048", "md_file": "knowledge_base/domains/RS/examples.md", "md_atom_type": "SENTENCE", "md_parent_section": "§RS.2.1 [Example 1]", "md_verbatim": "The rs.xpt dataset represents the items from the GCS NINDS VERSION instrument.", "score": 0.4174, "match_basis": "verbatim_token+global_search"}, {"md_atom_id": "md_ch01_a006", "md_file": "knowledge_base/chapters/ch01_introduction.md", "md_atom_type": "SENTENCE", "md_parent_section": "§1.1 [Purpose]", "md_verbatim": "Version 3.4 supersedes all prior versions of the SDTMIG.", "score": 0.3833, "match_basis": "verbatim_token+global_search"}, {"md_atom_id": "md_ch02_a070", "md_file": "knowledge_base/chapters/ch02_fundamentals.md", "md_atom_type": "SENTENCE", "md_parent_section": "§2.5 [The SDTM Standard Domain Models]", "md_verbatim": "Draft versions of these domains may be made available in the CDISC wiki in the SDTM Draft Domains space.", "score": 0.372, "match_basis": "verbatim_token+global_search"}, {"md_atom_id": "md_dmQS_ex_a004", "md_file": "knowledge_base/domains/QS/examples.md", "md_atom_type": "SENTENCE", "md_parent_section": "§QS.1 [Example 1]", "md_verbatim": "**Satisfaction With Life Scale (SWLS)**", "score": 0.3706, "match_basis": "verbatim_token+global_search"}], "candidate_count": 5, "zero_candidate": false}
{"pdf_atom_id": "ig34_p0339_a006", "pdf_atom_type": "SENTENCE", "pdf_source": "SDTMIG_v3.4", "pdf_page": 339, "pdf_parent_section": "§6.3.9.3.2 Clinical Classifications Use Case", "pdf_verbatim": "The rs.xpt dataset represents the items from the GCS NINDS VERSION instrument.", "figure_ref": null, "candidates": [{"md_atom_id": "md_dmRS_ex_a048", "md_file": "knowledge_base/domains/RS/examples.md", "md_atom_type": "SENTENCE", "md_parent_section": "§RS.2.1 [Example 1]", "md_verbatim": "The rs.xpt dataset represents the items from the GCS NINDS VERSION instrument.", "score": 0.9, "match_basis": "verbatim_token+global_search"}, {"md_atom_id": "md_dmQS_ex_a005", "md_file": "knowledge_base/domains/QS/examples.md", "md_atom_type": "SENTENCE", "md_parent_section": "§QS.1 [Example 1]", "md_verbatim": "The example represents the items from the SWLS instrument.", "score": 0.593, "match_basis": "verbatim_token+global_search"}, {"md_atom_id": "md_dmEX_ex_a241", "md_file": "knowledge_base/domains/EX/examples.md", "md_atom_type": "SENTENCE", "md_parent_section": "§EX.7 [Example 7]", "md_verbatim": "The RELREC dataset represents relationships between EC, EX, and VS.", "score": 0.4636, "match_basis": "verbatim_token+global_search"}, {"md_atom_id": "md_ch08_a064", "md_file": "knowledge_base/chapters/ch08_relationships.md", "md_atom_type": "SENTENCE", "md_parent_section": "§8.2 [Relating Peer Records]", "md_verbatim": "The RELREC dataset should be used to represent either:", "score": 0.4592, "match_basis": "verbatim_token+global_search"}, {"md_atom_id": "md_dmRELREC_assn_a006", "md_file": "knowledge_base/domains/RELREC/assumptions.md", "md_atom_type": "SENTENCE", "md_parent_section": "§RELREC [RELREC — Assumptions]", "md_verbatim": "The RELREC dataset should be used to represent either:", "score": 0.4592, "match_basis": "verbatim_token+global_search"}], "candidate_count": 5, "zero_candidate": false}
{"pdf_atom_id": "ig34_p0339_a007", "pdf_atom_type": "CODE_LITERAL", "pdf_source": "SDTMIG_v3.4", "pdf_page": 339, "pdf_parent_section": "§6.3.9.3.2 Clinical Classifications Use Case", "pdf_verbatim": "rs.xpt", "figure_ref": null, "candidates": [{"md_atom_id": "md_ch04_a207", "md_file": "knowledge_base/chapters/ch04_general_assumptions.md", "md_atom_type": "CODE_LITERAL", "md_parent_section": "§4.2.3 [Use of \"Subject\" and USUBJID]", "md_verbatim": "dm.xpt:", "score": 0.69, "match_basis": "verbatim_token+global_search"}, {"md_atom_id": "md_ch04_a210", "md_file": "knowledge_base/chapters/ch04_general_assumptions.md", "md_atom_type": "CODE_LITERAL", "md_parent_section": "§4.2.3 [Use of \"Subject\" and USUBJID]", "md_verbatim": "dm.xpt:", "score": 0.69, "match_basis": "verbatim_token+global_search"}, {"md_atom_id": "md_dmCM_ex_a010", "md_file": "knowledge_base/domains/CM/examples.md", "md_atom_type": "NOTE", "md_parent_section": "§CM.1 [Example 1]", "md_verbatim": "**cm.xpt**", "score": 0.69, "match_basis": "verbatim_token+global_search"}, {"md_atom_id": "md_dmCM_ex_a025", "md_file": "knowledge_base/domains/CM/examples.md", "md_atom_type": "NOTE", "md_parent_section": "§CM.2 [Example 2]", "md_verbatim": "**cm.xpt**", "score": 0.69, "match_basis": "verbatim_token+global_search"}, {"md_atom_id": "md_dmCM_ex_a042", "md_file": "knowledge_base/domains/CM/examples.md", "md_atom_type": "NOTE", "md_parent_section": "§CM.3 [Example 3]", "md_verbatim": "**cm.xpt**", "score": 0.69, "match_basis": "verbatim_token+global_search"}, {"md_atom_id": "md_dmCM_ex_a052", "md_file": "knowledge_base/domains/CM/examples.md", "md_atom_type": "NOTE", "md_parent_section": "§CM.4 [Example 4]", "md_verbatim": "**cm.xpt**", "score": 0.69, "match_basis": "verbatim_token+global_search"}, {"md_atom_id": "md_dmCM_ex_a070", "md_file": "knowledge_base/domains/CM/examples.md", "md_atom_type": "NOTE", "md_parent_section": "§CM.5 [Example 5]", "md_verbatim": "**cm.xpt**", "score": 0.69, "match_basis": "verbatim_token+global_search"}, {"md_atom_id": "md_ch04_a368", "md_file": "knowledge_base/chapters/ch04_general_assumptions.md", "md_atom_type": "CODE_LITERAL", "md_parent_section": "§4.2.8.3 [Multiple Values for a Non-result Qualifier Variable]", "md_verbatim": "ae.xpt:", "score": 0.69, "match_basis": "verbatim_token+global_search"}, {"md_atom_id": "md_ch04_a378", "md_file": "knowledge_base/chapters/ch04_general_assumptions.md", "md_atom_type": "CODE_LITERAL", "md_parent_section": "§4.2.8.3 [Multiple Values for a Non-result Qualifier Variable]", "md_verbatim": "ae.xpt:", "score": 0.69, "match_basis": "verbatim_token+global_search"}, {"md_atom_id": "md_ch04_a391", "md_file": "knowledge_base/chapters/ch04_general_assumptions.md", "md_atom_type": "CODE_LITERAL", "md_parent_section": "§4.2.8.3 [Multiple Values for a Non-result Qualifier Variable]", "md_verbatim": "ae.xpt:", "score": 0.69, "match_basis": "verbatim_token+global_search"}], "candidate_count": 10, "zero_candidate": false}
{"pdf_atom_id": "ig34_p0339_a008", "pdf_atom_type": "TABLE_HEADER", "pdf_source": "SDTMIG_v3.4", "pdf_page": 339, "pdf_parent_section": "§6.3.9.3.2 Clinical Classifications Use Case", "pdf_verbatim": "| Row | STUDYID | DOMAIN | USUBJID | RSSEQ | RSTESTCD | RSTEST | RSCAT | RSORRES | RSSTRESC | RSSTRESN | RSLOBXFL | VISITNUM | RSDTC |", "figure_ref": null, "candidates": [{"md_atom_id": "md_dmRS_ex_a050", "md_file": "knowledge_base/domains/RS/examples.md", "md_atom_type": "TABLE_HEADER", "md_parent_section": "§RS.2.1 [Example 1]", "md_verbatim": "| Row | STUDYID | DOMAIN | USUBJID | RSSEQ | RSTESTCD | RSTEST | RSCAT | RSORRES | RSSTRESC | RSSTRESN | RSLOBXFL | VISITNUM | RSDTC |\n|-----|---------|--------|---------|-------|----------|--------|-------|---------|----------|----------|----------|----------|-------|", "score": 0.9, "match_basis": "verbatim_token+global_search"}, {"md_atom_id": "md_ch04_a091", "md_file": "knowledge_base/chapters/ch04_general_assumptions.md", "md_atom_type": "TABLE_HEADER", "md_parent_section": "§4.1.7.1 [Example of Splitting Questionnaires]", "md_verbatim": "| Row | STUDYID | DOMAIN | USUBJID | QSSEQ | QSTESTCD | QSTEST | QSCAT | QSORRES | QSSTRESC | QSSTRESN | QSLOBXFL | VISITNUM | QSDTC | QSDY |", "score": 0.7678, "match_basis": "verbatim_token+global_search"}, {"md_atom_id": "md_dmQS_ex_a007", "md_file": "knowledge_base/domains/QS/examples.md", "md_atom_type": "TABLE_HEADER", "md_parent_section": "§QS.1 [Example 1]", "md_verbatim": "| Row | STUDYID | DOMAIN | USUBJID | QSSEQ | QSTESTCD | QSTEST | QSCAT | QSORRES | QSSTRESC | QSSTRESN | QSLOBXFL | VISITNUM | QSDTC | QSDY |\n|-----|---------|--------|---------|-------|----------|--------|-------|---------|----------|----------|----------|----------|-------|------|", "score": 0.7678, "match_basis": "verbatim_token+global_search"}, {"md_atom_id": "md_ch04_a074", "md_file": "knowledge_base/chapters/ch04_general_assumptions.md", "md_atom_type": "TABLE_HEADER", "md_parent_section": "§4.1.7.1 [Example of Splitting Questionnaires]", "md_verbatim": "| Row | STUDYID | DOMAIN | USUBJID | QSSEQ | QSTESTCD | QSTEST | QSCAT | QSORRES | QSSTRESC | QSSTRESN | QSLOBXFL | VISITNUM | VISIT | VISITDY | QSDTC | QSDY |\n|-----|---------|--------|---------|-------|----------|--------|-------|---------|----------|----------|----------|----------|-------|---------|-------|------|", "score": 0.7525, "match_basis": "verbatim_token+global_search"}, {"md_atom_id": "md_dmRS_ex_a009", "md_file": "knowledge_base/domains/RS/examples.md", "md_atom_type": "TABLE_HEADER", "md_parent_section": "§RS.1.1 [Example 1]", "md_verbatim": "| Row | STUDYID | DOMAIN | USUBJID | RSSEQ | RSLNKGRP | RSTESTCD | RSTEST | RSCAT | RSORRES | RSSTRESC | RSEVAL | VISITNUM | VISIT | RSDTC | RSDY |\n|-----|---------|--------|---------|-------|----------|----------|--------|-------|---------|----------|--------|----------|-------|-------|------|", "score": 0.7452, "match_basis": "verbatim_token+global_search"}], "candidate_count": 5, "zero_candidate": false}
{"pdf_atom_id": "ig34_p0339_a009", "pdf_atom_type": "TABLE_ROW", "pdf_source": "SDTMIG_v3.4", "pdf_page": 339, "pdf_parent_section": "§6.3.9.3.2 Clinical Classifications Use Case", "pdf_verbatim": "| 1 | STUDYX | RS | P0001 | 1 | GCS0101 | GCS01-Best Eye Response | GCS NINDS VERSION | 4 | 4 | 4 | Y | 1 | 2012-11-16 |", "figure_ref": null, "candidates": [{"md_atom_id": "md_dmRS_ex_a051", "md_file": "knowledge_base/domains/RS/examples.md", "md_atom_type": "TABLE_ROW", "md_parent_section": "§RS.2.1 [Example 1]", "md_verbatim": "| 1 | STUDYX | RS | P0001 | 1 | GCS0101 | GCS01-Best Eye Response | GCS NINDS VERSION | No eye opening | 1 | 1 | Y | 1 | 2012-11-16 |", "score": 0.8314, "match_basis": "verbatim_token+global_search"}, {"md_atom_id": "md_dmRS_ex_a052", "md_file": "knowledge_base/domains/RS/examples.md", "md_atom_type": "TABLE_ROW", "md_parent_section": "§RS.2.1 [Example 1]", "md_verbatim": "| 2 | STUDYX | RS | P0001 | 2 | GCS0102 | GCS01-Motor Response | GCS NINDS VERSION | Abnormal extension | 2 | 2 | Y | 1 | 2012-11-16 |", "score": 0.6522, "match_basis": "verbatim_token+global_search"}, {"md_atom_id": "md_dmRS_ex_a054", "md_file": "knowledge_base/domains/RS/examples.md", "md_atom_type": "TABLE_ROW", "md_parent_section": "§RS.2.1 [Example 1]", "md_verbatim": "| 4 | STUDYX | RS | P0001 | 4 | GCS0104 | GCS01-Total Score | GCS NINDS VERSION | 5 | 5 | 5 | Y | 1 | 2012-11-16 |", "score": 0.6316, "match_basis": "verbatim_token+global_search"}, {"md_atom_id": "md_dmRS_ex_a053", "md_file": "knowledge_base/domains/RS/examples.md", "md_atom_type": "TABLE_ROW", "md_parent_section": "§RS.2.1 [Example 1]", "md_verbatim": "| 3 | STUDYX | RS | P0001 | 3 | GCS0103 | GCS01-Verbal Response | GCS NINDS VERSION | Incomprehensible sound | 2 | 2 | Y | 1 | 2012-11-16 |", "score": 0.6115, "match_basis": "verbatim_token+global_search"}, {"md_atom_id": "md_dmRS_ex_a055", "md_file": "knowledge_base/domains/RS/examples.md", "md_atom_type": "TABLE_ROW", "md_parent_section": "§RS.2.1 [Example 1]", "md_verbatim": "| 5 | STUDYX | RS | P0001 | 5 | GCS0105A | GCS01-Confounder: GCS Accurate | GCS NINDS VERSION | CHECKED | CHECKED | | Y | 1 | 2012-11-16 |", "score": 0.5423, "match_basis": "verbatim_token+global_search"}], "candidate_count": 5, "zero_candidate": false}
{"pdf_atom_id": "ig34_p0339_a010", "pdf_atom_type": "TABLE_ROW", "pdf_source": "SDTMIG_v3.4", "pdf_page": 339, "pdf_parent_section": "§6.3.9.3.2 Clinical Classifications Use Case", "pdf_verbatim": "| 2 | STUDYX | RS | P0001 | 2 | GCS0102 | GCS01-Motor Response | GCS NINDS VERSION | Abnormal extension | 2 | 2 | Y | 1 | 2012-11-16 |", "figure_ref": null, "candidates": [{"md_atom_id": "md_dmRS_ex_a052", "md_file": "knowledge_base/domains/RS/examples.md", "md_atom_type": "TABLE_ROW", "md_parent_section": "§RS.2.1 [Example 1]", "md_verbatim": "| 2 | STUDYX | RS | P0001 | 2 | GCS0102 | GCS01-Motor Response | GCS NINDS VERSION | Abnormal extension | 2 | 2 | Y | 1 | 2012-11-16 |", "score": 0.9, "match_basis": "verbatim_token+global_search"}, {"md_atom_id": "md_dmRS_ex_a051", "md_file": "knowledge_base/domains/RS/examples.md", "md_atom_type": "TABLE_ROW", "md_parent_section": "§RS.2.1 [Example 1]", "md_verbatim": "| 1 | STUDYX | RS | P0001 | 1 | GCS0101 | GCS01-Best Eye Response | GCS NINDS VERSION | No eye opening | 1 | 1 | Y | 1 | 2012-11-16 |", "score": 0.624, "match_basis": "verbatim_token+global_search"}, {"md_atom_id": "md_dmRS_ex_a053", "md_file": "knowledge_base/domains/RS/examples.md", "md_atom_type": "TABLE_ROW", "md_parent_section": "§RS.2.1 [Example 1]", "md_verbatim": "| 3 | STUDYX | RS | P0001 | 3 | GCS0103 | GCS01-Verbal Response | GCS NINDS VERSION | Incomprehensible sound | 2 | 2 | Y | 1 | 2012-11-16 |", "score": 0.5852, "match_basis": "verbatim_token+global_search"}, {"md_atom_id": "md_dmRS_ex_a054", "md_file": "knowledge_base/domains/RS/examples.md", "md_atom_type": "TABLE_ROW", "md_parent_section": "§RS.2.1 [Example 1]", "md_verbatim": "| 4 | STUDYX | RS | P0001 | 4 | GCS0104 | GCS01-Total Score | GCS NINDS VERSION | 5 | 5 | 5 | Y | 1 | 2012-11-16 |", "score": 0.5571, "match_basis": "verbatim_token+global_search"}, {"md_atom_id": "md_dmRS_ex_a059", "md_file": "knowledge_base/domains/RS/examples.md", "md_atom_type": "TABLE_ROW", "md_parent_section": "§RS.2.1 [Example 1]", "md_verbatim": "| 9 | STUDYX | RS | P0001 | 9 | GCS0105E | GCS01-Confounder: Hypoxia/Hypotension | GCS NINDS VERSION | NOT CHECKED | NOT CHECKED | | Y | 1 | 2012-11-16 |", "score": 0.5215, "match_basis": "verbatim_token+global_search"}], "candidate_count": 5, "zero_candidate": false}
{"pdf_atom_id": "ig34_p0339_a011", "pdf_atom_type": "TABLE_ROW", "pdf_source": "SDTMIG_v3.4", "pdf_page": 339, "pdf_parent_section": "§6.3.9.3.2 Clinical Classifications Use Case", "pdf_verbatim": "| 3 | STUDYX | RS | P0001 | 3 | GCS0103 | GCS01-Verbal Response | GCS NINDS VERSION | Incomprehensible Sound | 2 | 2 | Y | 1 | 2012-11-16 |", "figure_ref": null, "candidates": [{"md_atom_id": "md_dmRS_ex_a053", "md_file": "knowledge_base/domains/RS/examples.md", "md_atom_type": "TABLE_ROW", "md_parent_section": "§RS.2.1 [Example 1]", "md_verbatim": "| 3 | STUDYX | RS | P0001 | 3 | GCS0103 | GCS01-Verbal Response | GCS NINDS VERSION | Incomprehensible sound | 2 | 2 | Y | 1 | 2012-11-16 |", "score": 0.9, "match_basis": "verbatim_token+global_search"}, {"md_atom_id": "md_dmRS_ex_a051", "md_file": "knowledge_base/domains/RS/examples.md", "md_atom_type": "TABLE_ROW", "md_parent_section": "§RS.2.1 [Example 1]", "md_verbatim": "| 1 | STUDYX | RS | P0001 | 1 | GCS0101 | GCS01-Best Eye Response | GCS NINDS VERSION | No eye opening | 1 | 1 | Y | 1 | 2012-11-16 |", "score": 0.5893, "match_basis": "verbatim_token+global_search"}, {"md_atom_id": "md_dmRS_ex_a052", "md_file": "knowledge_base/domains/RS/examples.md", "md_atom_type": "TABLE_ROW", "md_parent_section": "§RS.2.1 [Example 1]", "md_verbatim": "| 2 | STUDYX | RS | P0001 | 2 | GCS0102 | GCS01-Motor Response | GCS NINDS VERSION | Abnormal extension | 2 | 2 | Y | 1 | 2012-11-16 |", "score": 0.5852, "match_basis": "verbatim_token+global_search"}, {"md_atom_id": "md_dmRS_ex_a054", "md_file": "knowledge_base/domains/RS/examples.md", "md_atom_type": "TABLE_ROW", "md_parent_section": "§RS.2.1 [Example 1]", "md_verbatim": "| 4 | STUDYX | RS | P0001 | 4 | GCS0104 | GCS01-Total Score | GCS NINDS VERSION | 5 | 5 | 5 | Y | 1 | 2012-11-16 |", "score": 0.5291, "match_basis": "verbatim_token+global_search"}, {"md_atom_id": "md_dmRS_ex_a059", "md_file": "knowledge_base/domains/RS/examples.md", "md_atom_type": "TABLE_ROW", "md_parent_section": "§RS.2.1 [Example 1]", "md_verbatim": "| 9 | STUDYX | RS | P0001 | 9 | GCS0105E | GCS01-Confounder: Hypoxia/Hypotension | GCS NINDS VERSION | NOT CHECKED | NOT CHECKED | | Y | 1 | 2012-11-16 |", "score": 0.5143, "match_basis": "verbatim_token+global_search"}], "candidate_count": 5, "zero_candidate": false}
{"pdf_atom_id": "ig34_p0339_a012", "pdf_atom_type": "TABLE_ROW", "pdf_source": "SDTMIG_v3.4", "pdf_page": 339, "pdf_parent_section": "§6.3.9.3.2 Clinical Classifications Use Case", "pdf_verbatim": "| 4 | STUDYX | RS | P0001 | 4 | GCS0104 | GCS01-Total Score | GCS NINDS VERSION | 8 | 8 | 8 | Y | 1 | 2012-11-16 |", "figure_ref": null, "candidates": [{"md_atom_id": "md_dmRS_ex_a054", "md_file": "knowledge_base/domains/RS/examples.md", "md_atom_type": "TABLE_ROW", "md_parent_section": "§RS.2.1 [Example 1]", "md_verbatim": "| 4 | STUDYX | RS | P0001 | 4 | GCS0104 | GCS01-Total Score | GCS NINDS VERSION | 5 | 5 | 5 | Y | 1 | 2012-11-16 |", "score": 0.9, "match_basis": "verbatim_token+global_search"}, {"md_atom_id": "md_dmRS_ex_a051", "md_file": "knowledge_base/domains/RS/examples.md", "md_atom_type": "TABLE_ROW", "md_parent_section": "§RS.2.1 [Example 1]", "md_verbatim": "| 1 | STUDYX | RS | P0001 | 1 | GCS0101 | GCS01-Best Eye Response | GCS NINDS VERSION | No eye opening | 1 | 1 | Y | 1 | 2012-11-16 |", "score": 0.6, "match_basis": "verbatim_token+global_search"}, {"md_atom_id": "md_dmRS_ex_a052", "md_file": "knowledge_base/domains/RS/examples.md", "md_atom_type": "TABLE_ROW", "md_parent_section": "§RS.2.1 [Example 1]", "md_verbatim": "| 2 | STUDYX | RS | P0001 | 2 | GCS0102 | GCS01-Motor Response | GCS NINDS VERSION | Abnormal extension | 2 | 2 | Y | 1 | 2012-11-16 |", "score": 0.5571, "match_basis": "verbatim_token+global_search"}, {"md_atom_id": "md_dmRS_ex_a055", "md_file": "knowledge_base/domains/RS/examples.md", "md_atom_type": "TABLE_ROW", "md_parent_section": "§RS.2.1 [Example 1]", "md_verbatim": "| 5 | STUDYX | RS | P0001 | 5 | GCS0105A | GCS01-Confounder: GCS Accurate | GCS NINDS VERSION | CHECKED | CHECKED | | Y | 1 | 2012-11-16 |", "score": 0.5571, "match_basis": "verbatim_token+global_search"}, {"md_atom_id": "md_dmRS_ex_a061", "md_file": "knowledge_base/domains/RS/examples.md", "md_atom_type": "TABLE_ROW", "md_parent_section": "§RS.2.1 [Example 1]", "md_verbatim": "| 11 | STUDYX | RS | P0001 | 11 | GCS0105G | GCS01-Confounder: Sedation | GCS NINDS VERSION | NOT CHECKED | NOT CHECKED | | Y | 1 | 2012-11-16 |", "score": 0.5571, "match_basis": "verbatim_token+global_search"}], "candidate_count": 5, "zero_candidate": false}
{"pdf_atom_id": "ig34_p0339_a013", "pdf_atom_type": "TABLE_ROW", "pdf_source": "SDTMIG_v3.4", "pdf_page": 339, "pdf_parent_section": "§6.3.9.3.2 Clinical Classifications Use Case", "pdf_verbatim": "| 5 | STUDYX | RS | P0001 | 5 | GCS0105A | GCS01-Confounder: GCS Accurate | GCS NINDS VERSION | CHECKED | CHECKED | | Y | 1 | 2012-11-16 |", "figure_ref": null, "candidates": [{"md_atom_id": "md_dmRS_ex_a055", "md_file": "knowledge_base/domains/RS/examples.md", "md_atom_type": "TABLE_ROW", "md_parent_section": "§RS.2.1 [Example 1]", "md_verbatim": "| 5 | STUDYX | RS | P0001 | 5 | GCS0105A | GCS01-Confounder: GCS Accurate | GCS NINDS VERSION | CHECKED | CHECKED | | Y | 1 | 2012-11-16 |", "score": 0.9, "match_basis": "verbatim_token+global_search"}, {"md_atom_id": "md_dmRS_ex_a061", "md_file": "knowledge_base/domains/RS/examples.md", "md_atom_type": "TABLE_ROW", "md_parent_section": "§RS.2.1 [Example 1]", "md_verbatim": "| 11 | STUDYX | RS | P0001 | 11 | GCS0105G | GCS01-Confounder: Sedation | GCS NINDS VERSION | NOT CHECKED | NOT CHECKED | | Y | 1 | 2012-11-16 |", "score": 0.7286, "match_basis": "verbatim_token+global_search"}, {"md_atom_id": "md_dmRS_ex_a062", "md_file": "knowledge_base/domains/RS/examples.md", "md_atom_type": "TABLE_ROW", "md_parent_section": "§RS.2.1 [Example 1]", "md_verbatim": "| 12 | STUDYX | RS | P0001 | 12 | GCS0105H | GCS01-Confounder: Unknown | GCS NINDS VERSION | NOT CHECKED | NOT CHECKED | | Y | 1 | 2012-11-16 |", "score": 0.7286, "match_basis": "verbatim_token+global_search"}, {"md_atom_id": "md_dmRS_ex_a056", "md_file": "knowledge_base/domains/RS/examples.md", "md_atom_type": "TABLE_ROW", "md_parent_section": "§RS.2.1 [Example 1]", "md_verbatim": "| 6 | STUDYX | RS | P0001 | 6 | GCS0105B | GCS01-Confounder: Paralytic | GCS NINDS VERSION | CHECKED | CHECKED | | Y | 1 | 2012-11-16 |", "score": 0.72, "match_basis": "verbatim_token+global_search"}, {"md_atom_id": "md_dmRS_ex_a058", "md_file": "knowledge_base/domains/RS/examples.md", "md_atom_type": "TABLE_ROW", "md_parent_section": "§RS.2.1 [Example 1]", "md_verbatim": "| 8 | STUDYX | RS | P0001 | 8 | GCS0105D | GCS01-Confounder: C-Spine Injury | GCS NINDS VERSION | NOT CHECKED | NOT CHECKED | | Y | 1 | 2012-11-16 |", "score": 0.7118, "match_basis": "verbatim_token+global_search"}], "candidate_count": 5, "zero_candidate": false}
{"pdf_atom_id": "ig34_p0339_a014", "pdf_atom_type": "TABLE_ROW", "pdf_source": "SDTMIG_v3.4", "pdf_page": 339, "pdf_parent_section": "§6.3.9.3.2 Clinical Classifications Use Case", "pdf_verbatim": "| 6 | STUDYX | RS | P0001 | 6 | GCS0105B | GCS01-Confounder: Paralytic | GCS NINDS VERSION | CHECKED | CHECKED | | Y | 1 | 2012-11-16 |", "figure_ref": null, "candidates": [{"md_atom_id": "md_dmRS_ex_a056", "md_file": "knowledge_base/domains/RS/examples.md", "md_atom_type": "TABLE_ROW", "md_parent_section": "§RS.2.1 [Example 1]", "md_verbatim": "| 6 | STUDYX | RS | P0001 | 6 | GCS0105B | GCS01-Confounder: Paralytic | GCS NINDS VERSION | CHECKED | CHECKED | | Y | 1 | 2012-11-16 |", "score": 0.9, "match_basis": "verbatim_token+global_search"}, {"md_atom_id": "md_dmRS_ex_a055", "md_file": "knowledge_base/domains/RS/examples.md", "md_atom_type": "TABLE_ROW", "md_parent_section": "§RS.2.1 [Example 1]", "md_verbatim": "| 5 | STUDYX | RS | P0001 | 5 | GCS0105A | GCS01-Confounder: GCS Accurate | GCS NINDS VERSION | CHECKED | CHECKED | | Y | 1 | 2012-11-16 |", "score": 0.72, "match_basis": "verbatim_token+global_search"}, {"md_atom_id": "md_dmRS_ex_a061", "md_file": "knowledge_base/domains/RS/examples.md", "md_atom_type": "TABLE_ROW", "md_parent_section": "§RS.2.1 [Example 1]", "md_verbatim": "| 11 | STUDYX | RS | P0001 | 11 | GCS0105G | GCS01-Confounder: Sedation | GCS NINDS VERSION | NOT CHECKED | NOT CHECKED | | Y | 1 | 2012-11-16 |", "score": 0.72, "match_basis": "verbatim_token+global_search"}, {"md_atom_id": "md_dmRS_ex_a062", "md_file": "knowledge_base/domains/RS/examples.md", "md_atom_type": "TABLE_ROW", "md_parent_section": "§RS.2.1 [Example 1]", "md_verbatim": "| 12 | STUDYX | RS | P0001 | 12 | GCS0105H | GCS01-Confounder: Unknown | GCS NINDS VERSION | NOT CHECKED | NOT CHECKED | | Y | 1 | 2012-11-16 |", "score": 0.72, "match_basis": "verbatim_token+global_search"}, {"md_atom_id": "md_dmRS_ex_a058", "md_file": "knowledge_base/domains/RS/examples.md", "md_atom_type": "TABLE_ROW", "md_parent_section": "§RS.2.1 [Example 1]", "md_verbatim": "| 8 | STUDYX | RS | P0001 | 8 | GCS0105D | GCS01-Confounder: C-Spine Injury | GCS NINDS VERSION | NOT CHECKED | NOT CHECKED | | Y | 1 | 2012-11-16 |", "score": 0.7038, "match_basis": "verbatim_token+global_search"}], "candidate_count": 5, "zero_candidate": false}
{"pdf_atom_id": "ig34_p0339_a015", "pdf_atom_type": "TABLE_ROW", "pdf_source": "SDTMIG_v3.4", "pdf_page": 339, "pdf_parent_section": "§6.3.9.3.2 Clinical Classifications Use Case", "pdf_verbatim": "| 7 | STUDYX | RS | P0001 | 7 | GCS0105C | GCS01-Confounder: Drug of Abuse | GCS NINDS VERSION | NOT CHECKED | NOT CHECKED | | Y | 1 | 2012-11-16 |", "figure_ref": null, "candidates": [{"md_atom_id": "md_dmRS_ex_a057", "md_file": "knowledge_base/domains/RS/examples.md", "md_atom_type": "TABLE_ROW", "md_parent_section": "§RS.2.1 [Example 1]", "md_verbatim": "| 7 | STUDYX | RS | P0001 | 7 | GCS0105C | GCS01-Confounder: Alcohol/Drug of Abuse | GCS NINDS VERSION | NOT CHECKED | NOT CHECKED | | Y | 1 | 2012-11-16 |", "score": 0.8362, "match_basis": "verbatim_token+global_search"}, {"md_atom_id": "md_dmRS_ex_a061", "md_file": "knowledge_base/domains/RS/examples.md", "md_atom_type": "TABLE_ROW", "md_parent_section": "§RS.2.1 [Example 1]", "md_verbatim": "| 11 | STUDYX | RS | P0001 | 11 | GCS0105G | GCS01-Confounder: Sedation | GCS NINDS VERSION | NOT CHECKED | NOT CHECKED | | Y | 1 | 2012-11-16 |", "score": 0.75, "match_basis": "verbatim_token+global_search"}, {"md_atom_id": "md_dmRS_ex_a062", "md_file": "knowledge_base/domains/RS/examples.md", "md_atom_type": "TABLE_ROW", "md_parent_section": "§RS.2.1 [Example 1]", "md_verbatim": "| 12 | STUDYX | RS | P0001 | 12 | GCS0105H | GCS01-Confounder: Unknown | GCS NINDS VERSION | NOT CHECKED | NOT CHECKED | | Y | 1 | 2012-11-16 |", "score": 0.75, "match_basis": "verbatim_token+global_search"}, {"md_atom_id": "md_dmRS_ex_a058", "md_file": "knowledge_base/domains/RS/examples.md", "md_atom_type": "TABLE_ROW", "md_parent_section": "§RS.2.1 [Example 1]", "md_verbatim": "| 8 | STUDYX | RS | P0001 | 8 | GCS0105D | GCS01-Confounder: C-Spine Injury | GCS NINDS VERSION | NOT CHECKED | NOT CHECKED | | Y | 1 | 2012-11-16 |", "score": 0.732, "match_basis": "verbatim_token+global_search"}, {"md_atom_id": "md_dmRS_ex_a055", "md_file": "knowledge_base/domains/RS/examples.md", "md_atom_type": "TABLE_ROW", "md_parent_section": "§RS.2.1 [Example 1]", "md_verbatim": "| 5 | STUDYX | RS | P0001 | 5 | GCS0105A | GCS01-Confounder: GCS Accurate | GCS NINDS VERSION | CHECKED | CHECKED | | Y | 1 | 2012-11-16 |", "score": 0.7286, "match_basis": "verbatim_token+global_search"}], "candidate_count": 5, "zero_candidate": false}
{"pdf_atom_id": "ig34_p0339_a016", "pdf_atom_type": "TABLE_ROW", "pdf_source": "SDTMIG_v3.4", "pdf_page": 339, "pdf_parent_section": "§6.3.9.3.2 Clinical Classifications Use Case", "pdf_verbatim": "| 8 | STUDYX | RS | P0001 | 8 | GCS0105D | GCS01-Confounder: G-Spine Injury | GCS NINDS VERSION | NOT CHECKED | NOT CHECKED | | Y | 1 | 2012-11-16 |", "figure_ref": null, "candidates": [{"md_atom_id": "md_dmRS_ex_a058", "md_file": "knowledge_base/domains/RS/examples.md", "md_atom_type": "TABLE_ROW", "md_parent_section": "§RS.2.1 [Example 1]", "md_verbatim": "| 8 | STUDYX | RS | P0001 | 8 | GCS0105D | GCS01-Confounder: C-Spine Injury | GCS NINDS VERSION | NOT CHECKED | NOT CHECKED | | Y | 1 | 2012-11-16 |", "score": 0.9, "match_basis": "verbatim_token+global_search"}, {"md_atom_id": "md_dmRS_ex_a061", "md_file": "knowledge_base/domains/RS/examples.md", "md_atom_type": "TABLE_ROW", "md_parent_section": "§RS.2.1 [Example 1]", "md_verbatim": "| 11 | STUDYX | RS | P0001 | 11 | GCS0105G | GCS01-Confounder: Sedation | GCS NINDS VERSION | NOT CHECKED | NOT CHECKED | | Y | 1 | 2012-11-16 |", "score": 0.732, "match_basis": "verbatim_token+global_search"}, {"md_atom_id": "md_dmRS_ex_a062", "md_file": "knowledge_base/domains/RS/examples.md", "md_atom_type": "TABLE_ROW", "md_parent_section": "§RS.2.1 [Example 1]", "md_verbatim": "| 12 | STUDYX | RS | P0001 | 12 | GCS0105H | GCS01-Confounder: Unknown | GCS NINDS VERSION | NOT CHECKED | NOT CHECKED | | Y | 1 | 2012-11-16 |", "score": 0.732, "match_basis": "verbatim_token+global_search"}, {"md_atom_id": "md_dmRS_ex_a055", "md_file": "knowledge_base/domains/RS/examples.md", "md_atom_type": "TABLE_ROW", "md_parent_section": "§RS.2.1 [Example 1]", "md_verbatim": "| 5 | STUDYX | RS | P0001 | 5 | GCS0105A | GCS01-Confounder: GCS Accurate | GCS NINDS VERSION | CHECKED | CHECKED | | Y | 1 | 2012-11-16 |", "score": 0.7118, "match_basis": "verbatim_token+global_search"}, {"md_atom_id": "md_dmRS_ex_a056", "md_file": "knowledge_base/domains/RS/examples.md", "md_atom_type": "TABLE_ROW", "md_parent_section": "§RS.2.1 [Example 1]", "md_verbatim": "| 6 | STUDYX | RS | P0001 | 6 | GCS0105B | GCS01-Confounder: Paralytic | GCS NINDS VERSION | CHECKED | CHECKED | | Y | 1 | 2012-11-16 |", "score": 0.7038, "match_basis": "verbatim_token+global_search"}], "candidate_count": 5, "zero_candidate": false}
{"pdf_atom_id": "ig34_p0339_a017", "pdf_atom_type": "TABLE_ROW", "pdf_source": "SDTMIG_v3.4", "pdf_page": 339, "pdf_parent_section": "§6.3.9.3.2 Clinical Classifications Use Case", "pdf_verbatim": "| 9 | STUDYX | RS | P0001 | 9 | GCS0105E | GCS01-Confounder: Hypoxia/Hypotension | GCS NINDS VERSION | NOT CHECKED | NOT CHECKED | | Y | 1 | 2012-11-16 |", "figure_ref": null, "candidates": [{"md_atom_id": "md_dmRS_ex_a059", "md_file": "knowledge_base/domains/RS/examples.md", "md_atom_type": "TABLE_ROW", "md_parent_section": "§RS.2.1 [Example 1]", "md_verbatim": "| 9 | STUDYX | RS | P0001 | 9 | GCS0105E | GCS01-Confounder: Hypoxia/Hypotension | GCS NINDS VERSION | NOT CHECKED | NOT CHECKED | | Y | 1 | 2012-11-16 |", "score": 0.9, "match_basis": "verbatim_token+global_search"}, {"md_atom_id": "md_dmRS_ex_a060", "md_file": "knowledge_base/domains/RS/examples.md", "md_atom_type": "TABLE_ROW", "md_parent_section": "§RS.2.1 [Example 1]", "md_verbatim": "| 10 | STUDYX | RS | P0001 | 10 | GCS0105F | GCS01-Confounder: Hypothermia | GCS NINDS VERSION | NOT CHECKED | NOT CHECKED | | Y | 1 | 2012-11-16 |", "score": 0.7333, "match_basis": "verbatim_token+global_search"}, {"md_atom_id": "md_dmRS_ex_a061", "md_file": "knowledge_base/domains/RS/examples.md", "md_atom_type": "TABLE_ROW", "md_parent_section": "§RS.2.1 [Example 1]", "md_verbatim": "| 11 | STUDYX | RS | P0001 | 11 | GCS0105G | GCS01-Confounder: Sedation | GCS NINDS VERSION | NOT CHECKED | NOT CHECKED | | Y | 1 | 2012-11-16 |", "score": 0.7075, "match_basis": "verbatim_token+global_search"}, {"md_atom_id": "md_dmRS_ex_a062", "md_file": "knowledge_base/domains/RS/examples.md", "md_atom_type": "TABLE_ROW", "md_parent_section": "§RS.2.1 [Example 1]", "md_verbatim": "| 12 | STUDYX | RS | P0001 | 12 | GCS0105H | GCS01-Confounder: Unknown | GCS NINDS VERSION | NOT CHECKED | NOT CHECKED | | Y | 1 | 2012-11-16 |", "score": 0.7075, "match_basis": "verbatim_token+global_search"}, {"md_atom_id": "md_dmRS_ex_a058", "md_file": "knowledge_base/domains/RS/examples.md", "md_atom_type": "TABLE_ROW", "md_parent_section": "§RS.2.1 [Example 1]", "md_verbatim": "| 8 | STUDYX | RS | P0001 | 8 | GCS0105D | GCS01-Confounder: C-Spine Injury | GCS NINDS VERSION | NOT CHECKED | NOT CHECKED | | Y | 1 | 2012-11-16 |", "score": 0.6927, "match_basis": "verbatim_token+global_search"}], "candidate_count": 5, "zero_candidate": false}
{"pdf_atom_id": "ig34_p0339_a018", "pdf_atom_type": "TABLE_ROW", "pdf_source": "SDTMIG_v3.4", "pdf_page": 339, "pdf_parent_section": "§6.3.9.3.2 Clinical Classifications Use Case", "pdf_verbatim": "| 10 | STUDYX | RS | P0001 | 10 | GCS0105F | GCS01-Confounder: Hypothermia | GCS NINDS VERSION | NOT CHECKED | NOT CHECKED | | Y | 1 | 2012-11-16 |", "figure_ref": null, "candidates": [{"md_atom_id": "md_dmRS_ex_a060", "md_file": "knowledge_base/domains/RS/examples.md", "md_atom_type": "TABLE_ROW", "md_parent_section": "§RS.2.1 [Example 1]", "md_verbatim": "| 10 | STUDYX | RS | P0001 | 10 | GCS0105F | GCS01-Confounder: Hypothermia | GCS NINDS VERSION | NOT CHECKED | NOT CHECKED | | Y | 1 | 2012-11-16 |", "score": 0.9, "match_basis": "verbatim_token+global_search"}, {"md_atom_id": "md_dmRS_ex_a059", "md_file": "knowledge_base/domains/RS/examples.md", "md_atom_type": "TABLE_ROW", "md_parent_section": "§RS.2.1 [Example 1]", "md_verbatim": "| 9 | STUDYX | RS | P0001 | 9 | GCS0105E | GCS01-Confounder: Hypoxia/Hypotension | GCS NINDS VERSION | NOT CHECKED | NOT CHECKED | | Y | 1 | 2012-11-16 |", "score": 0.7333, "match_basis": "verbatim_token+global_search"}, {"md_atom_id": "md_dmRS_ex_a061", "md_file": "knowledge_base/domains/RS/examples.md", "md_atom_type": "TABLE_ROW", "md_parent_section": "§RS.2.1 [Example 1]", "md_verbatim": "| 11 | STUDYX | RS | P0001 | 11 | GCS0105G | GCS01-Confounder: Sedation | GCS NINDS VERSION | NOT CHECKED | NOT CHECKED | | Y | 1 | 2012-11-16 |", "score": 0.7154, "match_basis": "verbatim_token+global_search"}, {"md_atom_id": "md_dmRS_ex_a062", "md_file": "knowledge_base/domains/RS/examples.md", "md_atom_type": "TABLE_ROW", "md_parent_section": "§RS.2.1 [Example 1]", "md_verbatim": "| 12 | STUDYX | RS | P0001 | 12 | GCS0105H | GCS01-Confounder: Unknown | GCS NINDS VERSION | NOT CHECKED | NOT CHECKED | | Y | 1 | 2012-11-16 |", "score": 0.7154, "match_basis": "verbatim_token+global_search"}, {"md_atom_id": "md_dmRS_ex_a058", "md_file": "knowledge_base/domains/RS/examples.md", "md_atom_type": "TABLE_ROW", "md_parent_section": "§RS.2.1 [Example 1]", "md_verbatim": "| 8 | STUDYX | RS | P0001 | 8 | GCS0105D | GCS01-Confounder: C-Spine Injury | GCS NINDS VERSION | NOT CHECKED | NOT CHECKED | | Y | 1 | 2012-11-16 |", "score": 0.7, "match_basis": "verbatim_token+global_search"}], "candidate_count": 5, "zero_candidate": false}
{"pdf_atom_id": "ig34_p0339_a019", "pdf_atom_type": "TABLE_ROW", "pdf_source": "SDTMIG_v3.4", "pdf_page": 339, "pdf_parent_section": "§6.3.9.3.2 Clinical Classifications Use Case", "pdf_verbatim": "| 11 | STUDYX | RS | P0001 | 11 | GCS0105G | GCS01-Confounder: Sedation | GCS NINDS VERSION | NOT CHECKED | NOT CHECKED | | Y | 1 | 2012-11-16 |", "figure_ref": null, "candidates": [{"md_atom_id": "md_dmRS_ex_a061", "md_file": "knowledge_base/domains/RS/examples.md", "md_atom_type": "TABLE_ROW", "md_parent_section": "§RS.2.1 [Example 1]", "md_verbatim": "| 11 | STUDYX | RS | P0001 | 11 | GCS0105G | GCS01-Confounder: Sedation | GCS NINDS VERSION | NOT CHECKED | NOT CHECKED | | Y | 1 | 2012-11-16 |", "score": 0.9, "match_basis": "verbatim_token+global_search"}, {"md_atom_id": "md_dmRS_ex_a062", "md_file": "knowledge_base/domains/RS/examples.md", "md_atom_type": "TABLE_ROW", "md_parent_section": "§RS.2.1 [Example 1]", "md_verbatim": "| 12 | STUDYX | RS | P0001 | 12 | GCS0105H | GCS01-Confounder: Unknown | GCS NINDS VERSION | NOT CHECKED | NOT CHECKED | | Y | 1 | 2012-11-16 |", "score": 0.75, "match_basis": "verbatim_token+global_search"}, {"md_atom_id": "md_dmRS_ex_a058", "md_file": "knowledge_base/domains/RS/examples.md", "md_atom_type": "TABLE_ROW", "md_parent_section": "§RS.2.1 [Example 1]", "md_verbatim": "| 8 | STUDYX | RS | P0001 | 8 | GCS0105D | GCS01-Confounder: C-Spine Injury | GCS NINDS VERSION | NOT CHECKED | NOT CHECKED | | Y | 1 | 2012-11-16 |", "score": 0.732, "match_basis": "verbatim_token+global_search"}, {"md_atom_id": "md_dmRS_ex_a055", "md_file": "knowledge_base/domains/RS/examples.md", "md_atom_type": "TABLE_ROW", "md_parent_section": "§RS.2.1 [Example 1]", "md_verbatim": "| 5 | STUDYX | RS | P0001 | 5 | GCS0105A | GCS01-Confounder: GCS Accurate | GCS NINDS VERSION | CHECKED | CHECKED | | Y | 1 | 2012-11-16 |", "score": 0.7286, "match_basis": "verbatim_token+global_search"}, {"md_atom_id": "md_dmRS_ex_a056", "md_file": "knowledge_base/domains/RS/examples.md", "md_atom_type": "TABLE_ROW", "md_parent_section": "§RS.2.1 [Example 1]", "md_verbatim": "| 6 | STUDYX | RS | P0001 | 6 | GCS0105B | GCS01-Confounder: Paralytic | GCS NINDS VERSION | CHECKED | CHECKED | | Y | 1 | 2012-11-16 |", "score": 0.72, "match_basis": "verbatim_token+global_search"}], "candidate_count": 5, "zero_candidate": false}
{"pdf_atom_id": "ig34_p0339_a020", "pdf_atom_type": "TABLE_ROW", "pdf_source": "SDTMIG_v3.4", "pdf_page": 339, "pdf_parent_section": "§6.3.9.3.2 Clinical Classifications Use Case", "pdf_verbatim": "| 12 | STUDYX | RS | P0001 | 12 | GCS0105H | GCS01-Confounder: Unknown | GCS NINDS VERSION | NOT CHECKED | NOT CHECKED | | Y | 1 | 2012-11-16 |", "figure_ref": null, "candidates": [{"md_atom_id": "md_dmRS_ex_a062", "md_file": "knowledge_base/domains/RS/examples.md", "md_atom_type": "TABLE_ROW", "md_parent_section": "§RS.2.1 [Example 1]", "md_verbatim": "| 12 | STUDYX | RS | P0001 | 12 | GCS0105H | GCS01-Confounder: Unknown | GCS NINDS VERSION | NOT CHECKED | NOT CHECKED | | Y | 1 | 2012-11-16 |", "score": 0.9, "match_basis": "verbatim_token+global_search"}, {"md_atom_id": "md_dmRS_ex_a061", "md_file": "knowledge_base/domains/RS/examples.md", "md_atom_type": "TABLE_ROW", "md_parent_section": "§RS.2.1 [Example 1]", "md_verbatim": "| 11 | STUDYX | RS | P0001 | 11 | GCS0105G | GCS01-Confounder: Sedation | GCS NINDS VERSION | NOT CHECKED | NOT CHECKED | | Y | 1 | 2012-11-16 |", "score": 0.75, "match_basis": "verbatim_token+global_search"}, {"md_atom_id": "md_dmRS_ex_a058", "md_file": "knowledge_base/domains/RS/examples.md", "md_atom_type": "TABLE_ROW", "md_parent_section": "§RS.2.1 [Example 1]", "md_verbatim": "| 8 | STUDYX | RS | P0001 | 8 | GCS0105D | GCS01-Confounder: C-Spine Injury | GCS NINDS VERSION | NOT CHECKED | NOT CHECKED | | Y | 1 | 2012-11-16 |", "score": 0.732, "match_basis": "verbatim_token+global_search"}, {"md_atom_id": "md_dmRS_ex_a055", "md_file": "knowledge_base/domains/RS/examples.md", "md_atom_type": "TABLE_ROW", "md_parent_section": "§RS.2.1 [Example 1]", "md_verbatim": "| 5 | STUDYX | RS | P0001 | 5 | GCS0105A | GCS01-Confounder: GCS Accurate | GCS NINDS VERSION | CHECKED | CHECKED | | Y | 1 | 2012-11-16 |", "score": 0.7286, "match_basis": "verbatim_token+global_search"}, {"md_atom_id": "md_dmRS_ex_a056", "md_file": "knowledge_base/domains/RS/examples.md", "md_atom_type": "TABLE_ROW", "md_parent_section": "§RS.2.1 [Example 1]", "md_verbatim": "| 6 | STUDYX | RS | P0001 | 6 | GCS0105B | GCS01-Confounder: Paralytic | GCS NINDS VERSION | CHECKED | CHECKED | | Y | 1 | 2012-11-16 |", "score": 0.72, "match_basis": "verbatim_token+global_search"}], "candidate_count": 5, "zero_candidate": false}
{"pdf_atom_id": "ig34_p0339_a021", "pdf_atom_type": "HEADING", "pdf_source": "SDTMIG_v3.4", "pdf_page": 339, "pdf_parent_section": "§6.3 [MODELS FOR FINDINGS DOMAINS]", "pdf_verbatim": "§6.3.10 Subject Characteristics (SC)", "figure_ref": null, "candidates": [{"md_atom_id": "md_varindex_a1366", "md_file": "knowledge_base/VARIABLE_INDEX.md", "md_atom_type": "HEADING", "md_parent_section": "§ 二、领域专属变量（仅 1 个域，共 1499 个），按域分组", "md_verbatim": "### SC — Subject Characteristics (Findings)", "score": 0.75, "match_basis": "verbatim_token+global_search"}, {"md_atom_id": "md_model05_a145", "md_file": "knowledge_base/model/05_study_level_data.md", "md_atom_type": "HEADING", "md_parent_section": "§ Challenge Agent Characterization (AC)", "md_verbatim": "### Challenge Agent Characterization (AC)", "score": 0.4455, "match_basis": "verbatim_token+global_search"}, {"md_atom_id": "md_ch04_a894", "md_file": "knowledge_base/chapters/ch04_general_assumptions.md", "md_atom_type": "HEADING", "md_parent_section": "§4.5.3 [Text Strings that Exceed the Maximum Length for General Observation-class Domain Variables]", "md_verbatim": "#### 4.5.3.1 Test Name (--TEST) Greater than 40 Characters", "score": 0.4448, "match_basis": "verbatim_token+global_search"}, {"md_atom_id": "md_model03_a123", "md_file": "knowledge_base/model/03_special_purpose_domains.md", "md_atom_type": "HEADING", "md_parent_section": "§ Subject Visits (SV)", "md_verbatim": "## Subject Visits (SV)", "score": 0.4364, "match_basis": "verbatim_token+global_search"}, {"md_atom_id": "md_ch04_a192", "md_file": "knowledge_base/chapters/ch04_general_assumptions.md", "md_atom_type": "HEADING", "md_parent_section": "§4.2 [General Variable Assumptions]", "md_verbatim": "### 4.2.2 Two-character Domain Identifier", "score": 0.4355, "match_basis": "verbatim_token+global_search"}], "candidate_count": 5, "zero_candidate": false}
{"pdf_atom_id": "ig34_p0339_a022", "pdf_atom_type": "HEADING", "pdf_source": "SDTMIG_v3.4", "pdf_page": 339, "pdf_parent_section": "§6.3.10 Subject Characteristics (SC)", "pdf_verbatim": "SC – Description/Overview", "figure_ref": null, "candidates": [{"md_atom_id": "md_dmSC_assn_a001", "md_file": "knowledge_base/domains/SC/assumptions.md", "md_atom_type": "HEADING", "md_parent_section": "§SC [SC — Assumptions]", "md_verbatim": "# SC — Assumptions", "score": 0.4857, "match_basis": "verbatim_token+domain_route:SC"}, {"md_atom_id": "md_dmSC_ex_a001", "md_file": "knowledge_base/domains/SC/examples.md", "md_atom_type": "HEADING", "md_parent_section": "§SC [SC — Examples]", "md_verbatim": "# SC — Examples", "score": 0.4, "match_basis": "verbatim_token+domain_route:SC"}, {"md_atom_id": "md_dmSC_ex_a002", "md_file": "knowledge_base/domains/SC/examples.md", "md_atom_type": "HEADING", "md_parent_section": "§SC [SC — Examples]", "md_verbatim": "## Example 1", "score": 0.4, "match_basis": "verbatim_token+domain_route:SC"}, {"md_atom_id": "md_dmSC_ex_a014", "md_file": "knowledge_base/domains/SC/examples.md", "md_atom_type": "HEADING", "md_parent_section": "§SC [SC — Examples]", "md_verbatim": "## Example 2", "score": 0.4, "match_basis": "verbatim_token+domain_route:SC"}, {"md_atom_id": "md_dmSC_ex_a023", "md_file": "knowledge_base/domains/SC/examples.md", "md_atom_type": "HEADING", "md_parent_section": "§SC [SC — Examples]", "md_verbatim": "## Example 3", "score": 0.4, "match_basis": "verbatim_token+domain_route:SC"}], "candidate_count": 5, "zero_candidate": false}
{"pdf_atom_id": "ig34_p0339_a023", "pdf_atom_type": "SENTENCE", "pdf_source": "SDTMIG_v3.4", "pdf_page": 339, "pdf_parent_section": "§6.3.10 Subject Characteristics (SC)", "pdf_verbatim": "A findings domain that contains subject-related data not collected in other domains.", "figure_ref": null, "candidates": [{"md_atom_id": "md_dmSC_ex_a003", "md_file": "knowledge_base/domains/SC/examples.md", "md_atom_type": "SENTENCE", "md_parent_section": "§SC.1 [Example 1]", "md_verbatim": "This example shows data collected once per subject that does not fit into the Demographics (DM) domain. For this example, national origin and marital status were collected.", "score": 0.5416, "match_basis": "verbatim_token+domain_route:SC"}, {"md_atom_id": "md_dmSC_ex_a024", "md_file": "knowledge_base/domains/SC/examples.md", "md_atom_type": "SENTENCE", "md_parent_section": "§SC.3 [Example 3]", "md_verbatim": "This example shows data from a multi-year study in which marital status and whether the subject was a student were collected annually.", "score": 0.5047, "match_basis": "verbatim_token+domain_route:SC"}, {"md_atom_id": "md_dmSC_ex_a015", "md_file": "knowledge_base/domains/SC/examples.md", "md_atom_type": "SENTENCE", "md_parent_section": "§SC.2 [Example 2]", "md_verbatim": "In this example, only infants were study subjects. However, with the possible exception of USUBJID values, the example would be unchanged for a study in which mothers were study subjects. If these data were collected for an infant who was an associated person, they would be represented in the APSC domain and the dataset would include APID, RSUBJID, and SREL, rather than USUBJID.", "score": 0.4993, "match_basis": "verbatim_token+domain_route:SC"}, {"md_atom_id": "md_dmSC_ex_a017", "md_file": "knowledge_base/domains/SC/examples.md", "md_atom_type": "SENTENCE", "md_parent_section": "§SC.2 [Example 2]", "md_verbatim": "Gestational age is often expressed (and sometimes collected) in weeks and days. SDTM does not support the recording of an individual finding result with mixed units (e.g., \"20 weeks and 5 days\"), so the gestational age would be converted to days for representation in SDTM.", "score": 0.4828, "match_basis": "verbatim_token+domain_route:SC"}, {"md_atom_id": "md_dmSC_ex_a016", "md_file": "knowledge_base/domains/SC/examples.md", "md_atom_type": "SENTENCE", "md_parent_section": "§SC.2 [Example 2]", "md_verbatim": "Although there is a test for gestational age in the CDISC Controlled Terminology for Reproductive Findings, gestational age is an attribute of the fetus or infant, and is not a finding about their reproductive system; in this example, gestational age is represented in the Subject Characteristics (SC) domain. The structure of the SC domain formerly was 1 record per characteristic (test) per subject, but with this version of the SDTMIG the structure has changed to allow multiple records per test. This example shows multiple estimates of gestational age for the same subject. Not all of the values of METHOD shown in this example are currently in the METHOD codelist.", "score": 0.475, "match_basis": "verbatim_token+domain_route:SC"}], "candidate_count": 5, "zero_candidate": false}
{"pdf_atom_id": "ig34_p0340_a001", "pdf_atom_type": "HEADING", "pdf_source": "SDTMIG_v3.4", "pdf_page": 340, "pdf_parent_section": "§6.3.10 Subject Characteristics (SC)", "pdf_verbatim": "SC – Specification", "figure_ref": null, "candidates": [{"md_atom_id": "md_dmSC_assn_a001", "md_file": "knowledge_base/domains/SC/assumptions.md", "md_atom_type": "HEADING", "md_parent_section": "§SC [SC — Assumptions]", "md_verbatim": "# SC — Assumptions", "score": 0.4667, "match_basis": "verbatim_token+domain_route:SC"}, {"md_atom_id": "md_dmSC_ex_a001", "md_file": "knowledge_base/domains/SC/examples.md", "md_atom_type": "HEADING", "md_parent_section": "§SC [SC — Examples]", "md_verbatim": "# SC — Examples", "score": 0.4, "match_basis": "verbatim_token+domain_route:SC"}, {"md_atom_id": "md_dmSC_ex_a002", "md_file": "knowledge_base/domains/SC/examples.md", "md_atom_type": "HEADING", "md_parent_section": "§SC [SC — Examples]", "md_verbatim": "## Example 1", "score": 0.4, "match_basis": "verbatim_token+domain_route:SC"}, {"md_atom_id": "md_dmSC_ex_a014", "md_file": "knowledge_base/domains/SC/examples.md", "md_atom_type": "HEADING", "md_parent_section": "§SC [SC — Examples]", "md_verbatim": "## Example 2", "score": 0.4, "match_basis": "verbatim_token+domain_route:SC"}, {"md_atom_id": "md_dmSC_ex_a023", "md_file": "knowledge_base/domains/SC/examples.md", "md_atom_type": "HEADING", "md_parent_section": "§SC [SC — Examples]", "md_verbatim": "## Example 3", "score": 0.4, "match_basis": "verbatim_token+domain_route:SC"}], "candidate_count": 5, "zero_candidate": false}
{"pdf_atom_id": "ig34_p0340_a002", "pdf_atom_type": "SENTENCE", "pdf_source": "SDTMIG_v3.4", "pdf_page": 340, "pdf_parent_section": "§6.3.10 Subject Characteristics (SC)", "pdf_verbatim": "sc.xpt, Subject Characteristics — Findings. One record per characteristic per visit per subject., Tabulation.", "figure_ref": null, "candidates": [{"md_atom_id": "md_dmSC_ex_a016", "md_file": "knowledge_base/domains/SC/examples.md", "md_atom_type": "SENTENCE", "md_parent_section": "§SC.2 [Example 2]", "md_verbatim": "Although there is a test for gestational age in the CDISC Controlled Terminology for Reproductive Findings, gestational age is an attribute of the fetus or infant, and is not a finding about their reproductive system; in this example, gestational age is represented in the Subject Characteristics (SC) domain. The structure of the SC domain formerly was 1 record per characteristic (test) per subject, but with this version of the SDTMIG the structure has changed to allow multiple records per test. This example shows multiple estimates of gestational age for the same subject. Not all of the values of METHOD shown in this example are currently in the METHOD codelist.", "score": 0.4975, "match_basis": "verbatim_token+domain_route:SC"}, {"md_atom_id": "md_dmSC_ex_a017", "md_file": "knowledge_base/domains/SC/examples.md", "md_atom_type": "SENTENCE", "md_parent_section": "§SC.2 [Example 2]", "md_verbatim": "Gestational age is often expressed (and sometimes collected) in weeks and days. SDTM does not support the recording of an individual finding result with mixed units (e.g., \"20 weeks and 5 days\"), so the gestational age would be converted to days for representation in SDTM.", "score": 0.4689, "match_basis": "verbatim_token+domain_route:SC"}, {"md_atom_id": "md_dmSC_ex_a003", "md_file": "knowledge_base/domains/SC/examples.md", "md_atom_type": "SENTENCE", "md_parent_section": "§SC.1 [Example 1]", "md_verbatim": "This example shows data collected once per subject that does not fit into the Demographics (DM) domain. For this example, national origin and marital status were collected.", "score": 0.4641, "match_basis": "verbatim_token+domain_route:SC"}, {"md_atom_id": "md_dmSC_ex_a015", "md_file": "knowledge_base/domains/SC/examples.md", "md_atom_type": "SENTENCE", "md_parent_section": "§SC.2 [Example 2]", "md_verbatim": "In this example, only infants were study subjects. However, with the possible exception of USUBJID values, the example would be unchanged for a study in which mothers were study subjects. If these data were collected for an infant who was an associated person, they would be represented in the APSC domain and the dataset would include APID, RSUBJID, and SREL, rather than USUBJID.", "score": 0.4385, "match_basis": "verbatim_token+domain_route:SC"}, {"md_atom_id": "md_dmSC_ex_a024", "md_file": "knowledge_base/domains/SC/examples.md", "md_atom_type": "SENTENCE", "md_parent_section": "§SC.3 [Example 3]", "md_verbatim": "This example shows data from a multi-year study in which marital status and whether the subject was a student were collected annually.", "score": 0.4364, "match_basis": "verbatim_token+domain_route:SC"}], "candidate_count": 5, "zero_candidate": false}
{"pdf_atom_id": "ig34_p0340_a003", "pdf_atom_type": "TABLE_HEADER", "pdf_source": "SDTMIG_v3.4", "pdf_page": 340, "pdf_parent_section": "§6.3.10 Subject Characteristics (SC)", "pdf_verbatim": "| Variable Name | Variable Label | Type | Controlled Terms, Codelist or Format | Role | CDISC Notes | Core |", "figure_ref": null, "candidates": [{"md_atom_id": "md_dmSC_ex_a019", "md_file": "knowledge_base/domains/SC/examples.md", "md_atom_type": "TABLE_HEADER", "md_parent_section": "§SC.2 [Example 2]", "md_verbatim": "| Row | STUDYID | DOMAIN | USUBJID | SCSEQ | SCTESTCD | SCTEST | SCCAT | SCORRES | SCORESU | SCSTRESC | SCSTRESN | SCSTRESU | SCMETHOD | VISITNUM | SCDTC | SCDY |\n|-----|---------|--------|---------|-------|----------|--------|-------|---------|---------|----------|----------|----------|----------|----------|-------|------|", "score": 0.4189, "match_basis": "verbatim_token+domain_route:SC"}, {"md_atom_id": "md_dmSC_ex_a005", "md_file": "knowledge_base/domains/SC/examples.md", "md_atom_type": "TABLE_HEADER", "md_parent_section": "§SC.1 [Example 1]", "md_verbatim": "| Row | STUDYID | DOMAIN | USUBJID | SCSEQ | SCTESTCD | SCTEST | SCORRES | SCSTRESC | SCDTC |\n|-----|---------|--------|---------|-------|----------|--------|---------|----------|-------|", "score": 0.4156, "match_basis": "verbatim_token+domain_route:SC"}, {"md_atom_id": "md_dmSC_ex_a026", "md_file": "knowledge_base/domains/SC/examples.md", "md_atom_type": "TABLE_HEADER", "md_parent_section": "§SC.3 [Example 3]", "md_verbatim": "| Row | STUDYID | DOMAIN | USUBJID | SCSEQ | SCTESTCD | SCTEST | SCORRES | SCSTRESC | SCDTC | SCDY |\n|-----|---------|--------|---------|-------|----------|--------|---------|----------|-------|------|", "score": 0.4154, "match_basis": "verbatim_token+domain_route:SC"}, {"md_atom_id": "md_dmSC_ex_a009", "md_file": "knowledge_base/domains/SC/examples.md", "md_atom_type": "TABLE_ROW", "md_parent_section": "§SC.1 [Example 1]", "md_verbatim": "| 4 | ABC | SC | ABC-001-002 | 2 | MARISTAT | Marital Status | MARRIED | MARRIED | 1999-03-19 |", "score": 0.3597, "match_basis": "verbatim_token+domain_route:SC"}, {"md_atom_id": "md_dmSC_ex_a007", "md_file": "knowledge_base/domains/SC/examples.md", "md_atom_type": "TABLE_ROW", "md_parent_section": "§SC.1 [Example 1]", "md_verbatim": "| 2 | ABC | SC | ABC-001-001 | 2 | MARISTAT | Marital Status | DIVORCED | DIVORCED | 1999-06-19 |", "score": 0.3594, "match_basis": "verbatim_token+domain_route:SC"}], "candidate_count": 5, "zero_candidate": false}
{"pdf_atom_id": "ig34_p0340_a004", "pdf_atom_type": "TABLE_ROW", "pdf_source": "SDTMIG_v3.4", "pdf_page": 340, "pdf_parent_section": "§6.3.10 Subject Characteristics (SC)", "pdf_verbatim": "| STUDYID | Study Identifier | Char | | Identifier | Unique identifier for a study. | Req |", "figure_ref": null, "candidates": [{"md_atom_id": "md_dmSC_ex_a028", "md_file": "knowledge_base/domains/SC/examples.md", "md_atom_type": "TABLE_ROW", "md_parent_section": "§SC.3 [Example 3]", "md_verbatim": "| 2 | ABC123 | SC | 305 | 2 | STDNTIND | Student Indicator | Y | Y | 2012-01-14 | -2 |", "score": 0.475, "match_basis": "verbatim_token+domain_route:SC"}, {"md_atom_id": "md_dmSC_ex_a030", "md_file": "knowledge_base/domains/SC/examples.md", "md_atom_type": "TABLE_ROW", "md_parent_section": "§SC.3 [Example 3]", "md_verbatim": "| 4 | ABC123 | SC | 305 | 4 | STDNTIND | Student Indicator | Y | Y | 2013-01-22 | 374 |", "score": 0.4732, "match_basis": "verbatim_token+domain_route:SC"}, {"md_atom_id": "md_dmSC_ex_a032", "md_file": "knowledge_base/domains/SC/examples.md", "md_atom_type": "TABLE_ROW", "md_parent_section": "§SC.3 [Example 3]", "md_verbatim": "| 6 | ABC123 | SC | 305 | 6 | STDNTIND | Student Indicator | N | N | 2014-01-16 | 734 |", "score": 0.4732, "match_basis": "verbatim_token+domain_route:SC"}, {"md_atom_id": "md_dmSC_ex_a006", "md_file": "knowledge_base/domains/SC/examples.md", "md_atom_type": "TABLE_ROW", "md_parent_section": "§SC.1 [Example 1]", "md_verbatim": "| 1 | ABC | SC | ABC-001-001 | 1 | NATORIG | National Origin | UNITED STATES | USA | 1999-06-19 |", "score": 0.4133, "match_basis": "verbatim_token+domain_route:SC"}, {"md_atom_id": "md_dmSC_ex_a007", "md_file": "knowledge_base/domains/SC/examples.md", "md_atom_type": "TABLE_ROW", "md_parent_section": "§SC.1 [Example 1]", "md_verbatim": "| 2 | ABC | SC | ABC-001-001 | 2 | MARISTAT | Marital Status | DIVORCED | DIVORCED | 1999-06-19 |", "score": 0.4, "match_basis": "verbatim_token+domain_route:SC"}], "candidate_count": 5, "zero_candidate": false}
{"pdf_atom_id": "ig34_p0340_a005", "pdf_atom_type": "TABLE_ROW", "pdf_source": "SDTMIG_v3.4", "pdf_page": 340, "pdf_parent_section": "§6.3.10 Subject Characteristics (SC)", "pdf_verbatim": "| DOMAIN | Domain Abbreviation | Char | SC | Identifier | Two-character abbreviation for the domain. | Req |", "figure_ref": null, "candidates": [{"md_atom_id": "md_dmSC_ex_a010", "md_file": "knowledge_base/domains/SC/examples.md", "md_atom_type": "TABLE_ROW", "md_parent_section": "§SC.1 [Example 1]", "md_verbatim": "| 5 | ABC | SC | ABC-001-003 | 1 | NATORIG | National Origin | USA | USA | 1999-05-03 |", "score": 0.4375, "match_basis": "verbatim_token+domain_route:SC"}, {"md_atom_id": "md_dmSC_ex_a008", "md_file": "knowledge_base/domains/SC/examples.md", "md_atom_type": "TABLE_ROW", "md_parent_section": "§SC.1 [Example 1]", "md_verbatim": "| 3 | ABC | SC | ABC-001-002 | 1 | NATORIG | National Origin | CANADA | CAN | 1999-03-19 |", "score": 0.4353, "match_basis": "verbatim_token+domain_route:SC"}, {"md_atom_id": "md_dmSC_ex_a012", "md_file": "knowledge_base/domains/SC/examples.md", "md_atom_type": "TABLE_ROW", "md_parent_section": "§SC.1 [Example 1]", "md_verbatim": "| 7 | ABC | SC | ABC-001-201 | 1 | NATORIG | National Origin | JAPAN | JPN | 1999-06-14 |", "score": 0.4353, "match_basis": "verbatim_token+domain_route:SC"}, {"md_atom_id": "md_dmSC_ex_a028", "md_file": "knowledge_base/domains/SC/examples.md", "md_atom_type": "TABLE_ROW", "md_parent_section": "§SC.3 [Example 3]", "md_verbatim": "| 2 | ABC123 | SC | 305 | 2 | STDNTIND | Student Indicator | Y | Y | 2012-01-14 | -2 |", "score": 0.4333, "match_basis": "verbatim_token+domain_route:SC"}, {"md_atom_id": "md_dmSC_ex_a006", "md_file": "knowledge_base/domains/SC/examples.md", "md_atom_type": "TABLE_ROW", "md_parent_section": "§SC.1 [Example 1]", "md_verbatim": "| 1 | ABC | SC | ABC-001-001 | 1 | NATORIG | National Origin | UNITED STATES | USA | 1999-06-19 |", "score": 0.4327, "match_basis": "verbatim_token+domain_route:SC"}], "candidate_count": 5, "zero_candidate": false}
{"pdf_atom_id": "ig34_p0340_a006", "pdf_atom_type": "TABLE_ROW", "pdf_source": "SDTMIG_v3.4", "pdf_page": 340, "pdf_parent_section": "§6.3.10 Subject Characteristics (SC)", "pdf_verbatim": "| USUBJID | Unique Subject Identifier | Char | | Identifier | Identifier used to uniquely identify a subject across all studies for all applications or submissions involving the product. | Req |", "figure_ref": null, "candidates": [{"md_atom_id": "md_dmSC_ex_a028", "md_file": "knowledge_base/domains/SC/examples.md", "md_atom_type": "TABLE_ROW", "md_parent_section": "§SC.3 [Example 3]", "md_verbatim": "| 2 | ABC123 | SC | 305 | 2 | STDNTIND | Student Indicator | Y | Y | 2012-01-14 | -2 |", "score": 0.4494, "match_basis": "verbatim_token+domain_route:SC"}, {"md_atom_id": "md_dmSC_ex_a030", "md_file": "knowledge_base/domains/SC/examples.md", "md_atom_type": "TABLE_ROW", "md_parent_section": "§SC.3 [Example 3]", "md_verbatim": "| 4 | ABC123 | SC | 305 | 4 | STDNTIND | Student Indicator | Y | Y | 2013-01-22 | 374 |", "score": 0.4488, "match_basis": "verbatim_token+domain_route:SC"}, {"md_atom_id": "md_dmSC_ex_a032", "md_file": "knowledge_base/domains/SC/examples.md", "md_atom_type": "TABLE_ROW", "md_parent_section": "§SC.3 [Example 3]", "md_verbatim": "| 6 | ABC123 | SC | 305 | 6 | STDNTIND | Student Indicator | N | N | 2014-01-16 | 734 |", "score": 0.4488, "match_basis": "verbatim_token+domain_route:SC"}, {"md_atom_id": "md_dmSC_ex_a022", "md_file": "knowledge_base/domains/SC/examples.md", "md_atom_type": "TABLE_ROW", "md_parent_section": "§SC.2 [Example 2]", "md_verbatim": "| 3 | ABC-123 | SC | 101 | 3 | EGESTAGE | Estimated Gestational Age | PREGNANCY-RELATED FINDINGS | 265 | DAYS | 265 | 265 | DAYS | BALLARD | 13.1 | 2017-06-10 | 297 |", "score": 0.427, "match_basis": "verbatim_token+domain_route:SC"}, {"md_atom_id": "md_dmSC_ex_a006", "md_file": "knowledge_base/domains/SC/examples.md", "md_atom_type": "TABLE_ROW", "md_parent_section": "§SC.1 [Example 1]", "md_verbatim": "| 1 | ABC | SC | ABC-001-001 | 1 | NATORIG | National Origin | UNITED STATES | USA | 1999-06-19 |", "score": 0.427, "match_basis": "verbatim_token+domain_route:SC"}], "candidate_count": 5, "zero_candidate": false}
{"pdf_atom_id": "ig34_p0340_a007", "pdf_atom_type": "TABLE_ROW", "pdf_source": "SDTMIG_v3.4", "pdf_page": 340, "pdf_parent_section": "§6.3.10 Subject Characteristics (SC)", "pdf_verbatim": "| SCSEQ | Sequence Number | Num | | Identifier | Sequence number given to ensure uniqueness of subject records within a domain. May be any valid number. | Req |", "figure_ref": null, "candidates": [{"md_atom_id": "md_dmSC_ex_a028", "md_file": "knowledge_base/domains/SC/examples.md", "md_atom_type": "TABLE_ROW", "md_parent_section": "§SC.3 [Example 3]", "md_verbatim": "| 2 | ABC123 | SC | 305 | 2 | STDNTIND | Student Indicator | Y | Y | 2012-01-14 | -2 |", "score": 0.4231, "match_basis": "verbatim_token+domain_route:SC"}, {"md_atom_id": "md_dmSC_ex_a030", "md_file": "knowledge_base/domains/SC/examples.md", "md_atom_type": "TABLE_ROW", "md_parent_section": "§SC.3 [Example 3]", "md_verbatim": "| 4 | ABC123 | SC | 305 | 4 | STDNTIND | Student Indicator | Y | Y | 2013-01-22 | 374 |", "score": 0.4228, "match_basis": "verbatim_token+domain_route:SC"}, {"md_atom_id": "md_dmSC_ex_a032", "md_file": "knowledge_base/domains/SC/examples.md", "md_atom_type": "TABLE_ROW", "md_parent_section": "§SC.3 [Example 3]", "md_verbatim": "| 6 | ABC123 | SC | 305 | 6 | STDNTIND | Student Indicator | N | N | 2014-01-16 | 734 |", "score": 0.4228, "match_basis": "verbatim_token+domain_route:SC"}, {"md_atom_id": "md_dmSC_ex_a005", "md_file": "knowledge_base/domains/SC/examples.md", "md_atom_type": "TABLE_HEADER", "md_parent_section": "§SC.1 [Example 1]", "md_verbatim": "| Row | STUDYID | DOMAIN | USUBJID | SCSEQ | SCTESTCD | SCTEST | SCORRES | SCSTRESC | SCDTC |\n|-----|---------|--------|---------|-------|----------|--------|---------|----------|-------|", "score": 0.4123, "match_basis": "verbatim_token+domain_route:SC"}, {"md_atom_id": "md_dmSC_ex_a026", "md_file": "knowledge_base/domains/SC/examples.md", "md_atom_type": "TABLE_HEADER", "md_parent_section": "§SC.3 [Example 3]", "md_verbatim": "| Row | STUDYID | DOMAIN | USUBJID | SCSEQ | SCTESTCD | SCTEST | SCORRES | SCSTRESC | SCDTC | SCDY |\n|-----|---------|--------|---------|-------|----------|--------|---------|----------|-------|------|", "score": 0.4114, "match_basis": "verbatim_token+domain_route:SC"}], "candidate_count": 5, "zero_candidate": false}
{"pdf_atom_id": "ig34_p0340_a008", "pdf_atom_type": "TABLE_ROW", "pdf_source": "SDTMIG_v3.4", "pdf_page": 340, "pdf_parent_section": "§6.3.10 Subject Characteristics (SC)", "pdf_verbatim": "| SCGRPID | Group ID for Records in a Single Domain for a Subject | Char | | Identifier | Used to identify a set of related records in a single domain for a subject. | Perm |", "figure_ref": null, "candidates": [{"md_atom_id": "md_dmSC_ex_a022", "md_file": "knowledge_base/domains/SC/examples.md", "md_atom_type": "TABLE_ROW", "md_parent_section": "§SC.2 [Example 2]", "md_verbatim": "| 3 | ABC-123 | SC | 101 | 3 | EGESTAGE | Estimated Gestational Age | PREGNANCY-RELATED FINDINGS | 265 | DAYS | 265 | 265 | DAYS | BALLARD | 13.1 | 2017-06-10 | 297 |", "score": 0.44, "match_basis": "verbatim_token+domain_route:SC"}, {"md_atom_id": "md_dmSC_ex_a021", "md_file": "knowledge_base/domains/SC/examples.md", "md_atom_type": "TABLE_ROW", "md_parent_section": "§SC.2 [Example 2]", "md_verbatim": "| 2 | ABC-123 | SC | 101 | 2 | EGESTAGE | Estimated Gestational Age | PREGNANCY-RELATED FINDINGS | 135 | DAYS | 135 | 135 | DAYS | ULTRASOUND | 11 | 2017-04-01 | 226 |", "score": 0.4387, "match_basis": "verbatim_token+domain_route:SC"}, {"md_atom_id": "md_dmSC_ex_a020", "md_file": "knowledge_base/domains/SC/examples.md", "md_atom_type": "TABLE_ROW", "md_parent_section": "§SC.2 [Example 2]", "md_verbatim": "| 1 | ABC-123 | SC | 101 | 1 | EGESTAGE | Estimated Gestational Age | PREGNANCY-RELATED FINDINGS | 100 | DAYS | 100 | 100 | DAYS | MENSTRUAL HISTORY | 10 | 2017-03-02 | 196 |", "score": 0.4371, "match_basis": "verbatim_token+domain_route:SC"}, {"md_atom_id": "md_dmSC_ex_a028", "md_file": "knowledge_base/domains/SC/examples.md", "md_atom_type": "TABLE_ROW", "md_parent_section": "§SC.3 [Example 3]", "md_verbatim": "| 2 | ABC123 | SC | 305 | 2 | STDNTIND | Student Indicator | Y | Y | 2012-01-14 | -2 |", "score": 0.4261, "match_basis": "verbatim_token+domain_route:SC"}, {"md_atom_id": "md_dmSC_ex_a030", "md_file": "knowledge_base/domains/SC/examples.md", "md_atom_type": "TABLE_ROW", "md_parent_section": "§SC.3 [Example 3]", "md_verbatim": "| 4 | ABC123 | SC | 305 | 4 | STDNTIND | Student Indicator | Y | Y | 2013-01-22 | 374 |", "score": 0.4257, "match_basis": "verbatim_token+domain_route:SC"}], "candidate_count": 5, "zero_candidate": false}
{"pdf_atom_id": "ig34_p0340_a009", "pdf_atom_type": "TABLE_ROW", "pdf_source": "SDTMIG_v3.4", "pdf_page": 340, "pdf_parent_section": "§6.3.10 Subject Characteristics (SC)", "pdf_verbatim": "| SCSPID | Sponsor-Defined Identifier | Char | | Identifier | Sponsor-defined reference number. May be as provided on the CRF or an alphanumeric line identifier or defined in the sponsor's operational database. | Perm |", "figure_ref": null, "candidates": [{"md_atom_id": "md_dmSC_ex_a010", "md_file": "knowledge_base/domains/SC/examples.md", "md_atom_type": "TABLE_ROW", "md_parent_section": "§SC.1 [Example 1]", "md_verbatim": "| 5 | ABC | SC | ABC-001-003 | 1 | NATORIG | National Origin | USA | USA | 1999-05-03 |", "score": 0.4366, "match_basis": "verbatim_token+domain_route:SC"}, {"md_atom_id": "md_dmSC_ex_a008", "md_file": "knowledge_base/domains/SC/examples.md", "md_atom_type": "TABLE_ROW", "md_parent_section": "§SC.1 [Example 1]", "md_verbatim": "| 3 | ABC | SC | ABC-001-002 | 1 | NATORIG | National Origin | CANADA | CAN | 1999-03-19 |", "score": 0.4353, "match_basis": "verbatim_token+domain_route:SC"}, {"md_atom_id": "md_dmSC_ex_a012", "md_file": "knowledge_base/domains/SC/examples.md", "md_atom_type": "TABLE_ROW", "md_parent_section": "§SC.1 [Example 1]", "md_verbatim": "| 7 | ABC | SC | ABC-001-201 | 1 | NATORIG | National Origin | JAPAN | JPN | 1999-06-14 |", "score": 0.4353, "match_basis": "verbatim_token+domain_route:SC"}, {"md_atom_id": "md_dmSC_ex_a006", "md_file": "knowledge_base/domains/SC/examples.md", "md_atom_type": "TABLE_ROW", "md_parent_section": "§SC.1 [Example 1]", "md_verbatim": "| 1 | ABC | SC | ABC-001-001 | 1 | NATORIG | National Origin | UNITED STATES | USA | 1999-06-19 |", "score": 0.4337, "match_basis": "verbatim_token+domain_route:SC"}, {"md_atom_id": "md_dmSC_ex_a022", "md_file": "knowledge_base/domains/SC/examples.md", "md_atom_type": "TABLE_ROW", "md_parent_section": "§SC.2 [Example 2]", "md_verbatim": "| 3 | ABC-123 | SC | 101 | 3 | EGESTAGE | Estimated Gestational Age | PREGNANCY-RELATED FINDINGS | 265 | DAYS | 265 | 265 | DAYS | BALLARD | 13.1 | 2017-06-10 | 297 |", "score": 0.4324, "match_basis": "verbatim_token+domain_route:SC"}], "candidate_count": 5, "zero_candidate": false}
{"pdf_atom_id": "ig34_p0340_a010", "pdf_atom_type": "TABLE_ROW", "pdf_source": "SDTMIG_v3.4", "pdf_page": 340, "pdf_parent_section": "§6.3.10 Subject Characteristics (SC)", "pdf_verbatim": "| SCTESTCD | Subject Characteristic Short Name | Char | (SCTESTCD) | Topic | Short name of the measurement, test, or examination described in SCTEST. It can be used as a column name when converting a dataset from a vertical to a horizontal format. The value in SCTEST cannot be longer than 8 characters, nor can it start with a number (e.g., \"TEST\" is not valid). SCTESTCD cannot contain other than letters, numbers, or underscores. Example: \"CAGENHAB\", \"CMHABX\". | Req |", "figure_ref": null, "candidates": [{"md_atom_id": "md_dmSC_ex_a020", "md_file": "knowledge_base/domains/SC/examples.md", "md_atom_type": "TABLE_ROW", "md_parent_section": "§SC.2 [Example 2]", "md_verbatim": "| 1 | ABC-123 | SC | 101 | 1 | EGESTAGE | Estimated Gestational Age | PREGNANCY-RELATED FINDINGS | 100 | DAYS | 100 | 100 | DAYS | MENSTRUAL HISTORY | 10 | 2017-03-02 | 196 |", "score": 0.4347, "match_basis": "verbatim_token+domain_route:SC"}, {"md_atom_id": "md_dmSC_ex_a021", "md_file": "knowledge_base/domains/SC/examples.md", "md_atom_type": "TABLE_ROW", "md_parent_section": "§SC.2 [Example 2]", "md_verbatim": "| 2 | ABC-123 | SC | 101 | 2 | EGESTAGE | Estimated Gestational Age | PREGNANCY-RELATED FINDINGS | 135 | DAYS | 135 | 135 | DAYS | ULTRASOUND | 11 | 2017-04-01 | 226 |", "score": 0.4321, "match_basis": "verbatim_token+domain_route:SC"}, {"md_atom_id": "md_dmSC_ex_a022", "md_file": "knowledge_base/domains/SC/examples.md", "md_atom_type": "TABLE_ROW", "md_parent_section": "§SC.2 [Example 2]", "md_verbatim": "| 3 | ABC-123 | SC | 101 | 3 | EGESTAGE | Estimated Gestational Age | PREGNANCY-RELATED FINDINGS | 265 | DAYS | 265 | 265 | DAYS | BALLARD | 13.1 | 2017-06-10 | 297 |", "score": 0.4292, "match_basis": "verbatim_token+domain_route:SC"}, {"md_atom_id": "md_dmSC_ex_a029", "md_file": "knowledge_base/domains/SC/examples.md", "md_atom_type": "TABLE_ROW", "md_parent_section": "§SC.3 [Example 3]", "md_verbatim": "| 3 | ABC123 | SC | 305 | 3 | MARISTAT | Marital Status | DOMESTIC PARTNER | DOMESTIC PARTNER | 2013-01-22 | 374 |", "score": 0.4286, "match_basis": "verbatim_token+domain_route:SC"}, {"md_atom_id": "md_dmSC_ex_a006", "md_file": "knowledge_base/domains/SC/examples.md", "md_atom_type": "TABLE_ROW", "md_parent_section": "§SC.1 [Example 1]", "md_verbatim": "| 1 | ABC | SC | ABC-001-001 | 1 | NATORIG | National Origin | UNITED STATES | USA | 1999-06-19 |", "score": 0.4256, "match_basis": "verbatim_token+domain_route:SC"}], "candidate_count": 5, "zero_candidate": false}
{"pdf_atom_id": "ig34_p0340_a011", "pdf_atom_type": "TABLE_ROW", "pdf_source": "SDTMIG_v3.4", "pdf_page": 340, "pdf_parent_section": "§6.3.10 Subject Characteristics (SC)", "pdf_verbatim": "| SCTEST | Subject Characteristic | Char | (SCTEST) | Synonym Qualifier | Verbatim name of the test or examination used to obtain the measurement or finding. The value in SCTEST cannot be longer than 40 characters. Examples: \"Marital Status\", \"National Origin\". | Req |", "figure_ref": null, "candidates": [{"md_atom_id": "md_dmSC_ex_a020", "md_file": "knowledge_base/domains/SC/examples.md", "md_atom_type": "TABLE_ROW", "md_parent_section": "§SC.2 [Example 2]", "md_verbatim": "| 1 | ABC-123 | SC | 101 | 1 | EGESTAGE | Estimated Gestational Age | PREGNANCY-RELATED FINDINGS | 100 | DAYS | 100 | 100 | DAYS | MENSTRUAL HISTORY | 10 | 2017-03-02 | 196 |", "score": 0.4771, "match_basis": "verbatim_token+domain_route:SC"}, {"md_atom_id": "md_dmSC_ex_a029", "md_file": "knowledge_base/domains/SC/examples.md", "md_atom_type": "TABLE_ROW", "md_parent_section": "§SC.3 [Example 3]", "md_verbatim": "| 3 | ABC123 | SC | 305 | 3 | MARISTAT | Marital Status | DOMESTIC PARTNER | DOMESTIC PARTNER | 2013-01-22 | 374 |", "score": 0.4706, "match_basis": "verbatim_token+domain_route:SC"}, {"md_atom_id": "md_dmSC_ex_a006", "md_file": "knowledge_base/domains/SC/examples.md", "md_atom_type": "TABLE_ROW", "md_parent_section": "§SC.1 [Example 1]", "md_verbatim": "| 1 | ABC | SC | ABC-001-001 | 1 | NATORIG | National Origin | UNITED STATES | USA | 1999-06-19 |", "score": 0.4678, "match_basis": "verbatim_token+domain_route:SC"}, {"md_atom_id": "md_dmSC_ex_a022", "md_file": "knowledge_base/domains/SC/examples.md", "md_atom_type": "TABLE_ROW", "md_parent_section": "§SC.2 [Example 2]", "md_verbatim": "| 3 | ABC-123 | SC | 101 | 3 | EGESTAGE | Estimated Gestational Age | PREGNANCY-RELATED FINDINGS | 265 | DAYS | 265 | 265 | DAYS | BALLARD | 13.1 | 2017-06-10 | 297 |", "score": 0.4662, "match_basis": "verbatim_token+domain_route:SC"}, {"md_atom_id": "md_dmSC_ex_a021", "md_file": "knowledge_base/domains/SC/examples.md", "md_atom_type": "TABLE_ROW", "md_parent_section": "§SC.2 [Example 2]", "md_verbatim": "| 2 | ABC-123 | SC | 101 | 2 | EGESTAGE | Estimated Gestational Age | PREGNANCY-RELATED FINDINGS | 135 | DAYS | 135 | 135 | DAYS | ULTRASOUND | 11 | 2017-04-01 | 226 |", "score": 0.4647, "match_basis": "verbatim_token+domain_route:SC"}], "candidate_count": 5, "zero_candidate": false}
{"pdf_atom_id": "ig34_p0340_a012", "pdf_atom_type": "TABLE_ROW", "pdf_source": "SDTMIG_v3.4", "pdf_page": 340, "pdf_parent_section": "§6.3.10 Subject Characteristics (SC)", "pdf_verbatim": "| SCCAT | Category for Subject Characteristic | Char | | Grouping Qualifier | Used to define a category of related records. | Perm |", "figure_ref": null, "candidates": [{"md_atom_id": "md_dmSC_ex_a020", "md_file": "knowledge_base/domains/SC/examples.md", "md_atom_type": "TABLE_ROW", "md_parent_section": "§SC.2 [Example 2]", "md_verbatim": "| 1 | ABC-123 | SC | 101 | 1 | EGESTAGE | Estimated Gestational Age | PREGNANCY-RELATED FINDINGS | 100 | DAYS | 100 | 100 | DAYS | MENSTRUAL HISTORY | 10 | 2017-03-02 | 196 |", "score": 0.466, "match_basis": "verbatim_token+domain_route:SC"}, {"md_atom_id": "md_dmSC_ex_a022", "md_file": "knowledge_base/domains/SC/examples.md", "md_atom_type": "TABLE_ROW", "md_parent_section": "§SC.2 [Example 2]", "md_verbatim": "| 3 | ABC-123 | SC | 101 | 3 | EGESTAGE | Estimated Gestational Age | PREGNANCY-RELATED FINDINGS | 265 | DAYS | 265 | 265 | DAYS | BALLARD | 13.1 | 2017-06-10 | 297 |", "score": 0.45, "match_basis": "verbatim_token+domain_route:SC"}, {"md_atom_id": "md_dmSC_ex_a021", "md_file": "knowledge_base/domains/SC/examples.md", "md_atom_type": "TABLE_ROW", "md_parent_section": "§SC.2 [Example 2]", "md_verbatim": "| 2 | ABC-123 | SC | 101 | 2 | EGESTAGE | Estimated Gestational Age | PREGNANCY-RELATED FINDINGS | 135 | DAYS | 135 | 135 | DAYS | ULTRASOUND | 11 | 2017-04-01 | 226 |", "score": 0.4485, "match_basis": "verbatim_token+domain_route:SC"}, {"md_atom_id": "md_dmSC_ex_a029", "md_file": "knowledge_base/domains/SC/examples.md", "md_atom_type": "TABLE_ROW", "md_parent_section": "§SC.3 [Example 3]", "md_verbatim": "| 3 | ABC123 | SC | 305 | 3 | MARISTAT | Marital Status | DOMESTIC PARTNER | DOMESTIC PARTNER | 2013-01-22 | 374 |", "score": 0.4293, "match_basis": "verbatim_token+domain_route:SC"}, {"md_atom_id": "md_dmSC_ex_a009", "md_file": "knowledge_base/domains/SC/examples.md", "md_atom_type": "TABLE_ROW", "md_parent_section": "§SC.1 [Example 1]", "md_verbatim": "| 4 | ABC | SC | ABC-001-002 | 2 | MARISTAT | Marital Status | MARRIED | MARRIED | 1999-03-19 |", "score": 0.4162, "match_basis": "verbatim_token+domain_route:SC"}], "candidate_count": 5, "zero_candidate": false}
{"pdf_atom_id": "ig34_p0340_a013", "pdf_atom_type": "TABLE_ROW", "pdf_source": "SDTMIG_v3.4", "pdf_page": 340, "pdf_parent_section": "§6.3.10 Subject Characteristics (SC)", "pdf_verbatim": "| SCSCAT | Subcategory for Subject Characteristic | Char | * | Grouping Qualifier | A further categorization of the subject characteristic. | Perm |", "figure_ref": null, "candidates": [{"md_atom_id": "md_dmSC_ex_a020", "md_file": "knowledge_base/domains/SC/examples.md", "md_atom_type": "TABLE_ROW", "md_parent_section": "§SC.2 [Example 2]", "md_verbatim": "| 1 | ABC-123 | SC | 101 | 1 | EGESTAGE | Estimated Gestational Age | PREGNANCY-RELATED FINDINGS | 100 | DAYS | 100 | 100 | DAYS | MENSTRUAL HISTORY | 10 | 2017-03-02 | 196 |", "score": 0.4529, "match_basis": "verbatim_token+domain_route:SC"}, {"md_atom_id": "md_dmSC_ex_a006", "md_file": "knowledge_base/domains/SC/examples.md", "md_atom_type": "TABLE_ROW", "md_parent_section": "§SC.1 [Example 1]", "md_verbatim": "| 1 | ABC | SC | ABC-001-001 | 1 | NATORIG | National Origin | UNITED STATES | USA | 1999-06-19 |", "score": 0.4395, "match_basis": "verbatim_token+domain_route:SC"}, {"md_atom_id": "md_dmSC_ex_a022", "md_file": "knowledge_base/domains/SC/examples.md", "md_atom_type": "TABLE_ROW", "md_parent_section": "§SC.2 [Example 2]", "md_verbatim": "| 3 | ABC-123 | SC | 101 | 3 | EGESTAGE | Estimated Gestational Age | PREGNANCY-RELATED FINDINGS | 265 | DAYS | 265 | 265 | DAYS | BALLARD | 13.1 | 2017-06-10 | 297 |", "score": 0.4367, "match_basis": "verbatim_token+domain_route:SC"}, {"md_atom_id": "md_dmSC_ex_a021", "md_file": "knowledge_base/domains/SC/examples.md", "md_atom_type": "TABLE_ROW", "md_parent_section": "§SC.2 [Example 2]", "md_verbatim": "| 2 | ABC-123 | SC | 101 | 2 | EGESTAGE | Estimated Gestational Age | PREGNANCY-RELATED FINDINGS | 135 | DAYS | 135 | 135 | DAYS | ULTRASOUND | 11 | 2017-04-01 | 226 |", "score": 0.4356, "match_basis": "verbatim_token+domain_route:SC"}, {"md_atom_id": "md_dmSC_ex_a010", "md_file": "knowledge_base/domains/SC/examples.md", "md_atom_type": "TABLE_ROW", "md_parent_section": "§SC.1 [Example 1]", "md_verbatim": "| 5 | ABC | SC | ABC-001-003 | 1 | NATORIG | National Origin | USA | USA | 1999-05-03 |", "score": 0.4343, "match_basis": "verbatim_token+domain_route:SC"}], "candidate_count": 5, "zero_candidate": false}
{"pdf_atom_id": "ig34_p0340_a014", "pdf_atom_type": "TABLE_ROW", "pdf_source": "SDTMIG_v3.4", "pdf_page": 340, "pdf_parent_section": "§6.3.10 Subject Characteristics (SC)", "pdf_verbatim": "| SCORRES | Result or Finding in Original Units | Char | | Result Qualifier | Result of the subject characteristic as originally received or collected. | Exp |", "figure_ref": null, "candidates": [{"md_atom_id": "md_dmSC_ex_a006", "md_file": "knowledge_base/domains/SC/examples.md", "md_atom_type": "TABLE_ROW", "md_parent_section": "§SC.1 [Example 1]", "md_verbatim": "| 1 | ABC | SC | ABC-001-001 | 1 | NATORIG | National Origin | UNITED STATES | USA | 1999-06-19 |", "score": 0.4615, "match_basis": "verbatim_token+domain_route:SC"}, {"md_atom_id": "md_dmSC_ex_a020", "md_file": "knowledge_base/domains/SC/examples.md", "md_atom_type": "TABLE_ROW", "md_parent_section": "§SC.2 [Example 2]", "md_verbatim": "| 1 | ABC-123 | SC | 101 | 1 | EGESTAGE | Estimated Gestational Age | PREGNANCY-RELATED FINDINGS | 100 | DAYS | 100 | 100 | DAYS | MENSTRUAL HISTORY | 10 | 2017-03-02 | 196 |", "score": 0.4566, "match_basis": "verbatim_token+domain_route:SC"}, {"md_atom_id": "md_dmSC_ex_a022", "md_file": "knowledge_base/domains/SC/examples.md", "md_atom_type": "TABLE_ROW", "md_parent_section": "§SC.2 [Example 2]", "md_verbatim": "| 3 | ABC-123 | SC | 101 | 3 | EGESTAGE | Estimated Gestational Age | PREGNANCY-RELATED FINDINGS | 265 | DAYS | 265 | 265 | DAYS | BALLARD | 13.1 | 2017-06-10 | 297 |", "score": 0.454, "match_basis": "verbatim_token+domain_route:SC"}, {"md_atom_id": "md_dmSC_ex_a021", "md_file": "knowledge_base/domains/SC/examples.md", "md_atom_type": "TABLE_ROW", "md_parent_section": "§SC.2 [Example 2]", "md_verbatim": "| 2 | ABC-123 | SC | 101 | 2 | EGESTAGE | Estimated Gestational Age | PREGNANCY-RELATED FINDINGS | 135 | DAYS | 135 | 135 | DAYS | ULTRASOUND | 11 | 2017-04-01 | 226 |", "score": 0.4524, "match_basis": "verbatim_token+domain_route:SC"}, {"md_atom_id": "md_dmSC_ex_a010", "md_file": "knowledge_base/domains/SC/examples.md", "md_atom_type": "TABLE_ROW", "md_parent_section": "§SC.1 [Example 1]", "md_verbatim": "| 5 | ABC | SC | ABC-001-003 | 1 | NATORIG | National Origin | USA | USA | 1999-05-03 |", "score": 0.4405, "match_basis": "verbatim_token+domain_route:SC"}], "candidate_count": 5, "zero_candidate": false}
{"pdf_atom_id": "ig34_p0340_a015", "pdf_atom_type": "TABLE_ROW", "pdf_source": "SDTMIG_v3.4", "pdf_page": 340, "pdf_parent_section": "§6.3.10 Subject Characteristics (SC)", "pdf_verbatim": "| SCORRESU | Result of Original Units | Char | (UNIT) | Variable Qualifier | Original unit in which the data were collected. The unit for SCORRES. | Perm |", "figure_ref": null, "candidates": [{"md_atom_id": "md_dmSC_ex_a006", "md_file": "knowledge_base/domains/SC/examples.md", "md_atom_type": "TABLE_ROW", "md_parent_section": "§SC.1 [Example 1]", "md_verbatim": "| 1 | ABC | SC | ABC-001-001 | 1 | NATORIG | National Origin | UNITED STATES | USA | 1999-06-19 |", "score": 0.4716, "match_basis": "verbatim_token+domain_route:SC"}, {"md_atom_id": "md_dmSC_ex_a010", "md_file": "knowledge_base/domains/SC/examples.md", "md_atom_type": "TABLE_ROW", "md_parent_section": "§SC.1 [Example 1]", "md_verbatim": "| 5 | ABC | SC | ABC-001-003 | 1 | NATORIG | National Origin | USA | USA | 1999-05-03 |", "score": 0.4476, "match_basis": "verbatim_token+domain_route:SC"}, {"md_atom_id": "md_dmSC_ex_a008", "md_file": "knowledge_base/domains/SC/examples.md", "md_atom_type": "TABLE_ROW", "md_parent_section": "§SC.1 [Example 1]", "md_verbatim": "| 3 | ABC | SC | ABC-001-002 | 1 | NATORIG | National Origin | CANADA | CAN | 1999-03-19 |", "score": 0.4455, "match_basis": "verbatim_token+domain_route:SC"}, {"md_atom_id": "md_dmSC_ex_a012", "md_file": "knowledge_base/domains/SC/examples.md", "md_atom_type": "TABLE_ROW", "md_parent_section": "§SC.1 [Example 1]", "md_verbatim": "| 7 | ABC | SC | ABC-001-201 | 1 | NATORIG | National Origin | JAPAN | JPN | 1999-06-14 |", "score": 0.4455, "match_basis": "verbatim_token+domain_route:SC"}, {"md_atom_id": "md_dmSC_ex_a021", "md_file": "knowledge_base/domains/SC/examples.md", "md_atom_type": "TABLE_ROW", "md_parent_section": "§SC.2 [Example 2]", "md_verbatim": "| 2 | ABC-123 | SC | 101 | 2 | EGESTAGE | Estimated Gestational Age | PREGNANCY-RELATED FINDINGS | 135 | DAYS | 135 | 135 | DAYS | ULTRASOUND | 11 | 2017-04-01 | 226 |", "score": 0.4184, "match_basis": "verbatim_token+domain_route:SC"}], "candidate_count": 5, "zero_candidate": false}
{"pdf_atom_id": "ig34_p0340_a016", "pdf_atom_type": "TABLE_ROW", "pdf_source": "SDTMIG_v3.4", "pdf_page": 340, "pdf_parent_section": "§6.3.10 Subject Characteristics (SC)", "pdf_verbatim": "| SCSTRESC | Character Result/Finding in Std Format | Char | | Result Qualifier | Contains the result value for all findings copied or derived from SCORRES, in a standard format or standard units. SCSTRESC should store all results of findings copied or derived from SCORRES in numeric format in numeric format in SCSTRESN. For example, if a test results \"NONE\", \"NEG\", and \"NEGATIVE\" in SCORRES and these result effectively have the same meaning, they could be represented in standard format in SCSTRESC as \"NEGATIVE\". | Exp |", "figure_ref": null, "candidates": [{"md_atom_id": "md_dmSC_ex_a020", "md_file": "knowledge_base/domains/SC/examples.md", "md_atom_type": "TABLE_ROW", "md_parent_section": "§SC.2 [Example 2]", "md_verbatim": "| 1 | ABC-123 | SC | 101 | 1 | EGESTAGE | Estimated Gestational Age | PREGNANCY-RELATED FINDINGS | 100 | DAYS | 100 | 100 | DAYS | MENSTRUAL HISTORY | 10 | 2017-03-02 | 196 |", "score": 0.4593, "match_basis": "verbatim_token+domain_route:SC"}, {"md_atom_id": "md_dmSC_ex_a022", "md_file": "knowledge_base/domains/SC/examples.md", "md_atom_type": "TABLE_ROW", "md_parent_section": "§SC.2 [Example 2]", "md_verbatim": "| 3 | ABC-123 | SC | 101 | 3 | EGESTAGE | Estimated Gestational Age | PREGNANCY-RELATED FINDINGS | 265 | DAYS | 265 | 265 | DAYS | BALLARD | 13.1 | 2017-06-10 | 297 |", "score": 0.4535, "match_basis": "verbatim_token+domain_route:SC"}, {"md_atom_id": "md_dmSC_ex_a021", "md_file": "knowledge_base/domains/SC/examples.md", "md_atom_type": "TABLE_ROW", "md_parent_section": "§SC.2 [Example 2]", "md_verbatim": "| 2 | ABC-123 | SC | 101 | 2 | EGESTAGE | Estimated Gestational Age | PREGNANCY-RELATED FINDINGS | 135 | DAYS | 135 | 135 | DAYS | ULTRASOUND | 11 | 2017-04-01 | 226 |", "score": 0.4484, "match_basis": "verbatim_token+domain_route:SC"}, {"md_atom_id": "md_dmSC_ex_a006", "md_file": "knowledge_base/domains/SC/examples.md", "md_atom_type": "TABLE_ROW", "md_parent_section": "§SC.1 [Example 1]", "md_verbatim": "| 1 | ABC | SC | ABC-001-001 | 1 | NATORIG | National Origin | UNITED STATES | USA | 1999-06-19 |", "score": 0.4298, "match_basis": "verbatim_token+domain_route:SC"}, {"md_atom_id": "md_dmSC_ex_a028", "md_file": "knowledge_base/domains/SC/examples.md", "md_atom_type": "TABLE_ROW", "md_parent_section": "§SC.3 [Example 3]", "md_verbatim": "| 2 | ABC123 | SC | 305 | 2 | STDNTIND | Student Indicator | Y | Y | 2012-01-14 | -2 |", "score": 0.4211, "match_basis": "verbatim_token+domain_route:SC"}], "candidate_count": 5, "zero_candidate": false}
{"pdf_atom_id": "ig34_p0340_a017", "pdf_atom_type": "TABLE_ROW", "pdf_source": "SDTMIG_v3.4", "pdf_page": 340, "pdf_parent_section": "§6.3.10 Subject Characteristics (SC)", "pdf_verbatim": "| SCSTRESN | Numeric Result/Finding in Standard Units | Num | | Result Qualifier | Used for continuous numeric results of findings in standard format; copied in numeric format from SCSTRESN. | Perm |", "figure_ref": null, "candidates": [{"md_atom_id": "md_dmSC_ex_a020", "md_file": "knowledge_base/domains/SC/examples.md", "md_atom_type": "TABLE_ROW", "md_parent_section": "§SC.2 [Example 2]", "md_verbatim": "| 1 | ABC-123 | SC | 101 | 1 | EGESTAGE | Estimated Gestational Age | PREGNANCY-RELATED FINDINGS | 100 | DAYS | 100 | 100 | DAYS | MENSTRUAL HISTORY | 10 | 2017-03-02 | 196 |", "score": 0.4577, "match_basis": "verbatim_token+domain_route:SC"}, {"md_atom_id": "md_dmSC_ex_a022", "md_file": "knowledge_base/domains/SC/examples.md", "md_atom_type": "TABLE_ROW", "md_parent_section": "§SC.2 [Example 2]", "md_verbatim": "| 3 | ABC-123 | SC | 101 | 3 | EGESTAGE | Estimated Gestational Age | PREGNANCY-RELATED FINDINGS | 265 | DAYS | 265 | 265 | DAYS | BALLARD | 13.1 | 2017-06-10 | 297 |", "score": 0.4551, "match_basis": "verbatim_token+domain_route:SC"}, {"md_atom_id": "md_dmSC_ex_a021", "md_file": "knowledge_base/domains/SC/examples.md", "md_atom_type": "TABLE_ROW", "md_parent_section": "§SC.2 [Example 2]", "md_verbatim": "| 2 | ABC-123 | SC | 101 | 2 | EGESTAGE | Estimated Gestational Age | PREGNANCY-RELATED FINDINGS | 135 | DAYS | 135 | 135 | DAYS | ULTRASOUND | 11 | 2017-04-01 | 226 |", "score": 0.4535, "match_basis": "verbatim_token+domain_route:SC"}, {"md_atom_id": "md_dmSC_ex_a028", "md_file": "knowledge_base/domains/SC/examples.md", "md_atom_type": "TABLE_ROW", "md_parent_section": "§SC.3 [Example 3]", "md_verbatim": "| 2 | ABC123 | SC | 305 | 2 | STDNTIND | Student Indicator | Y | Y | 2012-01-14 | -2 |", "score": 0.4304, "match_basis": "verbatim_token+domain_route:SC"}, {"md_atom_id": "md_dmSC_ex_a030", "md_file": "knowledge_base/domains/SC/examples.md", "md_atom_type": "TABLE_ROW", "md_parent_section": "§SC.3 [Example 3]", "md_verbatim": "| 4 | ABC123 | SC | 305 | 4 | STDNTIND | Student Indicator | Y | Y | 2013-01-22 | 374 |", "score": 0.43, "match_basis": "verbatim_token+domain_route:SC"}], "candidate_count": 5, "zero_candidate": false}
{"pdf_atom_id": "ig34_p0340_a018", "pdf_atom_type": "TABLE_ROW", "pdf_source": "SDTMIG_v3.4", "pdf_page": 340, "pdf_parent_section": "§6.3.10 Subject Characteristics (SC)", "pdf_verbatim": "| SCSTRESU | Standardized Units | Char | (UNIT) | Variable Qualifier | Standardized unit used for SCSTRESC or SCSTRESN. | Perm |", "figure_ref": null, "candidates": [{"md_atom_id": "md_dmSC_ex_a006", "md_file": "knowledge_base/domains/SC/examples.md", "md_atom_type": "TABLE_ROW", "md_parent_section": "§SC.1 [Example 1]", "md_verbatim": "| 1 | ABC | SC | ABC-001-001 | 1 | NATORIG | National Origin | UNITED STATES | USA | 1999-06-19 |", "score": 0.4286, "match_basis": "verbatim_token+domain_route:SC"}, {"md_atom_id": "md_dmSC_ex_a009", "md_file": "knowledge_base/domains/SC/examples.md", "md_atom_type": "TABLE_ROW", "md_parent_section": "§SC.1 [Example 1]", "md_verbatim": "| 4 | ABC | SC | ABC-001-002 | 2 | MARISTAT | Marital Status | MARRIED | MARRIED | 1999-03-19 |", "score": 0.4203, "match_basis": "verbatim_token+domain_route:SC"}, {"md_atom_id": "md_dmSC_ex_a007", "md_file": "knowledge_base/domains/SC/examples.md", "md_atom_type": "TABLE_ROW", "md_parent_section": "§SC.1 [Example 1]", "md_verbatim": "| 2 | ABC | SC | ABC-001-001 | 2 | MARISTAT | Marital Status | DIVORCED | DIVORCED | 1999-06-19 |", "score": 0.42, "match_basis": "verbatim_token+domain_route:SC"}, {"md_atom_id": "md_dmSC_ex_a013", "md_file": "knowledge_base/domains/SC/examples.md", "md_atom_type": "TABLE_ROW", "md_parent_section": "§SC.1 [Example 1]", "md_verbatim": "| 8 | ABC | SC | ABC-002-001 | 2 | MARISTAT | Marital Status | WIDOWED | WIDOWED | 1999-06-14 |", "score": 0.42, "match_basis": "verbatim_token+domain_route:SC"}, {"md_atom_id": "md_dmSC_ex_a011", "md_file": "knowledge_base/domains/SC/examples.md", "md_atom_type": "TABLE_ROW", "md_parent_section": "§SC.1 [Example 1]", "md_verbatim": "| 6 | ABC | SC | ABC-001-003 | 2 | MARISTAT | Marital Status | NEVER MARRIED | NEVER MARRIED | 1999-05-03 |", "score": 0.4194, "match_basis": "verbatim_token+domain_route:SC"}], "candidate_count": 5, "zero_candidate": false}
{"pdf_atom_id": "ig34_p0340_a019", "pdf_atom_type": "TABLE_ROW", "pdf_source": "SDTMIG_v3.4", "pdf_page": 340, "pdf_parent_section": "§6.3.10 Subject Characteristics (SC)", "pdf_verbatim": "| SCSTAT | Completion Status | Char | (ND) | Record Qualifier | Used to indicate that the measurement was not done. Should be null if a result exists in SCORRES. | Perm |", "figure_ref": null, "candidates": [{"md_atom_id": "md_dmSC_ex_a020", "md_file": "knowledge_base/domains/SC/examples.md", "md_atom_type": "TABLE_ROW", "md_parent_section": "§SC.2 [Example 2]", "md_verbatim": "| 1 | ABC-123 | SC | 101 | 1 | EGESTAGE | Estimated Gestational Age | PREGNANCY-RELATED FINDINGS | 100 | DAYS | 100 | 100 | DAYS | MENSTRUAL HISTORY | 10 | 2017-03-02 | 196 |", "score": 0.4522, "match_basis": "verbatim_token+domain_route:SC"}, {"md_atom_id": "md_dmSC_ex_a021", "md_file": "knowledge_base/domains/SC/examples.md", "md_atom_type": "TABLE_ROW", "md_parent_section": "§SC.2 [Example 2]", "md_verbatim": "| 2 | ABC-123 | SC | 101 | 2 | EGESTAGE | Estimated Gestational Age | PREGNANCY-RELATED FINDINGS | 135 | DAYS | 135 | 135 | DAYS | ULTRASOUND | 11 | 2017-04-01 | 226 |", "score": 0.4425, "match_basis": "verbatim_token+domain_route:SC"}, {"md_atom_id": "md_dmSC_ex_a028", "md_file": "knowledge_base/domains/SC/examples.md", "md_atom_type": "TABLE_ROW", "md_parent_section": "§SC.3 [Example 3]", "md_verbatim": "| 2 | ABC123 | SC | 305 | 2 | STDNTIND | Student Indicator | Y | Y | 2012-01-14 | -2 |", "score": 0.4409, "match_basis": "verbatim_token+domain_route:SC"}, {"md_atom_id": "md_dmSC_ex_a030", "md_file": "knowledge_base/domains/SC/examples.md", "md_atom_type": "TABLE_ROW", "md_parent_section": "§SC.3 [Example 3]", "md_verbatim": "| 4 | ABC123 | SC | 305 | 4 | STDNTIND | Student Indicator | Y | Y | 2013-01-22 | 374 |", "score": 0.4404, "match_basis": "verbatim_token+domain_route:SC"}, {"md_atom_id": "md_dmSC_ex_a032", "md_file": "knowledge_base/domains/SC/examples.md", "md_atom_type": "TABLE_ROW", "md_parent_section": "§SC.3 [Example 3]", "md_verbatim": "| 6 | ABC123 | SC | 305 | 6 | STDNTIND | Student Indicator | N | N | 2014-01-16 | 734 |", "score": 0.4404, "match_basis": "verbatim_token+domain_route:SC"}], "candidate_count": 5, "zero_candidate": false}
{"pdf_atom_id": "ig34_p0340_a020", "pdf_atom_type": "TABLE_ROW", "pdf_source": "SDTMIG_v3.4", "pdf_page": 340, "pdf_parent_section": "§6.3.10 Subject Characteristics (SC)", "pdf_verbatim": "| SCREASND | Reason Not Performed | Char | | Record Qualifier | Describes why the observation has no result. Example: \"Subject refused\". Used in conjunction with SCSTAT. When value is \"NOT DONE\". | Perm |", "figure_ref": null, "candidates": [{"md_atom_id": "md_dmSC_ex_a021", "md_file": "knowledge_base/domains/SC/examples.md", "md_atom_type": "TABLE_ROW", "md_parent_section": "§SC.2 [Example 2]", "md_verbatim": "| 2 | ABC-123 | SC | 101 | 2 | EGESTAGE | Estimated Gestational Age | PREGNANCY-RELATED FINDINGS | 135 | DAYS | 135 | 135 | DAYS | ULTRASOUND | 11 | 2017-04-01 | 226 |", "score": 0.4321, "match_basis": "verbatim_token+domain_route:SC"}, {"md_atom_id": "md_dmSC_ex_a006", "md_file": "knowledge_base/domains/SC/examples.md", "md_atom_type": "TABLE_ROW", "md_parent_section": "§SC.1 [Example 1]", "md_verbatim": "| 1 | ABC | SC | ABC-001-001 | 1 | NATORIG | National Origin | UNITED STATES | USA | 1999-06-19 |", "score": 0.428, "match_basis": "verbatim_token+domain_route:SC"}, {"md_atom_id": "md_dmSC_ex_a020", "md_file": "knowledge_base/domains/SC/examples.md", "md_atom_type": "TABLE_ROW", "md_parent_section": "§SC.2 [Example 2]", "md_verbatim": "| 1 | ABC-123 | SC | 101 | 1 | EGESTAGE | Estimated Gestational Age | PREGNANCY-RELATED FINDINGS | 100 | DAYS | 100 | 100 | DAYS | MENSTRUAL HISTORY | 10 | 2017-03-02 | 196 |", "score": 0.4265, "match_basis": "verbatim_token+domain_route:SC"}, {"md_atom_id": "md_dmSC_ex_a022", "md_file": "knowledge_base/domains/SC/examples.md", "md_atom_type": "TABLE_ROW", "md_parent_section": "§SC.2 [Example 2]", "md_verbatim": "| 3 | ABC-123 | SC | 101 | 3 | EGESTAGE | Estimated Gestational Age | PREGNANCY-RELATED FINDINGS | 265 | DAYS | 265 | 265 | DAYS | BALLARD | 13.1 | 2017-06-10 | 297 |", "score": 0.4231, "match_basis": "verbatim_token+domain_route:SC"}, {"md_atom_id": "md_dmSC_ex_a010", "md_file": "knowledge_base/domains/SC/examples.md", "md_atom_type": "TABLE_ROW", "md_parent_section": "§SC.1 [Example 1]", "md_verbatim": "| 5 | ABC | SC | ABC-001-003 | 1 | NATORIG | National Origin | USA | USA | 1999-05-03 |", "score": 0.4176, "match_basis": "verbatim_token+domain_route:SC"}], "candidate_count": 5, "zero_candidate": false}
{"pdf_atom_id": "ig34_p0340_a021", "pdf_atom_type": "TABLE_ROW", "pdf_source": "SDTMIG_v3.4", "pdf_page": 340, "pdf_parent_section": "§6.3.10 Subject Characteristics (SC)", "pdf_verbatim": "| VISITNUM | Visit Number | Num | | Timing | Clinical encounter number. Numeric version of VISIT, used for sorting. | Perm |", "figure_ref": null, "candidates": [{"md_atom_id": "md_dmSC_ex_a021", "md_file": "knowledge_base/domains/SC/examples.md", "md_atom_type": "TABLE_ROW", "md_parent_section": "§SC.2 [Example 2]", "md_verbatim": "| 2 | ABC-123 | SC | 101 | 2 | EGESTAGE | Estimated Gestational Age | PREGNANCY-RELATED FINDINGS | 135 | DAYS | 135 | 135 | DAYS | ULTRASOUND | 11 | 2017-04-01 | 226 |", "score": 0.4264, "match_basis": "verbatim_token+domain_route:SC"}, {"md_atom_id": "md_dmSC_ex_a022", "md_file": "knowledge_base/domains/SC/examples.md", "md_atom_type": "TABLE_ROW", "md_parent_section": "§SC.2 [Example 2]", "md_verbatim": "| 3 | ABC-123 | SC | 101 | 3 | EGESTAGE | Estimated Gestational Age | PREGNANCY-RELATED FINDINGS | 265 | DAYS | 265 | 265 | DAYS | BALLARD | 13.1 | 2017-06-10 | 297 |", "score": 0.4202, "match_basis": "verbatim_token+domain_route:SC"}, {"md_atom_id": "md_dmSC_ex_a020", "md_file": "knowledge_base/domains/SC/examples.md", "md_atom_type": "TABLE_ROW", "md_parent_section": "§SC.2 [Example 2]", "md_verbatim": "| 1 | ABC-123 | SC | 101 | 1 | EGESTAGE | Estimated Gestational Age | PREGNANCY-RELATED FINDINGS | 100 | DAYS | 100 | 100 | DAYS | MENSTRUAL HISTORY | 10 | 2017-03-02 | 196 |", "score": 0.4187, "match_basis": "verbatim_token+domain_route:SC"}, {"md_atom_id": "md_dmSC_ex_a028", "md_file": "knowledge_base/domains/SC/examples.md", "md_atom_type": "TABLE_ROW", "md_parent_section": "§SC.3 [Example 3]", "md_verbatim": "| 2 | ABC123 | SC | 305 | 2 | STDNTIND | Student Indicator | Y | Y | 2012-01-14 | -2 |", "score": 0.4182, "match_basis": "verbatim_token+domain_route:SC"}, {"md_atom_id": "md_dmSC_ex_a030", "md_file": "knowledge_base/domains/SC/examples.md", "md_atom_type": "TABLE_ROW", "md_parent_section": "§SC.3 [Example 3]", "md_verbatim": "| 4 | ABC123 | SC | 305 | 4 | STDNTIND | Student Indicator | Y | Y | 2013-01-22 | 374 |", "score": 0.4179, "match_basis": "verbatim_token+domain_route:SC"}], "candidate_count": 5, "zero_candidate": false}
{"pdf_atom_id": "ig34_p0340_a022", "pdf_atom_type": "TABLE_ROW", "pdf_source": "SDTMIG_v3.4", "pdf_page": 340, "pdf_parent_section": "§6.3.10 Subject Characteristics (SC)", "pdf_verbatim": "| VISIT | Visit Name | Char | | Timing | Protocol-defined description of a clinical encounter. May be used in addition to VISITNUM and/or VISITDY. | Perm |", "figure_ref": null, "candidates": [{"md_atom_id": "md_dmSC_ex_a021", "md_file": "knowledge_base/domains/SC/examples.md", "md_atom_type": "TABLE_ROW", "md_parent_section": "§SC.2 [Example 2]", "md_verbatim": "| 2 | ABC-123 | SC | 101 | 2 | EGESTAGE | Estimated Gestational Age | PREGNANCY-RELATED FINDINGS | 135 | DAYS | 135 | 135 | DAYS | ULTRASOUND | 11 | 2017-04-01 | 226 |", "score": 0.4346, "match_basis": "verbatim_token+domain_route:SC"}, {"md_atom_id": "md_dmSC_ex_a022", "md_file": "knowledge_base/domains/SC/examples.md", "md_atom_type": "TABLE_ROW", "md_parent_section": "§SC.2 [Example 2]", "md_verbatim": "| 3 | ABC-123 | SC | 101 | 3 | EGESTAGE | Estimated Gestational Age | PREGNANCY-RELATED FINDINGS | 265 | DAYS | 265 | 265 | DAYS | BALLARD | 13.1 | 2017-06-10 | 297 |", "score": 0.4294, "match_basis": "verbatim_token+domain_route:SC"}, {"md_atom_id": "md_dmSC_ex_a020", "md_file": "knowledge_base/domains/SC/examples.md", "md_atom_type": "TABLE_ROW", "md_parent_section": "§SC.2 [Example 2]", "md_verbatim": "| 1 | ABC-123 | SC | 101 | 1 | EGESTAGE | Estimated Gestational Age | PREGNANCY-RELATED FINDINGS | 100 | DAYS | 100 | 100 | DAYS | MENSTRUAL HISTORY | 10 | 2017-03-02 | 196 |", "score": 0.4275, "match_basis": "verbatim_token+domain_route:SC"}, {"md_atom_id": "md_dmSC_ex_a010", "md_file": "knowledge_base/domains/SC/examples.md", "md_atom_type": "TABLE_ROW", "md_parent_section": "§SC.1 [Example 1]", "md_verbatim": "| 5 | ABC | SC | ABC-001-003 | 1 | NATORIG | National Origin | USA | USA | 1999-05-03 |", "score": 0.416, "match_basis": "verbatim_token+domain_route:SC"}, {"md_atom_id": "md_dmSC_ex_a008", "md_file": "knowledge_base/domains/SC/examples.md", "md_atom_type": "TABLE_ROW", "md_parent_section": "§SC.1 [Example 1]", "md_verbatim": "| 3 | ABC | SC | ABC-001-002 | 1 | NATORIG | National Origin | CANADA | CAN | 1999-03-19 |", "score": 0.4154, "match_basis": "verbatim_token+domain_route:SC"}], "candidate_count": 5, "zero_candidate": false}
{"pdf_atom_id": "ig34_p0340_a023", "pdf_atom_type": "TABLE_ROW", "pdf_source": "SDTMIG_v3.4", "pdf_page": 340, "pdf_parent_section": "§6.3.10 Subject Characteristics (SC)", "pdf_verbatim": "| VISITDY | Planned Study Day of Visit | Num | | Timing | Planned study day of the visit based on RFSTDTC in Demographics. | Perm |", "figure_ref": null, "candidates": [{"md_atom_id": "md_dmSC_ex_a028", "md_file": "knowledge_base/domains/SC/examples.md", "md_atom_type": "TABLE_ROW", "md_parent_section": "§SC.3 [Example 3]", "md_verbatim": "| 2 | ABC123 | SC | 305 | 2 | STDNTIND | Student Indicator | Y | Y | 2012-01-14 | -2 |", "score": 0.4295, "match_basis": "verbatim_token+domain_route:SC"}, {"md_atom_id": "md_dmSC_ex_a030", "md_file": "knowledge_base/domains/SC/examples.md", "md_atom_type": "TABLE_ROW", "md_parent_section": "§SC.3 [Example 3]", "md_verbatim": "| 4 | ABC123 | SC | 305 | 4 | STDNTIND | Student Indicator | Y | Y | 2013-01-22 | 374 |", "score": 0.429, "match_basis": "verbatim_token+domain_route:SC"}, {"md_atom_id": "md_dmSC_ex_a032", "md_file": "knowledge_base/domains/SC/examples.md", "md_atom_type": "TABLE_ROW", "md_parent_section": "§SC.3 [Example 3]", "md_verbatim": "| 6 | ABC123 | SC | 305 | 6 | STDNTIND | Student Indicator | N | N | 2014-01-16 | 734 |", "score": 0.429, "match_basis": "verbatim_token+domain_route:SC"}, {"md_atom_id": "md_dmSC_ex_a022", "md_file": "knowledge_base/domains/SC/examples.md", "md_atom_type": "TABLE_ROW", "md_parent_section": "§SC.2 [Example 2]", "md_verbatim": "| 3 | ABC-123 | SC | 101 | 3 | EGESTAGE | Estimated Gestational Age | PREGNANCY-RELATED FINDINGS | 265 | DAYS | 265 | 265 | DAYS | BALLARD | 13.1 | 2017-06-10 | 297 |", "score": 0.4212, "match_basis": "verbatim_token+domain_route:SC"}, {"md_atom_id": "md_dmSC_ex_a021", "md_file": "knowledge_base/domains/SC/examples.md", "md_atom_type": "TABLE_ROW", "md_parent_section": "§SC.2 [Example 2]", "md_verbatim": "| 2 | ABC-123 | SC | 101 | 2 | EGESTAGE | Estimated Gestational Age | PREGNANCY-RELATED FINDINGS | 135 | DAYS | 135 | 135 | DAYS | ULTRASOUND | 11 | 2017-04-01 | 226 |", "score": 0.4205, "match_basis": "verbatim_token+domain_route:SC"}], "candidate_count": 5, "zero_candidate": false}
{"pdf_atom_id": "ig34_p0341_a001", "pdf_atom_type": "TABLE_ROW", "pdf_source": "SDTMIG_v3.4", "pdf_page": 341, "pdf_parent_section": "§6.3.10 Subject Characteristics (SC)", "pdf_verbatim": "| TAETORD | Planned Order of Element within Arm | Num | | Timing | Number that gives the planned order of the element within the arm. | Perm |", "figure_ref": null, "candidates": [{"md_atom_id": "md_dmSC_ex_a020", "md_file": "knowledge_base/domains/SC/examples.md", "md_atom_type": "TABLE_ROW", "md_parent_section": "§SC.2 [Example 2]", "md_verbatim": "| 1 | ABC-123 | SC | 101 | 1 | EGESTAGE | Estimated Gestational Age | PREGNANCY-RELATED FINDINGS | 100 | DAYS | 100 | 100 | DAYS | MENSTRUAL HISTORY | 10 | 2017-03-02 | 196 |", "score": 0.427, "match_basis": "verbatim_token+domain_route:SC"}, {"md_atom_id": "md_dmSC_ex_a028", "md_file": "knowledge_base/domains/SC/examples.md", "md_atom_type": "TABLE_ROW", "md_parent_section": "§SC.3 [Example 3]", "md_verbatim": "| 2 | ABC123 | SC | 305 | 2 | STDNTIND | Student Indicator | Y | Y | 2012-01-14 | -2 |", "score": 0.42, "match_basis": "verbatim_token+domain_route:SC"}, {"md_atom_id": "md_dmSC_ex_a030", "md_file": "knowledge_base/domains/SC/examples.md", "md_atom_type": "TABLE_ROW", "md_parent_section": "§SC.3 [Example 3]", "md_verbatim": "| 4 | ABC123 | SC | 305 | 4 | STDNTIND | Student Indicator | Y | Y | 2013-01-22 | 374 |", "score": 0.4197, "match_basis": "verbatim_token+domain_route:SC"}, {"md_atom_id": "md_dmSC_ex_a032", "md_file": "knowledge_base/domains/SC/examples.md", "md_atom_type": "TABLE_ROW", "md_parent_section": "§SC.3 [Example 3]", "md_verbatim": "| 6 | ABC123 | SC | 305 | 6 | STDNTIND | Student Indicator | N | N | 2014-01-16 | 734 |", "score": 0.4197, "match_basis": "verbatim_token+domain_route:SC"}, {"md_atom_id": "md_dmSC_ex_a022", "md_file": "knowledge_base/domains/SC/examples.md", "md_atom_type": "TABLE_ROW", "md_parent_section": "§SC.2 [Example 2]", "md_verbatim": "| 3 | ABC-123 | SC | 101 | 3 | EGESTAGE | Estimated Gestational Age | PREGNANCY-RELATED FINDINGS | 265 | DAYS | 265 | 265 | DAYS | BALLARD | 13.1 | 2017-06-10 | 297 |", "score": 0.4143, "match_basis": "verbatim_token+domain_route:SC"}], "candidate_count": 5, "zero_candidate": false}
{"pdf_atom_id": "ig34_p0341_a002", "pdf_atom_type": "TABLE_ROW", "pdf_source": "SDTMIG_v3.4", "pdf_page": 341, "pdf_parent_section": "§6.3.10 Subject Characteristics (SC)", "pdf_verbatim": "| EPOCH | Epoch | Char | (EPOCH) | Timing | Epoch associated with the start date/time at which the assessment was made. | Perm |", "figure_ref": null, "candidates": [{"md_atom_id": "md_dmSC_ex_a020", "md_file": "knowledge_base/domains/SC/examples.md", "md_atom_type": "TABLE_ROW", "md_parent_section": "§SC.2 [Example 2]", "md_verbatim": "| 1 | ABC-123 | SC | 101 | 1 | EGESTAGE | Estimated Gestational Age | PREGNANCY-RELATED FINDINGS | 100 | DAYS | 100 | 100 | DAYS | MENSTRUAL HISTORY | 10 | 2017-03-02 | 196 |", "score": 0.4404, "match_basis": "verbatim_token+domain_route:SC"}, {"md_atom_id": "md_dmSC_ex_a022", "md_file": "knowledge_base/domains/SC/examples.md", "md_atom_type": "TABLE_ROW", "md_parent_section": "§SC.2 [Example 2]", "md_verbatim": "| 3 | ABC-123 | SC | 101 | 3 | EGESTAGE | Estimated Gestational Age | PREGNANCY-RELATED FINDINGS | 265 | DAYS | 265 | 265 | DAYS | BALLARD | 13.1 | 2017-06-10 | 297 |", "score": 0.4361, "match_basis": "verbatim_token+domain_route:SC"}, {"md_atom_id": "md_dmSC_ex_a021", "md_file": "knowledge_base/domains/SC/examples.md", "md_atom_type": "TABLE_ROW", "md_parent_section": "§SC.2 [Example 2]", "md_verbatim": "| 2 | ABC-123 | SC | 101 | 2 | EGESTAGE | Estimated Gestational Age | PREGNANCY-RELATED FINDINGS | 135 | DAYS | 135 | 135 | DAYS | ULTRASOUND | 11 | 2017-04-01 | 226 |", "score": 0.4349, "match_basis": "verbatim_token+domain_route:SC"}, {"md_atom_id": "md_dmSC_ex_a006", "md_file": "knowledge_base/domains/SC/examples.md", "md_atom_type": "TABLE_ROW", "md_parent_section": "§SC.1 [Example 1]", "md_verbatim": "| 1 | ABC | SC | ABC-001-001 | 1 | NATORIG | National Origin | UNITED STATES | USA | 1999-06-19 |", "score": 0.429, "match_basis": "verbatim_token+domain_route:SC"}, {"md_atom_id": "md_dmSC_ex_a029", "md_file": "knowledge_base/domains/SC/examples.md", "md_atom_type": "TABLE_ROW", "md_parent_section": "§SC.3 [Example 3]", "md_verbatim": "| 3 | ABC123 | SC | 305 | 3 | MARISTAT | Marital Status | DOMESTIC PARTNER | DOMESTIC PARTNER | 2013-01-22 | 374 |", "score": 0.4176, "match_basis": "verbatim_token+domain_route:SC"}], "candidate_count": 5, "zero_candidate": false}
{"pdf_atom_id": "ig34_p0341_a003", "pdf_atom_type": "TABLE_ROW", "pdf_source": "SDTMIG_v3.4", "pdf_page": 341, "pdf_parent_section": "§6.3.10 Subject Characteristics (SC)", "pdf_verbatim": "| SCDTC | Date/Time of Collection | Char | ISO 8601 datetime or interval | Timing | Collection date and time of the subject characteristic represented in ISO 8601 character format. | Perm |", "figure_ref": null, "candidates": [{"md_atom_id": "md_dmSC_ex_a020", "md_file": "knowledge_base/domains/SC/examples.md", "md_atom_type": "TABLE_ROW", "md_parent_section": "§SC.2 [Example 2]", "md_verbatim": "| 1 | ABC-123 | SC | 101 | 1 | EGESTAGE | Estimated Gestational Age | PREGNANCY-RELATED FINDINGS | 100 | DAYS | 100 | 100 | DAYS | MENSTRUAL HISTORY | 10 | 2017-03-02 | 196 |", "score": 0.4571, "match_basis": "verbatim_token+domain_route:SC"}, {"md_atom_id": "md_dmSC_ex_a022", "md_file": "knowledge_base/domains/SC/examples.md", "md_atom_type": "TABLE_ROW", "md_parent_section": "§SC.2 [Example 2]", "md_verbatim": "| 3 | ABC-123 | SC | 101 | 3 | EGESTAGE | Estimated Gestational Age | PREGNANCY-RELATED FINDINGS | 265 | DAYS | 265 | 265 | DAYS | BALLARD | 13.1 | 2017-06-10 | 297 |", "score": 0.4545, "match_basis": "verbatim_token+domain_route:SC"}, {"md_atom_id": "md_dmSC_ex_a021", "md_file": "knowledge_base/domains/SC/examples.md", "md_atom_type": "TABLE_ROW", "md_parent_section": "§SC.2 [Example 2]", "md_verbatim": "| 2 | ABC-123 | SC | 101 | 2 | EGESTAGE | Estimated Gestational Age | PREGNANCY-RELATED FINDINGS | 135 | DAYS | 135 | 135 | DAYS | ULTRASOUND | 11 | 2017-04-01 | 226 |", "score": 0.4529, "match_basis": "verbatim_token+domain_route:SC"}, {"md_atom_id": "md_dmSC_ex_a006", "md_file": "knowledge_base/domains/SC/examples.md", "md_atom_type": "TABLE_ROW", "md_parent_section": "§SC.1 [Example 1]", "md_verbatim": "| 1 | ABC | SC | ABC-001-001 | 1 | NATORIG | National Origin | UNITED STATES | USA | 1999-06-19 |", "score": 0.4296, "match_basis": "verbatim_token+domain_route:SC"}, {"md_atom_id": "md_dmSC_ex_a029", "md_file": "knowledge_base/domains/SC/examples.md", "md_atom_type": "TABLE_ROW", "md_parent_section": "§SC.3 [Example 3]", "md_verbatim": "| 3 | ABC123 | SC | 305 | 3 | MARISTAT | Marital Status | DOMESTIC PARTNER | DOMESTIC PARTNER | 2013-01-22 | 374 |", "score": 0.4279, "match_basis": "verbatim_token+domain_route:SC"}], "candidate_count": 5, "zero_candidate": false}
{"pdf_atom_id": "ig34_p0341_a004", "pdf_atom_type": "TABLE_ROW", "pdf_source": "SDTMIG_v3.4", "pdf_page": 341, "pdf_parent_section": "§6.3.10 Subject Characteristics (SC)", "pdf_verbatim": "| SCDY | Study Day of Examination | Num | | Timing | Study day of collection, measured as integer days. Algorithm for calculations must be relative to the sponsor-defined RFSTDTC variable in Demographics. | Perm |", "figure_ref": null, "candidates": [{"md_atom_id": "md_dmSC_ex_a022", "md_file": "knowledge_base/domains/SC/examples.md", "md_atom_type": "TABLE_ROW", "md_parent_section": "§SC.2 [Example 2]", "md_verbatim": "| 3 | ABC-123 | SC | 101 | 3 | EGESTAGE | Estimated Gestational Age | PREGNANCY-RELATED FINDINGS | 265 | DAYS | 265 | 265 | DAYS | BALLARD | 13.1 | 2017-06-10 | 297 |", "score": 0.4567, "match_basis": "verbatim_token+domain_route:SC"}, {"md_atom_id": "md_dmSC_ex_a021", "md_file": "knowledge_base/domains/SC/examples.md", "md_atom_type": "TABLE_ROW", "md_parent_section": "§SC.2 [Example 2]", "md_verbatim": "| 2 | ABC-123 | SC | 101 | 2 | EGESTAGE | Estimated Gestational Age | PREGNANCY-RELATED FINDINGS | 135 | DAYS | 135 | 135 | DAYS | ULTRASOUND | 11 | 2017-04-01 | 226 |", "score": 0.4554, "match_basis": "verbatim_token+domain_route:SC"}, {"md_atom_id": "md_dmSC_ex_a020", "md_file": "knowledge_base/domains/SC/examples.md", "md_atom_type": "TABLE_ROW", "md_parent_section": "§SC.2 [Example 2]", "md_verbatim": "| 1 | ABC-123 | SC | 101 | 1 | EGESTAGE | Estimated Gestational Age | PREGNANCY-RELATED FINDINGS | 100 | DAYS | 100 | 100 | DAYS | MENSTRUAL HISTORY | 10 | 2017-03-02 | 196 |", "score": 0.4537, "match_basis": "verbatim_token+domain_route:SC"}, {"md_atom_id": "md_dmSC_ex_a010", "md_file": "knowledge_base/domains/SC/examples.md", "md_atom_type": "TABLE_ROW", "md_parent_section": "§SC.1 [Example 1]", "md_verbatim": "| 5 | ABC | SC | ABC-001-003 | 1 | NATORIG | National Origin | USA | USA | 1999-05-03 |", "score": 0.4288, "match_basis": "verbatim_token+domain_route:SC"}, {"md_atom_id": "md_dmSC_ex_a008", "md_file": "knowledge_base/domains/SC/examples.md", "md_atom_type": "TABLE_ROW", "md_parent_section": "§SC.1 [Example 1]", "md_verbatim": "| 3 | ABC | SC | ABC-001-002 | 1 | NATORIG | National Origin | CANADA | CAN | 1999-03-19 |", "score": 0.428, "match_basis": "verbatim_token+domain_route:SC"}], "candidate_count": 5, "zero_candidate": false}
{"pdf_atom_id": "ig34_p0341_a005", "pdf_atom_type": "NOTE", "pdf_source": "SDTMIG_v3.4", "pdf_page": 341, "pdf_parent_section": "§6.3.10 Subject Characteristics (SC)", "pdf_verbatim": "1In this column, an asterisk (*) indicates that the variable may be subject to controlled terminology. CDISC/NCI codelist values are enclosed in parentheses.", "figure_ref": null, "candidates": [{"md_atom_id": "md_dmSC_ex_a016", "md_file": "knowledge_base/domains/SC/examples.md", "md_atom_type": "SENTENCE", "md_parent_section": "§SC.2 [Example 2]", "md_verbatim": "Although there is a test for gestational age in the CDISC Controlled Terminology for Reproductive Findings, gestational age is an attribute of the fetus or infant, and is not a finding about their reproductive system; in this example, gestational age is represented in the Subject Characteristics (SC) domain. The structure of the SC domain formerly was 1 record per characteristic (test) per subject, but with this version of the SDTMIG the structure has changed to allow multiple records per test. This example shows multiple estimates of gestational age for the same subject. Not all of the values of METHOD shown in this example are currently in the METHOD codelist.", "score": 0.4455, "match_basis": "verbatim_token+domain_route:SC"}, {"md_atom_id": "md_dmSC_assn_a003", "md_file": "knowledge_base/domains/SC/assumptions.md", "md_atom_type": "LIST_ITEM", "md_parent_section": "§SC [SC — Assumptions]", "md_verbatim": "2. Associations between some subject characteristic tests and response codelists are described in the SC Codetable, available at https://www.cdisc.org/standards/terminology/controlled-terminology.", "score": 0.4152, "match_basis": "verbatim_token+domain_route:SC"}, {"md_atom_id": "md_dmSC_ex_a015", "md_file": "knowledge_base/domains/SC/examples.md", "md_atom_type": "SENTENCE", "md_parent_section": "§SC.2 [Example 2]", "md_verbatim": "In this example, only infants were study subjects. However, with the possible exception of USUBJID values, the example would be unchanged for a study in which mothers were study subjects. If these data were collected for an infant who was an associated person, they would be represented in the APSC domain and the dataset would include APID, RSUBJID, and SREL, rather than USUBJID.", "score": 0.3829, "match_basis": "verbatim_token+domain_route:SC"}, {"md_atom_id": "md_dmSC_ex_a003", "md_file": "knowledge_base/domains/SC/examples.md", "md_atom_type": "SENTENCE", "md_parent_section": "§SC.1 [Example 1]", "md_verbatim": "This example shows data collected once per subject that does not fit into the Demographics (DM) domain. For this example, national origin and marital status were collected.", "score": 0.3713, "match_basis": "verbatim_token+domain_route:SC"}, {"md_atom_id": "md_dmSC_ex_a024", "md_file": "knowledge_base/domains/SC/examples.md", "md_atom_type": "SENTENCE", "md_parent_section": "§SC.3 [Example 3]", "md_verbatim": "This example shows data from a multi-year study in which marital status and whether the subject was a student were collected annually.", "score": 0.3705, "match_basis": "verbatim_token+domain_route:SC"}], "candidate_count": 5, "zero_candidate": false}
{"pdf_atom_id": "ig34_p0341_a006", "pdf_atom_type": "HEADING", "pdf_source": "SDTMIG_v3.4", "pdf_page": 341, "pdf_parent_section": "§6.3.10 Subject Characteristics (SC)", "pdf_verbatim": "SC – Assumptions", "figure_ref": null, "candidates": [{"md_atom_id": "md_dmSC_assn_a001", "md_file": "knowledge_base/domains/SC/assumptions.md", "md_atom_type": "HEADING", "md_parent_section": "§SC [SC — Assumptions]", "md_verbatim": "# SC — Assumptions", "score": 1.0, "match_basis": "verbatim_token+domain_route:SC"}, {"md_atom_id": "md_dmSC_ex_a001", "md_file": "knowledge_base/domains/SC/examples.md", "md_atom_type": "HEADING", "md_parent_section": "§SC [SC — Examples]", "md_verbatim": "# SC — Examples", "score": 0.4, "match_basis": "verbatim_token+domain_route:SC"}, {"md_atom_id": "md_dmSC_ex_a002", "md_file": "knowledge_base/domains/SC/examples.md", "md_atom_type": "HEADING", "md_parent_section": "§SC [SC — Examples]", "md_verbatim": "## Example 1", "score": 0.4, "match_basis": "verbatim_token+domain_route:SC"}, {"md_atom_id": "md_dmSC_ex_a014", "md_file": "knowledge_base/domains/SC/examples.md", "md_atom_type": "HEADING", "md_parent_section": "§SC [SC — Examples]", "md_verbatim": "## Example 2", "score": 0.4, "match_basis": "verbatim_token+domain_route:SC"}, {"md_atom_id": "md_dmSC_ex_a023", "md_file": "knowledge_base/domains/SC/examples.md", "md_atom_type": "HEADING", "md_parent_section": "§SC [SC — Examples]", "md_verbatim": "## Example 3", "score": 0.4, "match_basis": "verbatim_token+domain_route:SC"}], "candidate_count": 5, "zero_candidate": false}
{"pdf_atom_id": "ig34_p0341_a007", "pdf_atom_type": "LIST_ITEM", "pdf_source": "SDTMIG_v3.4", "pdf_page": 341, "pdf_parent_section": "SC – Assumptions", "pdf_verbatim": "The structure of subject characteristics is based on the Findings general observation class and is an extension of the demographics data, including socioeconomic or other broad characteristics. The structure for demographic data is fixed and includes date of birth, age, sex, race, ethnicity, and country. Subject characteristics may be collected periodically over time. Some examples of subject characteristics include education level, marital status, and national origin.", "figure_ref": null, "candidates": [{"md_atom_id": "md_dmSC_assn_a002", "md_file": "knowledge_base/domains/SC/assumptions.md", "md_atom_type": "LIST_ITEM", "md_parent_section": "§SC [SC — Assumptions]", "md_verbatim": "1. The structure of subject characteristics is based on the Findings general observation class and is an extension of the demographics data, including socioeconomic or other broad characteristics. The structure for demographic data is fixed and includes date of birth, age, sex, race, ethnicity, and country. Subject characteristics may be collected periodically over time. Some examples of subject characteristics include education level, marital status, and national origin.", "score": 1.0, "match_basis": "verbatim_token+domain_route:SC"}, {"md_atom_id": "md_dmSC_assn_a003", "md_file": "knowledge_base/domains/SC/assumptions.md", "md_atom_type": "LIST_ITEM", "md_parent_section": "§SC [SC — Assumptions]", "md_verbatim": "2. Associations between some subject characteristic tests and response codelists are described in the SC Codetable, available at https://www.cdisc.org/standards/terminology/controlled-terminology.", "score": 0.4861, "match_basis": "verbatim_token+domain_route:SC"}, {"md_atom_id": "md_dmSC_assn_a004", "md_file": "knowledge_base/domains/SC/assumptions.md", "md_atom_type": "LIST_ITEM", "md_parent_section": "§SC [SC — Assumptions]", "md_verbatim": "3. Any Identifiers, Timing variables, or Findings general observation class qualifiers may be added to the SC domain, but the following qualifiers would generally not be used in SC: --MODIFY, --POS, --BODSYS, --ORNRLO, --ORNRHI, --STNRLO, --STNRHI, --STNRC, --NRIND, --RESCAT, --XFN, --NAM, --LOINC, --SPEC, --SPCCND, --BLFL, --LOBXFL, --FAST, --DRVFL, --TOX, --TOXGR, --SEV.", "score": 0.4833, "match_basis": "verbatim_token+domain_route:SC"}, {"md_atom_id": "md_dmSC_ex_a003", "md_file": "knowledge_base/domains/SC/examples.md", "md_atom_type": "SENTENCE", "md_parent_section": "§SC.1 [Example 1]", "md_verbatim": "This example shows data collected once per subject that does not fit into the Demographics (DM) domain. For this example, national origin and marital status were collected.", "score": 0.4736, "match_basis": "verbatim_token+domain_route:SC"}, {"md_atom_id": "md_dmSC_ex_a016", "md_file": "knowledge_base/domains/SC/examples.md", "md_atom_type": "SENTENCE", "md_parent_section": "§SC.2 [Example 2]", "md_verbatim": "Although there is a test for gestational age in the CDISC Controlled Terminology for Reproductive Findings, gestational age is an attribute of the fetus or infant, and is not a finding about their reproductive system; in this example, gestational age is represented in the Subject Characteristics (SC) domain. The structure of the SC domain formerly was 1 record per characteristic (test) per subject, but with this version of the SDTMIG the structure has changed to allow multiple records per test. This example shows multiple estimates of gestational age for the same subject. Not all of the values of METHOD shown in this example are currently in the METHOD codelist.", "score": 0.4403, "match_basis": "verbatim_token+domain_route:SC"}], "candidate_count": 5, "zero_candidate": false}
{"pdf_atom_id": "ig34_p0341_a008", "pdf_atom_type": "LIST_ITEM", "pdf_source": "SDTMIG_v3.4", "pdf_page": 341, "pdf_parent_section": "SC – Assumptions", "pdf_verbatim": "Associations between some subject characteristic tests and response codelists are described in the SC Codetable, available at https://www.cdisc.org/standards/terminology/controlled-terminology.", "figure_ref": null, "candidates": [{"md_atom_id": "md_dmSC_assn_a003", "md_file": "knowledge_base/domains/SC/assumptions.md", "md_atom_type": "LIST_ITEM", "md_parent_section": "§SC [SC — Assumptions]", "md_verbatim": "2. Associations between some subject characteristic tests and response codelists are described in the SC Codetable, available at https://www.cdisc.org/standards/terminology/controlled-terminology.", "score": 1.0, "match_basis": "verbatim_token+domain_route:SC"}, {"md_atom_id": "md_dmSC_assn_a002", "md_file": "knowledge_base/domains/SC/assumptions.md", "md_atom_type": "LIST_ITEM", "md_parent_section": "§SC [SC — Assumptions]", "md_verbatim": "1. The structure of subject characteristics is based on the Findings general observation class and is an extension of the demographics data, including socioeconomic or other broad characteristics. The structure for demographic data is fixed and includes date of birth, age, sex, race, ethnicity, and country. Subject characteristics may be collected periodically over time. Some examples of subject characteristics include education level, marital status, and national origin.", "score": 0.4861, "match_basis": "verbatim_token+domain_route:SC"}, {"md_atom_id": "md_dmSC_ex_a016", "md_file": "knowledge_base/domains/SC/examples.md", "md_atom_type": "SENTENCE", "md_parent_section": "§SC.2 [Example 2]", "md_verbatim": "Although there is a test for gestational age in the CDISC Controlled Terminology for Reproductive Findings, gestational age is an attribute of the fetus or infant, and is not a finding about their reproductive system; in this example, gestational age is represented in the Subject Characteristics (SC) domain. The structure of the SC domain formerly was 1 record per characteristic (test) per subject, but with this version of the SDTMIG the structure has changed to allow multiple records per test. This example shows multiple estimates of gestational age for the same subject. Not all of the values of METHOD shown in this example are currently in the METHOD codelist.", "score": 0.4477, "match_basis": "verbatim_token+domain_route:SC"}, {"md_atom_id": "md_dmSC_assn_a004", "md_file": "knowledge_base/domains/SC/assumptions.md", "md_atom_type": "LIST_ITEM", "md_parent_section": "§SC [SC — Assumptions]", "md_verbatim": "3. Any Identifiers, Timing variables, or Findings general observation class qualifiers may be added to the SC domain, but the following qualifiers would generally not be used in SC: --MODIFY, --POS, --BODSYS, --ORNRLO, --ORNRHI, --STNRLO, --STNRHI, --STNRC, --NRIND, --RESCAT, --XFN, --NAM, --LOINC, --SPEC, --SPCCND, --BLFL, --LOBXFL, --FAST, --DRVFL, --TOX, --TOXGR, --SEV.", "score": 0.4319, "match_basis": "verbatim_token+domain_route:SC"}, {"md_atom_id": "md_dmSC_ex_a015", "md_file": "knowledge_base/domains/SC/examples.md", "md_atom_type": "SENTENCE", "md_parent_section": "§SC.2 [Example 2]", "md_verbatim": "In this example, only infants were study subjects. However, with the possible exception of USUBJID values, the example would be unchanged for a study in which mothers were study subjects. If these data were collected for an infant who was an associated person, they would be represented in the APSC domain and the dataset would include APID, RSUBJID, and SREL, rather than USUBJID.", "score": 0.373, "match_basis": "verbatim_token+domain_route:SC"}], "candidate_count": 5, "zero_candidate": false}
{"pdf_atom_id": "ig34_p0341_a009", "pdf_atom_type": "LIST_ITEM", "pdf_source": "SDTMIG_v3.4", "pdf_page": 341, "pdf_parent_section": "SC – Assumptions", "pdf_verbatim": "Any Identifiers, Timing variables, or Findings general observation class qualifiers may be added to the SC domain, but the following qualifiers would generally not be used in SC: --MODIFY, --POS, --BODSYS, --ORNRLO, --ORNRHI, --STNRLO, --STNRHI, --STNRC, --NRIND, --RESCAT, --XFN, --NAM, --LOINC, --SPEC, --SPCCND, --BLFL, --LOBXFL, --FAST, --DRVFL, --TOX, --TOXGR, --SEV.", "figure_ref": null, "candidates": [{"md_atom_id": "md_dmSC_assn_a004", "md_file": "knowledge_base/domains/SC/assumptions.md", "md_atom_type": "LIST_ITEM", "md_parent_section": "§SC [SC — Assumptions]", "md_verbatim": "3. Any Identifiers, Timing variables, or Findings general observation class qualifiers may be added to the SC domain, but the following qualifiers would generally not be used in SC: --MODIFY, --POS, --BODSYS, --ORNRLO, --ORNRHI, --STNRLO, --STNRHI, --STNRC, --NRIND, --RESCAT, --XFN, --NAM, --LOINC, --SPEC, --SPCCND, --BLFL, --LOBXFL, --FAST, --DRVFL, --TOX, --TOXGR, --SEV.", "score": 1.0, "match_basis": "verbatim_token+domain_route:SC"}, {"md_atom_id": "md_dmSC_assn_a002", "md_file": "knowledge_base/domains/SC/assumptions.md", "md_atom_type": "LIST_ITEM", "md_parent_section": "§SC [SC — Assumptions]", "md_verbatim": "1. The structure of subject characteristics is based on the Findings general observation class and is an extension of the demographics data, including socioeconomic or other broad characteristics. The structure for demographic data is fixed and includes date of birth, age, sex, race, ethnicity, and country. Subject characteristics may be collected periodically over time. Some examples of subject characteristics include education level, marital status, and national origin.", "score": 0.4833, "match_basis": "verbatim_token+domain_route:SC"}, {"md_atom_id": "md_dmSC_assn_a003", "md_file": "knowledge_base/domains/SC/assumptions.md", "md_atom_type": "LIST_ITEM", "md_parent_section": "§SC [SC — Assumptions]", "md_verbatim": "2. Associations between some subject characteristic tests and response codelists are described in the SC Codetable, available at https://www.cdisc.org/standards/terminology/controlled-terminology.", "score": 0.4319, "match_basis": "verbatim_token+domain_route:SC"}, {"md_atom_id": "md_dmSC_ex_a017", "md_file": "knowledge_base/domains/SC/examples.md", "md_atom_type": "SENTENCE", "md_parent_section": "§SC.2 [Example 2]", "md_verbatim": "Gestational age is often expressed (and sometimes collected) in weeks and days. SDTM does not support the recording of an individual finding result with mixed units (e.g., \"20 weeks and 5 days\"), so the gestational age would be converted to days for representation in SDTM.", "score": 0.3682, "match_basis": "verbatim_token+domain_route:SC"}, {"md_atom_id": "md_dmSC_ex_a016", "md_file": "knowledge_base/domains/SC/examples.md", "md_atom_type": "SENTENCE", "md_parent_section": "§SC.2 [Example 2]", "md_verbatim": "Although there is a test for gestational age in the CDISC Controlled Terminology for Reproductive Findings, gestational age is an attribute of the fetus or infant, and is not a finding about their reproductive system; in this example, gestational age is represented in the Subject Characteristics (SC) domain. The structure of the SC domain formerly was 1 record per characteristic (test) per subject, but with this version of the SDTMIG the structure has changed to allow multiple records per test. This example shows multiple estimates of gestational age for the same subject. Not all of the values of METHOD shown in this example are currently in the METHOD codelist.", "score": 0.3653, "match_basis": "verbatim_token+domain_route:SC"}], "candidate_count": 5, "zero_candidate": false}
{"pdf_atom_id": "ig34_p0341_a010", "pdf_atom_type": "HEADING", "pdf_source": "SDTMIG_v3.4", "pdf_page": 341, "pdf_parent_section": "§6.3.10 Subject Characteristics (SC)", "pdf_verbatim": "SC – Examples", "figure_ref": null, "candidates": [{"md_atom_id": "md_dmSC_ex_a001", "md_file": "knowledge_base/domains/SC/examples.md", "md_atom_type": "HEADING", "md_parent_section": "§SC [SC — Examples]", "md_verbatim": "# SC — Examples", "score": 1.0, "match_basis": "verbatim_token+domain_route:SC"}, {"md_atom_id": "md_dmSC_ex_a002", "md_file": "knowledge_base/domains/SC/examples.md", "md_atom_type": "HEADING", "md_parent_section": "§SC [SC — Examples]", "md_verbatim": "## Example 1", "score": 0.9, "match_basis": "verbatim_token+domain_route:SC"}, {"md_atom_id": "md_dmSC_ex_a014", "md_file": "knowledge_base/domains/SC/examples.md", "md_atom_type": "HEADING", "md_parent_section": "§SC [SC — Examples]", "md_verbatim": "## Example 2", "score": 0.9, "match_basis": "verbatim_token+domain_route:SC"}, {"md_atom_id": "md_dmSC_ex_a023", "md_file": "knowledge_base/domains/SC/examples.md", "md_atom_type": "HEADING", "md_parent_section": "§SC [SC — Examples]", "md_verbatim": "## Example 3", "score": 0.9, "match_basis": "verbatim_token+domain_route:SC"}, {"md_atom_id": "md_dmSC_assn_a001", "md_file": "knowledge_base/domains/SC/assumptions.md", "md_atom_type": "HEADING", "md_parent_section": "§SC [SC — Assumptions]", "md_verbatim": "# SC — Assumptions", "score": 0.4, "match_basis": "verbatim_token+domain_route:SC"}], "candidate_count": 5, "zero_candidate": false}
{"pdf_atom_id": "ig34_p0341_a011", "pdf_atom_type": "HEADING", "pdf_source": "SDTMIG_v3.4", "pdf_page": 341, "pdf_parent_section": "SC – Examples", "pdf_verbatim": "Example 1", "figure_ref": null, "candidates": [{"md_atom_id": "md_dmSC_ex_a002", "md_file": "knowledge_base/domains/SC/examples.md", "md_atom_type": "HEADING", "md_parent_section": "§SC [SC — Examples]", "md_verbatim": "## Example 1", "score": 1.0, "match_basis": "verbatim_token+domain_route:SC"}, {"md_atom_id": "md_dmSC_ex_a014", "md_file": "knowledge_base/domains/SC/examples.md", "md_atom_type": "HEADING", "md_parent_section": "§SC [SC — Examples]", "md_verbatim": "## Example 2", "score": 1.0, "match_basis": "verbatim_token+domain_route:SC"}, {"md_atom_id": "md_dmSC_ex_a023", "md_file": "knowledge_base/domains/SC/examples.md", "md_atom_type": "HEADING", "md_parent_section": "§SC [SC — Examples]", "md_verbatim": "## Example 3", "score": 1.0, "match_basis": "verbatim_token+domain_route:SC"}, {"md_atom_id": "md_dmSC_ex_a001", "md_file": "knowledge_base/domains/SC/examples.md", "md_atom_type": "HEADING", "md_parent_section": "§SC [SC — Examples]", "md_verbatim": "# SC — Examples", "score": 0.9, "match_basis": "verbatim_token+domain_route:SC"}, {"md_atom_id": "md_dmSC_assn_a001", "md_file": "knowledge_base/domains/SC/assumptions.md", "md_atom_type": "HEADING", "md_parent_section": "§SC [SC — Assumptions]", "md_verbatim": "# SC — Assumptions", "score": 0.4, "match_basis": "verbatim_token+domain_route:SC"}], "candidate_count": 5, "zero_candidate": false}
{"pdf_atom_id": "ig34_p0341_a012", "pdf_atom_type": "SENTENCE", "pdf_source": "SDTMIG_v3.4", "pdf_page": 341, "pdf_parent_section": "SC – Examples", "pdf_verbatim": "This example shows data collected once per subject that does not fit into the Demographics (DM) domain. For this example, national origin and marital status were collected.", "figure_ref": null, "candidates": [{"md_atom_id": "md_dmSC_ex_a003", "md_file": "knowledge_base/domains/SC/examples.md", "md_atom_type": "SENTENCE", "md_parent_section": "§SC.1 [Example 1]", "md_verbatim": "This example shows data collected once per subject that does not fit into the Demographics (DM) domain. For this example, national origin and marital status were collected.", "score": 1.0, "match_basis": "verbatim_token+domain_route:SC"}, {"md_atom_id": "md_dmSC_ex_a024", "md_file": "knowledge_base/domains/SC/examples.md", "md_atom_type": "SENTENCE", "md_parent_section": "§SC.3 [Example 3]", "md_verbatim": "This example shows data from a multi-year study in which marital status and whether the subject was a student were collected annually.", "score": 0.6265, "match_basis": "verbatim_token+domain_route:SC"}, {"md_atom_id": "md_dmSC_ex_a015", "md_file": "knowledge_base/domains/SC/examples.md", "md_atom_type": "SENTENCE", "md_parent_section": "§SC.2 [Example 2]", "md_verbatim": "In this example, only infants were study subjects. However, with the possible exception of USUBJID values, the example would be unchanged for a study in which mothers were study subjects. If these data were collected for an infant who was an associated person, they would be represented in the APSC domain and the dataset would include APID, RSUBJID, and SREL, rather than USUBJID.", "score": 0.5304, "match_basis": "verbatim_token+domain_route:SC"}, {"md_atom_id": "md_dmSC_ex_a016", "md_file": "knowledge_base/domains/SC/examples.md", "md_atom_type": "SENTENCE", "md_parent_section": "§SC.2 [Example 2]", "md_verbatim": "Although there is a test for gestational age in the CDISC Controlled Terminology for Reproductive Findings, gestational age is an attribute of the fetus or infant, and is not a finding about their reproductive system; in this example, gestational age is represented in the Subject Characteristics (SC) domain. The structure of the SC domain formerly was 1 record per characteristic (test) per subject, but with this version of the SDTMIG the structure has changed to allow multiple records per test. This example shows multiple estimates of gestational age for the same subject. Not all of the values of METHOD shown in this example are currently in the METHOD codelist.", "score": 0.5032, "match_basis": "verbatim_token+domain_route:SC"}, {"md_atom_id": "md_dmSC_ex_a017", "md_file": "knowledge_base/domains/SC/examples.md", "md_atom_type": "SENTENCE", "md_parent_section": "§SC.2 [Example 2]", "md_verbatim": "Gestational age is often expressed (and sometimes collected) in weeks and days. SDTM does not support the recording of an individual finding result with mixed units (e.g., \"20 weeks and 5 days\"), so the gestational age would be converted to days for representation in SDTM.", "score": 0.4822, "match_basis": "verbatim_token+domain_route:SC"}], "candidate_count": 5, "zero_candidate": false}
{"pdf_atom_id": "ig34_p0341_a013", "pdf_atom_type": "CODE_LITERAL", "pdf_source": "SDTMIG_v3.4", "pdf_page": 341, "pdf_parent_section": "SC – Examples", "pdf_verbatim": "sc.xpt", "figure_ref": null, "candidates": [{"md_atom_id": "md_dmSC_ex_a004", "md_file": "knowledge_base/domains/SC/examples.md", "md_atom_type": "SENTENCE", "md_parent_section": "§SC.1 [Example 1]", "md_verbatim": "**sc.xpt**", "score": 0.79, "match_basis": "verbatim_token+domain_route:SC"}, {"md_atom_id": "md_dmSC_ex_a018", "md_file": "knowledge_base/domains/SC/examples.md", "md_atom_type": "SENTENCE", "md_parent_section": "§SC.2 [Example 2]", "md_verbatim": "**sc.xpt**", "score": 0.79, "match_basis": "verbatim_token+domain_route:SC"}, {"md_atom_id": "md_dmSC_ex_a025", "md_file": "knowledge_base/domains/SC/examples.md", "md_atom_type": "SENTENCE", "md_parent_section": "§SC.3 [Example 3]", "md_verbatim": "**sc.xpt**", "score": 0.79, "match_basis": "verbatim_token+domain_route:SC"}, {"md_atom_id": "md_dmSC_assn_a001", "md_file": "knowledge_base/domains/SC/assumptions.md", "md_atom_type": "HEADING", "md_parent_section": "§SC [SC — Assumptions]", "md_verbatim": "# SC — Assumptions", "score": 0.19, "match_basis": "verbatim_token+domain_route:SC"}, {"md_atom_id": "md_dmSC_assn_a002", "md_file": "knowledge_base/domains/SC/assumptions.md", "md_atom_type": "LIST_ITEM", "md_parent_section": "§SC [SC — Assumptions]", "md_verbatim": "1. The structure of subject characteristics is based on the Findings general observation class and is an extension of the demographics data, including socioeconomic or other broad characteristics. The structure for demographic data is fixed and includes date of birth, age, sex, race, ethnicity, and country. Subject characteristics may be collected periodically over time. Some examples of subject characteristics include education level, marital status, and national origin.", "score": 0.19, "match_basis": "verbatim_token+domain_route:SC"}, {"md_atom_id": "md_dmSC_assn_a003", "md_file": "knowledge_base/domains/SC/assumptions.md", "md_atom_type": "LIST_ITEM", "md_parent_section": "§SC [SC — Assumptions]", "md_verbatim": "2. Associations between some subject characteristic tests and response codelists are described in the SC Codetable, available at https://www.cdisc.org/standards/terminology/controlled-terminology.", "score": 0.19, "match_basis": "verbatim_token+domain_route:SC"}, {"md_atom_id": "md_dmSC_assn_a004", "md_file": "knowledge_base/domains/SC/assumptions.md", "md_atom_type": "LIST_ITEM", "md_parent_section": "§SC [SC — Assumptions]", "md_verbatim": "3. Any Identifiers, Timing variables, or Findings general observation class qualifiers may be added to the SC domain, but the following qualifiers would generally not be used in SC: --MODIFY, --POS, --BODSYS, --ORNRLO, --ORNRHI, --STNRLO, --STNRHI, --STNRC, --NRIND, --RESCAT, --XFN, --NAM, --LOINC, --SPEC, --SPCCND, --BLFL, --LOBXFL, --FAST, --DRVFL, --TOX, --TOXGR, --SEV.", "score": 0.19, "match_basis": "verbatim_token+domain_route:SC"}, {"md_atom_id": "md_dmSC_ex_a001", "md_file": "knowledge_base/domains/SC/examples.md", "md_atom_type": "HEADING", "md_parent_section": "§SC [SC — Examples]", "md_verbatim": "# SC — Examples", "score": 0.19, "match_basis": "verbatim_token+domain_route:SC"}, {"md_atom_id": "md_dmSC_ex_a002", "md_file": "knowledge_base/domains/SC/examples.md", "md_atom_type": "HEADING", "md_parent_section": "§SC [SC — Examples]", "md_verbatim": "## Example 1", "score": 0.19, "match_basis": "verbatim_token+domain_route:SC"}, {"md_atom_id": "md_dmSC_ex_a003", "md_file": "knowledge_base/domains/SC/examples.md", "md_atom_type": "SENTENCE", "md_parent_section": "§SC.1 [Example 1]", "md_verbatim": "This example shows data collected once per subject that does not fit into the Demographics (DM) domain. For this example, national origin and marital status were collected.", "score": 0.19, "match_basis": "verbatim_token+domain_route:SC"}], "candidate_count": 10, "zero_candidate": false}
{"pdf_atom_id": "ig34_p0341_a014", "pdf_atom_type": "TABLE_HEADER", "pdf_source": "SDTMIG_v3.4", "pdf_page": 341, "pdf_parent_section": "SC – Examples", "pdf_verbatim": "| Row | STUDYID | DOMAIN | USUBJID | SCSEQ | SCTESTCD | SCTEST | SCORRES | SCSTRESC | SCDTC |", "figure_ref": null, "candidates": [{"md_atom_id": "md_dmSC_ex_a005", "md_file": "knowledge_base/domains/SC/examples.md", "md_atom_type": "TABLE_HEADER", "md_parent_section": "§SC.1 [Example 1]", "md_verbatim": "| Row | STUDYID | DOMAIN | USUBJID | SCSEQ | SCTESTCD | SCTEST | SCORRES | SCSTRESC | SCDTC |\n|-----|---------|--------|---------|-------|----------|--------|---------|----------|-------|", "score": 1.0, "match_basis": "verbatim_token+domain_route:SC"}, {"md_atom_id": "md_dmSC_ex_a026", "md_file": "knowledge_base/domains/SC/examples.md", "md_atom_type": "TABLE_HEADER", "md_parent_section": "§SC.3 [Example 3]", "md_verbatim": "| Row | STUDYID | DOMAIN | USUBJID | SCSEQ | SCTESTCD | SCTEST | SCORRES | SCSTRESC | SCDTC | SCDY |\n|-----|---------|--------|---------|-------|----------|--------|---------|----------|-------|------|", "score": 0.9838, "match_basis": "verbatim_token+domain_route:SC"}, {"md_atom_id": "md_dmSC_ex_a019", "md_file": "knowledge_base/domains/SC/examples.md", "md_atom_type": "TABLE_HEADER", "md_parent_section": "§SC.2 [Example 2]", "md_verbatim": "| Row | STUDYID | DOMAIN | USUBJID | SCSEQ | SCTESTCD | SCTEST | SCCAT | SCORRES | SCORESU | SCSTRESC | SCSTRESN | SCSTRESU | SCMETHOD | VISITNUM | SCDTC | SCDY |\n|-----|---------|--------|---------|-------|----------|--------|-------|---------|---------|----------|----------|----------|----------|----------|-------|------|", "score": 0.7927, "match_basis": "verbatim_token+domain_route:SC"}, {"md_atom_id": "md_dmSC_ex_a028", "md_file": "knowledge_base/domains/SC/examples.md", "md_atom_type": "TABLE_ROW", "md_parent_section": "§SC.3 [Example 3]", "md_verbatim": "| 2 | ABC123 | SC | 305 | 2 | STDNTIND | Student Indicator | Y | Y | 2012-01-14 | -2 |", "score": 0.3607, "match_basis": "verbatim_token+domain_route:SC"}, {"md_atom_id": "md_dmSC_ex_a030", "md_file": "knowledge_base/domains/SC/examples.md", "md_atom_type": "TABLE_ROW", "md_parent_section": "§SC.3 [Example 3]", "md_verbatim": "| 4 | ABC123 | SC | 305 | 4 | STDNTIND | Student Indicator | Y | Y | 2013-01-22 | 374 |", "score": 0.3603, "match_basis": "verbatim_token+domain_route:SC"}], "candidate_count": 5, "zero_candidate": false}
{"pdf_atom_id": "ig34_p0341_a015", "pdf_atom_type": "TABLE_ROW", "pdf_source": "SDTMIG_v3.4", "pdf_page": 341, "pdf_parent_section": "SC – Examples", "pdf_verbatim": "| 1 | ABC | SC | ABC-001-001 | 1 | NATORIG | National Origin | UNITED STATES | UNITED STATES | 1999-06-19 |", "figure_ref": null, "candidates": [{"md_atom_id": "md_dmSC_ex_a006", "md_file": "knowledge_base/domains/SC/examples.md", "md_atom_type": "TABLE_ROW", "md_parent_section": "§SC.1 [Example 1]", "md_verbatim": "| 1 | ABC | SC | ABC-001-001 | 1 | NATORIG | National Origin | UNITED STATES | USA | 1999-06-19 |", "score": 0.976, "match_basis": "verbatim_token+domain_route:SC"}, {"md_atom_id": "md_dmSC_ex_a010", "md_file": "knowledge_base/domains/SC/examples.md", "md_atom_type": "TABLE_ROW", "md_parent_section": "§SC.1 [Example 1]", "md_verbatim": "| 5 | ABC | SC | ABC-001-003 | 1 | NATORIG | National Origin | USA | USA | 1999-05-03 |", "score": 0.7692, "match_basis": "verbatim_token+domain_route:SC"}, {"md_atom_id": "md_dmSC_ex_a008", "md_file": "knowledge_base/domains/SC/examples.md", "md_atom_type": "TABLE_ROW", "md_parent_section": "§SC.1 [Example 1]", "md_verbatim": "| 3 | ABC | SC | ABC-001-002 | 1 | NATORIG | National Origin | CANADA | CAN | 1999-03-19 |", "score": 0.731, "match_basis": "verbatim_token+domain_route:SC"}, {"md_atom_id": "md_dmSC_ex_a012", "md_file": "knowledge_base/domains/SC/examples.md", "md_atom_type": "TABLE_ROW", "md_parent_section": "§SC.1 [Example 1]", "md_verbatim": "| 7 | ABC | SC | ABC-001-201 | 1 | NATORIG | National Origin | JAPAN | JPN | 1999-06-14 |", "score": 0.731, "match_basis": "verbatim_token+domain_route:SC"}, {"md_atom_id": "md_dmSC_ex_a020", "md_file": "knowledge_base/domains/SC/examples.md", "md_atom_type": "TABLE_ROW", "md_parent_section": "§SC.2 [Example 2]", "md_verbatim": "| 1 | ABC-123 | SC | 101 | 1 | EGESTAGE | Estimated Gestational Age | PREGNANCY-RELATED FINDINGS | 100 | DAYS | 100 | 100 | DAYS | MENSTRUAL HISTORY | 10 | 2017-03-02 | 196 |", "score": 0.4971, "match_basis": "verbatim_token+domain_route:SC"}], "candidate_count": 5, "zero_candidate": false}
{"pdf_atom_id": "ig34_p0341_a016", "pdf_atom_type": "TABLE_ROW", "pdf_source": "SDTMIG_v3.4", "pdf_page": 341, "pdf_parent_section": "SC – Examples", "pdf_verbatim": "| 2 | ABC | SC | ABC-001-001 | 2 | MARISTAT | Marital Status | DIVORCED | DIVORCED | 1999-06-19 |", "figure_ref": null, "candidates": [{"md_atom_id": "md_dmSC_ex_a007", "md_file": "knowledge_base/domains/SC/examples.md", "md_atom_type": "TABLE_ROW", "md_parent_section": "§SC.1 [Example 1]", "md_verbatim": "| 2 | ABC | SC | ABC-001-001 | 2 | MARISTAT | Marital Status | DIVORCED | DIVORCED | 1999-06-19 |", "score": 1.0, "match_basis": "verbatim_token+domain_route:SC"}, {"md_atom_id": "md_dmSC_ex_a009", "md_file": "knowledge_base/domains/SC/examples.md", "md_atom_type": "TABLE_ROW", "md_parent_section": "§SC.1 [Example 1]", "md_verbatim": "| 4 | ABC | SC | ABC-001-002 | 2 | MARISTAT | Marital Status | MARRIED | MARRIED | 1999-03-19 |", "score": 0.7462, "match_basis": "verbatim_token+domain_route:SC"}, {"md_atom_id": "md_dmSC_ex_a013", "md_file": "knowledge_base/domains/SC/examples.md", "md_atom_type": "TABLE_ROW", "md_parent_section": "§SC.1 [Example 1]", "md_verbatim": "| 8 | ABC | SC | ABC-002-001 | 2 | MARISTAT | Marital Status | WIDOWED | WIDOWED | 1999-06-14 |", "score": 0.7333, "match_basis": "verbatim_token+domain_route:SC"}, {"md_atom_id": "md_dmSC_ex_a011", "md_file": "knowledge_base/domains/SC/examples.md", "md_atom_type": "TABLE_ROW", "md_parent_section": "§SC.1 [Example 1]", "md_verbatim": "| 6 | ABC | SC | ABC-001-003 | 2 | MARISTAT | Marital Status | NEVER MARRIED | NEVER MARRIED | 1999-05-03 |", "score": 0.7103, "match_basis": "verbatim_token+domain_route:SC"}, {"md_atom_id": "md_dmSC_ex_a031", "md_file": "knowledge_base/domains/SC/examples.md", "md_atom_type": "TABLE_ROW", "md_parent_section": "§SC.3 [Example 3]", "md_verbatim": "| 5 | ABC123 | SC | 305 | 5 | MARISTAT | Marital Status | MARRIED | MARRIED | 2014-01-16 | 734 |", "score": 0.625, "match_basis": "verbatim_token+domain_route:SC"}], "candidate_count": 5, "zero_candidate": false}
{"pdf_atom_id": "ig34_p0341_a017", "pdf_atom_type": "TABLE_ROW", "pdf_source": "SDTMIG_v3.4", "pdf_page": 341, "pdf_parent_section": "SC – Examples", "pdf_verbatim": "| 3 | ABC | SC | ABC-001-002 | 1 | NATORIG | National Origin | CANADA | CAN | 1999-03-19 |", "figure_ref": null, "candidates": [{"md_atom_id": "md_dmSC_ex_a008", "md_file": "knowledge_base/domains/SC/examples.md", "md_atom_type": "TABLE_ROW", "md_parent_section": "§SC.1 [Example 1]", "md_verbatim": "| 3 | ABC | SC | ABC-001-002 | 1 | NATORIG | National Origin | CANADA | CAN | 1999-03-19 |", "score": 1.0, "match_basis": "verbatim_token+domain_route:SC"}, {"md_atom_id": "md_dmSC_ex_a010", "md_file": "knowledge_base/domains/SC/examples.md", "md_atom_type": "TABLE_ROW", "md_parent_section": "§SC.1 [Example 1]", "md_verbatim": "| 5 | ABC | SC | ABC-001-003 | 1 | NATORIG | National Origin | USA | USA | 1999-05-03 |", "score": 0.8174, "match_basis": "verbatim_token+domain_route:SC"}, {"md_atom_id": "md_dmSC_ex_a012", "md_file": "knowledge_base/domains/SC/examples.md", "md_atom_type": "TABLE_ROW", "md_parent_section": "§SC.1 [Example 1]", "md_verbatim": "| 7 | ABC | SC | ABC-001-201 | 1 | NATORIG | National Origin | JAPAN | JPN | 1999-06-14 |", "score": 0.7692, "match_basis": "verbatim_token+domain_route:SC"}, {"md_atom_id": "md_dmSC_ex_a006", "md_file": "knowledge_base/domains/SC/examples.md", "md_atom_type": "TABLE_ROW", "md_parent_section": "§SC.1 [Example 1]", "md_verbatim": "| 1 | ABC | SC | ABC-001-001 | 1 | NATORIG | National Origin | UNITED STATES | USA | 1999-06-19 |", "score": 0.72, "match_basis": "verbatim_token+domain_route:SC"}, {"md_atom_id": "md_dmSC_ex_a009", "md_file": "knowledge_base/domains/SC/examples.md", "md_atom_type": "TABLE_ROW", "md_parent_section": "§SC.1 [Example 1]", "md_verbatim": "| 4 | ABC | SC | ABC-001-002 | 2 | MARISTAT | Marital Status | MARRIED | MARRIED | 1999-03-19 |", "score": 0.4833, "match_basis": "verbatim_token+domain_route:SC"}], "candidate_count": 5, "zero_candidate": false}
{"pdf_atom_id": "ig34_p0341_a018", "pdf_atom_type": "TABLE_ROW", "pdf_source": "SDTMIG_v3.4", "pdf_page": 341, "pdf_parent_section": "SC – Examples", "pdf_verbatim": "| 4 | ABC | SC | ABC-001-002 | 2 | MARISTAT | Marital Status | MARRIED | MARRIED | 1999-03-19 |", "figure_ref": null, "candidates": [{"md_atom_id": "md_dmSC_ex_a009", "md_file": "knowledge_base/domains/SC/examples.md", "md_atom_type": "TABLE_ROW", "md_parent_section": "§SC.1 [Example 1]", "md_verbatim": "| 4 | ABC | SC | ABC-001-002 | 2 | MARISTAT | Marital Status | MARRIED | MARRIED | 1999-03-19 |", "score": 1.0, "match_basis": "verbatim_token+domain_route:SC"}, {"md_atom_id": "md_dmSC_ex_a011", "md_file": "knowledge_base/domains/SC/examples.md", "md_atom_type": "TABLE_ROW", "md_parent_section": "§SC.1 [Example 1]", "md_verbatim": "| 6 | ABC | SC | ABC-001-003 | 2 | MARISTAT | Marital Status | NEVER MARRIED | NEVER MARRIED | 1999-05-03 |", "score": 0.875, "match_basis": "verbatim_token+domain_route:SC"}, {"md_atom_id": "md_dmSC_ex_a013", "md_file": "knowledge_base/domains/SC/examples.md", "md_atom_type": "TABLE_ROW", "md_parent_section": "§SC.1 [Example 1]", "md_verbatim": "| 8 | ABC | SC | ABC-002-001 | 2 | MARISTAT | Marital Status | WIDOWED | WIDOWED | 1999-06-14 |", "score": 0.784, "match_basis": "verbatim_token+domain_route:SC"}, {"md_atom_id": "md_dmSC_ex_a031", "md_file": "knowledge_base/domains/SC/examples.md", "md_atom_type": "TABLE_ROW", "md_parent_section": "§SC.3 [Example 3]", "md_verbatim": "| 5 | ABC123 | SC | 305 | 5 | MARISTAT | Marital Status | MARRIED | MARRIED | 2014-01-16 | 734 |", "score": 0.7556, "match_basis": "verbatim_token+domain_route:SC"}, {"md_atom_id": "md_dmSC_ex_a007", "md_file": "knowledge_base/domains/SC/examples.md", "md_atom_type": "TABLE_ROW", "md_parent_section": "§SC.1 [Example 1]", "md_verbatim": "| 2 | ABC | SC | ABC-001-001 | 2 | MARISTAT | Marital Status | DIVORCED | DIVORCED | 1999-06-19 |", "score": 0.7462, "match_basis": "verbatim_token+domain_route:SC"}], "candidate_count": 5, "zero_candidate": false}
{"pdf_atom_id": "ig34_p0341_a019", "pdf_atom_type": "TABLE_ROW", "pdf_source": "SDTMIG_v3.4", "pdf_page": 341, "pdf_parent_section": "SC – Examples", "pdf_verbatim": "| 5 | ABC | SC | ABC-001-003 | 1 | NATORIG | National Origin | USA | USA | 1999-05-03 |", "figure_ref": null, "candidates": [{"md_atom_id": "md_dmSC_ex_a010", "md_file": "knowledge_base/domains/SC/examples.md", "md_atom_type": "TABLE_ROW", "md_parent_section": "§SC.1 [Example 1]", "md_verbatim": "| 5 | ABC | SC | ABC-001-003 | 1 | NATORIG | National Origin | USA | USA | 1999-05-03 |", "score": 1.0, "match_basis": "verbatim_token+domain_route:SC"}, {"md_atom_id": "md_dmSC_ex_a008", "md_file": "knowledge_base/domains/SC/examples.md", "md_atom_type": "TABLE_ROW", "md_parent_section": "§SC.1 [Example 1]", "md_verbatim": "| 3 | ABC | SC | ABC-001-002 | 1 | NATORIG | National Origin | CANADA | CAN | 1999-03-19 |", "score": 0.8174, "match_basis": "verbatim_token+domain_route:SC"}, {"md_atom_id": "md_dmSC_ex_a012", "md_file": "knowledge_base/domains/SC/examples.md", "md_atom_type": "TABLE_ROW", "md_parent_section": "§SC.1 [Example 1]", "md_verbatim": "| 7 | ABC | SC | ABC-001-201 | 1 | NATORIG | National Origin | JAPAN | JPN | 1999-06-14 |", "score": 0.8174, "match_basis": "verbatim_token+domain_route:SC"}, {"md_atom_id": "md_dmSC_ex_a006", "md_file": "knowledge_base/domains/SC/examples.md", "md_atom_type": "TABLE_ROW", "md_parent_section": "§SC.1 [Example 1]", "md_verbatim": "| 1 | ABC | SC | ABC-001-001 | 1 | NATORIG | National Origin | UNITED STATES | USA | 1999-06-19 |", "score": 0.7923, "match_basis": "verbatim_token+domain_route:SC"}, {"md_atom_id": "md_dmSC_ex_a011", "md_file": "knowledge_base/domains/SC/examples.md", "md_atom_type": "TABLE_ROW", "md_parent_section": "§SC.1 [Example 1]", "md_verbatim": "| 6 | ABC | SC | ABC-001-003 | 2 | MARISTAT | Marital Status | NEVER MARRIED | NEVER MARRIED | 1999-05-03 |", "score": 0.4833, "match_basis": "verbatim_token+domain_route:SC"}], "candidate_count": 5, "zero_candidate": false}
{"pdf_atom_id": "ig34_p0341_a020", "pdf_atom_type": "TABLE_ROW", "pdf_source": "SDTMIG_v3.4", "pdf_page": 341, "pdf_parent_section": "SC – Examples", "pdf_verbatim": "| 6 | ABC | SC | ABC-001-003 | 2 | MARISTAT | Marital Status | NEVER MARRIED | NEVER MARRIED | 1999-05-03 |", "figure_ref": null, "candidates": [{"md_atom_id": "md_dmSC_ex_a011", "md_file": "knowledge_base/domains/SC/examples.md", "md_atom_type": "TABLE_ROW", "md_parent_section": "§SC.1 [Example 1]", "md_verbatim": "| 6 | ABC | SC | ABC-001-003 | 2 | MARISTAT | Marital Status | NEVER MARRIED | NEVER MARRIED | 1999-05-03 |", "score": 1.0, "match_basis": "verbatim_token+domain_route:SC"}, {"md_atom_id": "md_dmSC_ex_a009", "md_file": "knowledge_base/domains/SC/examples.md", "md_atom_type": "TABLE_ROW", "md_parent_section": "§SC.1 [Example 1]", "md_verbatim": "| 4 | ABC | SC | ABC-001-002 | 2 | MARISTAT | Marital Status | MARRIED | MARRIED | 1999-03-19 |", "score": 0.875, "match_basis": "verbatim_token+domain_route:SC"}, {"md_atom_id": "md_dmSC_ex_a027", "md_file": "knowledge_base/domains/SC/examples.md", "md_atom_type": "TABLE_ROW", "md_parent_section": "§SC.3 [Example 3]", "md_verbatim": "| 1 | ABC123 | SC | 305 | 1 | MARISTAT | Marital Status | NEVER MARRIED | NEVER MARRIED | 2012-01-14 | -2 |", "score": 0.7931, "match_basis": "verbatim_token+domain_route:SC"}, {"md_atom_id": "md_dmSC_ex_a031", "md_file": "knowledge_base/domains/SC/examples.md", "md_atom_type": "TABLE_ROW", "md_parent_section": "§SC.3 [Example 3]", "md_verbatim": "| 5 | ABC123 | SC | 305 | 5 | MARISTAT | Marital Status | MARRIED | MARRIED | 2014-01-16 | 734 |", "score": 0.72, "match_basis": "verbatim_token+domain_route:SC"}, {"md_atom_id": "md_dmSC_ex_a007", "md_file": "knowledge_base/domains/SC/examples.md", "md_atom_type": "TABLE_ROW", "md_parent_section": "§SC.1 [Example 1]", "md_verbatim": "| 2 | ABC | SC | ABC-001-001 | 2 | MARISTAT | Marital Status | DIVORCED | DIVORCED | 1999-06-19 |", "score": 0.7103, "match_basis": "verbatim_token+domain_route:SC"}], "candidate_count": 5, "zero_candidate": false}
{"pdf_atom_id": "ig34_p0341_a021", "pdf_atom_type": "TABLE_ROW", "pdf_source": "SDTMIG_v3.4", "pdf_page": 341, "pdf_parent_section": "SC – Examples", "pdf_verbatim": "| 7 | ABC | SC | ABC-001-201 | 1 | NATORIG | National Origin | JAPAN | JPN | 1999-06-14 |", "figure_ref": null, "candidates": [{"md_atom_id": "md_dmSC_ex_a012", "md_file": "knowledge_base/domains/SC/examples.md", "md_atom_type": "TABLE_ROW", "md_parent_section": "§SC.1 [Example 1]", "md_verbatim": "| 7 | ABC | SC | ABC-001-201 | 1 | NATORIG | National Origin | JAPAN | JPN | 1999-06-14 |", "score": 1.0, "match_basis": "verbatim_token+domain_route:SC"}, {"md_atom_id": "md_dmSC_ex_a010", "md_file": "knowledge_base/domains/SC/examples.md", "md_atom_type": "TABLE_ROW", "md_parent_section": "§SC.1 [Example 1]", "md_verbatim": "| 5 | ABC | SC | ABC-001-003 | 1 | NATORIG | National Origin | USA | USA | 1999-05-03 |", "score": 0.8174, "match_basis": "verbatim_token+domain_route:SC"}, {"md_atom_id": "md_dmSC_ex_a008", "md_file": "knowledge_base/domains/SC/examples.md", "md_atom_type": "TABLE_ROW", "md_parent_section": "§SC.1 [Example 1]", "md_verbatim": "| 3 | ABC | SC | ABC-001-002 | 1 | NATORIG | National Origin | CANADA | CAN | 1999-03-19 |", "score": 0.7692, "match_basis": "verbatim_token+domain_route:SC"}, {"md_atom_id": "md_dmSC_ex_a006", "md_file": "knowledge_base/domains/SC/examples.md", "md_atom_type": "TABLE_ROW", "md_parent_section": "§SC.1 [Example 1]", "md_verbatim": "| 1 | ABC | SC | ABC-001-001 | 1 | NATORIG | National Origin | UNITED STATES | USA | 1999-06-19 |", "score": 0.72, "match_basis": "verbatim_token+domain_route:SC"}, {"md_atom_id": "md_dmSC_ex_a020", "md_file": "knowledge_base/domains/SC/examples.md", "md_atom_type": "TABLE_ROW", "md_parent_section": "§SC.2 [Example 2]", "md_verbatim": "| 1 | ABC-123 | SC | 101 | 1 | EGESTAGE | Estimated Gestational Age | PREGNANCY-RELATED FINDINGS | 100 | DAYS | 100 | 100 | DAYS | MENSTRUAL HISTORY | 10 | 2017-03-02 | 196 |", "score": 0.4706, "match_basis": "verbatim_token+domain_route:SC"}], "candidate_count": 5, "zero_candidate": false}
{"pdf_atom_id": "ig34_p0341_a022", "pdf_atom_type": "TABLE_ROW", "pdf_source": "SDTMIG_v3.4", "pdf_page": 341, "pdf_parent_section": "SC – Examples", "pdf_verbatim": "| 8 | ABC | SC | ABC-002-001 | 2 | MARISTAT | Marital Status | WIDOWED | WIDOWED | 1999-06-14 |", "figure_ref": null, "candidates": [{"md_atom_id": "md_dmSC_ex_a013", "md_file": "knowledge_base/domains/SC/examples.md", "md_atom_type": "TABLE_ROW", "md_parent_section": "§SC.1 [Example 1]", "md_verbatim": "| 8 | ABC | SC | ABC-002-001 | 2 | MARISTAT | Marital Status | WIDOWED | WIDOWED | 1999-06-14 |", "score": 1.0, "match_basis": "verbatim_token+domain_route:SC"}, {"md_atom_id": "md_dmSC_ex_a009", "md_file": "knowledge_base/domains/SC/examples.md", "md_atom_type": "TABLE_ROW", "md_parent_section": "§SC.1 [Example 1]", "md_verbatim": "| 4 | ABC | SC | ABC-001-002 | 2 | MARISTAT | Marital Status | MARRIED | MARRIED | 1999-03-19 |", "score": 0.784, "match_basis": "verbatim_token+domain_route:SC"}, {"md_atom_id": "md_dmSC_ex_a007", "md_file": "knowledge_base/domains/SC/examples.md", "md_atom_type": "TABLE_ROW", "md_parent_section": "§SC.1 [Example 1]", "md_verbatim": "| 2 | ABC | SC | ABC-001-001 | 2 | MARISTAT | Marital Status | DIVORCED | DIVORCED | 1999-06-19 |", "score": 0.7333, "match_basis": "verbatim_token+domain_route:SC"}, {"md_atom_id": "md_dmSC_ex_a011", "md_file": "knowledge_base/domains/SC/examples.md", "md_atom_type": "TABLE_ROW", "md_parent_section": "§SC.1 [Example 1]", "md_verbatim": "| 6 | ABC | SC | ABC-001-003 | 2 | MARISTAT | Marital Status | NEVER MARRIED | NEVER MARRIED | 1999-05-03 |", "score": 0.7103, "match_basis": "verbatim_token+domain_route:SC"}, {"md_atom_id": "md_dmSC_ex_a031", "md_file": "knowledge_base/domains/SC/examples.md", "md_atom_type": "TABLE_ROW", "md_parent_section": "§SC.3 [Example 3]", "md_verbatim": "| 5 | ABC123 | SC | 305 | 5 | MARISTAT | Marital Status | MARRIED | MARRIED | 2014-01-16 | 734 |", "score": 0.625, "match_basis": "verbatim_token+domain_route:SC"}], "candidate_count": 5, "zero_candidate": false}
{"pdf_atom_id": "ig34_p0341_a023", "pdf_atom_type": "HEADING", "pdf_source": "SDTMIG_v3.4", "pdf_page": 341, "pdf_parent_section": "SC – Examples", "pdf_verbatim": "Example 2", "figure_ref": null, "candidates": [{"md_atom_id": "md_dmSC_ex_a002", "md_file": "knowledge_base/domains/SC/examples.md", "md_atom_type": "HEADING", "md_parent_section": "§SC [SC — Examples]", "md_verbatim": "## Example 1", "score": 1.0, "match_basis": "verbatim_token+domain_route:SC"}, {"md_atom_id": "md_dmSC_ex_a014", "md_file": "knowledge_base/domains/SC/examples.md", "md_atom_type": "HEADING", "md_parent_section": "§SC [SC — Examples]", "md_verbatim": "## Example 2", "score": 1.0, "match_basis": "verbatim_token+domain_route:SC"}, {"md_atom_id": "md_dmSC_ex_a023", "md_file": "knowledge_base/domains/SC/examples.md", "md_atom_type": "HEADING", "md_parent_section": "§SC [SC — Examples]", "md_verbatim": "## Example 3", "score": 1.0, "match_basis": "verbatim_token+domain_route:SC"}, {"md_atom_id": "md_dmSC_ex_a001", "md_file": "knowledge_base/domains/SC/examples.md", "md_atom_type": "HEADING", "md_parent_section": "§SC [SC — Examples]", "md_verbatim": "# SC — Examples", "score": 0.9, "match_basis": "verbatim_token+domain_route:SC"}, {"md_atom_id": "md_dmSC_assn_a001", "md_file": "knowledge_base/domains/SC/assumptions.md", "md_atom_type": "HEADING", "md_parent_section": "§SC [SC — Assumptions]", "md_verbatim": "# SC — Assumptions", "score": 0.4, "match_basis": "verbatim_token+domain_route:SC"}], "candidate_count": 5, "zero_candidate": false}
{"pdf_atom_id": "ig34_p0341_a024", "pdf_atom_type": "SENTENCE", "pdf_source": "SDTMIG_v3.4", "pdf_page": 341, "pdf_parent_section": "SC – Examples", "pdf_verbatim": "In this example, only infants were study subjects. However, with the possible exception of USUBJID values, the example would be unchanged for a study in which mothers were study subjects. If these data were collected for an infant who was an associated person, they would be represented in the APSC domain and the dataset would include APID, RSUBJID, and SREL, rather than USUBJID.", "figure_ref": null, "candidates": [{"md_atom_id": "md_dmSC_ex_a015", "md_file": "knowledge_base/domains/SC/examples.md", "md_atom_type": "SENTENCE", "md_parent_section": "§SC.2 [Example 2]", "md_verbatim": "In this example, only infants were study subjects. However, with the possible exception of USUBJID values, the example would be unchanged for a study in which mothers were study subjects. If these data were collected for an infant who was an associated person, they would be represented in the APSC domain and the dataset would include APID, RSUBJID, and SREL, rather than USUBJID.", "score": 1.0, "match_basis": "verbatim_token+domain_route:SC"}, {"md_atom_id": "md_dmSC_ex_a024", "md_file": "knowledge_base/domains/SC/examples.md", "md_atom_type": "SENTENCE", "md_parent_section": "§SC.3 [Example 3]", "md_verbatim": "This example shows data from a multi-year study in which marital status and whether the subject was a student were collected annually.", "score": 0.5382, "match_basis": "verbatim_token+domain_route:SC"}, {"md_atom_id": "md_dmSC_ex_a016", "md_file": "knowledge_base/domains/SC/examples.md", "md_atom_type": "SENTENCE", "md_parent_section": "§SC.2 [Example 2]", "md_verbatim": "Although there is a test for gestational age in the CDISC Controlled Terminology for Reproductive Findings, gestational age is an attribute of the fetus or infant, and is not a finding about their reproductive system; in this example, gestational age is represented in the Subject Characteristics (SC) domain. The structure of the SC domain formerly was 1 record per characteristic (test) per subject, but with this version of the SDTMIG the structure has changed to allow multiple records per test. This example shows multiple estimates of gestational age for the same subject. Not all of the values of METHOD shown in this example are currently in the METHOD codelist.", "score": 0.5318, "match_basis": "verbatim_token+domain_route:SC"}, {"md_atom_id": "md_dmSC_ex_a003", "md_file": "knowledge_base/domains/SC/examples.md", "md_atom_type": "SENTENCE", "md_parent_section": "§SC.1 [Example 1]", "md_verbatim": "This example shows data collected once per subject that does not fit into the Demographics (DM) domain. For this example, national origin and marital status were collected.", "score": 0.5304, "match_basis": "verbatim_token+domain_route:SC"}, {"md_atom_id": "md_dmSC_ex_a017", "md_file": "knowledge_base/domains/SC/examples.md", "md_atom_type": "SENTENCE", "md_parent_section": "§SC.2 [Example 2]", "md_verbatim": "Gestational age is often expressed (and sometimes collected) in weeks and days. SDTM does not support the recording of an individual finding result with mixed units (e.g., \"20 weeks and 5 days\"), so the gestational age would be converted to days for representation in SDTM.", "score": 0.4777, "match_basis": "verbatim_token+domain_route:SC"}], "candidate_count": 5, "zero_candidate": false}
{"pdf_atom_id": "ig34_p0342_a001", "pdf_atom_type": "SENTENCE", "pdf_source": "SDTMIG_v3.4", "pdf_page": 342, "pdf_parent_section": "SC – Examples", "pdf_verbatim": "Although there is a test for gestational age in the CDISC Controlled Terminology for Reproductive Findings, gestational age is an attribute of the fetus or infant, and is not a finding about their reproductive system; in this example, gestational age is represented in the Subject Characteristics (SC) domain. The structure of the SC domain formerly was 1 record per characteristic (test) per subject, but with this version of the SDTMIG the structure has changed to allow multiple records per test. This example shows multiple estimates of gestational age for the same subject. Not all of the values of METHOD shown in this example are currently in the METHOD codelist.", "figure_ref": null, "candidates": [{"md_atom_id": "md_dmSC_ex_a016", "md_file": "knowledge_base/domains/SC/examples.md", "md_atom_type": "SENTENCE", "md_parent_section": "§SC.2 [Example 2]", "md_verbatim": "Although there is a test for gestational age in the CDISC Controlled Terminology for Reproductive Findings, gestational age is an attribute of the fetus or infant, and is not a finding about their reproductive system; in this example, gestational age is represented in the Subject Characteristics (SC) domain. The structure of the SC domain formerly was 1 record per characteristic (test) per subject, but with this version of the SDTMIG the structure has changed to allow multiple records per test. This example shows multiple estimates of gestational age for the same subject. Not all of the values of METHOD shown in this example are currently in the METHOD codelist.", "score": 1.0, "match_basis": "verbatim_token+domain_route:SC"}, {"md_atom_id": "md_dmSC_ex_a015", "md_file": "knowledge_base/domains/SC/examples.md", "md_atom_type": "SENTENCE", "md_parent_section": "§SC.2 [Example 2]", "md_verbatim": "In this example, only infants were study subjects. However, with the possible exception of USUBJID values, the example would be unchanged for a study in which mothers were study subjects. If these data were collected for an infant who was an associated person, they would be represented in the APSC domain and the dataset would include APID, RSUBJID, and SREL, rather than USUBJID.", "score": 0.5318, "match_basis": "verbatim_token+domain_route:SC"}, {"md_atom_id": "md_dmSC_ex_a017", "md_file": "knowledge_base/domains/SC/examples.md", "md_atom_type": "SENTENCE", "md_parent_section": "§SC.2 [Example 2]", "md_verbatim": "Gestational age is often expressed (and sometimes collected) in weeks and days. SDTM does not support the recording of an individual finding result with mixed units (e.g., \"20 weeks and 5 days\"), so the gestational age would be converted to days for representation in SDTM.", "score": 0.5114, "match_basis": "verbatim_token+domain_route:SC"}, {"md_atom_id": "md_dmSC_ex_a003", "md_file": "knowledge_base/domains/SC/examples.md", "md_atom_type": "SENTENCE", "md_parent_section": "§SC.1 [Example 1]", "md_verbatim": "This example shows data collected once per subject that does not fit into the Demographics (DM) domain. For this example, national origin and marital status were collected.", "score": 0.5032, "match_basis": "verbatim_token+domain_route:SC"}, {"md_atom_id": "md_dmSC_ex_a024", "md_file": "knowledge_base/domains/SC/examples.md", "md_atom_type": "SENTENCE", "md_parent_section": "§SC.3 [Example 3]", "md_verbatim": "This example shows data from a multi-year study in which marital status and whether the subject was a student were collected annually.", "score": 0.4912, "match_basis": "verbatim_token+domain_route:SC"}], "candidate_count": 5, "zero_candidate": false}
