{"pdf_atom_id": "ig34_p0154_a0029", "pdf_atom_type": "TABLE_ROW", "pdf_source": "SDTMIG_v3.4", "pdf_page": 154, "pdf_parent_section": "§6.2.3 [Clinical Events]", "pdf_verbatim": "| 1 | ABC | PR | ABC-US-701-002 | 1 | MH1 | Casting/Immobilization | FRACTURE TREATMENTS | Y | Y | 2006-05-13 | |", "figure_ref": "pdf_p0154+bottom", "candidates": [{"md_atom_id": "md_dmCE_ex_a114", "md_file": "knowledge_base/domains/CE/examples.md", "md_atom_type": "TABLE_ROW", "md_parent_section": "§CE.3 [Example 3]", "md_verbatim": "| 1 | ABC | PR | ABC-US-701-002 | 1 | MH1 | Casting/Immobilization | FRACTURE TREATMENTS | Y | Y | 2006-05-13 | |", "score": 0.9, "match_basis": "verbatim_token+global_search"}, {"md_atom_id": "md_dmCE_ex_a116", "md_file": "knowledge_base/domains/CE/examples.md", "md_atom_type": "TABLE_ROW", "md_parent_section": "§CE.3 [Example 3]", "md_verbatim": "| 3 | ABC | PR | ABC-US-701-002 | 3 | CE1 | Traction | FRACTURE TREATMENTS | Y | Y | 2006-07-09 | |", "score": 0.615, "match_basis": "verbatim_token+global_search"}, {"md_atom_id": "md_dmCE_ex_a115", "md_file": "knowledge_base/domains/CE/examples.md", "md_atom_type": "TABLE_ROW", "md_parent_section": "§CE.3 [Example 3]", "md_verbatim": "| 2 | ABC | PR | ABC-US-701-002 | 2 | CE1 | Surgery | FRACTURE TREATMENTS | Y | Y | 2006-07-09 | |", "score": 0.5651, "match_basis": "verbatim_token+global_search"}, {"md_atom_id": "md_dmCE_ex_a080", "md_file": "knowledge_base/domains/CE/examples.md", "md_atom_type": "TABLE_ROW", "md_parent_section": "§CE.3 [Example 3]", "md_verbatim": "| 1 | ABC | MH | ABC-US-701-002 | 1 | 1 | MH1 | Fracture | FRACTURE-RELATED EVENTS | | Y | Y | RIB 3 | RIGHT | Y | 2006-05-13 | 2005-08-18 | -P5Y |", "score": 0.468, "match_basis": "verbatim_token+global_search"}, {"md_atom_id": "md_dmCE_ex_a065", "md_file": "knowledge_base/domains/CE/examples.md", "md_atom_type": "TABLE_ROW", "md_parent_section": "§CE.3 [Example 3]", "md_verbatim": "| If therapeutic measures were required, select all that apply. | [ ] Casting/immobilization  [ ] Traction  [ ] Surgery |", "score": 0.46, "match_basis": "verbatim_token+global_search"}], "candidate_count": 5, "zero_candidate": false}
{"pdf_atom_id": "ig34_p0154_a0030", "pdf_atom_type": "TABLE_ROW", "pdf_source": "SDTMIG_v3.4", "pdf_page": 154, "pdf_parent_section": "§6.2.3 [Clinical Events]", "pdf_verbatim": "| 2 | ABC | PR | ABC-US-701-002 | 2 | CE1 | Surgery | FRACTURE TREATMENTS | Y | Y | 2006-07-09 | |", "figure_ref": "pdf_p0154+bottom", "candidates": [{"md_atom_id": "md_dmCE_ex_a115", "md_file": "knowledge_base/domains/CE/examples.md", "md_atom_type": "TABLE_ROW", "md_parent_section": "§CE.3 [Example 3]", "md_verbatim": "| 2 | ABC | PR | ABC-US-701-002 | 2 | CE1 | Surgery | FRACTURE TREATMENTS | Y | Y | 2006-07-09 | |", "score": 0.9, "match_basis": "verbatim_token+global_search"}, {"md_atom_id": "md_dmCE_ex_a116", "md_file": "knowledge_base/domains/CE/examples.md", "md_atom_type": "TABLE_ROW", "md_parent_section": "§CE.3 [Example 3]", "md_verbatim": "| 3 | ABC | PR | ABC-US-701-002 | 3 | CE1 | Traction | FRACTURE TREATMENTS | Y | Y | 2006-07-09 | |", "score": 0.7138, "match_basis": "verbatim_token+global_search"}, {"md_atom_id": "md_dmCE_ex_a114", "md_file": "knowledge_base/domains/CE/examples.md", "md_atom_type": "TABLE_ROW", "md_parent_section": "§CE.3 [Example 3]", "md_verbatim": "| 1 | ABC | PR | ABC-US-701-002 | 1 | MH1 | Casting/Immobilization | FRACTURE TREATMENTS | Y | Y | 2006-05-13 | |", "score": 0.5651, "match_basis": "verbatim_token+global_search"}, {"md_atom_id": "md_dmDM_ex_a062", "md_file": "knowledge_base/domains/DM/examples.md", "md_atom_type": "TABLE_ROW", "md_parent_section": "§DM.3 [Example 3]", "md_verbatim": "| 5 | DEF | SE | 002 | 2 | DBA | Treatment A | 2006-02-10 | 2006-03-24 |", "score": 0.5222, "match_basis": "verbatim_token+global_search"}, {"md_atom_id": "md_dmCE_ex_a094", "md_file": "knowledge_base/domains/CE/examples.md", "md_atom_type": "TABLE_ROW", "md_parent_section": "§CE.3 [Example 3]", "md_verbatim": "| 1 | ABC | CE | ABC-US-701-002 | 1 | | CE1 | Fracture | FRACTURE-RELATED EVENTS | | Y | Y | HUMERUS | RIGHT | Y | 2006-07-09 | 2006-07-03 |", "score": 0.51, "match_basis": "verbatim_token+global_search"}], "candidate_count": 5, "zero_candidate": false}
{"pdf_atom_id": "ig34_p0155_a0001", "pdf_atom_type": "TABLE_HEADER", "pdf_source": "SDTMIG_v3.4", "pdf_page": 155, "pdf_parent_section": "§6.2.3 [Clinical Events]", "pdf_verbatim": "| Row | STUDYID | DOMAIN | USUBJID | PRSEQ | PRSPID | PRTRT | PRCAT | PRPRESP | PROCCUR | PRDTC | PRSTDTC |", "figure_ref": "pdf_p0155+top", "candidates": [{"md_atom_id": "md_dmCE_ex_a113", "md_file": "knowledge_base/domains/CE/examples.md", "md_atom_type": "TABLE_HEADER", "md_parent_section": "§CE.3 [Example 3]", "md_verbatim": "| Row | STUDYID | DOMAIN | USUBJID | PRSEQ | PRSPID | PRTRT | PRCAT | PRPRESP | PROCCUR | PRDTC | PRSTDTC |\n|-----|---------|--------|---------|-------|--------|-------|-------|---------|---------|-------|---------|", "score": 0.9, "match_basis": "verbatim_token+global_search"}, {"md_atom_id": "md_dmPR_ex_a015", "md_file": "knowledge_base/domains/PR/examples.md", "md_atom_type": "TABLE_HEADER", "md_parent_section": "§PR.2 [Example 2]", "md_verbatim": "| Row | STUDYID | DOMAIN | USUBJID | PRSEQ | PRLNKID | PRTRT | PRDECOD | PRPRESP | PROCCUR | PRSTDTC | PRENDTC |\n|-----|---------|--------|---------|-------|---------|-------|---------|---------|---------|---------|---------|", "score": 0.6927, "match_basis": "verbatim_token+global_search"}, {"md_atom_id": "md_dmPR_ex_a005", "md_file": "knowledge_base/domains/PR/examples.md", "md_atom_type": "TABLE_HEADER", "md_parent_section": "§PR.1 [Example 1]", "md_verbatim": "| Row | STUDYID | DOMAIN | USUBJID | PRSEQ | PRTRT | PRSTDTC | PRENDTC |\n|-----|---------|--------|---------|-------|-------|---------|---------|", "score": 0.6391, "match_basis": "verbatim_token+global_search"}, {"md_atom_id": "md_dmPR_ex_a031", "md_file": "knowledge_base/domains/PR/examples.md", "md_atom_type": "TABLE_HEADER", "md_parent_section": "§PR.3 [Example 3]", "md_verbatim": "| Row | STUDYID | DOMAIN | USUBJID | PRSEQ | PRTRT | PRDOSE | PRDOSU | PRLOC | PRLAT | PRSTDTC | PRENDTC |\n|-----|---------|--------|---------|-------|-------|--------|--------|-------|-------|---------|---------|", "score": 0.5945, "match_basis": "verbatim_token+global_search"}, {"md_atom_id": "md_ch04_a939", "md_file": "knowledge_base/chapters/ch04_general_assumptions.md", "md_atom_type": "TABLE_HEADER", "md_parent_section": "§4.5.3.2 [Text Strings Greater than 200 Characters in Other Variables]", "md_verbatim": "| Row | STUDYID | DOMAIN | USUBJID | PRSEQ | PRTRT |\n|-----|---------|--------|---------|-------|-------|", "score": 0.593, "match_basis": "verbatim_token+global_search"}], "candidate_count": 5, "zero_candidate": false}
{"pdf_atom_id": "ig34_p0155_a0002", "pdf_atom_type": "TABLE_ROW", "pdf_source": "SDTMIG_v3.4", "pdf_page": 155, "pdf_parent_section": "§6.2.3 [Clinical Events]", "pdf_verbatim": "| 3 | ABC | PR | ABC-US-701-002 | 3 | CE1 | Traction | FRACTURE TREATMENTS | Y | Y | 2006-07-09 | |", "figure_ref": "pdf_p0155+top", "candidates": [{"md_atom_id": "md_dmCE_ex_a116", "md_file": "knowledge_base/domains/CE/examples.md", "md_atom_type": "TABLE_ROW", "md_parent_section": "§CE.3 [Example 3]", "md_verbatim": "| 3 | ABC | PR | ABC-US-701-002 | 3 | CE1 | Traction | FRACTURE TREATMENTS | Y | Y | 2006-07-09 | |", "score": 0.9, "match_basis": "verbatim_token+global_search"}, {"md_atom_id": "md_dmCE_ex_a115", "md_file": "knowledge_base/domains/CE/examples.md", "md_atom_type": "TABLE_ROW", "md_parent_section": "§CE.3 [Example 3]", "md_verbatim": "| 2 | ABC | PR | ABC-US-701-002 | 2 | CE1 | Surgery | FRACTURE TREATMENTS | Y | Y | 2006-07-09 | |", "score": 0.7138, "match_basis": "verbatim_token+global_search"}, {"md_atom_id": "md_dmCE_ex_a114", "md_file": "knowledge_base/domains/CE/examples.md", "md_atom_type": "TABLE_ROW", "md_parent_section": "§CE.3 [Example 3]", "md_verbatim": "| 1 | ABC | PR | ABC-US-701-002 | 1 | MH1 | Casting/Immobilization | FRACTURE TREATMENTS | Y | Y | 2006-05-13 | |", "score": 0.615, "match_basis": "verbatim_token+global_search"}, {"md_atom_id": "md_dmDM_ex_a062", "md_file": "knowledge_base/domains/DM/examples.md", "md_atom_type": "TABLE_ROW", "md_parent_section": "§DM.3 [Example 3]", "md_verbatim": "| 5 | DEF | SE | 002 | 2 | DBA | Treatment A | 2006-02-10 | 2006-03-24 |", "score": 0.5308, "match_basis": "verbatim_token+global_search"}, {"md_atom_id": "md_dmCE_ex_a094", "md_file": "knowledge_base/domains/CE/examples.md", "md_atom_type": "TABLE_ROW", "md_parent_section": "§CE.3 [Example 3]", "md_verbatim": "| 1 | ABC | CE | ABC-US-701-002 | 1 | | CE1 | Fracture | FRACTURE-RELATED EVENTS | | Y | Y | HUMERUS | RIGHT | Y | 2006-07-09 | 2006-07-03 |", "score": 0.5154, "match_basis": "verbatim_token+global_search"}], "candidate_count": 5, "zero_candidate": false}
{"pdf_atom_id": "ig34_p0155_a0003", "pdf_atom_type": "SENTENCE", "pdf_source": "SDTMIG_v3.4", "pdf_page": 155, "pdf_parent_section": "§6.2.3 [Clinical Events]", "pdf_verbatim": "The therapeutic measures are linked to the fracture events in the RELREC dataset.", "figure_ref": null, "candidates": [{"md_atom_id": "md_dmCE_ex_a117", "md_file": "knowledge_base/domains/CE/examples.md", "md_atom_type": "SENTENCE", "md_parent_section": "§CE.3 [Example 3]", "md_verbatim": "The therapeutic measures are linked to the fracture events in the RELREC dataset.", "score": 0.9, "match_basis": "verbatim_token+global_search"}, {"md_atom_id": "md_ch08_a064", "md_file": "knowledge_base/chapters/ch08_relationships.md", "md_atom_type": "SENTENCE", "md_parent_section": "§8.2 [Relating Peer Records]", "md_verbatim": "The RELREC dataset should be used to represent either:", "score": 0.4529, "match_basis": "verbatim_token+global_search"}, {"md_atom_id": "md_dmRELREC_assn_a006", "md_file": "knowledge_base/domains/RELREC/assumptions.md", "md_atom_type": "SENTENCE", "md_parent_section": "§RELREC [RELREC — Assumptions]", "md_verbatim": "The RELREC dataset should be used to represent either:", "score": 0.4529, "match_basis": "verbatim_token+global_search"}, {"md_atom_id": "md_dmCE_ex_a104", "md_file": "knowledge_base/domains/CE/examples.md", "md_atom_type": "SENTENCE", "md_parent_section": "§CE.3 [Example 3]", "md_verbatim": "The therapeutic measures in this example were procedures represented in the Procedures (PR) domain.", "score": 0.45, "match_basis": "verbatim_token+global_search"}, {"md_atom_id": "md_dmCE_ex_a106", "md_file": "knowledge_base/domains/CE/examples.md", "md_atom_type": "SENTENCE", "md_parent_section": "§CE.3 [Example 3]", "md_verbatim": "**Row 1:** The subject's pre-study fracture required one of the prespecified therapeutic procedures.", "score": 0.4391, "match_basis": "verbatim_token+global_search"}], "candidate_count": 5, "zero_candidate": false}
{"pdf_atom_id": "ig34_p0155_a0004", "pdf_atom_type": "SENTENCE", "pdf_source": "SDTMIG_v3.4", "pdf_page": 155, "pdf_parent_section": "§6.2.3 [Clinical Events]", "pdf_verbatim": "The sponsor anticipated the need to link procedures either to an MH record or a CE record, so included domain prefixes in the values of MHSPID and CESPID and used those in populating PRSPID.", "figure_ref": null, "candidates": [{"md_atom_id": "md_dmCE_ex_a118", "md_file": "knowledge_base/domains/CE/examples.md", "md_atom_type": "SENTENCE", "md_parent_section": "§CE.3 [Example 3]", "md_verbatim": "The sponsor anticipated the need to link procedures either to an MH record or a CE record, so included domain prefixes in the values of MHSPID and CESPID and used those in populating PRSPID.", "score": 0.9, "match_basis": "verbatim_token+global_search"}, {"md_atom_id": "md_dmCE_ex_a110", "md_file": "knowledge_base/domains/CE/examples.md", "md_atom_type": "SENTENCE", "md_parent_section": "§CE.3 [Example 3]", "md_verbatim": "For these procedures, PRSPID was populated with a CESPID value.", "score": 0.4926, "match_basis": "verbatim_token+global_search"}, {"md_atom_id": "md_dmCE_ex_a107", "md_file": "knowledge_base/domains/CE/examples.md", "md_atom_type": "SENTENCE", "md_parent_section": "§CE.3 [Example 3]", "md_verbatim": "The sponsor populated PRSPID with the value in MHSPID for the fracture.", "score": 0.4735, "match_basis": "verbatim_token+global_search"}, {"md_atom_id": "md_ch04_a240", "md_file": "knowledge_base/chapters/ch04_general_assumptions.md", "md_atom_type": "SENTENCE", "md_parent_section": "§4.2.6 [Grouping Variables and Categorization]", "md_verbatim": "--LNKID and --LNKGRP express values that are used to link records in separate domains.", "score": 0.4263, "match_basis": "verbatim_token+global_search"}, {"md_atom_id": "md_dmCP_ex_a046", "md_file": "knowledge_base/domains/CP/examples.md", "md_atom_type": "SENTENCE", "md_parent_section": "§CP.2 [Example 2]", "md_verbatim": "**Rows 3-4:** Illustrate using CPCELSTA and CPCSMRKS to provide (1) the cell state descriptor in CPCELSTA, and (2) the markers used to define the cell state in CPCSMRKS. These variables further define CPTEST to be a subset of cells named in CPTEST; therefore the suffix \"Sub\" is appended to the value in CPTEST. In this example, the sponsor is interested in contrasting viable cells with those in the process of dying (non-viable), so each population is reported and the records differentiated using CPCELSTA and CPCSMRKS.", "score": 0.4249, "match_basis": "verbatim_token+global_search"}], "candidate_count": 5, "zero_candidate": false}
{"pdf_atom_id": "ig34_p0155_a0005", "pdf_atom_type": "SENTENCE", "pdf_source": "SDTMIG_v3.4", "pdf_page": 155, "pdf_parent_section": "§6.2.3 [Clinical Events]", "pdf_verbatim": "Rows 1-2:\tShow the dataset-to-dataset relationship between MH and PR records.", "figure_ref": null, "candidates": [{"md_atom_id": "md_dmCE_ex_a119", "md_file": "knowledge_base/domains/CE/examples.md", "md_atom_type": "SENTENCE", "md_parent_section": "§CE.3 [Example 3]", "md_verbatim": "**Rows 1-2:** Show the dataset-to-dataset relationship between MH and PR records.", "score": 0.9, "match_basis": "verbatim_token+global_search"}, {"md_atom_id": "md_dmCE_ex_a120", "md_file": "knowledge_base/domains/CE/examples.md", "md_atom_type": "SENTENCE", "md_parent_section": "§CE.3 [Example 3]", "md_verbatim": "**Rows 3-4:** Show the relationship between CE and PR records.", "score": 0.8032, "match_basis": "verbatim_token+global_search"}, {"md_atom_id": "md_dmSR_ex_a078", "md_file": "knowledge_base/domains/SR/examples.md", "md_atom_type": "SENTENCE", "md_parent_section": "§SR.3 [Example 3]", "md_verbatim": "Relationships between SR and AG records were shown in RELREC.", "score": 0.673, "match_basis": "verbatim_token+global_search"}, {"md_atom_id": "md_dmEX_ex_a241", "md_file": "knowledge_base/domains/EX/examples.md", "md_atom_type": "SENTENCE", "md_parent_section": "§EX.7 [Example 7]", "md_verbatim": "The RELREC dataset represents relationships between EC, EX, and VS.", "score": 0.6286, "match_basis": "verbatim_token+global_search"}, {"md_atom_id": "md_dmTR_ex_a042", "md_file": "knowledge_base/domains/TR/examples.md", "md_atom_type": "SENTENCE", "md_parent_section": "§TR.1 [Example 2 (continued from TU)]", "md_verbatim": "The relationship between the TU and TR datasets is represented in RELREC.", "score": 0.6209, "match_basis": "verbatim_token+global_search"}], "candidate_count": 5, "zero_candidate": false}
{"pdf_atom_id": "ig34_p0155_a0006", "pdf_atom_type": "SENTENCE", "pdf_source": "SDTMIG_v3.4", "pdf_page": 155, "pdf_parent_section": "§6.2.3 [Clinical Events]", "pdf_verbatim": "Rows 3-4:\tShow the relationship between CE and PR records.", "figure_ref": null, "candidates": [{"md_atom_id": "md_dmCE_ex_a120", "md_file": "knowledge_base/domains/CE/examples.md", "md_atom_type": "SENTENCE", "md_parent_section": "§CE.3 [Example 3]", "md_verbatim": "**Rows 3-4:** Show the relationship between CE and PR records.", "score": 0.9, "match_basis": "verbatim_token+global_search"}, {"md_atom_id": "md_dmCE_ex_a119", "md_file": "knowledge_base/domains/CE/examples.md", "md_atom_type": "SENTENCE", "md_parent_section": "§CE.3 [Example 3]", "md_verbatim": "**Rows 1-2:** Show the dataset-to-dataset relationship between MH and PR records.", "score": 0.8032, "match_basis": "verbatim_token+global_search"}, {"md_atom_id": "md_dmSR_ex_a078", "md_file": "knowledge_base/domains/SR/examples.md", "md_atom_type": "SENTENCE", "md_parent_section": "§SR.3 [Example 3]", "md_verbatim": "Relationships between SR and AG records were shown in RELREC.", "score": 0.7312, "match_basis": "verbatim_token+global_search"}, {"md_atom_id": "md_dmDS_ex_a066", "md_file": "knowledge_base/domains/DS/examples.md", "md_atom_type": "SENTENCE", "md_parent_section": "§DS.4 [Example 4]", "md_verbatim": "The relationship between the DS and AE records is represented in RELREC.", "score": 0.6568, "match_basis": "verbatim_token+global_search"}, {"md_atom_id": "md_ch08_a083", "md_file": "knowledge_base/chapters/ch08_relationships.md", "md_atom_type": "SENTENCE", "md_parent_section": "§8.2.2 [RELREC Dataset Examples]", "md_verbatim": "**Rows 1-3:** Show the representation of a relationship between an AE record and 2 concomitant medication records.", "score": 0.6184, "match_basis": "verbatim_token+global_search"}], "candidate_count": 5, "zero_candidate": false}
{"pdf_atom_id": "ig34_p0155_a0007", "pdf_atom_type": "CODE_LITERAL", "pdf_source": "SDTMIG_v3.4", "pdf_page": 155, "pdf_parent_section": "§6.2.3 [Clinical Events]", "pdf_verbatim": "relrec.xpt", "figure_ref": null, "candidates": [{"md_atom_id": "md_ch04_a062", "md_file": "knowledge_base/chapters/ch04_general_assumptions.md", "md_atom_type": "SENTENCE", "md_parent_section": "§4.1.7 [Splitting Domains]", "md_verbatim": "**relrec.xpt**", "score": 0.69, "match_basis": "verbatim_token+global_search"}, {"md_atom_id": "md_ch08_a085", "md_file": "knowledge_base/chapters/ch08_relationships.md", "md_atom_type": "SENTENCE", "md_parent_section": "§8.2.2 [RELREC Dataset Examples]", "md_verbatim": "relrec.xpt:", "score": 0.69, "match_basis": "verbatim_token+global_search"}, {"md_atom_id": "md_ch08_a094", "md_file": "knowledge_base/chapters/ch08_relationships.md", "md_atom_type": "SENTENCE", "md_parent_section": "§8.2.2 [RELREC Dataset Examples]", "md_verbatim": "relrec.xpt:", "score": 0.69, "match_basis": "verbatim_token+global_search"}, {"md_atom_id": "md_ch08_a102", "md_file": "knowledge_base/chapters/ch08_relationships.md", "md_atom_type": "SENTENCE", "md_parent_section": "§8.2.2 [RELREC Dataset Examples]", "md_verbatim": "relrec.xpt:", "score": 0.69, "match_basis": "verbatim_token+global_search"}, {"md_atom_id": "md_ch08_a116", "md_file": "knowledge_base/chapters/ch08_relationships.md", "md_atom_type": "SENTENCE", "md_parent_section": "§8.3.1 [RELREC Dataset Relationship Example]", "md_verbatim": "relrec.xpt:", "score": 0.69, "match_basis": "verbatim_token+global_search"}, {"md_atom_id": "md_dmAG_ex_a050", "md_file": "knowledge_base/domains/AG/examples.md", "md_atom_type": "SENTENCE", "md_parent_section": "§AG.2 [Example 2]", "md_verbatim": "**relrec.xpt**", "score": 0.69, "match_basis": "verbatim_token+global_search"}, {"md_atom_id": "md_dmBE_ex_a040", "md_file": "knowledge_base/domains/BE/examples.md", "md_atom_type": "SENTENCE", "md_parent_section": "§BE.1 [Example 1]", "md_verbatim": "**relrec.xpt**", "score": 0.69, "match_basis": "verbatim_token+global_search"}, {"md_atom_id": "md_dmBE_ex_a111", "md_file": "knowledge_base/domains/BE/examples.md", "md_atom_type": "SENTENCE", "md_parent_section": "§BE.2 [Example 2]", "md_verbatim": "**relrec.xpt**", "score": 0.69, "match_basis": "verbatim_token+global_search"}, {"md_atom_id": "md_dmCE_ex_a121", "md_file": "knowledge_base/domains/CE/examples.md", "md_atom_type": "SENTENCE", "md_parent_section": "§CE.3 [Example 3]", "md_verbatim": "**relrec.xpt**", "score": 0.69, "match_basis": "verbatim_token+global_search"}, {"md_atom_id": "md_dmDD_ex_a034", "md_file": "knowledge_base/domains/DD/examples.md", "md_atom_type": "SENTENCE", "md_parent_section": "§DD.2 [Example 2]", "md_verbatim": "**relrec.xpt**", "score": 0.69, "match_basis": "verbatim_token+global_search"}], "candidate_count": 10, "zero_candidate": false}
{"pdf_atom_id": "ig34_p0155_a0008", "pdf_atom_type": "TABLE_HEADER", "pdf_source": "SDTMIG_v3.4", "pdf_page": 155, "pdf_parent_section": "§6.2.3 [Clinical Events]", "pdf_verbatim": "| Row | STUDYID | RDOMAIN | USUBJID | IDVAR | IDVARVAL | RELTYPE | RELID |", "figure_ref": "pdf_p0155+top", "candidates": [{"md_atom_id": "md_ch04_a063", "md_file": "knowledge_base/chapters/ch04_general_assumptions.md", "md_atom_type": "TABLE_HEADER", "md_parent_section": "§4.1.7 [Splitting Domains]", "md_verbatim": "| Row | STUDYID | RDOMAIN | USUBJID | IDVAR | IDVARVAL | RELTYPE | RELID |\n|-----|---------|---------|---------|-------|----------|---------|-------|", "score": 0.9, "match_basis": "verbatim_token+global_search"}, {"md_atom_id": "md_ch08_a086", "md_file": "knowledge_base/chapters/ch08_relationships.md", "md_atom_type": "TABLE_HEADER", "md_parent_section": "§8.2.2 [RELREC Dataset Examples]", "md_verbatim": "| Row | STUDYID | RDOMAIN | USUBJID | IDVAR | IDVARVAL | RELTYPE | RELID |\n|-----|---------|---------|---------|-------|----------|---------|-------|", "score": 0.9, "match_basis": "verbatim_token+global_search"}, {"md_atom_id": "md_ch08_a095", "md_file": "knowledge_base/chapters/ch08_relationships.md", "md_atom_type": "TABLE_HEADER", "md_parent_section": "§8.2.2 [RELREC Dataset Examples]", "md_verbatim": "| Row | STUDYID | RDOMAIN | USUBJID | IDVAR | IDVARVAL | RELTYPE | RELID |\n|-----|---------|---------|---------|-------|----------|---------|-------|", "score": 0.9, "match_basis": "verbatim_token+global_search"}, {"md_atom_id": "md_ch08_a103", "md_file": "knowledge_base/chapters/ch08_relationships.md", "md_atom_type": "TABLE_HEADER", "md_parent_section": "§8.2.2 [RELREC Dataset Examples]", "md_verbatim": "| Row | STUDYID | RDOMAIN | USUBJID | IDVAR | IDVARVAL | RELTYPE | RELID |\n|-----|---------|---------|---------|-------|----------|---------|-------|", "score": 0.9, "match_basis": "verbatim_token+global_search"}, {"md_atom_id": "md_ch08_a117", "md_file": "knowledge_base/chapters/ch08_relationships.md", "md_atom_type": "TABLE_HEADER", "md_parent_section": "§8.3.1 [RELREC Dataset Relationship Example]", "md_verbatim": "| Row | STUDYID | RDOMAIN | USUBJID | IDVAR | IDVARVAL | RELTYPE | RELID |\n|-----|---------|---------|---------|-------|----------|---------|-------|", "score": 0.9, "match_basis": "verbatim_token+global_search"}], "candidate_count": 5, "zero_candidate": false}
{"pdf_atom_id": "ig34_p0155_a0009", "pdf_atom_type": "TABLE_ROW", "pdf_source": "SDTMIG_v3.4", "pdf_page": 155, "pdf_parent_section": "§6.2.3 [Clinical Events]", "pdf_verbatim": "| 1 | ABC | MH | | MHSPID | | ONE | 1 |", "figure_ref": "pdf_p0155+top", "candidates": [{"md_atom_id": "md_dmCE_ex_a123", "md_file": "knowledge_base/domains/CE/examples.md", "md_atom_type": "TABLE_ROW", "md_parent_section": "§CE.3 [Example 3]", "md_verbatim": "| 1 | ABC | MH | | MHSPID | | ONE | 1 |", "score": 0.9, "match_basis": "verbatim_token+global_search"}, {"md_atom_id": "md_ch04_a064", "md_file": "knowledge_base/chapters/ch04_general_assumptions.md", "md_atom_type": "TABLE_ROW", "md_parent_section": "§4.1.7 [Splitting Domains]", "md_verbatim": "| 1 | ABC | CM | | CMSPID | | ONE | 1 |", "score": 0.6, "match_basis": "verbatim_token+global_search"}, {"md_atom_id": "md_dmCE_ex_a125", "md_file": "knowledge_base/domains/CE/examples.md", "md_atom_type": "TABLE_ROW", "md_parent_section": "§CE.3 [Example 3]", "md_verbatim": "| 3 | ABC | CE | | CESPID | | ONE | 2 |", "score": 0.6, "match_basis": "verbatim_token+global_search"}, {"md_atom_id": "md_dmFA_ex_a035", "md_file": "knowledge_base/domains/FA/examples.md", "md_atom_type": "TABLE_ROW", "md_parent_section": "§FA.1 [Example 1]", "md_verbatim": "| 1 | ABC | CE | | CESPID | | ONE | 1 |", "score": 0.6, "match_basis": "verbatim_token+global_search"}, {"md_atom_id": "md_dmFA_ex_a158", "md_file": "knowledge_base/domains/FA/examples.md", "md_atom_type": "TABLE_ROW", "md_parent_section": "§FA.6 [Example 6]", "md_verbatim": "| 1 | ABC | AE | | AESPID | | ONE | 1 |", "score": 0.6, "match_basis": "verbatim_token+global_search"}], "candidate_count": 5, "zero_candidate": false}
{"pdf_atom_id": "ig34_p0155_a0010", "pdf_atom_type": "TABLE_ROW", "pdf_source": "SDTMIG_v3.4", "pdf_page": 155, "pdf_parent_section": "§6.2.3 [Clinical Events]", "pdf_verbatim": "| 2 | ABC | PR | | PRSPID | | MANY | 1 |", "figure_ref": "pdf_p0155+top", "candidates": [{"md_atom_id": "md_dmCE_ex_a124", "md_file": "knowledge_base/domains/CE/examples.md", "md_atom_type": "TABLE_ROW", "md_parent_section": "§CE.3 [Example 3]", "md_verbatim": "| 2 | ABC | PR | | PRSPID | | MANY | 1 |", "score": 0.9, "match_basis": "verbatim_token+global_search"}, {"md_atom_id": "md_dmCE_ex_a126", "md_file": "knowledge_base/domains/CE/examples.md", "md_atom_type": "TABLE_ROW", "md_parent_section": "§CE.3 [Example 3]", "md_verbatim": "| 4 | ABC | PR | | PRSPID | | MANY | 2 |", "score": 0.9, "match_basis": "verbatim_token+global_search"}, {"md_atom_id": "md_dmFA_ex_a036", "md_file": "knowledge_base/domains/FA/examples.md", "md_atom_type": "TABLE_ROW", "md_parent_section": "§FA.1 [Example 1]", "md_verbatim": "| 2 | ABC | FA | | FASPID | | MANY | 1 |", "score": 0.6333, "match_basis": "verbatim_token+global_search"}, {"md_atom_id": "md_dmFA_ex_a159", "md_file": "knowledge_base/domains/FA/examples.md", "md_atom_type": "TABLE_ROW", "md_parent_section": "§FA.6 [Example 6]", "md_verbatim": "| 2 | ABC | FA | | FASPID | | MANY | 1 |", "score": 0.6333, "match_basis": "verbatim_token+global_search"}, {"md_atom_id": "md_ch04_a065", "md_file": "knowledge_base/chapters/ch04_general_assumptions.md", "md_atom_type": "TABLE_ROW", "md_parent_section": "§4.1.7 [Splitting Domains]", "md_verbatim": "| 2 | ABC | FACM | | FASPID | | MANY | 1 |", "score": 0.5727, "match_basis": "verbatim_token+global_search"}], "candidate_count": 5, "zero_candidate": false}
{"pdf_atom_id": "ig34_p0155_a0011", "pdf_atom_type": "TABLE_ROW", "pdf_source": "SDTMIG_v3.4", "pdf_page": 155, "pdf_parent_section": "§6.2.3 [Clinical Events]", "pdf_verbatim": "| 3 | ABC | CE | | CESPID | | ONE | 2 |", "figure_ref": "pdf_p0155+top", "candidates": [{"md_atom_id": "md_dmCE_ex_a125", "md_file": "knowledge_base/domains/CE/examples.md", "md_atom_type": "TABLE_ROW", "md_parent_section": "§CE.3 [Example 3]", "md_verbatim": "| 3 | ABC | CE | | CESPID | | ONE | 2 |", "score": 0.9, "match_basis": "verbatim_token+global_search"}, {"md_atom_id": "md_dmFA_ex_a035", "md_file": "knowledge_base/domains/FA/examples.md", "md_atom_type": "TABLE_ROW", "md_parent_section": "§FA.1 [Example 1]", "md_verbatim": "| 1 | ABC | CE | | CESPID | | ONE | 1 |", "score": 0.9, "match_basis": "verbatim_token+global_search"}, {"md_atom_id": "md_dmFA_ex_a158", "md_file": "knowledge_base/domains/FA/examples.md", "md_atom_type": "TABLE_ROW", "md_parent_section": "§FA.6 [Example 6]", "md_verbatim": "| 1 | ABC | AE | | AESPID | | ONE | 1 |", "score": 0.7286, "match_basis": "verbatim_token+global_search"}, {"md_atom_id": "md_ch04_a064", "md_file": "knowledge_base/chapters/ch04_general_assumptions.md", "md_atom_type": "TABLE_ROW", "md_parent_section": "§4.1.7 [Splitting Domains]", "md_verbatim": "| 1 | ABC | CM | | CMSPID | | ONE | 1 |", "score": 0.6, "match_basis": "verbatim_token+global_search"}, {"md_atom_id": "md_dmCE_ex_a123", "md_file": "knowledge_base/domains/CE/examples.md", "md_atom_type": "TABLE_ROW", "md_parent_section": "§CE.3 [Example 3]", "md_verbatim": "| 1 | ABC | MH | | MHSPID | | ONE | 1 |", "score": 0.6, "match_basis": "verbatim_token+global_search"}], "candidate_count": 5, "zero_candidate": false}
{"pdf_atom_id": "ig34_p0155_a0012", "pdf_atom_type": "TABLE_ROW", "pdf_source": "SDTMIG_v3.4", "pdf_page": 155, "pdf_parent_section": "§6.2.3 [Clinical Events]", "pdf_verbatim": "| 4 | ABC | PR | | PRSPID | | MANY | 2 |", "figure_ref": "pdf_p0155+top", "candidates": [{"md_atom_id": "md_dmCE_ex_a124", "md_file": "knowledge_base/domains/CE/examples.md", "md_atom_type": "TABLE_ROW", "md_parent_section": "§CE.3 [Example 3]", "md_verbatim": "| 2 | ABC | PR | | PRSPID | | MANY | 1 |", "score": 0.9, "match_basis": "verbatim_token+global_search"}, {"md_atom_id": "md_dmCE_ex_a126", "md_file": "knowledge_base/domains/CE/examples.md", "md_atom_type": "TABLE_ROW", "md_parent_section": "§CE.3 [Example 3]", "md_verbatim": "| 4 | ABC | PR | | PRSPID | | MANY | 2 |", "score": 0.9, "match_basis": "verbatim_token+global_search"}, {"md_atom_id": "md_dmFA_ex_a036", "md_file": "knowledge_base/domains/FA/examples.md", "md_atom_type": "TABLE_ROW", "md_parent_section": "§FA.1 [Example 1]", "md_verbatim": "| 2 | ABC | FA | | FASPID | | MANY | 1 |", "score": 0.6333, "match_basis": "verbatim_token+global_search"}, {"md_atom_id": "md_dmFA_ex_a159", "md_file": "knowledge_base/domains/FA/examples.md", "md_atom_type": "TABLE_ROW", "md_parent_section": "§FA.6 [Example 6]", "md_verbatim": "| 2 | ABC | FA | | FASPID | | MANY | 1 |", "score": 0.6333, "match_basis": "verbatim_token+global_search"}, {"md_atom_id": "md_ch04_a065", "md_file": "knowledge_base/chapters/ch04_general_assumptions.md", "md_atom_type": "TABLE_ROW", "md_parent_section": "§4.1.7 [Splitting Domains]", "md_verbatim": "| 2 | ABC | FACM | | FASPID | | MANY | 1 |", "score": 0.5727, "match_basis": "verbatim_token+global_search"}], "candidate_count": 5, "zero_candidate": false}
{"pdf_atom_id": "ig34_p0155_a0013", "pdf_atom_type": "HEADING", "pdf_source": "SDTMIG_v3.4", "pdf_page": 155, "pdf_parent_section": "§6.2.4 Disposition (DS)", "pdf_verbatim": "6.2.4 Disposition (DS)", "figure_ref": null, "candidates": [{"md_atom_id": "md_dmDS_assn_a001", "md_file": "knowledge_base/domains/DS/assumptions.md", "md_atom_type": "HEADING", "md_parent_section": "§DS [DS — Assumptions]", "md_verbatim": "# DS — Assumptions", "score": 0.475, "match_basis": "verbatim_token+domain_route:DS"}, {"md_atom_id": "md_dmDS_ex_a001", "md_file": "knowledge_base/domains/DS/examples.md", "md_atom_type": "HEADING", "md_parent_section": "§DS [DS — Examples]", "md_verbatim": "# DS — Examples", "score": 0.4, "match_basis": "verbatim_token+domain_route:DS"}, {"md_atom_id": "md_dmDS_ex_a002", "md_file": "knowledge_base/domains/DS/examples.md", "md_atom_type": "HEADING", "md_parent_section": "§DS [DS — Examples]", "md_verbatim": "## Example 1", "score": 0.4, "match_basis": "verbatim_token+domain_route:DS"}, {"md_atom_id": "md_dmDS_ex_a034", "md_file": "knowledge_base/domains/DS/examples.md", "md_atom_type": "HEADING", "md_parent_section": "§DS [DS — Examples]", "md_verbatim": "## Example 2", "score": 0.4, "match_basis": "verbatim_token+domain_route:DS"}, {"md_atom_id": "md_dmDS_ex_a043", "md_file": "knowledge_base/domains/DS/examples.md", "md_atom_type": "HEADING", "md_parent_section": "§DS [DS — Examples]", "md_verbatim": "## Example 3", "score": 0.4, "match_basis": "verbatim_token+domain_route:DS"}], "candidate_count": 5, "zero_candidate": false}
{"pdf_atom_id": "ig34_p0155_a0014", "pdf_atom_type": "HEADING", "pdf_source": "SDTMIG_v3.4", "pdf_page": 155, "pdf_parent_section": "§6.2.4 Disposition (DS)", "pdf_verbatim": "DS – Description/Overview", "figure_ref": null, "candidates": [{"md_atom_id": "md_dmDS_assn_a001", "md_file": "knowledge_base/domains/DS/assumptions.md", "md_atom_type": "HEADING", "md_parent_section": "§DS [DS — Assumptions]", "md_verbatim": "# DS — Assumptions", "score": 0.4857, "match_basis": "verbatim_token+domain_route:DS"}, {"md_atom_id": "md_dmDS_ex_a001", "md_file": "knowledge_base/domains/DS/examples.md", "md_atom_type": "HEADING", "md_parent_section": "§DS [DS — Examples]", "md_verbatim": "# DS — Examples", "score": 0.4, "match_basis": "verbatim_token+domain_route:DS"}, {"md_atom_id": "md_dmDS_ex_a002", "md_file": "knowledge_base/domains/DS/examples.md", "md_atom_type": "HEADING", "md_parent_section": "§DS [DS — Examples]", "md_verbatim": "## Example 1", "score": 0.4, "match_basis": "verbatim_token+domain_route:DS"}, {"md_atom_id": "md_dmDS_ex_a034", "md_file": "knowledge_base/domains/DS/examples.md", "md_atom_type": "HEADING", "md_parent_section": "§DS [DS — Examples]", "md_verbatim": "## Example 2", "score": 0.4, "match_basis": "verbatim_token+domain_route:DS"}, {"md_atom_id": "md_dmDS_ex_a043", "md_file": "knowledge_base/domains/DS/examples.md", "md_atom_type": "HEADING", "md_parent_section": "§DS [DS — Examples]", "md_verbatim": "## Example 3", "score": 0.4, "match_basis": "verbatim_token+domain_route:DS"}], "candidate_count": 5, "zero_candidate": false}
{"pdf_atom_id": "ig34_p0155_a0015", "pdf_atom_type": "SENTENCE", "pdf_source": "SDTMIG_v3.4", "pdf_page": 155, "pdf_parent_section": "§6.2.4 Disposition (DS)", "pdf_verbatim": "An events domain that contains information encompassing and representing data related to subject disposition.", "figure_ref": null, "candidates": [{"md_atom_id": "md_dmDS_ex_a009", "md_file": "knowledge_base/domains/DS/examples.md", "md_atom_type": "SENTENCE", "md_parent_section": "§DS.1 [Example 1]", "md_verbatim": "**Rows 14-16:** Show disposition of a subject who completed treatment, but did not complete follow-up. Note that for final disposition event, the date of collection of the event information, DSDTC, was different from the date of the disposition event (the subject's death), DSSTDTC.", "score": 0.5676, "match_basis": "verbatim_token+domain_route:DS"}, {"md_atom_id": "md_dmDS_ex_a058", "md_file": "knowledge_base/domains/DS/examples.md", "md_atom_type": "SENTENCE", "md_parent_section": "§DS.4 [Example 4]", "md_verbatim": "The DS domain represents the end of the subject's participation in the study, due to their death from heart failure. In this case, the disposition was collected (DSDTC) on the same day that death occurred and the subject's study participation ended. (DSDTDTC).", "score": 0.5603, "match_basis": "verbatim_token+domain_route:DS"}, {"md_atom_id": "md_dmDS_ex_a187", "md_file": "knowledge_base/domains/DS/examples.md", "md_atom_type": "SENTENCE", "md_parent_section": "§DS.10 [Example 10]", "md_verbatim": "The DS dataset shows the disposition events and protocol milestones for each subject.", "score": 0.5553, "match_basis": "verbatim_token+domain_route:DS"}, {"md_atom_id": "md_dmDS_ex_a097", "md_file": "knowledge_base/domains/DS/examples.md", "md_atom_type": "SENTENCE", "md_parent_section": "§DS.7 [Example 7]", "md_verbatim": "**Rows 2, 4:** Represent the disposition of study participation continuation for each treatment epoch, as indicated by DSSCAT = \"STUDY PARTICIPATION\".", "score": 0.5469, "match_basis": "verbatim_token+domain_route:DS"}, {"md_atom_id": "md_dmDS_ex_a105", "md_file": "knowledge_base/domains/DS/examples.md", "md_atom_type": "SENTENCE", "md_parent_section": "§DS.8 [Example 8]", "md_verbatim": "This example represents data for an ongoing blinded study in which each subject received 2 treatments, identified by the sponsor as \"BLINDED DRUG A\" and \"BLINDED DRUG B\". Disposition of study participation and of each of the 2 blinded treatments was collected for each of the 2 treatment epochs in the study. The subject in this example completed study participation and both treatments for both treatment epochs.", "score": 0.5444, "match_basis": "verbatim_token+domain_route:DS"}], "candidate_count": 5, "zero_candidate": false}
{"pdf_atom_id": "ig34_p0155_a0016", "pdf_atom_type": "HEADING", "pdf_source": "SDTMIG_v3.4", "pdf_page": 155, "pdf_parent_section": "§6.2.4 Disposition (DS)", "pdf_verbatim": "DS – Specification", "figure_ref": null, "candidates": [{"md_atom_id": "md_dmDS_assn_a001", "md_file": "knowledge_base/domains/DS/assumptions.md", "md_atom_type": "HEADING", "md_parent_section": "§DS [DS — Assumptions]", "md_verbatim": "# DS — Assumptions", "score": 0.4667, "match_basis": "verbatim_token+domain_route:DS"}, {"md_atom_id": "md_dmDS_ex_a001", "md_file": "knowledge_base/domains/DS/examples.md", "md_atom_type": "HEADING", "md_parent_section": "§DS [DS — Examples]", "md_verbatim": "# DS — Examples", "score": 0.4, "match_basis": "verbatim_token+domain_route:DS"}, {"md_atom_id": "md_dmDS_ex_a002", "md_file": "knowledge_base/domains/DS/examples.md", "md_atom_type": "HEADING", "md_parent_section": "§DS [DS — Examples]", "md_verbatim": "## Example 1", "score": 0.4, "match_basis": "verbatim_token+domain_route:DS"}, {"md_atom_id": "md_dmDS_ex_a034", "md_file": "knowledge_base/domains/DS/examples.md", "md_atom_type": "HEADING", "md_parent_section": "§DS [DS — Examples]", "md_verbatim": "## Example 2", "score": 0.4, "match_basis": "verbatim_token+domain_route:DS"}, {"md_atom_id": "md_dmDS_ex_a043", "md_file": "knowledge_base/domains/DS/examples.md", "md_atom_type": "HEADING", "md_parent_section": "§DS [DS — Examples]", "md_verbatim": "## Example 3", "score": 0.4, "match_basis": "verbatim_token+domain_route:DS"}], "candidate_count": 5, "zero_candidate": false}
{"pdf_atom_id": "ig34_p0155_a0017", "pdf_atom_type": "HEADING", "pdf_source": "SDTMIG_v3.4", "pdf_page": 155, "pdf_parent_section": "§6.2.4 Disposition (DS)", "pdf_verbatim": "ds.xpt, Disposition — Events. One record per disposition status or protocol milestone per subject, Tabulation.", "figure_ref": null, "candidates": [{"md_atom_id": "md_dmDS_assn_a001", "md_file": "knowledge_base/domains/DS/assumptions.md", "md_atom_type": "HEADING", "md_parent_section": "§DS [DS — Assumptions]", "md_verbatim": "# DS — Assumptions", "score": 0.4222, "match_basis": "verbatim_token+domain_route:DS"}, {"md_atom_id": "md_dmDS_ex_a001", "md_file": "knowledge_base/domains/DS/examples.md", "md_atom_type": "HEADING", "md_parent_section": "§DS [DS — Examples]", "md_verbatim": "# DS — Examples", "score": 0.4115, "match_basis": "verbatim_token+domain_route:DS"}, {"md_atom_id": "md_dmDS_ex_a002", "md_file": "knowledge_base/domains/DS/examples.md", "md_atom_type": "HEADING", "md_parent_section": "§DS [DS — Examples]", "md_verbatim": "## Example 1", "score": 0.4, "match_basis": "verbatim_token+domain_route:DS"}, {"md_atom_id": "md_dmDS_ex_a034", "md_file": "knowledge_base/domains/DS/examples.md", "md_atom_type": "HEADING", "md_parent_section": "§DS [DS — Examples]", "md_verbatim": "## Example 2", "score": 0.4, "match_basis": "verbatim_token+domain_route:DS"}, {"md_atom_id": "md_dmDS_ex_a043", "md_file": "knowledge_base/domains/DS/examples.md", "md_atom_type": "HEADING", "md_parent_section": "§DS [DS — Examples]", "md_verbatim": "## Example 3", "score": 0.4, "match_basis": "verbatim_token+domain_route:DS"}], "candidate_count": 5, "zero_candidate": false}
{"pdf_atom_id": "ig34_p0155_a0018", "pdf_atom_type": "TABLE_HEADER", "pdf_source": "SDTMIG_v3.4", "pdf_page": 155, "pdf_parent_section": "§6.2.4 Disposition (DS)", "pdf_verbatim": "| Variable Name | Variable Label | Type | Controlled Terms, Codelist or Format¹ | Role | CDISC Notes | Core |", "figure_ref": "pdf_p0155+middle", "candidates": [{"md_atom_id": "md_dmDS_ex_a068", "md_file": "knowledge_base/domains/DS/examples.md", "md_atom_type": "TABLE_HEADER", "md_parent_section": "§DS.4 [Example 4]", "md_verbatim": "| Row | STUDYID | RDOMAIN | USUBJID | IDVAR | IDVARVAL | RELTYPE | RELID |\n|-----|---------|---------|---------|-------|----------|---------|-------|", "score": 0.4353, "match_basis": "verbatim_token+domain_route:DS"}, {"md_atom_id": "md_dmDS_ex_a064", "md_file": "knowledge_base/domains/DS/examples.md", "md_atom_type": "TABLE_HEADER", "md_parent_section": "§DS.4 [Example 4]", "md_verbatim": "| Row | STUDYID | DOMAIN | USUBJID | AESEQ | AETERM | AESTDTC | AEENDTC | AEDECOD | AESOC | AESEV | AESER | AEACN | AEREL | AEOUT | AESCONG | AESDISAB | AESDTH | AESHOSP | AESLIFE | AESOD | AESMIE |\n|-----|---------|--------|---------|-------|--------|---------|---------|---------|-------|-------|-------|-------|-------|-------|---------|----------|--------|---------|---------|-------|--------|", "score": 0.4275, "match_basis": "verbatim_token+domain_route:DS"}, {"md_atom_id": "md_dmDS_ex_a039", "md_file": "knowledge_base/domains/DS/examples.md", "md_atom_type": "TABLE_HEADER", "md_parent_section": "§DS.2 [Example 2]", "md_verbatim": "| Row | STUDYID | DOMAIN | USUBJID | DSSEQ | DSTERM | DSDECOD | DSCAT | EPOCH | DSSTDTC |\n|-----|---------|--------|---------|-------|--------|---------|-------|-------|---------|", "score": 0.4234, "match_basis": "verbatim_token+domain_route:DS"}, {"md_atom_id": "md_dmDS_ex_a050", "md_file": "knowledge_base/domains/DS/examples.md", "md_atom_type": "TABLE_HEADER", "md_parent_section": "§DS.3 [Example 3]", "md_verbatim": "| Row | STUDYID | DOMAIN | USUBJID | DSSEQ | DSTERM | DSDECOD | DSCAT | EPOCH | DSSTDTC |\n|-----|---------|--------|---------|-------|--------|---------|-------|-------|---------|", "score": 0.4234, "match_basis": "verbatim_token+domain_route:DS"}, {"md_atom_id": "md_dmDS_ex_a122", "md_file": "knowledge_base/domains/DS/examples.md", "md_atom_type": "TABLE_HEADER", "md_parent_section": "§DS.9 [Example 9]", "md_verbatim": "| Row | STUDYID | DOMAIN | USUBJID | DSSEQ | DSTERM | DSDECOD | DSCAT | EPOCH | DSSTDTC |\n|-----|---------|--------|---------|-------|--------|---------|-------|-------|---------|", "score": 0.4234, "match_basis": "verbatim_token+domain_route:DS"}], "candidate_count": 5, "zero_candidate": false}
{"pdf_atom_id": "ig34_p0155_a0019", "pdf_atom_type": "TABLE_ROW", "pdf_source": "SDTMIG_v3.4", "pdf_page": 155, "pdf_parent_section": "§6.2.4 Disposition (DS)", "pdf_verbatim": "| STUDYID | Study Identifier | Char | | Identifier | Unique identifier for a study. | Req |", "figure_ref": "pdf_p0155+middle", "candidates": [{"md_atom_id": "md_dmDS_ex_a028", "md_file": "knowledge_base/domains/DS/examples.md", "md_atom_type": "TABLE_ROW", "md_parent_section": "§DS.1 [Example 1]", "md_verbatim": "| 16 | ABC123 | DS | 123104 | 5 | AUTOMOBILE ACCIDENT | DEATH | DISPOSITION EVENT | STUDY PARTICIPATION | FOLLOW-UP | 2003-10-31 | 2003-10-31 |", "score": 0.4529, "match_basis": "verbatim_token+domain_route:DS"}, {"md_atom_id": "md_dmDS_ex_a127", "md_file": "knowledge_base/domains/DS/examples.md", "md_atom_type": "TABLE_ROW", "md_parent_section": "§DS.9 [Example 9]", "md_verbatim": "| 5 | XXX | DS | XXX-767-001 | 5 | INFORMED CONSENT FOR PK SUB-STUDY OBTAINED | INFORMED CONSENT OBTAINED | PROTOCOL MILESTONE | TREATMENT 2 | 2016-06-23 |", "score": 0.4492, "match_basis": "verbatim_token+domain_route:DS"}, {"md_atom_id": "md_dmDS_ex_a100", "md_file": "knowledge_base/domains/DS/examples.md", "md_atom_type": "TABLE_ROW", "md_parent_section": "§DS.7 [Example 7]", "md_verbatim": "| 1 | XXX | DS | XXX-767-001 | 1 | COMPLETED | COMPLETED | DISPOSITION EVENT | STUDY TREATMENT | TREATMENT 1 | 2016-02-15 |", "score": 0.448, "match_basis": "verbatim_token+domain_route:DS"}, {"md_atom_id": "md_dmDS_ex_a102", "md_file": "knowledge_base/domains/DS/examples.md", "md_atom_type": "TABLE_ROW", "md_parent_section": "§DS.7 [Example 7]", "md_verbatim": "| 3 | XXX | DS | XXX-767-001 | 3 | SKIN RASH | ADVERSE EVENT | DISPOSITION EVENT | STUDY TREATMENT | TREATMENT 2 | 2016-03-14 |", "score": 0.4462, "match_basis": "verbatim_token+domain_route:DS"}, {"md_atom_id": "md_dmDS_ex_a123", "md_file": "knowledge_base/domains/DS/examples.md", "md_atom_type": "TABLE_ROW", "md_parent_section": "§DS.9 [Example 9]", "md_verbatim": "| 1 | XXX | DS | XXX-767-001 | 1 | INFORMED CONSENT FOR STUDY ENROLLMENT OBTAINED | INFORMED CONSENT OBTAINED | PROTOCOL MILESTONE | SCREENING | 2016-02-22 |", "score": 0.4441, "match_basis": "verbatim_token+domain_route:DS"}], "candidate_count": 5, "zero_candidate": false}
{"pdf_atom_id": "ig34_p0155_a0020", "pdf_atom_type": "TABLE_ROW", "pdf_source": "SDTMIG_v3.4", "pdf_page": 155, "pdf_parent_section": "§6.2.4 Disposition (DS)", "pdf_verbatim": "| DOMAIN | Domain Abbreviation | Char | DS | Identifier | Two-character abbreviation for the domain. | Req |", "figure_ref": "pdf_p0155+middle", "candidates": [{"md_atom_id": "md_dmDS_ex_a028", "md_file": "knowledge_base/domains/DS/examples.md", "md_atom_type": "TABLE_ROW", "md_parent_section": "§DS.1 [Example 1]", "md_verbatim": "| 16 | ABC123 | DS | 123104 | 5 | AUTOMOBILE ACCIDENT | DEATH | DISPOSITION EVENT | STUDY PARTICIPATION | FOLLOW-UP | 2003-10-31 | 2003-10-31 |", "score": 0.445, "match_basis": "verbatim_token+domain_route:DS"}, {"md_atom_id": "md_dmDS_ex_a152", "md_file": "knowledge_base/domains/DS/examples.md", "md_atom_type": "TABLE_ROW", "md_parent_section": "§DS.10 [Example 10]", "md_verbatim": "| 3 | XYZ | TA | DG1INDG | Drug-1+Investigation-Drug | 3 | DG1INDG | Drug 1 + Investigation Drug | | | TREATMENT 2 |", "score": 0.4436, "match_basis": "verbatim_token+domain_route:DS"}, {"md_atom_id": "md_dmDS_ex_a156", "md_file": "knowledge_base/domains/DS/examples.md", "md_atom_type": "TABLE_ROW", "md_parent_section": "§DS.10 [Example 10]", "md_verbatim": "| 7 | XYZ | TA | DG2INDG | Drug-2+Investigation-Drug | 3 | DG2INDG | Drug 2 + Investigation Drug | | | TREATMENT 2 |", "score": 0.4436, "match_basis": "verbatim_token+domain_route:DS"}, {"md_atom_id": "md_dmDS_ex_a151", "md_file": "knowledge_base/domains/DS/examples.md", "md_atom_type": "TABLE_ROW", "md_parent_section": "§DS.10 [Example 10]", "md_verbatim": "| 2 | XYZ | TA | DG1INDG | Drug-1+Investigation-Drug | 2 | DRUG1 | Drug-1 | | | TREATMENT 1 |", "score": 0.4429, "match_basis": "verbatim_token+domain_route:DS"}, {"md_atom_id": "md_dmDS_ex_a155", "md_file": "knowledge_base/domains/DS/examples.md", "md_atom_type": "TABLE_ROW", "md_parent_section": "§DS.10 [Example 10]", "md_verbatim": "| 6 | XYZ | TA | DG2INDG | Drug-2+Investigation-Drug | 2 | DRUG2 | Drug-2 | | | TREATMENT 1 |", "score": 0.4429, "match_basis": "verbatim_token+domain_route:DS"}], "candidate_count": 5, "zero_candidate": false}
{"pdf_atom_id": "ig34_p0155_a0021", "pdf_atom_type": "TABLE_ROW", "pdf_source": "SDTMIG_v3.4", "pdf_page": 155, "pdf_parent_section": "§6.2.4 Disposition (DS)", "pdf_verbatim": "| USUBJID | Unique Subject Identifier | Char | | Identifier | Identifier used to uniquely identify a subject across all studies for all applications or submissions involving the product. | Req |", "figure_ref": "pdf_p0155+middle", "candidates": [{"md_atom_id": "md_dmDS_ex_a041", "md_file": "knowledge_base/domains/DS/examples.md", "md_atom_type": "TABLE_ROW", "md_parent_section": "§DS.2 [Example 2]", "md_verbatim": "| 2 | ABC456 | DS | 456102 | 1 | SUBJECT TAKING STUDY MED ERRATICALLY | PROTOCOL VIOLATION | DISPOSITION EVENT | TREATMENT | 2003-09-29 |", "score": 0.4804, "match_basis": "verbatim_token+domain_route:DS"}, {"md_atom_id": "md_dmDS_ex_a019", "md_file": "knowledge_base/domains/DS/examples.md", "md_atom_type": "TABLE_ROW", "md_parent_section": "§DS.1 [Example 1]", "md_verbatim": "| 7 | ABC123 | DS | 123102 | 2 | SUBJECT DENIED MRI PROCEDURE | PROTOCOL VIOLATION | DISPOSITION EVENT | STUDY PARTICIPATION | SCREENING | 2003-11-22 | 2003-11-22 |", "score": 0.4706, "match_basis": "verbatim_token+domain_route:DS"}, {"md_atom_id": "md_dmDS_ex_a023", "md_file": "knowledge_base/domains/DS/examples.md", "md_atom_type": "TABLE_ROW", "md_parent_section": "§DS.1 [Example 1]", "md_verbatim": "| 11 | ABC123 | DS | 123103 | 4 | SUBJECT MOVED | LOST TO FOLLOW-UP | DISPOSITION EVENT | STUDY PARTICIPATION | TREATMENT | 2003-10-31 | 2003-10-20 |", "score": 0.46, "match_basis": "verbatim_token+domain_route:DS"}, {"md_atom_id": "md_dmDS_ex_a261", "md_file": "knowledge_base/domains/DS/examples.md", "md_atom_type": "TABLE_ROW", "md_parent_section": "§DS.11 [Example 11]", "md_verbatim": "| 6 | DS10 | DS | 101 | 6 | Disease progression | PROGRESSIVE DISEASE | DISPOSITION EVENT | STUDY PARTICIPATION | 6 | TREATMENT | 2015-04-26 |", "score": 0.45, "match_basis": "verbatim_token+domain_route:DS"}, {"md_atom_id": "md_dmDS_ex_a028", "md_file": "knowledge_base/domains/DS/examples.md", "md_atom_type": "TABLE_ROW", "md_parent_section": "§DS.1 [Example 1]", "md_verbatim": "| 16 | ABC123 | DS | 123104 | 5 | AUTOMOBILE ACCIDENT | DEATH | DISPOSITION EVENT | STUDY PARTICIPATION | FOLLOW-UP | 2003-10-31 | 2003-10-31 |", "score": 0.4425, "match_basis": "verbatim_token+domain_route:DS"}], "candidate_count": 5, "zero_candidate": false}
{"pdf_atom_id": "ig34_p0155_a0022", "pdf_atom_type": "TABLE_ROW", "pdf_source": "SDTMIG_v3.4", "pdf_page": 155, "pdf_parent_section": "§6.2.4 Disposition (DS)", "pdf_verbatim": "| DSSEQ | Sequence Number | Num | | Identifier | Sequence number given to ensure uniqueness of subject records within a domain. May be any valid number. | Req |", "figure_ref": "pdf_p0155+middle", "candidates": [{"md_atom_id": "md_dmDS_ex_a019", "md_file": "knowledge_base/domains/DS/examples.md", "md_atom_type": "TABLE_ROW", "md_parent_section": "§DS.1 [Example 1]", "md_verbatim": "| 7 | ABC123 | DS | 123102 | 2 | SUBJECT DENIED MRI PROCEDURE | PROTOCOL VIOLATION | DISPOSITION EVENT | STUDY PARTICIPATION | SCREENING | 2003-11-22 | 2003-11-22 |", "score": 0.4478, "match_basis": "verbatim_token+domain_route:DS"}, {"md_atom_id": "md_dmDS_ex_a054", "md_file": "knowledge_base/domains/DS/examples.md", "md_atom_type": "TABLE_ROW", "md_parent_section": "§DS.3 [Example 3]", "md_verbatim": "| 4 | ABC789 | DS | 789102 | 2 | SUBJECT HAD SEVERE RASH | TREATMENT UNBLINDED | OTHER EVENT | TREATMENT | 2004-10-01 |", "score": 0.4472, "match_basis": "verbatim_token+domain_route:DS"}, {"md_atom_id": "md_dmDS_ex_a023", "md_file": "knowledge_base/domains/DS/examples.md", "md_atom_type": "TABLE_ROW", "md_parent_section": "§DS.1 [Example 1]", "md_verbatim": "| 11 | ABC123 | DS | 123103 | 4 | SUBJECT MOVED | LOST TO FOLLOW-UP | DISPOSITION EVENT | STUDY PARTICIPATION | TREATMENT | 2003-10-31 | 2003-10-20 |", "score": 0.4408, "match_basis": "verbatim_token+domain_route:DS"}, {"md_atom_id": "md_dmDS_ex_a041", "md_file": "knowledge_base/domains/DS/examples.md", "md_atom_type": "TABLE_ROW", "md_parent_section": "§DS.2 [Example 2]", "md_verbatim": "| 2 | ABC456 | DS | 456102 | 1 | SUBJECT TAKING STUDY MED ERRATICALLY | PROTOCOL VIOLATION | DISPOSITION EVENT | TREATMENT | 2003-09-29 |", "score": 0.4385, "match_basis": "verbatim_token+domain_route:DS"}, {"md_atom_id": "md_dmDS_ex_a140", "md_file": "knowledge_base/domains/DS/examples.md", "md_atom_type": "TABLE_ROW", "md_parent_section": "§DS.10 [Example 10]", "md_verbatim": "| 4 | XYZ | TE | DG1INDG | Drug 1 + Investigation Drug | First dose of Investigational Drug, where Investigational Drug is given with Drug 1 | 1 week after start of Element | P7D |", "score": 0.4364, "match_basis": "verbatim_token+domain_route:DS"}], "candidate_count": 5, "zero_candidate": false}
{"pdf_atom_id": "ig34_p0155_a0023", "pdf_atom_type": "TABLE_ROW", "pdf_source": "SDTMIG_v3.4", "pdf_page": 155, "pdf_parent_section": "§6.2.4 Disposition (DS)", "pdf_verbatim": "| DSGRPID | Group ID | Char | | Identifier | Used to tie together a block of related records in a single domain for a subject. | Perm |", "figure_ref": "pdf_p0155+middle", "candidates": [{"md_atom_id": "md_dmDS_ex_a054", "md_file": "knowledge_base/domains/DS/examples.md", "md_atom_type": "TABLE_ROW", "md_parent_section": "§DS.3 [Example 3]", "md_verbatim": "| 4 | ABC789 | DS | 789102 | 2 | SUBJECT HAD SEVERE RASH | TREATMENT UNBLINDED | OTHER EVENT | TREATMENT | 2004-10-01 |", "score": 0.4552, "match_basis": "verbatim_token+domain_route:DS"}, {"md_atom_id": "md_dmDS_ex_a019", "md_file": "knowledge_base/domains/DS/examples.md", "md_atom_type": "TABLE_ROW", "md_parent_section": "§DS.1 [Example 1]", "md_verbatim": "| 7 | ABC123 | DS | 123102 | 2 | SUBJECT DENIED MRI PROCEDURE | PROTOCOL VIOLATION | DISPOSITION EVENT | STUDY PARTICIPATION | SCREENING | 2003-11-22 | 2003-11-22 |", "score": 0.4482, "match_basis": "verbatim_token+domain_route:DS"}, {"md_atom_id": "md_dmDS_ex_a041", "md_file": "knowledge_base/domains/DS/examples.md", "md_atom_type": "TABLE_ROW", "md_parent_section": "§DS.2 [Example 2]", "md_verbatim": "| 2 | ABC456 | DS | 456102 | 1 | SUBJECT TAKING STUDY MED ERRATICALLY | PROTOCOL VIOLATION | DISPOSITION EVENT | TREATMENT | 2003-09-29 |", "score": 0.4449, "match_basis": "verbatim_token+domain_route:DS"}, {"md_atom_id": "md_dmDS_ex_a023", "md_file": "knowledge_base/domains/DS/examples.md", "md_atom_type": "TABLE_ROW", "md_parent_section": "§DS.1 [Example 1]", "md_verbatim": "| 11 | ABC123 | DS | 123103 | 4 | SUBJECT MOVED | LOST TO FOLLOW-UP | DISPOSITION EVENT | STUDY PARTICIPATION | TREATMENT | 2003-10-31 | 2003-10-20 |", "score": 0.435, "match_basis": "verbatim_token+domain_route:DS"}, {"md_atom_id": "md_dmDS_ex_a126", "md_file": "knowledge_base/domains/DS/examples.md", "md_atom_type": "TABLE_ROW", "md_parent_section": "§DS.9 [Example 9]", "md_verbatim": "| 4 | XXX | DS | XXX-767-001 | 4 | INFORMED CONSENT FOR PHARMACOGENETIC RESEARCH OBTAINED | INFORMED CONSENT OBTAINED | PROTOCOL MILESTONE | TREATMENT 2 | 2016-06-08 |", "score": 0.427, "match_basis": "verbatim_token+domain_route:DS"}], "candidate_count": 5, "zero_candidate": false}
{"pdf_atom_id": "ig34_p0155_a0024", "pdf_atom_type": "TABLE_ROW", "pdf_source": "SDTMIG_v3.4", "pdf_page": 155, "pdf_parent_section": "§6.2.4 Disposition (DS)", "pdf_verbatim": "| DSREFID | Reference ID | Char | | Identifier | Internal or external identifier. | Perm |", "figure_ref": "pdf_p0155+middle", "candidates": [{"md_atom_id": "md_dmDS_ex_a140", "md_file": "knowledge_base/domains/DS/examples.md", "md_atom_type": "TABLE_ROW", "md_parent_section": "§DS.10 [Example 10]", "md_verbatim": "| 4 | XYZ | TE | DG1INDG | Drug 1 + Investigation Drug | First dose of Investigational Drug, where Investigational Drug is given with Drug 1 | 1 week after start of Element | P7D |", "score": 0.432, "match_basis": "verbatim_token+domain_route:DS"}, {"md_atom_id": "md_dmDS_ex_a141", "md_file": "knowledge_base/domains/DS/examples.md", "md_atom_type": "TABLE_ROW", "md_parent_section": "§DS.10 [Example 10]", "md_verbatim": "| 5 | XYZ | TE | DG2INDG | Drug 2 + Investigation Drug | First dose of Investigational Drug, where Investigational Drug is given with Drug 2 | 1 week after start of Element | P7D |", "score": 0.432, "match_basis": "verbatim_token+domain_route:DS"}, {"md_atom_id": "md_dmDS_ex_a215", "md_file": "knowledge_base/domains/DS/examples.md", "md_atom_type": "TABLE_ROW", "md_parent_section": "§DS.11 [Example 11]", "md_verbatim": "| 2 | DS10 | TE | AB | Trt AB | First dose of treatment Element, where treatment is AB | 4 weeks after start of Element | P4W |", "score": 0.4305, "match_basis": "verbatim_token+domain_route:DS"}, {"md_atom_id": "md_dmDS_ex_a216", "md_file": "knowledge_base/domains/DS/examples.md", "md_atom_type": "TABLE_ROW", "md_parent_section": "§DS.11 [Example 11]", "md_verbatim": "| 3 | DS10 | TE | ABC | Trt ABC | First dose of treatment Element, where treatment is AB+C | 4 weeks after start of Element | P4W |", "score": 0.43, "match_basis": "verbatim_token+domain_route:DS"}, {"md_atom_id": "md_dmDS_ex_a028", "md_file": "knowledge_base/domains/DS/examples.md", "md_atom_type": "TABLE_ROW", "md_parent_section": "§DS.1 [Example 1]", "md_verbatim": "| 16 | ABC123 | DS | 123104 | 5 | AUTOMOBILE ACCIDENT | DEATH | DISPOSITION EVENT | STUDY PARTICIPATION | FOLLOW-UP | 2003-10-31 | 2003-10-31 |", "score": 0.4222, "match_basis": "verbatim_token+domain_route:DS"}], "candidate_count": 5, "zero_candidate": false}
{"pdf_atom_id": "ig34_p0155_a0025", "pdf_atom_type": "TABLE_ROW", "pdf_source": "SDTMIG_v3.4", "pdf_page": 155, "pdf_parent_section": "§6.2.4 Disposition (DS)", "pdf_verbatim": "| DSSPID | Sponsor-Defined Identifier | Char | | Identifier | Sponsor-defined reference number. May be preprinted on the CRF as an explicit line identifier or defined in the sponsor's operational database. Example: Line number on a Disposition page. | Perm |", "figure_ref": "pdf_p0155+middle", "candidates": [{"md_atom_id": "md_dmDS_ex_a201", "md_file": "knowledge_base/domains/DS/examples.md", "md_atom_type": "TABLE_ROW", "md_parent_section": "§DS.10 [Example 10]", "md_verbatim": "| 7 | XYZ | DS | XYZ-767-001 | 7 | COMPLETED | COMPLETED | DISPOSITION EVENT | STUDY PARTICIPATION | FOLLOW-UP | 2016-04-24 |", "score": 0.4841, "match_basis": "verbatim_token+domain_route:DS"}, {"md_atom_id": "md_dmDS_ex_a208", "md_file": "knowledge_base/domains/DS/examples.md", "md_atom_type": "TABLE_ROW", "md_parent_section": "§DS.10 [Example 10]", "md_verbatim": "| 14 | XYZ | DS | XYZ-767-002 | 7 | COMPLETED | COMPLETED | DISPOSITION EVENT | STUDY PARTICIPATION | FOLLOW-UP | 2016-04-29 |", "score": 0.4841, "match_basis": "verbatim_token+domain_route:DS"}, {"md_atom_id": "md_dmDS_ex_a081", "md_file": "knowledge_base/domains/DS/examples.md", "md_atom_type": "TABLE_ROW", "md_parent_section": "§DS.5 [Example 5]", "md_verbatim": "| 3 | XXX | DS | XXX-767-001 | 3 | COMPLETED | COMPLETED | DISPOSITION EVENT | STUDY PARTICIPATION | TREATMENT 1 | 2016-02-25 |", "score": 0.4826, "match_basis": "verbatim_token+domain_route:DS"}, {"md_atom_id": "md_dmDS_ex_a083", "md_file": "knowledge_base/domains/DS/examples.md", "md_atom_type": "TABLE_ROW", "md_parent_section": "§DS.5 [Example 5]", "md_verbatim": "| 5 | XXX | DS | XXX-767-001 | 5 | COMPLETED | COMPLETED | DISPOSITION EVENT | STUDY PARTICIPATION | TREATMENT 2 | 2016-03-24 |", "score": 0.4826, "match_basis": "verbatim_token+domain_route:DS"}, {"md_atom_id": "md_dmDS_ex_a093", "md_file": "knowledge_base/domains/DS/examples.md", "md_atom_type": "TABLE_ROW", "md_parent_section": "§DS.6 [Example 6]", "md_verbatim": "| 3 | XXX | DS | XXX-767-001 | 3 | COMPLETED | COMPLETED | DISPOSITION EVENT | STUDY PARTICIPATION | TREATMENT 2 | 2016-03-24 |", "score": 0.4826, "match_basis": "verbatim_token+domain_route:DS"}], "candidate_count": 5, "zero_candidate": false}
{"pdf_atom_id": "ig34_p0155_a0026", "pdf_atom_type": "TABLE_ROW", "pdf_source": "SDTMIG_v3.4", "pdf_page": 155, "pdf_parent_section": "§6.2.4 Disposition (DS)", "pdf_verbatim": "| DSTERM | Reported Term for the Disposition Event | Char | | Topic | Verbatim name of the event or protocol milestone. Some terms in DSTERM will match DSDECOD, but others, such as \"Subject moved\", will map to controlled terminology in DSDECOD, such as \"LOST TO FOLLOW-UP\". | Req |", "figure_ref": "pdf_p0155+bottom", "candidates": [{"md_atom_id": "md_dmDS_ex_a023", "md_file": "knowledge_base/domains/DS/examples.md", "md_atom_type": "TABLE_ROW", "md_parent_section": "§DS.1 [Example 1]", "md_verbatim": "| 11 | ABC123 | DS | 123103 | 4 | SUBJECT MOVED | LOST TO FOLLOW-UP | DISPOSITION EVENT | STUDY PARTICIPATION | TREATMENT | 2003-10-31 | 2003-10-20 |", "score": 0.5296, "match_basis": "verbatim_token+domain_route:DS"}, {"md_atom_id": "md_dmDS_ex_a041", "md_file": "knowledge_base/domains/DS/examples.md", "md_atom_type": "TABLE_ROW", "md_parent_section": "§DS.2 [Example 2]", "md_verbatim": "| 2 | ABC456 | DS | 456102 | 1 | SUBJECT TAKING STUDY MED ERRATICALLY | PROTOCOL VIOLATION | DISPOSITION EVENT | TREATMENT | 2003-09-29 |", "score": 0.5075, "match_basis": "verbatim_token+domain_route:DS"}, {"md_atom_id": "md_dmDS_ex_a019", "md_file": "knowledge_base/domains/DS/examples.md", "md_atom_type": "TABLE_ROW", "md_parent_section": "§DS.1 [Example 1]", "md_verbatim": "| 7 | ABC123 | DS | 123102 | 2 | SUBJECT DENIED MRI PROCEDURE | PROTOCOL VIOLATION | DISPOSITION EVENT | STUDY PARTICIPATION | SCREENING | 2003-11-22 | 2003-11-22 |", "score": 0.5029, "match_basis": "verbatim_token+domain_route:DS"}, {"md_atom_id": "md_dmDS_ex_a042", "md_file": "knowledge_base/domains/DS/examples.md", "md_atom_type": "TABLE_ROW", "md_parent_section": "§DS.2 [Example 2]", "md_verbatim": "| 3 | ABC456 | DS | 456103 | 1 | LOST TO FOLLOW-UP | LOST TO FOLLOW-UP | DISPOSITION EVENT | TREATMENT | 2003-10-15 |", "score": 0.4947, "match_basis": "verbatim_token+domain_route:DS"}, {"md_atom_id": "md_dmDS_ex_a040", "md_file": "knowledge_base/domains/DS/examples.md", "md_atom_type": "TABLE_ROW", "md_parent_section": "§DS.2 [Example 2]", "md_verbatim": "| 1 | ABC456 | DS | 456101 | 1 | COMPLETED | COMPLETED | DISPOSITION EVENT | FOLLOW-UP | 2003-09-21 |", "score": 0.4895, "match_basis": "verbatim_token+domain_route:DS"}], "candidate_count": 5, "zero_candidate": false}
{"pdf_atom_id": "ig34_p0155_a0027", "pdf_atom_type": "TABLE_ROW", "pdf_source": "SDTMIG_v3.4", "pdf_page": 155, "pdf_parent_section": "§6.2.4 Disposition (DS)", "pdf_verbatim": "| DSDECOD | Standardized Disposition Term | Char | (NCOMPLT)(PROTMLST)(OTHEVENT) | Synonym Qualifier | Controlled terminology for the name of disposition event or protocol milestone. Examples of protocol milestones: \"INFORMED CONSENT OBTAINED\", \"RANDOMIZED\". There are separate codelists used for DSDECOD where the choice depends on the value of DSCAT. Codelist \"NCOMPLT\" is used for disposition events, codelist \"PROTMLST\" is used for protocol milestones, and codelist \"OTHEVENT\" is used for other events. | Req |", "figure_ref": "pdf_p0155+bottom", "candidates": [{"md_atom_id": "md_dmDS_ex_a125", "md_file": "knowledge_base/domains/DS/examples.md", "md_atom_type": "TABLE_ROW", "md_parent_section": "§DS.9 [Example 9]", "md_verbatim": "| 3 | XXX | DS | XXX-767-001 | 3 | INFORMED CONSENT FOR AMENDMENT ONE OBTAINED | INFORMED CONSENT OBTAINED | PROTOCOL MILESTONE | TREATMENT 1 | 2016-04-10 |", "score": 0.5215, "match_basis": "verbatim_token+domain_route:DS"}, {"md_atom_id": "md_dmDS_ex_a123", "md_file": "knowledge_base/domains/DS/examples.md", "md_atom_type": "TABLE_ROW", "md_parent_section": "§DS.9 [Example 9]", "md_verbatim": "| 1 | XXX | DS | XXX-767-001 | 1 | INFORMED CONSENT FOR STUDY ENROLLMENT OBTAINED | INFORMED CONSENT OBTAINED | PROTOCOL MILESTONE | SCREENING | 2016-02-22 |", "score": 0.5164, "match_basis": "verbatim_token+domain_route:DS"}, {"md_atom_id": "md_dmDS_ex_a256", "md_file": "knowledge_base/domains/DS/examples.md", "md_atom_type": "TABLE_ROW", "md_parent_section": "§DS.11 [Example 11]", "md_verbatim": "| 1 | DS10 | DS | 101 | 1 | INFORMED CONSENT OBTAINED | INFORMED CONSENT OBTAINED | PROTOCOL MILESTONE | | 1 | SCREENING | 2015-01-21 |", "score": 0.5146, "match_basis": "verbatim_token+domain_route:DS"}, {"md_atom_id": "md_dmDS_ex_a127", "md_file": "knowledge_base/domains/DS/examples.md", "md_atom_type": "TABLE_ROW", "md_parent_section": "§DS.9 [Example 9]", "md_verbatim": "| 5 | XXX | DS | XXX-767-001 | 5 | INFORMED CONSENT FOR PK SUB-STUDY OBTAINED | INFORMED CONSENT OBTAINED | PROTOCOL MILESTONE | TREATMENT 2 | 2016-06-23 |", "score": 0.5125, "match_basis": "verbatim_token+domain_route:DS"}, {"md_atom_id": "md_dmDS_ex_a013", "md_file": "knowledge_base/domains/DS/examples.md", "md_atom_type": "TABLE_ROW", "md_parent_section": "§DS.1 [Example 1]", "md_verbatim": "| 1 | ABC123 | DS | 123101 | 1 | INFORMED CONSENT OBTAINED | INFORMED CONSENT OBTAINED | PROTOCOL MILESTONE | | SCREENING | 2003-09-21 | 2003-09-21 |", "score": 0.5118, "match_basis": "verbatim_token+domain_route:DS"}], "candidate_count": 5, "zero_candidate": false}
{"pdf_atom_id": "ig34_p0155_a0028", "pdf_atom_type": "TABLE_ROW", "pdf_source": "SDTMIG_v3.4", "pdf_page": 155, "pdf_parent_section": "§6.2.4 Disposition (DS)", "pdf_verbatim": "| DSCAT | Category for Disposition Event | Char | (DSCAT) | Grouping Qualifier | Used to define a category of related records. | Exp |", "figure_ref": "pdf_p0155+bottom", "candidates": [{"md_atom_id": "md_dmDS_ex_a040", "md_file": "knowledge_base/domains/DS/examples.md", "md_atom_type": "TABLE_ROW", "md_parent_section": "§DS.2 [Example 2]", "md_verbatim": "| 1 | ABC456 | DS | 456101 | 1 | COMPLETED | COMPLETED | DISPOSITION EVENT | FOLLOW-UP | 2003-09-21 |", "score": 0.5099, "match_basis": "verbatim_token+domain_route:DS"}, {"md_atom_id": "md_dmDS_ex_a052", "md_file": "knowledge_base/domains/DS/examples.md", "md_atom_type": "TABLE_ROW", "md_parent_section": "§DS.3 [Example 3]", "md_verbatim": "| 2 | ABC789 | DS | 789101 | 2 | COMPLETED | COMPLETED | DISPOSITION EVENT | FOLLOW-UP | 2004-12-20 |", "score": 0.5099, "match_basis": "verbatim_token+domain_route:DS"}, {"md_atom_id": "md_dmDS_ex_a055", "md_file": "knowledge_base/domains/DS/examples.md", "md_atom_type": "TABLE_ROW", "md_parent_section": "§DS.3 [Example 3]", "md_verbatim": "| 5 | ABC789 | DS | 789102 | 3 | COMPLETED | COMPLETED | DISPOSITION EVENT | FOLLOW-UP | 2004-12-28 |", "score": 0.5099, "match_basis": "verbatim_token+domain_route:DS"}, {"md_atom_id": "md_dmDS_ex_a100", "md_file": "knowledge_base/domains/DS/examples.md", "md_atom_type": "TABLE_ROW", "md_parent_section": "§DS.7 [Example 7]", "md_verbatim": "| 1 | XXX | DS | XXX-767-001 | 1 | COMPLETED | COMPLETED | DISPOSITION EVENT | STUDY TREATMENT | TREATMENT 1 | 2016-02-15 |", "score": 0.5083, "match_basis": "verbatim_token+domain_route:DS"}, {"md_atom_id": "md_dmDS_ex_a197", "md_file": "knowledge_base/domains/DS/examples.md", "md_atom_type": "TABLE_ROW", "md_parent_section": "§DS.10 [Example 10]", "md_verbatim": "| 3 | XYZ | DS | XYZ-767-001 | 3 | COMPLETED | COMPLETED | DISPOSITION EVENT | DRUG1 | TREATMENT 1 | 2016-03-14 |", "score": 0.5083, "match_basis": "verbatim_token+domain_route:DS"}], "candidate_count": 5, "zero_candidate": false}
{"pdf_atom_id": "ig34_p0156_a0001", "pdf_atom_type": "TABLE_ROW", "pdf_source": "SDTMIG_v3.4", "pdf_page": 156, "pdf_parent_section": "§6.2.4 Disposition (DS)", "pdf_verbatim": "| DSSCAT | Subcategory for Disposition Event | Char | (DSSCAT) | Grouping Qualifier | A further categorization of DSCAT (e.g., \"STUDY PARTICIPATION\", \"STUDY TREATMENT\" when DSCAT = \"DISPOSITION EVENT\"). The variable may be subject to controlled terminology for other categories of disposition event records. | Perm |", "figure_ref": null, "candidates": [{"md_atom_id": "md_dmDS_ex_a023", "md_file": "knowledge_base/domains/DS/examples.md", "md_atom_type": "TABLE_ROW", "md_parent_section": "§DS.1 [Example 1]", "md_verbatim": "| 11 | ABC123 | DS | 123103 | 4 | SUBJECT MOVED | LOST TO FOLLOW-UP | DISPOSITION EVENT | STUDY PARTICIPATION | TREATMENT | 2003-10-31 | 2003-10-20 |", "score": 0.5742, "match_basis": "verbatim_token+domain_route:DS"}, {"md_atom_id": "md_dmDS_ex_a081", "md_file": "knowledge_base/domains/DS/examples.md", "md_atom_type": "TABLE_ROW", "md_parent_section": "§DS.5 [Example 5]", "md_verbatim": "| 3 | XXX | DS | XXX-767-001 | 3 | COMPLETED | COMPLETED | DISPOSITION EVENT | STUDY PARTICIPATION | TREATMENT 1 | 2016-02-25 |", "score": 0.5513, "match_basis": "verbatim_token+domain_route:DS"}, {"md_atom_id": "md_dmDS_ex_a083", "md_file": "knowledge_base/domains/DS/examples.md", "md_atom_type": "TABLE_ROW", "md_parent_section": "§DS.5 [Example 5]", "md_verbatim": "| 5 | XXX | DS | XXX-767-001 | 5 | COMPLETED | COMPLETED | DISPOSITION EVENT | STUDY PARTICIPATION | TREATMENT 2 | 2016-03-24 |", "score": 0.5513, "match_basis": "verbatim_token+domain_route:DS"}, {"md_atom_id": "md_dmDS_ex_a093", "md_file": "knowledge_base/domains/DS/examples.md", "md_atom_type": "TABLE_ROW", "md_parent_section": "§DS.6 [Example 6]", "md_verbatim": "| 3 | XXX | DS | XXX-767-001 | 3 | COMPLETED | COMPLETED | DISPOSITION EVENT | STUDY PARTICIPATION | TREATMENT 2 | 2016-03-24 |", "score": 0.5513, "match_basis": "verbatim_token+domain_route:DS"}, {"md_atom_id": "md_dmDS_ex_a101", "md_file": "knowledge_base/domains/DS/examples.md", "md_atom_type": "TABLE_ROW", "md_parent_section": "§DS.7 [Example 7]", "md_verbatim": "| 2 | XXX | DS | XXX-767-001 | 2 | COMPLETED | COMPLETED | DISPOSITION EVENT | STUDY PARTICIPATION | TREATMENT 1 | 2016-02-15 |", "score": 0.5513, "match_basis": "verbatim_token+domain_route:DS"}], "candidate_count": 5, "zero_candidate": false}
{"pdf_atom_id": "ig34_p0156_a0002", "pdf_atom_type": "TABLE_ROW", "pdf_source": "SDTMIG_v3.4", "pdf_page": 156, "pdf_parent_section": "§6.2.4 Disposition (DS)", "pdf_verbatim": "| EPOCH | Epoch | Char | (EPOCH) | Timing | Epoch associated with the start date/time of the event. | Perm |", "figure_ref": null, "candidates": [{"md_atom_id": "md_dmDS_ex_a140", "md_file": "knowledge_base/domains/DS/examples.md", "md_atom_type": "TABLE_ROW", "md_parent_section": "§DS.10 [Example 10]", "md_verbatim": "| 4 | XYZ | TE | DG1INDG | Drug 1 + Investigation Drug | First dose of Investigational Drug, where Investigational Drug is given with Drug 1 | 1 week after start of Element | P7D |", "score": 0.4592, "match_basis": "verbatim_token+domain_route:DS"}, {"md_atom_id": "md_dmDS_ex_a141", "md_file": "knowledge_base/domains/DS/examples.md", "md_atom_type": "TABLE_ROW", "md_parent_section": "§DS.10 [Example 10]", "md_verbatim": "| 5 | XYZ | TE | DG2INDG | Drug 2 + Investigation Drug | First dose of Investigational Drug, where Investigational Drug is given with Drug 2 | 1 week after start of Element | P7D |", "score": 0.4592, "match_basis": "verbatim_token+domain_route:DS"}, {"md_atom_id": "md_dmDS_ex_a232", "md_file": "knowledge_base/domains/DS/examples.md", "md_atom_type": "TABLE_ROW", "md_parent_section": "§DS.11 [Example 11]", "md_verbatim": "| 11 | DS10 | TA | ABC | ABC | 4 | ABC | Trt ABC | | Go to follow-up epoch. | TREATMENT |", "score": 0.4545, "match_basis": "verbatim_token+domain_route:DS"}, {"md_atom_id": "md_dmDS_ex_a196", "md_file": "knowledge_base/domains/DS/examples.md", "md_atom_type": "TABLE_ROW", "md_parent_section": "§DS.10 [Example 10]", "md_verbatim": "| 2 | XYZ | DS | XYZ-767-001 | 2 | COMPLETED | COMPLETED | DISPOSITION EVENT | STUDY PARTICIPATION | SCREENING | 2016-03-13 |", "score": 0.4537, "match_basis": "verbatim_token+domain_route:DS"}, {"md_atom_id": "md_dmDS_ex_a203", "md_file": "knowledge_base/domains/DS/examples.md", "md_atom_type": "TABLE_ROW", "md_parent_section": "§DS.10 [Example 10]", "md_verbatim": "| 9 | XYZ | DS | XYZ-767-002 | 2 | COMPLETED | COMPLETED | DISPOSITION EVENT | STUDY PARTICIPATION | SCREENING | 2016-03-23 |", "score": 0.4537, "match_basis": "verbatim_token+domain_route:DS"}], "candidate_count": 5, "zero_candidate": false}
{"pdf_atom_id": "ig34_p0156_a0003", "pdf_atom_type": "TABLE_ROW", "pdf_source": "SDTMIG_v3.4", "pdf_page": 156, "pdf_parent_section": "§6.2.4 Disposition (DS)", "pdf_verbatim": "| DSDTC | Date/Time of Collection | Char | ISO 8601 datetime or interval | Timing | Collection date and time of the disposition observation represented in ISO 8601 character format. | Perm |", "figure_ref": null, "candidates": [{"md_atom_id": "md_dmDS_ex_a040", "md_file": "knowledge_base/domains/DS/examples.md", "md_atom_type": "TABLE_ROW", "md_parent_section": "§DS.2 [Example 2]", "md_verbatim": "| 1 | ABC456 | DS | 456101 | 1 | COMPLETED | COMPLETED | DISPOSITION EVENT | FOLLOW-UP | 2003-09-21 |", "score": 0.4867, "match_basis": "verbatim_token+domain_route:DS"}, {"md_atom_id": "md_dmDS_ex_a052", "md_file": "knowledge_base/domains/DS/examples.md", "md_atom_type": "TABLE_ROW", "md_parent_section": "§DS.3 [Example 3]", "md_verbatim": "| 2 | ABC789 | DS | 789101 | 2 | COMPLETED | COMPLETED | DISPOSITION EVENT | FOLLOW-UP | 2004-12-20 |", "score": 0.4867, "match_basis": "verbatim_token+domain_route:DS"}, {"md_atom_id": "md_dmDS_ex_a055", "md_file": "knowledge_base/domains/DS/examples.md", "md_atom_type": "TABLE_ROW", "md_parent_section": "§DS.3 [Example 3]", "md_verbatim": "| 5 | ABC789 | DS | 789102 | 3 | COMPLETED | COMPLETED | DISPOSITION EVENT | FOLLOW-UP | 2004-12-28 |", "score": 0.4867, "match_basis": "verbatim_token+domain_route:DS"}, {"md_atom_id": "md_dmDS_ex_a201", "md_file": "knowledge_base/domains/DS/examples.md", "md_atom_type": "TABLE_ROW", "md_parent_section": "§DS.10 [Example 10]", "md_verbatim": "| 7 | XYZ | DS | XYZ-767-001 | 7 | COMPLETED | COMPLETED | DISPOSITION EVENT | STUDY PARTICIPATION | FOLLOW-UP | 2016-04-24 |", "score": 0.4867, "match_basis": "verbatim_token+domain_route:DS"}, {"md_atom_id": "md_dmDS_ex_a208", "md_file": "knowledge_base/domains/DS/examples.md", "md_atom_type": "TABLE_ROW", "md_parent_section": "§DS.10 [Example 10]", "md_verbatim": "| 14 | XYZ | DS | XYZ-767-002 | 7 | COMPLETED | COMPLETED | DISPOSITION EVENT | STUDY PARTICIPATION | FOLLOW-UP | 2016-04-29 |", "score": 0.4867, "match_basis": "verbatim_token+domain_route:DS"}], "candidate_count": 5, "zero_candidate": false}
{"pdf_atom_id": "ig34_p0156_a0004", "pdf_atom_type": "TABLE_ROW", "pdf_source": "SDTMIG_v3.4", "pdf_page": 156, "pdf_parent_section": "§6.2.4 Disposition (DS)", "pdf_verbatim": "| DSSTDTC | Start Date/Time of Disposition Event | Char | ISO 8601 datetime or interval | Timing | Start date/time of the disposition event in ISO 8601 character format. | Exp |", "figure_ref": null, "candidates": [{"md_atom_id": "md_dmDS_ex_a196", "md_file": "knowledge_base/domains/DS/examples.md", "md_atom_type": "TABLE_ROW", "md_parent_section": "§DS.10 [Example 10]", "md_verbatim": "| 2 | XYZ | DS | XYZ-767-001 | 2 | COMPLETED | COMPLETED | DISPOSITION EVENT | STUDY PARTICIPATION | SCREENING | 2016-03-13 |", "score": 0.5063, "match_basis": "verbatim_token+domain_route:DS"}, {"md_atom_id": "md_dmDS_ex_a203", "md_file": "knowledge_base/domains/DS/examples.md", "md_atom_type": "TABLE_ROW", "md_parent_section": "§DS.10 [Example 10]", "md_verbatim": "| 9 | XYZ | DS | XYZ-767-002 | 2 | COMPLETED | COMPLETED | DISPOSITION EVENT | STUDY PARTICIPATION | SCREENING | 2016-03-23 |", "score": 0.5063, "match_basis": "verbatim_token+domain_route:DS"}, {"md_atom_id": "md_dmDS_ex_a258", "md_file": "knowledge_base/domains/DS/examples.md", "md_atom_type": "TABLE_ROW", "md_parent_section": "§DS.11 [Example 11]", "md_verbatim": "| 3 | DS10 | DS | 101 | 3 | COMPLETED | COMPLETED | DISPOSITION EVENT | STUDY PARTICIPATION | 1 | SCREENING | 2015-02-01 |", "score": 0.5063, "match_basis": "verbatim_token+domain_route:DS"}, {"md_atom_id": "md_dmDS_ex_a061", "md_file": "knowledge_base/domains/DS/examples.md", "md_atom_type": "TABLE_ROW", "md_parent_section": "§DS.4 [Example 4]", "md_verbatim": "| 1 | ABC123 | DS | 123102 | 1 | Heart Failure | DEATH | DISPOSITION EVENT | TREATMENT | 2003-09-29 | 2003-09-29 |", "score": 0.5054, "match_basis": "verbatim_token+domain_route:DS"}, {"md_atom_id": "md_dmDS_ex_a080", "md_file": "knowledge_base/domains/DS/examples.md", "md_atom_type": "TABLE_ROW", "md_parent_section": "§DS.5 [Example 5]", "md_verbatim": "| 2 | XXX | DS | XXX-767-001 | 2 | COMPLETED | COMPLETED | DISPOSITION EVENT | ISONIAZID | TREATMENT 1 | 2016-02-15 |", "score": 0.5054, "match_basis": "verbatim_token+domain_route:DS"}], "candidate_count": 5, "zero_candidate": false}
{"pdf_atom_id": "ig34_p0156_a0005", "pdf_atom_type": "TABLE_ROW", "pdf_source": "SDTMIG_v3.4", "pdf_page": 156, "pdf_parent_section": "§6.2.4 Disposition (DS)", "pdf_verbatim": "| DSDY | Study Day of Collection | Num | | Timing | Study day of collection of event relative to the sponsor-defined RFSTDTC. | Perm |", "figure_ref": null, "candidates": [{"md_atom_id": "md_dmDS_ex_a041", "md_file": "knowledge_base/domains/DS/examples.md", "md_atom_type": "TABLE_ROW", "md_parent_section": "§DS.2 [Example 2]", "md_verbatim": "| 2 | ABC456 | DS | 456102 | 1 | SUBJECT TAKING STUDY MED ERRATICALLY | PROTOCOL VIOLATION | DISPOSITION EVENT | TREATMENT | 2003-09-29 |", "score": 0.4923, "match_basis": "verbatim_token+domain_route:DS"}, {"md_atom_id": "md_dmDS_ex_a201", "md_file": "knowledge_base/domains/DS/examples.md", "md_atom_type": "TABLE_ROW", "md_parent_section": "§DS.10 [Example 10]", "md_verbatim": "| 7 | XYZ | DS | XYZ-767-001 | 7 | COMPLETED | COMPLETED | DISPOSITION EVENT | STUDY PARTICIPATION | FOLLOW-UP | 2016-04-24 |", "score": 0.488, "match_basis": "verbatim_token+domain_route:DS"}, {"md_atom_id": "md_dmDS_ex_a208", "md_file": "knowledge_base/domains/DS/examples.md", "md_atom_type": "TABLE_ROW", "md_parent_section": "§DS.10 [Example 10]", "md_verbatim": "| 14 | XYZ | DS | XYZ-767-002 | 7 | COMPLETED | COMPLETED | DISPOSITION EVENT | STUDY PARTICIPATION | FOLLOW-UP | 2016-04-29 |", "score": 0.488, "match_basis": "verbatim_token+domain_route:DS"}, {"md_atom_id": "md_dmDS_ex_a262", "md_file": "knowledge_base/domains/DS/examples.md", "md_atom_type": "TABLE_ROW", "md_parent_section": "§DS.11 [Example 11]", "md_verbatim": "| 7 | DS10 | DS | 101 | 7 | Death due to cancer | DEATH | DISPOSITION EVENT | STUDY PARTICIPATION | 8 | FOLLOW-UP | 2015-09-19 |", "score": 0.4868, "match_basis": "verbatim_token+domain_route:DS"}, {"md_atom_id": "md_dmDS_ex_a019", "md_file": "knowledge_base/domains/DS/examples.md", "md_atom_type": "TABLE_ROW", "md_parent_section": "§DS.1 [Example 1]", "md_verbatim": "| 7 | ABC123 | DS | 123102 | 2 | SUBJECT DENIED MRI PROCEDURE | PROTOCOL VIOLATION | DISPOSITION EVENT | STUDY PARTICIPATION | SCREENING | 2003-11-22 | 2003-11-22 |", "score": 0.4866, "match_basis": "verbatim_token+domain_route:DS"}], "candidate_count": 5, "zero_candidate": false}
{"pdf_atom_id": "ig34_p0156_a0006", "pdf_atom_type": "TABLE_ROW", "pdf_source": "SDTMIG_v3.4", "pdf_page": 156, "pdf_parent_section": "§6.2.4 Disposition (DS)", "pdf_verbatim": "| DSSTDY | Study Day of Start of Disposition Event | Num | | Timing | Study day of start of event relative to the sponsor-defined RFSTDTC. | Exp |", "figure_ref": null, "candidates": [{"md_atom_id": "md_dmDS_ex_a196", "md_file": "knowledge_base/domains/DS/examples.md", "md_atom_type": "TABLE_ROW", "md_parent_section": "§DS.10 [Example 10]", "md_verbatim": "| 2 | XYZ | DS | XYZ-767-001 | 2 | COMPLETED | COMPLETED | DISPOSITION EVENT | STUDY PARTICIPATION | SCREENING | 2016-03-13 |", "score": 0.5459, "match_basis": "verbatim_token+domain_route:DS"}, {"md_atom_id": "md_dmDS_ex_a203", "md_file": "knowledge_base/domains/DS/examples.md", "md_atom_type": "TABLE_ROW", "md_parent_section": "§DS.10 [Example 10]", "md_verbatim": "| 9 | XYZ | DS | XYZ-767-002 | 2 | COMPLETED | COMPLETED | DISPOSITION EVENT | STUDY PARTICIPATION | SCREENING | 2016-03-23 |", "score": 0.5459, "match_basis": "verbatim_token+domain_route:DS"}, {"md_atom_id": "md_dmDS_ex_a258", "md_file": "knowledge_base/domains/DS/examples.md", "md_atom_type": "TABLE_ROW", "md_parent_section": "§DS.11 [Example 11]", "md_verbatim": "| 3 | DS10 | DS | 101 | 3 | COMPLETED | COMPLETED | DISPOSITION EVENT | STUDY PARTICIPATION | 1 | SCREENING | 2015-02-01 |", "score": 0.5459, "match_basis": "verbatim_token+domain_route:DS"}, {"md_atom_id": "md_dmDS_ex_a201", "md_file": "knowledge_base/domains/DS/examples.md", "md_atom_type": "TABLE_ROW", "md_parent_section": "§DS.10 [Example 10]", "md_verbatim": "| 7 | XYZ | DS | XYZ-767-001 | 7 | COMPLETED | COMPLETED | DISPOSITION EVENT | STUDY PARTICIPATION | FOLLOW-UP | 2016-04-24 |", "score": 0.5417, "match_basis": "verbatim_token+domain_route:DS"}, {"md_atom_id": "md_dmDS_ex_a208", "md_file": "knowledge_base/domains/DS/examples.md", "md_atom_type": "TABLE_ROW", "md_parent_section": "§DS.10 [Example 10]", "md_verbatim": "| 14 | XYZ | DS | XYZ-767-002 | 7 | COMPLETED | COMPLETED | DISPOSITION EVENT | STUDY PARTICIPATION | FOLLOW-UP | 2016-04-29 |", "score": 0.5417, "match_basis": "verbatim_token+domain_route:DS"}], "candidate_count": 5, "zero_candidate": false}
{"pdf_atom_id": "ig34_p0156_a0007", "pdf_atom_type": "NOTE", "pdf_source": "SDTMIG_v3.4", "pdf_page": 156, "pdf_parent_section": "§6.2.4 Disposition (DS)", "pdf_verbatim": "1In this column, an asterisk (*) indicates that the variable may be subject to controlled terminology. CDISC/NCI codelist values are enclosed in parentheses.", "figure_ref": null, "candidates": [{"md_atom_id": "md_dmDS_ex_a008", "md_file": "knowledge_base/domains/DS/examples.md", "md_atom_type": "SENTENCE", "md_parent_section": "§DS.1 [Example 1]", "md_verbatim": "**Rows 10-11:** Show disposition of a subject who completed the screening stage but did not complete the treatment stage. For completed epochs, both DSTERM and DSDECOD are \"COMPLETED\". For epochs that were not completed, the verbatim reason for the treatment epoch is in DSTERM, while the value from controlled terminology is in DSDECOD.", "score": 0.4447, "match_basis": "verbatim_token+domain_route:DS"}, {"md_atom_id": "md_dmDS_ex_a117", "md_file": "knowledge_base/domains/DS/examples.md", "md_atom_type": "SENTENCE", "md_parent_section": "§DS.9 [Example 9]", "md_verbatim": "This example is for a study in which multiple informed consents were collected. DSTERM is populated with a full description of the informed consent. DSDECOD is populated with the standardized value \"INFORMED CONSENT OBTAINED\" from the Protocol Milestone (PROTMLST) codelist. For all informed consent records, DSCAT = \"PROTOCOL MILESTONE\". The sponsor chose to include the EPOCH timing variable, to indicate the epoch during which each protocol milestone occurred.", "score": 0.4175, "match_basis": "verbatim_token+domain_route:DS"}, {"md_atom_id": "md_dmDS_assn_a009", "md_file": "knowledge_base/domains/DS/assumptions.md", "md_atom_type": "LIST_ITEM", "md_parent_section": "§DS [DS — Assumptions]", "md_verbatim": "   c. DSSCAT may be used when DSCAT = \"PROTOCOL MILESTONE\" or \"OTHER EVENT\", but would be subject to additional CDISC Controlled Terminology.", "score": 0.4132, "match_basis": "verbatim_token+domain_route:DS"}, {"md_atom_id": "md_dmDS_assn_a012", "md_file": "knowledge_base/domains/DS/assumptions.md", "md_atom_type": "LIST_ITEM", "md_parent_section": "§DS [DS — Assumptions]", "md_verbatim": "   f. Associations between DSCAT and some DSDECOD codelist values are described in the DS Codetable (available at https://www.cdisc.org/standards/terminology/controlled-terminology).", "score": 0.4128, "match_basis": "verbatim_token+domain_route:DS"}, {"md_atom_id": "md_dmDS_assn_a014", "md_file": "knowledge_base/domains/DS/assumptions.md", "md_atom_type": "LIST_ITEM", "md_parent_section": "§DS [DS — Assumptions]", "md_verbatim": "   a. DSDECOD values are drawn from controlled terminology. The controlled terminology depends on the value of DSCAT.", "score": 0.4079, "match_basis": "verbatim_token+domain_route:DS"}], "candidate_count": 5, "zero_candidate": false}
{"pdf_atom_id": "ig34_p0156_a0008", "pdf_atom_type": "HEADING", "pdf_source": "SDTMIG_v3.4", "pdf_page": 156, "pdf_parent_section": "§6.2.4 Disposition (DS)", "pdf_verbatim": "DS – Assumptions", "figure_ref": null, "candidates": [{"md_atom_id": "md_dmDS_assn_a001", "md_file": "knowledge_base/domains/DS/assumptions.md", "md_atom_type": "HEADING", "md_parent_section": "§DS [DS — Assumptions]", "md_verbatim": "# DS — Assumptions", "score": 1.0, "match_basis": "verbatim_token+domain_route:DS"}, {"md_atom_id": "md_dmDS_ex_a001", "md_file": "knowledge_base/domains/DS/examples.md", "md_atom_type": "HEADING", "md_parent_section": "§DS [DS — Examples]", "md_verbatim": "# DS — Examples", "score": 0.4, "match_basis": "verbatim_token+domain_route:DS"}, {"md_atom_id": "md_dmDS_ex_a002", "md_file": "knowledge_base/domains/DS/examples.md", "md_atom_type": "HEADING", "md_parent_section": "§DS [DS — Examples]", "md_verbatim": "## Example 1", "score": 0.4, "match_basis": "verbatim_token+domain_route:DS"}, {"md_atom_id": "md_dmDS_ex_a034", "md_file": "knowledge_base/domains/DS/examples.md", "md_atom_type": "HEADING", "md_parent_section": "§DS [DS — Examples]", "md_verbatim": "## Example 2", "score": 0.4, "match_basis": "verbatim_token+domain_route:DS"}, {"md_atom_id": "md_dmDS_ex_a043", "md_file": "knowledge_base/domains/DS/examples.md", "md_atom_type": "HEADING", "md_parent_section": "§DS [DS — Examples]", "md_verbatim": "## Example 3", "score": 0.4, "match_basis": "verbatim_token+domain_route:DS"}], "candidate_count": 5, "zero_candidate": false}
{"pdf_atom_id": "ig34_p0156_a0009", "pdf_atom_type": "SENTENCE", "pdf_source": "SDTMIG_v3.4", "pdf_page": 156, "pdf_parent_section": "§6.2.4 Disposition (DS)", "pdf_verbatim": "The Disposition (DS) dataset provides an accounting for all subjects who entered the study and may include protocol milestones, such as randomization, as well as the subject's completion status or reason for discontinuation for the entire study or each phase or segment of the study, including screening and post-treatment follow-up.", "figure_ref": null, "candidates": [{"md_atom_id": "md_dmDS_assn_a002", "md_file": "knowledge_base/domains/DS/assumptions.md", "md_atom_type": "LIST_ITEM", "md_parent_section": "§DS [DS — Assumptions]", "md_verbatim": "1. The Disposition (DS) dataset provides an accounting for all subjects who entered the study and may include protocol milestones, such as randomization, as well as the subject's completion status or reason for discontinuation for the entire study or each phase or segment of the study, including screening and post-treatment follow-up. Sponsors may choose which disposition events and milestones to submit for a study. See ICH E3, Section 10.1, for information about disposition events.", "score": 0.7977, "match_basis": "verbatim_token+domain_route:DS"}, {"md_atom_id": "md_dmDS_ex_a187", "md_file": "knowledge_base/domains/DS/examples.md", "md_atom_type": "SENTENCE", "md_parent_section": "§DS.10 [Example 10]", "md_verbatim": "The DS dataset shows the disposition events and protocol milestones for each subject.", "score": 0.5773, "match_basis": "verbatim_token+domain_route:DS"}, {"md_atom_id": "md_dmDS_ex_a010", "md_file": "knowledge_base/domains/DS/examples.md", "md_atom_type": "SENTENCE", "md_parent_section": "§DS.1 [Example 1]", "md_verbatim": "**Rows 19-21:** Show disposition of a subject who discontinued the treatment epoch due to an adverse event, but who went on to complete the follow-up phase of the trial.", "score": 0.5691, "match_basis": "verbatim_token+domain_route:DS"}, {"md_atom_id": "md_dmDS_ex_a007", "md_file": "knowledge_base/domains/DS/examples.md", "md_atom_type": "SENTENCE", "md_parent_section": "§DS.1 [Example 1]", "md_verbatim": "**Row 7:** Shows disposition of a subject who was a screen failure. The verbatim reason the subject was a screen failure is represented in DSTERM. Because the subject did not complete the screening epoch, DSDECOD is not \"COMPLETED\" but another appropriate controlled term, \"PROTOCOL VIOLATION\". The date of discontinuation is in DSSTDTC. The protocol deviation event itself would be represented in the DV dataset.", "score": 0.5668, "match_basis": "verbatim_token+domain_route:DS"}, {"md_atom_id": "md_dmDS_ex_a044", "md_file": "knowledge_base/domains/DS/examples.md", "md_atom_type": "SENTENCE", "md_parent_section": "§DS.3 [Example 3]", "md_verbatim": "In this study, disposition of study participation was collected for the treatment and follow-up epochs. For these records, the value in EPOCH was taken from the CRF. Data on screen failures were not submitted for this study, so all submitted subjects completed screening; the sponsor chose not to collect data on disposition of the screening epoch.", "score": 0.5648, "match_basis": "verbatim_token+domain_route:DS"}], "candidate_count": 5, "zero_candidate": false}
{"pdf_atom_id": "ig34_p0156_a0010", "pdf_atom_type": "SENTENCE", "pdf_source": "SDTMIG_v3.4", "pdf_page": 156, "pdf_parent_section": "§6.2.4 Disposition (DS)", "pdf_verbatim": "Sponsors may choose which disposition events and milestones to submit for a study.", "figure_ref": null, "candidates": [{"md_atom_id": "md_dmDS_ex_a187", "md_file": "knowledge_base/domains/DS/examples.md", "md_atom_type": "SENTENCE", "md_parent_section": "§DS.10 [Example 10]", "md_verbatim": "The DS dataset shows the disposition events and protocol milestones for each subject.", "score": 0.625, "match_basis": "verbatim_token+domain_route:DS"}, {"md_atom_id": "md_dmDS_ex_a035", "md_file": "knowledge_base/domains/DS/examples.md", "md_atom_type": "SENTENCE", "md_parent_section": "§DS.2 [Example 2]", "md_verbatim": "In this example, the sponsor has chosen to simply submit whether or not subjects completed the study, so there is only 1 record per subject. The sponsor did not collect disposition of treatment and did not include DSSCAT. EPOCH was populated as a timing variable, and represents the epoch during which the subject discontinued.", "score": 0.5226, "match_basis": "verbatim_token+domain_route:DS"}, {"md_atom_id": "md_dmDS_ex_a044", "md_file": "knowledge_base/domains/DS/examples.md", "md_atom_type": "SENTENCE", "md_parent_section": "§DS.3 [Example 3]", "md_verbatim": "In this study, disposition of study participation was collected for the treatment and follow-up epochs. For these records, the value in EPOCH was taken from the CRF. Data on screen failures were not submitted for this study, so all submitted subjects completed screening; the sponsor chose not to collect data on disposition of the screening epoch.", "score": 0.521, "match_basis": "verbatim_token+domain_route:DS"}, {"md_atom_id": "md_dmDS_ex_a252", "md_file": "knowledge_base/domains/DS/examples.md", "md_atom_type": "SENTENCE", "md_parent_section": "§DS.11 [Example 11]", "md_verbatim": "**Row 6:** Shows disposition of study participation in the treatment epoch.", "score": 0.5182, "match_basis": "verbatim_token+domain_route:DS"}, {"md_atom_id": "md_dmDS_ex_a105", "md_file": "knowledge_base/domains/DS/examples.md", "md_atom_type": "SENTENCE", "md_parent_section": "§DS.8 [Example 8]", "md_verbatim": "This example represents data for an ongoing blinded study in which each subject received 2 treatments, identified by the sponsor as \"BLINDED DRUG A\" and \"BLINDED DRUG B\". Disposition of study participation and of each of the 2 blinded treatments was collected for each of the 2 treatment epochs in the study. The subject in this example completed study participation and both treatments for both treatment epochs.", "score": 0.518, "match_basis": "verbatim_token+domain_route:DS"}], "candidate_count": 5, "zero_candidate": false}
{"pdf_atom_id": "ig34_p0156_a0011", "pdf_atom_type": "SENTENCE", "pdf_source": "SDTMIG_v3.4", "pdf_page": 156, "pdf_parent_section": "§6.2.4 Disposition (DS)", "pdf_verbatim": "See ICH E3, Section 10.1, for information about disposition events.", "figure_ref": null, "candidates": [{"md_atom_id": "md_dmDS_ex_a187", "md_file": "knowledge_base/domains/DS/examples.md", "md_atom_type": "SENTENCE", "md_parent_section": "§DS.10 [Example 10]", "md_verbatim": "The DS dataset shows the disposition events and protocol milestones for each subject.", "score": 0.5552, "match_basis": "verbatim_token+domain_route:DS"}, {"md_atom_id": "md_dmDS_ex_a009", "md_file": "knowledge_base/domains/DS/examples.md", "md_atom_type": "SENTENCE", "md_parent_section": "§DS.1 [Example 1]", "md_verbatim": "**Rows 14-16:** Show disposition of a subject who completed treatment, but did not complete follow-up. Note that for final disposition event, the date of collection of the event information, DSDTC, was different from the date of the disposition event (the subject's death), DSSTDTC.", "score": 0.5448, "match_basis": "verbatim_token+domain_route:DS"}, {"md_atom_id": "md_dmDS_ex_a252", "md_file": "knowledge_base/domains/DS/examples.md", "md_atom_type": "SENTENCE", "md_parent_section": "§DS.11 [Example 11]", "md_verbatim": "**Row 6:** Shows disposition of study participation in the treatment epoch.", "score": 0.5245, "match_basis": "verbatim_token+domain_route:DS"}, {"md_atom_id": "md_dmDS_assn_a029", "md_file": "knowledge_base/domains/DS/assumptions.md", "md_atom_type": "SENTENCE", "md_parent_section": "§DS [DS — Assumptions]", "md_verbatim": "   SUPPDS QNAM = \"DSTERM1\", SUPPDS QLABEL = \"Reported Term for Disposition Event 1\", and SUPPDS QVAL = \"SUBJECT REFUSED FURTHER TREATMENT\"", "score": 0.5167, "match_basis": "verbatim_token+domain_route:DS"}, {"md_atom_id": "md_dmDS_ex_a253", "md_file": "knowledge_base/domains/DS/examples.md", "md_atom_type": "SENTENCE", "md_parent_section": "§DS.11 [Example 11]", "md_verbatim": "**Row 7:** Shows disposition of study participation in the follow-up epoch. The subject died.", "score": 0.5158, "match_basis": "verbatim_token+domain_route:DS"}], "candidate_count": 5, "zero_candidate": false}
{"pdf_atom_id": "ig34_p0156_a0012", "pdf_atom_type": "LIST_ITEM", "pdf_source": "SDTMIG_v3.4", "pdf_page": 156, "pdf_parent_section": "§6.2.4 Disposition (DS)", "pdf_verbatim": "Categorization", "figure_ref": null, "candidates": [{"md_atom_id": "md_dmDS_assn_a003", "md_file": "knowledge_base/domains/DS/assumptions.md", "md_atom_type": "LIST_ITEM", "md_parent_section": "§DS [DS — Assumptions]", "md_verbatim": "2. **Categorization**", "score": 1.0, "match_basis": "verbatim_token+domain_route:DS"}, {"md_atom_id": "md_dmDS_assn_a006", "md_file": "knowledge_base/domains/DS/assumptions.md", "md_atom_type": "LIST_ITEM", "md_parent_section": "§DS [DS — Assumptions]", "md_verbatim": "      i. DSSCAT = \"STUDY PARTICIPATION\" is used to represent disposition of study participation.", "score": 0.4571, "match_basis": "verbatim_token+domain_route:DS"}, {"md_atom_id": "md_dmDS_assn_a013", "md_file": "knowledge_base/domains/DS/assumptions.md", "md_atom_type": "LIST_ITEM", "md_parent_section": "§DS [DS — Assumptions]", "md_verbatim": "3. **DS description and coding**", "score": 0.45, "match_basis": "verbatim_token+domain_route:DS"}, {"md_atom_id": "md_dmDS_assn_a010", "md_file": "knowledge_base/domains/DS/assumptions.md", "md_atom_type": "LIST_ITEM", "md_parent_section": "§DS [DS — Assumptions]", "md_verbatim": "   d. An event with DSCAT = \"PROTOCOL MILESTONE\" is a protocol-specified, point-in-time event. Common protocol milestones include \"INFORMED CONSENT OBTAINED\" and \"RANDOMIZED.\" DSSCAT may be used for subcategories of protocol milestones.", "score": 0.4409, "match_basis": "verbatim_token+domain_route:DS"}, {"md_atom_id": "md_dmDS_assn_a023", "md_file": "knowledge_base/domains/DS/assumptions.md", "md_atom_type": "LIST_ITEM", "md_parent_section": "§DS [DS — Assumptions]", "md_verbatim": "   a. DSSTDTC is expected and is used for the date/time of the disposition event. Events represented in the DS domain do not have end dates; disposition events do not span an interval, but rather occur at a single date/time (e.g., randomization date, disposition of study participation or study treatment).", "score": 0.4371, "match_basis": "verbatim_token+domain_route:DS"}], "candidate_count": 5, "zero_candidate": false}
{"pdf_atom_id": "ig34_p0156_a0013", "pdf_atom_type": "SENTENCE", "pdf_source": "SDTMIG_v3.4", "pdf_page": 156, "pdf_parent_section": "§6.2.4 Disposition (DS)", "pdf_verbatim": "DSCAT is used to distinguish between disposition events, protocol milestones, and other events.", "figure_ref": null, "candidates": [{"md_atom_id": "md_dmDS_assn_a004", "md_file": "knowledge_base/domains/DS/assumptions.md", "md_atom_type": "LIST_ITEM", "md_parent_section": "§DS [DS — Assumptions]", "md_verbatim": "   a. DSCAT is used to distinguish between disposition events, protocol milestones, and other events. The controlled terminology for DSCAT consists of \"DISPOSITION EVENT\", \"PROTOCOL MILESTONE\", and \"OTHER EVENT\".", "score": 0.7241, "match_basis": "verbatim_token+domain_route:DS"}, {"md_atom_id": "md_dmDS_ex_a187", "md_file": "knowledge_base/domains/DS/examples.md", "md_atom_type": "SENTENCE", "md_parent_section": "§DS.10 [Example 10]", "md_verbatim": "The DS dataset shows the disposition events and protocol milestones for each subject.", "score": 0.6677, "match_basis": "verbatim_token+domain_route:DS"}, {"md_atom_id": "md_dmDS_ex_a119", "md_file": "knowledge_base/domains/DS/examples.md", "md_atom_type": "SENTENCE", "md_parent_section": "§DS.9 [Example 9]", "md_verbatim": "**Row 2:** Shows randomization, another event with DSCAT = \"PROTOCOL MILESTONE\".", "score": 0.6308, "match_basis": "verbatim_token+domain_route:DS"}, {"md_atom_id": "md_dmDS_ex_a004", "md_file": "knowledge_base/domains/DS/examples.md", "md_atom_type": "SENTENCE", "md_parent_section": "§DS.1 [Example 1]", "md_verbatim": "Data were also collected about several protocol milestones represented with DSCAT = \"PROTOCOL MILESTONE\".", "score": 0.5481, "match_basis": "verbatim_token+domain_route:DS"}, {"md_atom_id": "md_dmDS_ex_a005", "md_file": "knowledge_base/domains/DS/examples.md", "md_atom_type": "SENTENCE", "md_parent_section": "§DS.1 [Example 1]", "md_verbatim": "**Rows 1, 2, 6, 8, 9, 12, 13, 17, 18:** Show records for protocol milestones. DSTERM and DSDECOD are populated with the same value, the name of the milestone. Note that for randomization events, EPOCH = \"SCREENING\", because randomization occurred before the start of treatment, during the screening epoch.", "score": 0.5172, "match_basis": "verbatim_token+domain_route:DS"}], "candidate_count": 5, "zero_candidate": false}
{"pdf_atom_id": "ig34_p0156_a0014", "pdf_atom_type": "SENTENCE", "pdf_source": "SDTMIG_v3.4", "pdf_page": 156, "pdf_parent_section": "§6.2.4 Disposition (DS)", "pdf_verbatim": "The controlled terminology for DSCAT consists of \"DISPOSITION EVENT\", \"PROTOCOL MILESTONE\", and \"OTHER EVENT\".", "figure_ref": null, "candidates": [{"md_atom_id": "md_dmDS_assn_a004", "md_file": "knowledge_base/domains/DS/assumptions.md", "md_atom_type": "LIST_ITEM", "md_parent_section": "§DS [DS — Assumptions]", "md_verbatim": "   a. DSCAT is used to distinguish between disposition events, protocol milestones, and other events. The controlled terminology for DSCAT consists of \"DISPOSITION EVENT\", \"PROTOCOL MILESTONE\", and \"OTHER EVENT\".", "score": 0.7748, "match_basis": "verbatim_token+domain_route:DS"}, {"md_atom_id": "md_dmDS_assn_a009", "md_file": "knowledge_base/domains/DS/assumptions.md", "md_atom_type": "LIST_ITEM", "md_parent_section": "§DS [DS — Assumptions]", "md_verbatim": "   c. DSSCAT may be used when DSCAT = \"PROTOCOL MILESTONE\" or \"OTHER EVENT\", but would be subject to additional CDISC Controlled Terminology.", "score": 0.6408, "match_basis": "verbatim_token+domain_route:DS"}, {"md_atom_id": "md_dmDS_ex_a187", "md_file": "knowledge_base/domains/DS/examples.md", "md_atom_type": "SENTENCE", "md_parent_section": "§DS.10 [Example 10]", "md_verbatim": "The DS dataset shows the disposition events and protocol milestones for each subject.", "score": 0.6333, "match_basis": "verbatim_token+domain_route:DS"}, {"md_atom_id": "md_dmDS_ex_a119", "md_file": "knowledge_base/domains/DS/examples.md", "md_atom_type": "SENTENCE", "md_parent_section": "§DS.9 [Example 9]", "md_verbatim": "**Row 2:** Shows randomization, another event with DSCAT = \"PROTOCOL MILESTONE\".", "score": 0.6113, "match_basis": "verbatim_token+domain_route:DS"}, {"md_atom_id": "md_dmDS_ex_a008", "md_file": "knowledge_base/domains/DS/examples.md", "md_atom_type": "SENTENCE", "md_parent_section": "§DS.1 [Example 1]", "md_verbatim": "**Rows 10-11:** Show disposition of a subject who completed the screening stage but did not complete the treatment stage. For completed epochs, both DSTERM and DSDECOD are \"COMPLETED\". For epochs that were not completed, the verbatim reason for the treatment epoch is in DSTERM, while the value from controlled terminology is in DSDECOD.", "score": 0.5548, "match_basis": "verbatim_token+domain_route:DS"}], "candidate_count": 5, "zero_candidate": false}
{"pdf_atom_id": "ig34_p0156_a0015", "pdf_atom_type": "SENTENCE", "pdf_source": "SDTMIG_v3.4", "pdf_page": 156, "pdf_parent_section": "§6.2.4 Disposition (DS)", "pdf_verbatim": "An event with DSCAT = \"DISPOSITION EVENT\" describes either disposition of study participation or of a study treatment.", "figure_ref": null, "candidates": [{"md_atom_id": "md_dmDS_ex_a252", "md_file": "knowledge_base/domains/DS/examples.md", "md_atom_type": "SENTENCE", "md_parent_section": "§DS.11 [Example 11]", "md_verbatim": "**Row 6:** Shows disposition of study participation in the treatment epoch.", "score": 0.7346, "match_basis": "verbatim_token+domain_route:DS"}, {"md_atom_id": "md_dmDS_ex_a076", "md_file": "knowledge_base/domains/DS/examples.md", "md_atom_type": "SENTENCE", "md_parent_section": "§DS.5 [Example 5]", "md_verbatim": "**Rows 3, 5:** Represent the study disposition for each treatment epoch, as indicated by DSSCAT = \"STUDY PARTICIPATION\".", "score": 0.6776, "match_basis": "verbatim_token+domain_route:DS"}, {"md_atom_id": "md_dmDS_ex_a107", "md_file": "knowledge_base/domains/DS/examples.md", "md_atom_type": "SENTENCE", "md_parent_section": "§DS.8 [Example 8]", "md_verbatim": "**Rows 3, 6:** Represent the disposition of study participation for each of the 2 treatment epochs, as indicated by DSSCAT = \"STUDY PARTICIPATION\".", "score": 0.6735, "match_basis": "verbatim_token+domain_route:DS"}, {"md_atom_id": "md_dmDS_ex_a097", "md_file": "knowledge_base/domains/DS/examples.md", "md_atom_type": "SENTENCE", "md_parent_section": "§DS.7 [Example 7]", "md_verbatim": "**Rows 2, 4:** Represent the disposition of study participation continuation for each treatment epoch, as indicated by DSSCAT = \"STUDY PARTICIPATION\".", "score": 0.6514, "match_basis": "verbatim_token+domain_route:DS"}, {"md_atom_id": "md_dmDS_ex_a247", "md_file": "knowledge_base/domains/DS/examples.md", "md_atom_type": "SENTENCE", "md_parent_section": "§DS.11 [Example 11]", "md_verbatim": "In this study, disposition of each treatment was collected, and disposition of study participation was collected for each epoch of the trial. The date of disposition for study treatment was defined as the date of the last dose of that treatment.", "score": 0.6231, "match_basis": "verbatim_token+domain_route:DS"}], "candidate_count": 5, "zero_candidate": false}
{"pdf_atom_id": "ig34_p0156_a0016", "pdf_atom_type": "SENTENCE", "pdf_source": "SDTMIG_v3.4", "pdf_page": 156, "pdf_parent_section": "§6.2.4 Disposition (DS)", "pdf_verbatim": "It describes whether a subject completed study participation or a study treatment and, if not, the reason they did not complete it.", "figure_ref": null, "candidates": [{"md_atom_id": "md_dmDS_ex_a249", "md_file": "knowledge_base/domains/DS/examples.md", "md_atom_type": "SENTENCE", "md_parent_section": "§DS.11 [Example 11]", "md_verbatim": "**Row 3:** Shows disposition of study participation for screening epoch. The subject completed this epoch.", "score": 0.624, "match_basis": "verbatim_token+domain_route:DS"}, {"md_atom_id": "md_dmDS_ex_a238", "md_file": "knowledge_base/domains/DS/examples.md", "md_atom_type": "SENTENCE", "md_parent_section": "§DS.11 [Example 11]", "md_verbatim": "**Rows 1-4:** The subject participated in the screening epoch and 3 elements of the treatment epoch.", "score": 0.6118, "match_basis": "verbatim_token+domain_route:DS"}, {"md_atom_id": "md_dmDS_ex_a252", "md_file": "knowledge_base/domains/DS/examples.md", "md_atom_type": "SENTENCE", "md_parent_section": "§DS.11 [Example 11]", "md_verbatim": "**Row 6:** Shows disposition of study participation in the treatment epoch.", "score": 0.6, "match_basis": "verbatim_token+domain_route:DS"}, {"md_atom_id": "md_dmDS_ex_a158", "md_file": "knowledge_base/domains/DS/examples.md", "md_atom_type": "SENTENCE", "md_parent_section": "§DS.10 [Example 10]", "md_verbatim": "The DM dataset includes the arm to which the subjects were randomized, and the dates of informed consent, start of study treatment, end of study treatment, and end of study participation.", "score": 0.5912, "match_basis": "verbatim_token+domain_route:DS"}, {"md_atom_id": "md_dmDS_ex_a191", "md_file": "knowledge_base/domains/DS/examples.md", "md_atom_type": "SENTENCE", "md_parent_section": "§DS.10 [Example 10]", "md_verbatim": "**Rows 4, 6, 11, 13:** Represent the completion of study participation for each epoch, where DSSCAT has the name of \"STUDY PARTICIPATION\". The DSSTDTC is the end date of study participation for the epoch. There was a 1-day evaluation post-treatment.", "score": 0.5912, "match_basis": "verbatim_token+domain_route:DS"}], "candidate_count": 5, "zero_candidate": false}
{"pdf_atom_id": "ig34_p0156_a0017", "pdf_atom_type": "SENTENCE", "pdf_source": "SDTMIG_v3.4", "pdf_page": 156, "pdf_parent_section": "§6.2.4 Disposition (DS)", "pdf_verbatim": "Dispositions may be described for each epoch (e.g., screening, initial treatment, washout, cross-over treatment, follow-up) or for the study as a whole.", "figure_ref": null, "candidates": [{"md_atom_id": "md_dmDS_ex_a189", "md_file": "knowledge_base/domains/DS/examples.md", "md_atom_type": "SENTENCE", "md_parent_section": "§DS.10 [Example 10]", "md_verbatim": "**Rows 2, 9:** Represent the completion of the screening phase of the study. Note that although a form describing disposition of the screening epoch does not end until treatment starts, the screening epoch does not end until treatment starts.", "score": 0.6139, "match_basis": "verbatim_token+domain_route:DS"}, {"md_atom_id": "md_dmDS_ex_a096", "md_file": "knowledge_base/domains/DS/examples.md", "md_atom_type": "SENTENCE", "md_parent_section": "§DS.7 [Example 7]", "md_verbatim": "**Rows 1, 3:** Represent the disposition of treatment for each treatment epoch, as indicated by DSSCAT = \"STUDY TREATMENT\".", "score": 0.595, "match_basis": "verbatim_token+domain_route:DS"}, {"md_atom_id": "md_dmDS_ex_a252", "md_file": "knowledge_base/domains/DS/examples.md", "md_atom_type": "SENTENCE", "md_parent_section": "§DS.11 [Example 11]", "md_verbatim": "**Row 6:** Shows disposition of study participation in the treatment epoch.", "score": 0.5946, "match_basis": "verbatim_token+domain_route:DS"}, {"md_atom_id": "md_dmDS_assn_a005", "md_file": "knowledge_base/domains/DS/assumptions.md", "md_atom_type": "LIST_ITEM", "md_parent_section": "§DS [DS — Assumptions]", "md_verbatim": "   b. An event with DSCAT = \"DISPOSITION EVENT\" describes either disposition of study participation or of a study treatment. It describes whether a subject completed study participation or a study treatment and, if not, the reason they did not complete it. Dispositions may be described for each epoch (e.g., screening, initial treatment, washout, cross-over treatment, follow-up) or for the study as a whole. If disposition events for both study participation and study treatment(s) are to be represented, then DSCAT provides this distinction. For records with DSCAT = \"DISPOSITION EVENT\",", "score": 0.5897, "match_basis": "verbatim_token+domain_route:DS"}, {"md_atom_id": "md_dmDS_ex_a247", "md_file": "knowledge_base/domains/DS/examples.md", "md_atom_type": "SENTENCE", "md_parent_section": "§DS.11 [Example 11]", "md_verbatim": "In this study, disposition of each treatment was collected, and disposition of study participation was collected for each epoch of the trial. The date of disposition for study treatment was defined as the date of the last dose of that treatment.", "score": 0.5832, "match_basis": "verbatim_token+domain_route:DS"}], "candidate_count": 5, "zero_candidate": false}
{"pdf_atom_id": "ig34_p0156_a0018", "pdf_atom_type": "SENTENCE", "pdf_source": "SDTMIG_v3.4", "pdf_page": 156, "pdf_parent_section": "§6.2.4 Disposition (DS)", "pdf_verbatim": "If disposition events for both study participation and study treatment(s) are to be represented, then DSSCAT provides this distinction.", "figure_ref": null, "candidates": [{"md_atom_id": "md_dmDS_ex_a076", "md_file": "knowledge_base/domains/DS/examples.md", "md_atom_type": "SENTENCE", "md_parent_section": "§DS.5 [Example 5]", "md_verbatim": "**Rows 3, 5:** Represent the study disposition for each treatment epoch, as indicated by DSSCAT = \"STUDY PARTICIPATION\".", "score": 0.7237, "match_basis": "verbatim_token+domain_route:DS"}, {"md_atom_id": "md_dmDS_ex_a107", "md_file": "knowledge_base/domains/DS/examples.md", "md_atom_type": "SENTENCE", "md_parent_section": "§DS.8 [Example 8]", "md_verbatim": "**Rows 3, 6:** Represent the disposition of study participation for each of the 2 treatment epochs, as indicated by DSSCAT = \"STUDY PARTICIPATION\".", "score": 0.7195, "match_basis": "verbatim_token+domain_route:DS"}, {"md_atom_id": "md_dmDS_ex_a097", "md_file": "knowledge_base/domains/DS/examples.md", "md_atom_type": "SENTENCE", "md_parent_section": "§DS.7 [Example 7]", "md_verbatim": "**Rows 2, 4:** Represent the disposition of study participation continuation for each treatment epoch, as indicated by DSSCAT = \"STUDY PARTICIPATION\".", "score": 0.7073, "match_basis": "verbatim_token+domain_route:DS"}, {"md_atom_id": "md_dmDS_ex_a096", "md_file": "knowledge_base/domains/DS/examples.md", "md_atom_type": "SENTENCE", "md_parent_section": "§DS.7 [Example 7]", "md_verbatim": "**Rows 1, 3:** Represent the disposition of treatment for each treatment epoch, as indicated by DSSCAT = \"STUDY TREATMENT\".", "score": 0.6526, "match_basis": "verbatim_token+domain_route:DS"}, {"md_atom_id": "md_dmDS_ex_a252", "md_file": "knowledge_base/domains/DS/examples.md", "md_atom_type": "SENTENCE", "md_parent_section": "§DS.11 [Example 11]", "md_verbatim": "**Row 6:** Shows disposition of study participation in the treatment epoch.", "score": 0.6451, "match_basis": "verbatim_token+domain_route:DS"}], "candidate_count": 5, "zero_candidate": false}
{"pdf_atom_id": "ig34_p0156_a0019", "pdf_atom_type": "SENTENCE", "pdf_source": "SDTMIG_v3.4", "pdf_page": 156, "pdf_parent_section": "§6.2.4 Disposition (DS)", "pdf_verbatim": "For records with DSCAT = \"DISPOSITION EVENT\",", "figure_ref": null, "candidates": [{"md_atom_id": "md_dmDS_ex_a096", "md_file": "knowledge_base/domains/DS/examples.md", "md_atom_type": "SENTENCE", "md_parent_section": "§DS.7 [Example 7]", "md_verbatim": "**Rows 1, 3:** Represent the disposition of treatment for each treatment epoch, as indicated by DSSCAT = \"STUDY TREATMENT\".", "score": 0.5444, "match_basis": "verbatim_token+domain_route:DS"}, {"md_atom_id": "md_dmDS_ex_a187", "md_file": "knowledge_base/domains/DS/examples.md", "md_atom_type": "SENTENCE", "md_parent_section": "§DS.10 [Example 10]", "md_verbatim": "The DS dataset shows the disposition events and protocol milestones for each subject.", "score": 0.5418, "match_basis": "verbatim_token+domain_route:DS"}, {"md_atom_id": "md_dmDS_assn_a030", "md_file": "knowledge_base/domains/DS/assumptions.md", "md_atom_type": "SENTENCE", "md_parent_section": "§DS [DS — Assumptions]", "md_verbatim": "   SUPPDS QNAM = \"DSDECOD1\", SUPPDS QLABEL = \"Standardized Disposition Term 1\", and SUPPDS QVAL = \"WITHDREW CONSENT\"", "score": 0.53, "match_basis": "verbatim_token+domain_route:DS"}, {"md_atom_id": "md_dmDS_ex_a106", "md_file": "knowledge_base/domains/DS/examples.md", "md_atom_type": "SENTENCE", "md_parent_section": "§DS.8 [Example 8]", "md_verbatim": "**Rows 1, 2, 4, 5:** Represent the disposition of the blinded treatments for each of the 2 treatment epochs, indicated by DSSCAT = \"BLINDED DRUG A\" and DSSCAT = \"BLINDED DRUG B\".", "score": 0.53, "match_basis": "verbatim_token+domain_route:DS"}, {"md_atom_id": "md_dmDS_ex_a076", "md_file": "knowledge_base/domains/DS/examples.md", "md_atom_type": "SENTENCE", "md_parent_section": "§DS.5 [Example 5]", "md_verbatim": "**Rows 3, 5:** Represent the study disposition for each treatment epoch, as indicated by DSSCAT = \"STUDY PARTICIPATION\".", "score": 0.5238, "match_basis": "verbatim_token+domain_route:DS"}], "candidate_count": 5, "zero_candidate": false}
{"pdf_atom_id": "ig34_p0156_a0020", "pdf_atom_type": "LIST_ITEM", "pdf_source": "SDTMIG_v3.4", "pdf_page": 156, "pdf_parent_section": "§6.2.4 Disposition (DS)", "pdf_verbatim": "DSSCAT = \"STUDY PARTICIPATION\" is used to represent disposition of study participation.", "figure_ref": null, "candidates": [{"md_atom_id": "md_dmDS_assn_a006", "md_file": "knowledge_base/domains/DS/assumptions.md", "md_atom_type": "LIST_ITEM", "md_parent_section": "§DS [DS — Assumptions]", "md_verbatim": "      i. DSSCAT = \"STUDY PARTICIPATION\" is used to represent disposition of study participation.", "score": 1.0, "match_basis": "verbatim_token+domain_route:DS"}, {"md_atom_id": "md_dmDS_ex_a076", "md_file": "knowledge_base/domains/DS/examples.md", "md_atom_type": "SENTENCE", "md_parent_section": "§DS.5 [Example 5]", "md_verbatim": "**Rows 3, 5:** Represent the study disposition for each treatment epoch, as indicated by DSSCAT = \"STUDY PARTICIPATION\".", "score": 0.6591, "match_basis": "verbatim_token+domain_route:DS"}, {"md_atom_id": "md_dmDS_ex_a107", "md_file": "knowledge_base/domains/DS/examples.md", "md_atom_type": "SENTENCE", "md_parent_section": "§DS.8 [Example 8]", "md_verbatim": "**Rows 3, 6:** Represent the disposition of study participation for each of the 2 treatment epochs, as indicated by DSSCAT = \"STUDY PARTICIPATION\".", "score": 0.6529, "match_basis": "verbatim_token+domain_route:DS"}, {"md_atom_id": "md_dmDS_ex_a097", "md_file": "knowledge_base/domains/DS/examples.md", "md_atom_type": "SENTENCE", "md_parent_section": "§DS.7 [Example 7]", "md_verbatim": "**Rows 2, 4:** Represent the disposition of study participation continuation for each treatment epoch, as indicated by DSSCAT = \"STUDY PARTICIPATION\".", "score": 0.6197, "match_basis": "verbatim_token+domain_route:DS"}, {"md_atom_id": "md_dmDS_assn_a023", "md_file": "knowledge_base/domains/DS/assumptions.md", "md_atom_type": "LIST_ITEM", "md_parent_section": "§DS [DS — Assumptions]", "md_verbatim": "   a. DSSTDTC is expected and is used for the date/time of the disposition event. Events represented in the DS domain do not have end dates; disposition events do not span an interval, but rather occur at a single date/time (e.g., randomization date, disposition of study participation or study treatment).", "score": 0.5979, "match_basis": "verbatim_token+domain_route:DS"}], "candidate_count": 5, "zero_candidate": false}
{"pdf_atom_id": "ig34_p0156_a0021", "pdf_atom_type": "LIST_ITEM", "pdf_source": "SDTMIG_v3.4", "pdf_page": 156, "pdf_parent_section": "§6.2.4 Disposition (DS)", "pdf_verbatim": "DSSCAT = \"STUDY TREATMENT\" is used when a study has only a single treatment.", "figure_ref": null, "candidates": [{"md_atom_id": "md_dmDS_assn_a007", "md_file": "knowledge_base/domains/DS/assumptions.md", "md_atom_type": "LIST_ITEM", "md_parent_section": "§DS [DS — Assumptions]", "md_verbatim": "      ii. DSSCAT = \"STUDY TREATMENT\" is used when a study has only a single treatment.", "score": 1.0, "match_basis": "verbatim_token+domain_route:DS"}, {"md_atom_id": "md_dmDS_assn_a008", "md_file": "knowledge_base/domains/DS/assumptions.md", "md_atom_type": "LIST_ITEM", "md_parent_section": "§DS [DS — Assumptions]", "md_verbatim": "      iii. If a study has multiple treatments, then DSSCAT should name the individual treatment.", "score": 0.6, "match_basis": "verbatim_token+domain_route:DS"}, {"md_atom_id": "md_dmDS_assn_a006", "md_file": "knowledge_base/domains/DS/assumptions.md", "md_atom_type": "LIST_ITEM", "md_parent_section": "§DS [DS — Assumptions]", "md_verbatim": "      i. DSSCAT = \"STUDY PARTICIPATION\" is used to represent disposition of study participation.", "score": 0.5224, "match_basis": "verbatim_token+domain_route:DS"}, {"md_atom_id": "md_dmDS_assn_a023", "md_file": "knowledge_base/domains/DS/assumptions.md", "md_atom_type": "LIST_ITEM", "md_parent_section": "§DS [DS — Assumptions]", "md_verbatim": "   a. DSSTDTC is expected and is used for the date/time of the disposition event. Events represented in the DS domain do not have end dates; disposition events do not span an interval, but rather occur at a single date/time (e.g., randomization date, disposition of study participation or study treatment).", "score": 0.503, "match_basis": "verbatim_token+domain_route:DS"}, {"md_atom_id": "md_dmDS_ex_a190", "md_file": "knowledge_base/domains/DS/examples.md", "md_atom_type": "SENTENCE", "md_parent_section": "§DS.10 [Example 10]", "md_verbatim": "**Rows 3, 5, 10, 12:** Represent the completion of drug for each EPOCH, where DSSCAT has the name of the drug(s). The DSSTDTC is the end date of study treatment for the epoch.", "score": 0.4674, "match_basis": "verbatim_token+domain_route:DS"}], "candidate_count": 5, "zero_candidate": false}
{"pdf_atom_id": "ig34_p0156_a0022", "pdf_atom_type": "LIST_ITEM", "pdf_source": "SDTMIG_v3.4", "pdf_page": 156, "pdf_parent_section": "§6.2.4 Disposition (DS)", "pdf_verbatim": "If a study has multiple treatments, then DSSCAT should name the individual treatment.", "figure_ref": null, "candidates": [{"md_atom_id": "md_dmDS_assn_a008", "md_file": "knowledge_base/domains/DS/assumptions.md", "md_atom_type": "LIST_ITEM", "md_parent_section": "§DS [DS — Assumptions]", "md_verbatim": "      iii. If a study has multiple treatments, then DSSCAT should name the individual treatment.", "score": 0.9846, "match_basis": "verbatim_token+domain_route:DS"}, {"md_atom_id": "md_dmDS_assn_a007", "md_file": "knowledge_base/domains/DS/assumptions.md", "md_atom_type": "LIST_ITEM", "md_parent_section": "§DS [DS — Assumptions]", "md_verbatim": "      ii. DSSCAT = \"STUDY TREATMENT\" is used when a study has only a single treatment.", "score": 0.6043, "match_basis": "verbatim_token+domain_route:DS"}, {"md_atom_id": "md_dmDS_assn_a005", "md_file": "knowledge_base/domains/DS/assumptions.md", "md_atom_type": "LIST_ITEM", "md_parent_section": "§DS [DS — Assumptions]", "md_verbatim": "   b. An event with DSCAT = \"DISPOSITION EVENT\" describes either disposition of study participation or of a study treatment. It describes whether a subject completed study participation or a study treatment and, if not, the reason they did not complete it. Dispositions may be described for each epoch (e.g., screening, initial treatment, washout, cross-over treatment, follow-up) or for the study as a whole. If disposition events for both study participation and study treatment(s) are to be represented, then DSCAT provides this distinction. For records with DSCAT = \"DISPOSITION EVENT\",", "score": 0.475, "match_basis": "verbatim_token+domain_route:DS"}, {"md_atom_id": "md_dmDS_assn_a006", "md_file": "knowledge_base/domains/DS/assumptions.md", "md_atom_type": "LIST_ITEM", "md_parent_section": "§DS [DS — Assumptions]", "md_verbatim": "      i. DSSCAT = \"STUDY PARTICIPATION\" is used to represent disposition of study participation.", "score": 0.475, "match_basis": "verbatim_token+domain_route:DS"}, {"md_atom_id": "md_dmDS_ex_a190", "md_file": "knowledge_base/domains/DS/examples.md", "md_atom_type": "SENTENCE", "md_parent_section": "§DS.10 [Example 10]", "md_verbatim": "**Rows 3, 5, 10, 12:** Represent the completion of drug for each EPOCH, where DSSCAT has the name of the drug(s). The DSSTDTC is the end date of study treatment for the epoch.", "score": 0.4706, "match_basis": "verbatim_token+domain_route:DS"}], "candidate_count": 5, "zero_candidate": false}
{"pdf_atom_id": "ig34_p0156_a0023", "pdf_atom_type": "SENTENCE", "pdf_source": "SDTMIG_v3.4", "pdf_page": 156, "pdf_parent_section": "§6.2.4 Disposition (DS)", "pdf_verbatim": "DSSCAT may be used when DSCAT = \"PROTOCOL MILESTONE\" or \"OTHER EVENT\", but would be subject to additional CDISC Controlled Terminology.", "figure_ref": null, "candidates": [{"md_atom_id": "md_dmDS_assn_a009", "md_file": "knowledge_base/domains/DS/assumptions.md", "md_atom_type": "LIST_ITEM", "md_parent_section": "§DS [DS — Assumptions]", "md_verbatim": "   c. DSSCAT may be used when DSCAT = \"PROTOCOL MILESTONE\" or \"OTHER EVENT\", but would be subject to additional CDISC Controlled Terminology.", "score": 0.91, "match_basis": "verbatim_token+domain_route:DS"}, {"md_atom_id": "md_dmDS_assn_a004", "md_file": "knowledge_base/domains/DS/assumptions.md", "md_atom_type": "LIST_ITEM", "md_parent_section": "§DS [DS — Assumptions]", "md_verbatim": "   a. DSCAT is used to distinguish between disposition events, protocol milestones, and other events. The controlled terminology for DSCAT consists of \"DISPOSITION EVENT\", \"PROTOCOL MILESTONE\", and \"OTHER EVENT\".", "score": 0.6035, "match_basis": "verbatim_token+domain_route:DS"}, {"md_atom_id": "md_dmDS_ex_a187", "md_file": "knowledge_base/domains/DS/examples.md", "md_atom_type": "SENTENCE", "md_parent_section": "§DS.10 [Example 10]", "md_verbatim": "The DS dataset shows the disposition events and protocol milestones for each subject.", "score": 0.5835, "match_basis": "verbatim_token+domain_route:DS"}, {"md_atom_id": "md_dmDS_ex_a119", "md_file": "knowledge_base/domains/DS/examples.md", "md_atom_type": "SENTENCE", "md_parent_section": "§DS.9 [Example 9]", "md_verbatim": "**Row 2:** Shows randomization, another event with DSCAT = \"PROTOCOL MILESTONE\".", "score": 0.5735, "match_basis": "verbatim_token+domain_route:DS"}, {"md_atom_id": "md_dmDS_ex_a007", "md_file": "knowledge_base/domains/DS/examples.md", "md_atom_type": "SENTENCE", "md_parent_section": "§DS.1 [Example 1]", "md_verbatim": "**Row 7:** Shows disposition of a subject who was a screen failure. The verbatim reason the subject was a screen failure is represented in DSTERM. Because the subject did not complete the screening epoch, DSDECOD is not \"COMPLETED\" but another appropriate controlled term, \"PROTOCOL VIOLATION\". The date of discontinuation is in DSSTDTC. The protocol deviation event itself would be represented in the DV dataset.", "score": 0.539, "match_basis": "verbatim_token+domain_route:DS"}], "candidate_count": 5, "zero_candidate": false}
{"pdf_atom_id": "ig34_p0156_a0024", "pdf_atom_type": "SENTENCE", "pdf_source": "SDTMIG_v3.4", "pdf_page": 156, "pdf_parent_section": "§6.2.4 Disposition (DS)", "pdf_verbatim": "An event with DSCAT = \"PROTOCOL MILESTONE\" is a protocol-specified, point-in-time event.", "figure_ref": null, "candidates": [{"md_atom_id": "md_dmDS_ex_a119", "md_file": "knowledge_base/domains/DS/examples.md", "md_atom_type": "SENTENCE", "md_parent_section": "§DS.9 [Example 9]", "md_verbatim": "**Row 2:** Shows randomization, another event with DSCAT = \"PROTOCOL MILESTONE\".", "score": 0.6377, "match_basis": "verbatim_token+domain_route:DS"}, {"md_atom_id": "md_dmDS_ex_a004", "md_file": "knowledge_base/domains/DS/examples.md", "md_atom_type": "SENTENCE", "md_parent_section": "§DS.1 [Example 1]", "md_verbatim": "Data were also collected about several protocol milestones represented with DSCAT = \"PROTOCOL MILESTONE\".", "score": 0.6, "match_basis": "verbatim_token+domain_route:DS"}, {"md_atom_id": "md_dmDS_ex_a187", "md_file": "knowledge_base/domains/DS/examples.md", "md_atom_type": "SENTENCE", "md_parent_section": "§DS.10 [Example 10]", "md_verbatim": "The DS dataset shows the disposition events and protocol milestones for each subject.", "score": 0.5548, "match_basis": "verbatim_token+domain_route:DS"}, {"md_atom_id": "md_dmDS_assn_a010", "md_file": "knowledge_base/domains/DS/assumptions.md", "md_atom_type": "LIST_ITEM", "md_parent_section": "§DS [DS — Assumptions]", "md_verbatim": "   d. An event with DSCAT = \"PROTOCOL MILESTONE\" is a protocol-specified, point-in-time event. Common protocol milestones include \"INFORMED CONSENT OBTAINED\" and \"RANDOMIZED.\" DSSCAT may be used for subcategories of protocol milestones.", "score": 0.5515, "match_basis": "verbatim_token+domain_route:DS"}, {"md_atom_id": "md_dmDS_ex_a005", "md_file": "knowledge_base/domains/DS/examples.md", "md_atom_type": "SENTENCE", "md_parent_section": "§DS.1 [Example 1]", "md_verbatim": "**Rows 1, 2, 6, 8, 9, 12, 13, 17, 18:** Show records for protocol milestones. DSTERM and DSDECOD are populated with the same value, the name of the milestone. Note that for randomization events, EPOCH = \"SCREENING\", because randomization occurred before the start of treatment, during the screening epoch.", "score": 0.4908, "match_basis": "verbatim_token+domain_route:DS"}], "candidate_count": 5, "zero_candidate": false}
{"pdf_atom_id": "ig34_p0156_a0025", "pdf_atom_type": "SENTENCE", "pdf_source": "SDTMIG_v3.4", "pdf_page": 156, "pdf_parent_section": "§6.2.4 Disposition (DS)", "pdf_verbatim": "Common protocol milestones include \"INFORMED CONSENT OBTAINED\" and \"RANDOMIZED.\"", "figure_ref": null, "candidates": [{"md_atom_id": "md_dmDS_assn_a010", "md_file": "knowledge_base/domains/DS/assumptions.md", "md_atom_type": "LIST_ITEM", "md_parent_section": "§DS [DS — Assumptions]", "md_verbatim": "   d. An event with DSCAT = \"PROTOCOL MILESTONE\" is a protocol-specified, point-in-time event. Common protocol milestones include \"INFORMED CONSENT OBTAINED\" and \"RANDOMIZED.\" DSSCAT may be used for subcategories of protocol milestones.", "score": 0.6612, "match_basis": "verbatim_token+domain_route:DS"}, {"md_atom_id": "md_dmDS_ex_a119", "md_file": "knowledge_base/domains/DS/examples.md", "md_atom_type": "SENTENCE", "md_parent_section": "§DS.9 [Example 9]", "md_verbatim": "**Row 2:** Shows randomization, another event with DSCAT = \"PROTOCOL MILESTONE\".", "score": 0.5739, "match_basis": "verbatim_token+domain_route:DS"}, {"md_atom_id": "md_dmDS_ex_a248", "md_file": "knowledge_base/domains/DS/examples.md", "md_atom_type": "SENTENCE", "md_parent_section": "§DS.11 [Example 11]", "md_verbatim": "**Rows 1-2:** Show that informed consent was obtained and randomization occurred during the screening epoch.", "score": 0.5725, "match_basis": "verbatim_token+domain_route:DS"}, {"md_atom_id": "md_dmDS_ex_a158", "md_file": "knowledge_base/domains/DS/examples.md", "md_atom_type": "SENTENCE", "md_parent_section": "§DS.10 [Example 10]", "md_verbatim": "The DM dataset includes the arm to which the subjects were randomized, and the dates of informed consent, start of study treatment, end of study treatment, and end of study participation.", "score": 0.5565, "match_basis": "verbatim_token+domain_route:DS"}, {"md_atom_id": "md_dmDS_ex_a120", "md_file": "knowledge_base/domains/DS/examples.md", "md_atom_type": "SENTENCE", "md_parent_section": "§DS.9 [Example 9]", "md_verbatim": "**Rows 3-5:** Show 3 additional informed consents obtained during the trial.", "score": 0.5478, "match_basis": "verbatim_token+domain_route:DS"}], "candidate_count": 5, "zero_candidate": false}
{"pdf_atom_id": "ig34_p0156_a0026", "pdf_atom_type": "SENTENCE", "pdf_source": "SDTMIG_v3.4", "pdf_page": 156, "pdf_parent_section": "§6.2.4 Disposition (DS)", "pdf_verbatim": "DSSCAT may be used for subcategories of protocol milestones.", "figure_ref": null, "candidates": [{"md_atom_id": "md_dmDS_ex_a187", "md_file": "knowledge_base/domains/DS/examples.md", "md_atom_type": "SENTENCE", "md_parent_section": "§DS.10 [Example 10]", "md_verbatim": "The DS dataset shows the disposition events and protocol milestones for each subject.", "score": 0.5574, "match_basis": "verbatim_token+domain_route:DS"}, {"md_atom_id": "md_dmDS_ex_a119", "md_file": "knowledge_base/domains/DS/examples.md", "md_atom_type": "SENTENCE", "md_parent_section": "§DS.9 [Example 9]", "md_verbatim": "**Row 2:** Shows randomization, another event with DSCAT = \"PROTOCOL MILESTONE\".", "score": 0.5552, "match_basis": "verbatim_token+domain_route:DS"}, {"md_atom_id": "md_dmDS_ex_a004", "md_file": "knowledge_base/domains/DS/examples.md", "md_atom_type": "SENTENCE", "md_parent_section": "§DS.1 [Example 1]", "md_verbatim": "Data were also collected about several protocol milestones represented with DSCAT = \"PROTOCOL MILESTONE\".", "score": 0.5524, "match_basis": "verbatim_token+domain_route:DS"}, {"md_atom_id": "md_dmDS_assn_a010", "md_file": "knowledge_base/domains/DS/assumptions.md", "md_atom_type": "LIST_ITEM", "md_parent_section": "§DS [DS — Assumptions]", "md_verbatim": "   d. An event with DSCAT = \"PROTOCOL MILESTONE\" is a protocol-specified, point-in-time event. Common protocol milestones include \"INFORMED CONSENT OBTAINED\" and \"RANDOMIZED.\" DSSCAT may be used for subcategories of protocol milestones.", "score": 0.5441, "match_basis": "verbatim_token+domain_route:DS"}, {"md_atom_id": "md_dmDS_ex_a045", "md_file": "knowledge_base/domains/DS/examples.md", "md_atom_type": "SENTENCE", "md_parent_section": "§DS.3 [Example 3]", "md_verbatim": "Data on protocol milestones were not collected, but data were collected if a subject's treatment was unblinded. For these records, EPOCH represents the epoch during which the blind was broken.", "score": 0.5067, "match_basis": "verbatim_token+domain_route:DS"}], "candidate_count": 5, "zero_candidate": false}
{"pdf_atom_id": "ig34_p0156_a0027", "pdf_atom_type": "SENTENCE", "pdf_source": "SDTMIG_v3.4", "pdf_page": 156, "pdf_parent_section": "§6.2.4 Disposition (DS)", "pdf_verbatim": "An event with DSCAT = \"OTHER EVENT\" is another important event that occurred during a trial, but was not driven by protocol requirements and was not captured in another Events or Interventions class dataset.", "figure_ref": null, "candidates": [{"md_atom_id": "md_dmDS_assn_a011", "md_file": "knowledge_base/domains/DS/assumptions.md", "md_atom_type": "LIST_ITEM", "md_parent_section": "§DS [DS — Assumptions]", "md_verbatim": "   e. An event with DSCAT = \"OTHER EVENT\" is another important event that occurred during a trial, but was not driven by protocol requirements and was not captured in another Events or Interventions class dataset. \"TREATMENT UNBLINDED\" is an example of an event that would be represented with DSCAT = \"OTHER EVENT\".", "score": 0.7557, "match_basis": "verbatim_token+domain_route:DS"}, {"md_atom_id": "md_dmDS_ex_a119", "md_file": "knowledge_base/domains/DS/examples.md", "md_atom_type": "SENTENCE", "md_parent_section": "§DS.9 [Example 9]", "md_verbatim": "**Row 2:** Shows randomization, another event with DSCAT = \"PROTOCOL MILESTONE\".", "score": 0.5361, "match_basis": "verbatim_token+domain_route:DS"}, {"md_atom_id": "md_dmDS_ex_a005", "md_file": "knowledge_base/domains/DS/examples.md", "md_atom_type": "SENTENCE", "md_parent_section": "§DS.1 [Example 1]", "md_verbatim": "**Rows 1, 2, 6, 8, 9, 12, 13, 17, 18:** Show records for protocol milestones. DSTERM and DSDECOD are populated with the same value, the name of the milestone. Note that for randomization events, EPOCH = \"SCREENING\", because randomization occurred before the start of treatment, during the screening epoch.", "score": 0.5232, "match_basis": "verbatim_token+domain_route:DS"}, {"md_atom_id": "md_dmDS_ex_a210", "md_file": "knowledge_base/domains/DS/examples.md", "md_atom_type": "SENTENCE", "md_parent_section": "§DS.11 [Example 11]", "md_verbatim": "The study in this example had 4 cycles of treatment within the treatment epoch, and each cycle was represented as an element. Although it is not a general requirement that each cycle is represented as a distinct element, doing so was important for this study. The study compared a current standard treatment with drugs A, B, and C. The protocol allowed for drug doses to be reduced under specified criteria. For drug C, these dose modifications could include dropping the drug. When drug C is dropped, the subject may transition to treatment with drugs A and B or to follow-up.", "score": 0.5206, "match_basis": "verbatim_token+domain_route:DS"}, {"md_atom_id": "md_dmDS_ex_a187", "md_file": "knowledge_base/domains/DS/examples.md", "md_atom_type": "SENTENCE", "md_parent_section": "§DS.10 [Example 10]", "md_verbatim": "The DS dataset shows the disposition events and protocol milestones for each subject.", "score": 0.5096, "match_basis": "verbatim_token+domain_route:DS"}], "candidate_count": 5, "zero_candidate": false}
{"pdf_atom_id": "ig34_p0156_a0028", "pdf_atom_type": "SENTENCE", "pdf_source": "SDTMIG_v3.4", "pdf_page": 156, "pdf_parent_section": "§6.2.4 Disposition (DS)", "pdf_verbatim": "\"TREATMENT UNBLINDED\" is an example of an event that would be represented with DSCAT = \"OTHER EVENT\".", "figure_ref": null, "candidates": [{"md_atom_id": "md_dmDS_ex_a106", "md_file": "knowledge_base/domains/DS/examples.md", "md_atom_type": "SENTENCE", "md_parent_section": "§DS.8 [Example 8]", "md_verbatim": "**Rows 1, 2, 4, 5:** Represent the disposition of the blinded treatments for each of the 2 treatment epochs, indicated by DSSCAT = \"BLINDED DRUG A\" and DSSCAT = \"BLINDED DRUG B\".", "score": 0.5886, "match_basis": "verbatim_token+domain_route:DS"}, {"md_atom_id": "md_dmDS_ex_a087", "md_file": "knowledge_base/domains/DS/examples.md", "md_atom_type": "SENTENCE", "md_parent_section": "§DS.6 [Example 6]", "md_verbatim": "**Row 2:** Represents the final treatment completion of isoniazid within the trial, which is indicated by DSSCAT = \"ISONIAZID\".", "score": 0.5784, "match_basis": "verbatim_token+domain_route:DS"}, {"md_atom_id": "md_dmDS_ex_a146", "md_file": "knowledge_base/domains/DS/examples.md", "md_atom_type": "SENTENCE", "md_parent_section": "§DS.10 [Example 10]", "md_verbatim": "**Rows 3, 7:** Represents the planned second treatment arm of either \"DG1INDG\" or \"DG2INDG\".", "score": 0.5619, "match_basis": "verbatim_token+domain_route:DS"}, {"md_atom_id": "md_dmDS_ex_a048", "md_file": "knowledge_base/domains/DS/examples.md", "md_atom_type": "SENTENCE", "md_parent_section": "§DS.3 [Example 3]", "md_verbatim": "**Row 4:** Subject 789102's treatment was unblinded. The date of the unblinding is represented in DSSTDTC. Maintaining the blind as per protocol was not considered to be an \"event\" because there was no change in the subject's state.", "score": 0.5608, "match_basis": "verbatim_token+domain_route:DS"}, {"md_atom_id": "md_dmDS_ex_a096", "md_file": "knowledge_base/domains/DS/examples.md", "md_atom_type": "SENTENCE", "md_parent_section": "§DS.7 [Example 7]", "md_verbatim": "**Rows 1, 3:** Represent the disposition of treatment for each treatment epoch, as indicated by DSSCAT = \"STUDY TREATMENT\".", "score": 0.5588, "match_basis": "verbatim_token+domain_route:DS"}], "candidate_count": 5, "zero_candidate": false}
{"pdf_atom_id": "ig34_p0157_a0001", "pdf_atom_type": "SENTENCE", "pdf_source": "SDTMIG_v3.4", "pdf_page": 157, "pdf_parent_section": "§6.2.4 Disposition (DS)", "pdf_verbatim": "Associations between DSCAT and some DSDECOD codelist values are described in the DS Codetable (available at https://www.cdisc.org/standards/terminology/controlled-terminology).", "figure_ref": null, "candidates": [{"md_atom_id": "md_dmDS_assn_a012", "md_file": "knowledge_base/domains/DS/assumptions.md", "md_atom_type": "LIST_ITEM", "md_parent_section": "§DS [DS — Assumptions]", "md_verbatim": "   f. Associations between DSCAT and some DSDECOD codelist values are described in the DS Codetable (available at https://www.cdisc.org/standards/terminology/controlled-terminology).", "score": 0.91, "match_basis": "verbatim_token+domain_route:DS"}, {"md_atom_id": "md_dmDS_ex_a008", "md_file": "knowledge_base/domains/DS/examples.md", "md_atom_type": "SENTENCE", "md_parent_section": "§DS.1 [Example 1]", "md_verbatim": "**Rows 10-11:** Show disposition of a subject who completed the screening stage but did not complete the treatment stage. For completed epochs, both DSTERM and DSDECOD are \"COMPLETED\". For epochs that were not completed, the verbatim reason for the treatment epoch is in DSTERM, while the value from controlled terminology is in DSDECOD.", "score": 0.5391, "match_basis": "verbatim_token+domain_route:DS"}, {"md_atom_id": "md_dmDS_ex_a117", "md_file": "knowledge_base/domains/DS/examples.md", "md_atom_type": "SENTENCE", "md_parent_section": "§DS.9 [Example 9]", "md_verbatim": "This example is for a study in which multiple informed consents were collected. DSTERM is populated with a full description of the informed consent. DSDECOD is populated with the standardized value \"INFORMED CONSENT OBTAINED\" from the Protocol Milestone (PROTMLST) codelist. For all informed consent records, DSCAT = \"PROTOCOL MILESTONE\". The sponsor chose to include the EPOCH timing variable, to indicate the epoch during which each protocol milestone occurred.", "score": 0.5147, "match_basis": "verbatim_token+domain_route:DS"}, {"md_atom_id": "md_dmDS_assn_a014", "md_file": "knowledge_base/domains/DS/assumptions.md", "md_atom_type": "LIST_ITEM", "md_parent_section": "§DS [DS — Assumptions]", "md_verbatim": "   a. DSDECOD values are drawn from controlled terminology. The controlled terminology depends on the value of DSCAT.", "score": 0.5058, "match_basis": "verbatim_token+domain_route:DS"}, {"md_atom_id": "md_dmDS_assn_a030", "md_file": "knowledge_base/domains/DS/assumptions.md", "md_atom_type": "SENTENCE", "md_parent_section": "§DS [DS — Assumptions]", "md_verbatim": "   SUPPDS QNAM = \"DSDECOD1\", SUPPDS QLABEL = \"Standardized Disposition Term 1\", and SUPPDS QVAL = \"WITHDREW CONSENT\"", "score": 0.5043, "match_basis": "verbatim_token+domain_route:DS"}], "candidate_count": 5, "zero_candidate": false}
{"pdf_atom_id": "ig34_p0157_a0002", "pdf_atom_type": "LIST_ITEM", "pdf_source": "SDTMIG_v3.4", "pdf_page": 157, "pdf_parent_section": "§6.2.4 Disposition (DS)", "pdf_verbatim": "DS description and coding", "figure_ref": null, "candidates": [{"md_atom_id": "md_dmDS_assn_a013", "md_file": "knowledge_base/domains/DS/assumptions.md", "md_atom_type": "LIST_ITEM", "md_parent_section": "§DS [DS — Assumptions]", "md_verbatim": "3. **DS description and coding**", "score": 1.0, "match_basis": "verbatim_token+domain_route:DS"}, {"md_atom_id": "md_dmDS_assn_a012", "md_file": "knowledge_base/domains/DS/assumptions.md", "md_atom_type": "LIST_ITEM", "md_parent_section": "§DS [DS — Assumptions]", "md_verbatim": "   f. Associations between DSCAT and some DSDECOD codelist values are described in the DS Codetable (available at https://www.cdisc.org/standards/terminology/controlled-terminology).", "score": 0.4527, "match_basis": "verbatim_token+domain_route:DS"}, {"md_atom_id": "md_dmDS_assn_a003", "md_file": "knowledge_base/domains/DS/assumptions.md", "md_atom_type": "LIST_ITEM", "md_parent_section": "§DS [DS — Assumptions]", "md_verbatim": "2. **Categorization**", "score": 0.45, "match_basis": "verbatim_token+domain_route:DS"}, {"md_atom_id": "md_dmDS_assn_a005", "md_file": "knowledge_base/domains/DS/assumptions.md", "md_atom_type": "LIST_ITEM", "md_parent_section": "§DS [DS — Assumptions]", "md_verbatim": "   b. An event with DSCAT = \"DISPOSITION EVENT\" describes either disposition of study participation or of a study treatment. It describes whether a subject completed study participation or a study treatment and, if not, the reason they did not complete it. Dispositions may be described for each epoch (e.g., screening, initial treatment, washout, cross-over treatment, follow-up) or for the study as a whole. If disposition events for both study participation and study treatment(s) are to be represented, then DSCAT provides this distinction. For records with DSCAT = \"DISPOSITION EVENT\",", "score": 0.4345, "match_basis": "verbatim_token+domain_route:DS"}, {"md_atom_id": "md_dmDS_assn_a004", "md_file": "knowledge_base/domains/DS/assumptions.md", "md_atom_type": "LIST_ITEM", "md_parent_section": "§DS [DS — Assumptions]", "md_verbatim": "   a. DSCAT is used to distinguish between disposition events, protocol milestones, and other events. The controlled terminology for DSCAT consists of \"DISPOSITION EVENT\", \"PROTOCOL MILESTONE\", and \"OTHER EVENT\".", "score": 0.4296, "match_basis": "verbatim_token+domain_route:DS"}], "candidate_count": 5, "zero_candidate": false}
{"pdf_atom_id": "ig34_p0157_a0003", "pdf_atom_type": "SENTENCE", "pdf_source": "SDTMIG_v3.4", "pdf_page": 157, "pdf_parent_section": "§6.2.4 Disposition (DS)", "pdf_verbatim": "DSDECOD values are drawn from controlled terminology.", "figure_ref": null, "candidates": [{"md_atom_id": "md_dmDS_assn_a014", "md_file": "knowledge_base/domains/DS/assumptions.md", "md_atom_type": "LIST_ITEM", "md_parent_section": "§DS [DS — Assumptions]", "md_verbatim": "   a. DSDECOD values are drawn from controlled terminology. The controlled terminology depends on the value of DSCAT.", "score": 0.7783, "match_basis": "verbatim_token+domain_route:DS"}, {"md_atom_id": "md_dmDS_assn_a016", "md_file": "knowledge_base/domains/DS/assumptions.md", "md_atom_type": "LIST_ITEM", "md_parent_section": "§DS [DS — Assumptions]", "md_verbatim": "      i. When DSTERM = \"COMPLETED\", DSDECOD is the term \"COMPLETED\" from the Controlled Terminology codelist NCOMPLT.", "score": 0.5924, "match_basis": "verbatim_token+domain_route:DS"}, {"md_atom_id": "md_dmDS_ex_a008", "md_file": "knowledge_base/domains/DS/examples.md", "md_atom_type": "SENTENCE", "md_parent_section": "§DS.1 [Example 1]", "md_verbatim": "**Rows 10-11:** Show disposition of a subject who completed the screening stage but did not complete the treatment stage. For completed epochs, both DSTERM and DSDECOD are \"COMPLETED\". For epochs that were not completed, the verbatim reason for the treatment epoch is in DSTERM, while the value from controlled terminology is in DSDECOD.", "score": 0.56, "match_basis": "verbatim_token+domain_route:DS"}, {"md_atom_id": "md_dmDS_assn_a012", "md_file": "knowledge_base/domains/DS/assumptions.md", "md_atom_type": "LIST_ITEM", "md_parent_section": "§DS [DS — Assumptions]", "md_verbatim": "   f. Associations between DSCAT and some DSDECOD codelist values are described in the DS Codetable (available at https://www.cdisc.org/standards/terminology/controlled-terminology).", "score": 0.49, "match_basis": "verbatim_token+domain_route:DS"}, {"md_atom_id": "md_dmDS_assn_a030", "md_file": "knowledge_base/domains/DS/assumptions.md", "md_atom_type": "SENTENCE", "md_parent_section": "§DS [DS — Assumptions]", "md_verbatim": "   SUPPDS QNAM = \"DSDECOD1\", SUPPDS QLABEL = \"Standardized Disposition Term 1\", and SUPPDS QVAL = \"WITHDREW CONSENT\"", "score": 0.474, "match_basis": "verbatim_token+domain_route:DS"}], "candidate_count": 5, "zero_candidate": false}
{"pdf_atom_id": "ig34_p0157_a0004", "pdf_atom_type": "SENTENCE", "pdf_source": "SDTMIG_v3.4", "pdf_page": 157, "pdf_parent_section": "§6.2.4 Disposition (DS)", "pdf_verbatim": "The controlled terminology depends on the value of DSCAT.", "figure_ref": null, "candidates": [{"md_atom_id": "md_dmDS_assn_a014", "md_file": "knowledge_base/domains/DS/assumptions.md", "md_atom_type": "LIST_ITEM", "md_parent_section": "§DS [DS — Assumptions]", "md_verbatim": "   a. DSDECOD values are drawn from controlled terminology. The controlled terminology depends on the value of DSCAT.", "score": 0.7344, "match_basis": "verbatim_token+domain_route:DS"}, {"md_atom_id": "md_dmDS_ex_a008", "md_file": "knowledge_base/domains/DS/examples.md", "md_atom_type": "SENTENCE", "md_parent_section": "§DS.1 [Example 1]", "md_verbatim": "**Rows 10-11:** Show disposition of a subject who completed the screening stage but did not complete the treatment stage. For completed epochs, both DSTERM and DSDECOD are \"COMPLETED\". For epochs that were not completed, the verbatim reason for the treatment epoch is in DSTERM, while the value from controlled terminology is in DSDECOD.", "score": 0.5156, "match_basis": "verbatim_token+domain_route:DS"}, {"md_atom_id": "md_dmDS_assn_a016", "md_file": "knowledge_base/domains/DS/assumptions.md", "md_atom_type": "LIST_ITEM", "md_parent_section": "§DS [DS — Assumptions]", "md_verbatim": "      i. When DSTERM = \"COMPLETED\", DSDECOD is the term \"COMPLETED\" from the Controlled Terminology codelist NCOMPLT.", "score": 0.51, "match_basis": "verbatim_token+domain_route:DS"}, {"md_atom_id": "md_dmDS_assn_a009", "md_file": "knowledge_base/domains/DS/assumptions.md", "md_atom_type": "LIST_ITEM", "md_parent_section": "§DS [DS — Assumptions]", "md_verbatim": "   c. DSSCAT may be used when DSCAT = \"PROTOCOL MILESTONE\" or \"OTHER EVENT\", but would be subject to additional CDISC Controlled Terminology.", "score": 0.4803, "match_basis": "verbatim_token+domain_route:DS"}, {"md_atom_id": "md_dmDS_assn_a012", "md_file": "knowledge_base/domains/DS/assumptions.md", "md_atom_type": "LIST_ITEM", "md_parent_section": "§DS [DS — Assumptions]", "md_verbatim": "   f. Associations between DSCAT and some DSDECOD codelist values are described in the DS Codetable (available at https://www.cdisc.org/standards/terminology/controlled-terminology).", "score": 0.47, "match_basis": "verbatim_token+domain_route:DS"}], "candidate_count": 5, "zero_candidate": false}
{"pdf_atom_id": "ig34_p0157_a0005", "pdf_atom_type": "SENTENCE", "pdf_source": "SDTMIG_v3.4", "pdf_page": 157, "pdf_parent_section": "§6.2.4 Disposition (DS)", "pdf_verbatim": "When DSCAT = \"DISPOSITION EVENT\" DSTERM contains either \"COMPLETED\" or, if the subject did not complete, specific verbatim information about the reason for non-completion.", "figure_ref": null, "candidates": [{"md_atom_id": "md_dmDS_assn_a015", "md_file": "knowledge_base/domains/DS/assumptions.md", "md_atom_type": "LIST_ITEM", "md_parent_section": "§DS [DS — Assumptions]", "md_verbatim": "   b. When DSCAT = \"DISPOSITION EVENT\" DSTERM contains either \"COMPLETED\" or, if the subject did not complete, specific verbatim information about the reason for non-completion.", "score": 0.91, "match_basis": "verbatim_token+domain_route:DS"}, {"md_atom_id": "md_dmDS_ex_a008", "md_file": "knowledge_base/domains/DS/examples.md", "md_atom_type": "SENTENCE", "md_parent_section": "§DS.1 [Example 1]", "md_verbatim": "**Rows 10-11:** Show disposition of a subject who completed the screening stage but did not complete the treatment stage. For completed epochs, both DSTERM and DSDECOD are \"COMPLETED\". For epochs that were not completed, the verbatim reason for the treatment epoch is in DSTERM, while the value from controlled terminology is in DSDECOD.", "score": 0.5924, "match_basis": "verbatim_token+domain_route:DS"}, {"md_atom_id": "md_dmDS_ex_a009", "md_file": "knowledge_base/domains/DS/examples.md", "md_atom_type": "SENTENCE", "md_parent_section": "§DS.1 [Example 1]", "md_verbatim": "**Rows 14-16:** Show disposition of a subject who completed treatment, but did not complete follow-up. Note that for final disposition event, the date of collection of the event information, DSDTC, was different from the date of the disposition event (the subject's death), DSSTDTC.", "score": 0.5795, "match_basis": "verbatim_token+domain_route:DS"}, {"md_atom_id": "md_dmDS_ex_a007", "md_file": "knowledge_base/domains/DS/examples.md", "md_atom_type": "SENTENCE", "md_parent_section": "§DS.1 [Example 1]", "md_verbatim": "**Row 7:** Shows disposition of a subject who was a screen failure. The verbatim reason the subject was a screen failure is represented in DSTERM. Because the subject did not complete the screening epoch, DSDECOD is not \"COMPLETED\" but another appropriate controlled term, \"PROTOCOL VIOLATION\". The date of discontinuation is in DSSTDTC. The protocol deviation event itself would be represented in the DV dataset.", "score": 0.561, "match_basis": "verbatim_token+domain_route:DS"}, {"md_atom_id": "md_dmDS_ex_a010", "md_file": "knowledge_base/domains/DS/examples.md", "md_atom_type": "SENTENCE", "md_parent_section": "§DS.1 [Example 1]", "md_verbatim": "**Rows 19-21:** Show disposition of a subject who discontinued the treatment epoch due to an adverse event, but who went on to complete the follow-up phase of the trial.", "score": 0.5541, "match_basis": "verbatim_token+domain_route:DS"}], "candidate_count": 5, "zero_candidate": false}
{"pdf_atom_id": "ig34_p0157_a0006", "pdf_atom_type": "LIST_ITEM", "pdf_source": "SDTMIG_v3.4", "pdf_page": 157, "pdf_parent_section": "§6.2.4 Disposition (DS)", "pdf_verbatim": "When DSTERM = \"COMPLETED\", DSDECOD is the term \"COMPLETED\" from the Controlled Terminology codelist NCOMPLT.", "figure_ref": null, "candidates": [{"md_atom_id": "md_dmDS_assn_a016", "md_file": "knowledge_base/domains/DS/assumptions.md", "md_atom_type": "LIST_ITEM", "md_parent_section": "§DS [DS — Assumptions]", "md_verbatim": "      i. When DSTERM = \"COMPLETED\", DSDECOD is the term \"COMPLETED\" from the Controlled Terminology codelist NCOMPLT.", "score": 1.0, "match_basis": "verbatim_token+domain_route:DS"}, {"md_atom_id": "md_dmDS_assn_a017", "md_file": "knowledge_base/domains/DS/assumptions.md", "md_atom_type": "LIST_ITEM", "md_parent_section": "§DS [DS — Assumptions]", "md_verbatim": "      ii. When DSTERM contains verbatim text, DSDECOD will use the extensible Controlled Terminology Codelist NCOMPLT. For example, DSTERM = \"Subject moved\" might be coded to DSDECOD = \"LOST TO FOLLOW-UP\".", "score": 0.6651, "match_basis": "verbatim_token+domain_route:DS"}, {"md_atom_id": "md_dmDS_assn_a014", "md_file": "knowledge_base/domains/DS/assumptions.md", "md_atom_type": "LIST_ITEM", "md_parent_section": "§DS [DS — Assumptions]", "md_verbatim": "   a. DSDECOD values are drawn from controlled terminology. The controlled terminology depends on the value of DSCAT.", "score": 0.6542, "match_basis": "verbatim_token+domain_route:DS"}, {"md_atom_id": "md_dmDS_assn_a018", "md_file": "knowledge_base/domains/DS/assumptions.md", "md_atom_type": "LIST_ITEM", "md_parent_section": "§DS [DS — Assumptions]", "md_verbatim": "   c. When DSCAT = \"PROTOCOL MILESTONE\", DSTERM contains the verbatim (as collected) and/or standardized text, DSDECOD will use the extensible Controlled Terminology codelist PROTMLST.", "score": 0.602, "match_basis": "verbatim_token+domain_route:DS"}, {"md_atom_id": "md_dmDS_assn_a019", "md_file": "knowledge_base/domains/DS/assumptions.md", "md_atom_type": "LIST_ITEM", "md_parent_section": "§DS [DS — Assumptions]", "md_verbatim": "   d. When DSCAT = \"OTHER EVENT\", DSTERM and DSDECOD uses sponsor terminology.", "score": 0.5932, "match_basis": "verbatim_token+domain_route:DS"}], "candidate_count": 5, "zero_candidate": false}
{"pdf_atom_id": "ig34_p0157_a0007", "pdf_atom_type": "LIST_ITEM", "pdf_source": "SDTMIG_v3.4", "pdf_page": 157, "pdf_parent_section": "§6.2.4 Disposition (DS)", "pdf_verbatim": "When DSTERM contains verbatim text, DSDECOD will use the extensible Controlled Terminology codelist NCOMPLT.", "figure_ref": null, "candidates": [{"md_atom_id": "md_dmDS_assn_a017", "md_file": "knowledge_base/domains/DS/assumptions.md", "md_atom_type": "LIST_ITEM", "md_parent_section": "§DS [DS — Assumptions]", "md_verbatim": "      ii. When DSTERM contains verbatim text, DSDECOD will use the extensible Controlled Terminology Codelist NCOMPLT. For example, DSTERM = \"Subject moved\" might be coded to DSDECOD = \"LOST TO FOLLOW-UP\".", "score": 0.837, "match_basis": "verbatim_token+domain_route:DS"}, {"md_atom_id": "md_dmDS_assn_a018", "md_file": "knowledge_base/domains/DS/assumptions.md", "md_atom_type": "LIST_ITEM", "md_parent_section": "§DS [DS — Assumptions]", "md_verbatim": "   c. When DSCAT = \"PROTOCOL MILESTONE\", DSTERM contains the verbatim (as collected) and/or standardized text, DSDECOD will use the extensible Controlled Terminology codelist PROTMLST.", "score": 0.7484, "match_basis": "verbatim_token+domain_route:DS"}, {"md_atom_id": "md_dmDS_assn_a016", "md_file": "knowledge_base/domains/DS/assumptions.md", "md_atom_type": "LIST_ITEM", "md_parent_section": "§DS [DS — Assumptions]", "md_verbatim": "      i. When DSTERM = \"COMPLETED\", DSDECOD is the term \"COMPLETED\" from the Controlled Terminology codelist NCOMPLT.", "score": 0.7415, "match_basis": "verbatim_token+domain_route:DS"}, {"md_atom_id": "md_dmDS_assn_a014", "md_file": "knowledge_base/domains/DS/assumptions.md", "md_atom_type": "LIST_ITEM", "md_parent_section": "§DS [DS — Assumptions]", "md_verbatim": "   a. DSDECOD values are drawn from controlled terminology. The controlled terminology depends on the value of DSCAT.", "score": 0.5792, "match_basis": "verbatim_token+domain_route:DS"}, {"md_atom_id": "md_dmDS_assn_a019", "md_file": "knowledge_base/domains/DS/assumptions.md", "md_atom_type": "LIST_ITEM", "md_parent_section": "§DS [DS — Assumptions]", "md_verbatim": "   d. When DSCAT = \"OTHER EVENT\", DSTERM and DSDECOD uses sponsor terminology.", "score": 0.5622, "match_basis": "verbatim_token+domain_route:DS"}], "candidate_count": 5, "zero_candidate": false}
{"pdf_atom_id": "ig34_p0157_a0008", "pdf_atom_type": "SENTENCE", "pdf_source": "SDTMIG_v3.4", "pdf_page": 157, "pdf_parent_section": "§6.2.4 Disposition (DS)", "pdf_verbatim": "For example, DSTERM = \"Subject moved\" might be coded to DSDECOD = \"LOST TO FOLLOW-UP\".", "figure_ref": null, "candidates": [{"md_atom_id": "md_dmDS_assn_a017", "md_file": "knowledge_base/domains/DS/assumptions.md", "md_atom_type": "LIST_ITEM", "md_parent_section": "§DS [DS — Assumptions]", "md_verbatim": "      ii. When DSTERM contains verbatim text, DSDECOD will use the extensible Controlled Terminology Codelist NCOMPLT. For example, DSTERM = \"Subject moved\" might be coded to DSDECOD = \"LOST TO FOLLOW-UP\".", "score": 0.5619, "match_basis": "verbatim_token+domain_route:DS"}, {"md_atom_id": "md_dmDS_assn_a028", "md_file": "knowledge_base/domains/DS/assumptions.md", "md_atom_type": "SENTENCE", "md_parent_section": "§DS [DS — Assumptions]", "md_verbatim": "   For example, in a case where DSTERM = \"SEVERE NAUSEA\" and DSDECOD = \"ADVERSE EVENT\", the supplemental qualifiers dataset might include records with", "score": 0.5286, "match_basis": "verbatim_token+domain_route:DS"}, {"md_atom_id": "md_dmDS_ex_a046", "md_file": "knowledge_base/domains/DS/examples.md", "md_atom_type": "SENTENCE", "md_parent_section": "§DS.3 [Example 3]", "md_verbatim": "**Rows 1, 2:** Subject 789101 completed the treatment and follow-up phases.", "score": 0.5138, "match_basis": "verbatim_token+domain_route:DS"}, {"md_atom_id": "md_dmDS_ex_a047", "md_file": "knowledge_base/domains/DS/examples.md", "md_atom_type": "SENTENCE", "md_parent_section": "§DS.3 [Example 3]", "md_verbatim": "**Rows 3, 5:** Subject 789102 did not complete the treatment phase but did complete the follow-up phase.", "score": 0.5138, "match_basis": "verbatim_token+domain_route:DS"}, {"md_atom_id": "md_dmDS_ex_a006", "md_file": "knowledge_base/domains/DS/examples.md", "md_atom_type": "SENTENCE", "md_parent_section": "§DS.1 [Example 1]", "md_verbatim": "**Rows 3-5:** Show 3 records for a subject who completed 3 stages of the study (\"SCREENING\", \"TREATMENT\", \"FOLLOW-UP\").", "score": 0.5114, "match_basis": "verbatim_token+domain_route:DS"}], "candidate_count": 5, "zero_candidate": false}
{"pdf_atom_id": "ig34_p0157_a0009", "pdf_atom_type": "SENTENCE", "pdf_source": "SDTMIG_v3.4", "pdf_page": 157, "pdf_parent_section": "§6.2.4 Disposition (DS)", "pdf_verbatim": "When DSCAT = \"PROTOCOL MILESTONE\", DSTERM contains the verbatim (as collected) and/or standardized text, DSDECOD will use the extensible Controlled Terminology codelist PROTMLST.", "figure_ref": null, "candidates": [{"md_atom_id": "md_dmDS_assn_a018", "md_file": "knowledge_base/domains/DS/assumptions.md", "md_atom_type": "LIST_ITEM", "md_parent_section": "§DS [DS — Assumptions]", "md_verbatim": "   c. When DSCAT = \"PROTOCOL MILESTONE\", DSTERM contains the verbatim (as collected) and/or standardized text, DSDECOD will use the extensible Controlled Terminology codelist PROTMLST.", "score": 0.91, "match_basis": "verbatim_token+domain_route:DS"}, {"md_atom_id": "md_dmDS_assn_a017", "md_file": "knowledge_base/domains/DS/assumptions.md", "md_atom_type": "LIST_ITEM", "md_parent_section": "§DS [DS — Assumptions]", "md_verbatim": "      ii. When DSTERM contains verbatim text, DSDECOD will use the extensible Controlled Terminology Codelist NCOMPLT. For example, DSTERM = \"Subject moved\" might be coded to DSDECOD = \"LOST TO FOLLOW-UP\".", "score": 0.5995, "match_basis": "verbatim_token+domain_route:DS"}, {"md_atom_id": "md_dmDS_ex_a117", "md_file": "knowledge_base/domains/DS/examples.md", "md_atom_type": "SENTENCE", "md_parent_section": "§DS.9 [Example 9]", "md_verbatim": "This example is for a study in which multiple informed consents were collected. DSTERM is populated with a full description of the informed consent. DSDECOD is populated with the standardized value \"INFORMED CONSENT OBTAINED\" from the Protocol Milestone (PROTMLST) codelist. For all informed consent records, DSCAT = \"PROTOCOL MILESTONE\". The sponsor chose to include the EPOCH timing variable, to indicate the epoch during which each protocol milestone occurred.", "score": 0.581, "match_basis": "verbatim_token+domain_route:DS"}, {"md_atom_id": "md_dmDS_ex_a008", "md_file": "knowledge_base/domains/DS/examples.md", "md_atom_type": "SENTENCE", "md_parent_section": "§DS.1 [Example 1]", "md_verbatim": "**Rows 10-11:** Show disposition of a subject who completed the screening stage but did not complete the treatment stage. For completed epochs, both DSTERM and DSDECOD are \"COMPLETED\". For epochs that were not completed, the verbatim reason for the treatment epoch is in DSTERM, while the value from controlled terminology is in DSDECOD.", "score": 0.5412, "match_basis": "verbatim_token+domain_route:DS"}, {"md_atom_id": "md_dmDS_ex_a004", "md_file": "knowledge_base/domains/DS/examples.md", "md_atom_type": "SENTENCE", "md_parent_section": "§DS.1 [Example 1]", "md_verbatim": "Data were also collected about several protocol milestones represented with DSCAT = \"PROTOCOL MILESTONE\".", "score": 0.5232, "match_basis": "verbatim_token+domain_route:DS"}], "candidate_count": 5, "zero_candidate": false}
{"pdf_atom_id": "ig34_p0157_a0010", "pdf_atom_type": "SENTENCE", "pdf_source": "SDTMIG_v3.4", "pdf_page": 157, "pdf_parent_section": "§6.2.4 Disposition (DS)", "pdf_verbatim": "When DSCAT = \"OTHER EVENT\", DSDECOD uses sponsor terminology.", "figure_ref": null, "candidates": [{"md_atom_id": "md_dmDS_assn_a019", "md_file": "knowledge_base/domains/DS/assumptions.md", "md_atom_type": "LIST_ITEM", "md_parent_section": "§DS [DS — Assumptions]", "md_verbatim": "   d. When DSCAT = \"OTHER EVENT\", DSTERM and DSDECOD uses sponsor terminology.", "score": 0.8586, "match_basis": "verbatim_token+domain_route:DS"}, {"md_atom_id": "md_dmDS_assn_a014", "md_file": "knowledge_base/domains/DS/assumptions.md", "md_atom_type": "LIST_ITEM", "md_parent_section": "§DS [DS — Assumptions]", "md_verbatim": "   a. DSDECOD values are drawn from controlled terminology. The controlled terminology depends on the value of DSCAT.", "score": 0.5064, "match_basis": "verbatim_token+domain_route:DS"}, {"md_atom_id": "md_dmDS_assn_a028", "md_file": "knowledge_base/domains/DS/assumptions.md", "md_atom_type": "SENTENCE", "md_parent_section": "§DS [DS — Assumptions]", "md_verbatim": "   For example, in a case where DSTERM = \"SEVERE NAUSEA\" and DSDECOD = \"ADVERSE EVENT\", the supplemental qualifiers dataset might include records with", "score": 0.4977, "match_basis": "verbatim_token+domain_route:DS"}, {"md_atom_id": "md_dmDS_ex_a008", "md_file": "knowledge_base/domains/DS/examples.md", "md_atom_type": "SENTENCE", "md_parent_section": "§DS.1 [Example 1]", "md_verbatim": "**Rows 10-11:** Show disposition of a subject who completed the screening stage but did not complete the treatment stage. For completed epochs, both DSTERM and DSDECOD are \"COMPLETED\". For epochs that were not completed, the verbatim reason for the treatment epoch is in DSTERM, while the value from controlled terminology is in DSDECOD.", "score": 0.4939, "match_basis": "verbatim_token+domain_route:DS"}, {"md_atom_id": "md_dmDS_assn_a016", "md_file": "knowledge_base/domains/DS/assumptions.md", "md_atom_type": "LIST_ITEM", "md_parent_section": "§DS [DS — Assumptions]", "md_verbatim": "      i. When DSTERM = \"COMPLETED\", DSDECOD is the term \"COMPLETED\" from the Controlled Terminology codelist NCOMPLT.", "score": 0.4859, "match_basis": "verbatim_token+domain_route:DS"}], "candidate_count": 5, "zero_candidate": false}
{"pdf_atom_id": "ig34_p0157_a0011", "pdf_atom_type": "SENTENCE", "pdf_source": "SDTMIG_v3.4", "pdf_page": 157, "pdf_parent_section": "§6.2.4 Disposition (DS)", "pdf_verbatim": "If a reason for the event was collected, the reason for the event is in DSTERM and the DSDECOD is a term from sponsor terminology.", "figure_ref": null, "candidates": [{"md_atom_id": "md_dmDS_assn_a019", "md_file": "knowledge_base/domains/DS/assumptions.md", "md_atom_type": "LIST_ITEM", "md_parent_section": "§DS [DS — Assumptions]", "md_verbatim": "   d. When DSCAT = \"OTHER EVENT\", DSTERM and DSDECOD uses sponsor terminology.", "score": 0.622, "match_basis": "verbatim_token+domain_route:DS"}, {"md_atom_id": "md_dmDS_assn_a020", "md_file": "knowledge_base/domains/DS/assumptions.md", "md_atom_type": "LIST_ITEM", "md_parent_section": "§DS [DS — Assumptions]", "md_verbatim": "      i. If a reason for the event was collected, the reason for the event is in DSTERM and the DSDECOD is a term from sponsor terminology. For example, if treatment was unblinded due to investigator error, this might be represented in a record with DSTERM = \"INVESTIGATOR ERROR\" and DSDECOD = \"TREATMENT UNBLINDED\".", "score": 0.5864, "match_basis": "verbatim_token+domain_route:DS"}, {"md_atom_id": "md_dmDS_ex_a008", "md_file": "knowledge_base/domains/DS/examples.md", "md_atom_type": "SENTENCE", "md_parent_section": "§DS.1 [Example 1]", "md_verbatim": "**Rows 10-11:** Show disposition of a subject who completed the screening stage but did not complete the treatment stage. For completed epochs, both DSTERM and DSDECOD are \"COMPLETED\". For epochs that were not completed, the verbatim reason for the treatment epoch is in DSTERM, while the value from controlled terminology is in DSDECOD.", "score": 0.5676, "match_basis": "verbatim_token+domain_route:DS"}, {"md_atom_id": "md_dmDS_assn_a021", "md_file": "knowledge_base/domains/DS/assumptions.md", "md_atom_type": "LIST_ITEM", "md_parent_section": "§DS [DS — Assumptions]", "md_verbatim": "      ii. If no reason was collected, then DSTERM should be populated with the value in DSDECOD.", "score": 0.5416, "match_basis": "verbatim_token+domain_route:DS"}, {"md_atom_id": "md_dmDS_assn_a016", "md_file": "knowledge_base/domains/DS/assumptions.md", "md_atom_type": "LIST_ITEM", "md_parent_section": "§DS [DS — Assumptions]", "md_verbatim": "      i. When DSTERM = \"COMPLETED\", DSDECOD is the term \"COMPLETED\" from the Controlled Terminology codelist NCOMPLT.", "score": 0.5229, "match_basis": "verbatim_token+domain_route:DS"}], "candidate_count": 5, "zero_candidate": false}
{"pdf_atom_id": "ig34_p0157_a0012", "pdf_atom_type": "SENTENCE", "pdf_source": "SDTMIG_v3.4", "pdf_page": 157, "pdf_parent_section": "§6.2.4 Disposition (DS)", "pdf_verbatim": "For example, if treatment was unblinded due to investigator error, this might be represented in a record with DSTERM = \"INVESTIGATOR ERROR\" and DSDECOD = \"TREATMENT UNBLINDED\".", "figure_ref": null, "candidates": [{"md_atom_id": "md_dmDS_assn_a020", "md_file": "knowledge_base/domains/DS/assumptions.md", "md_atom_type": "LIST_ITEM", "md_parent_section": "§DS [DS — Assumptions]", "md_verbatim": "      i. If a reason for the event was collected, the reason for the event is in DSTERM and the DSDECOD is a term from sponsor terminology. For example, if treatment was unblinded due to investigator error, this might be represented in a record with DSTERM = \"INVESTIGATOR ERROR\" and DSDECOD = \"TREATMENT UNBLINDED\".", "score": 0.7347, "match_basis": "verbatim_token+domain_route:DS"}, {"md_atom_id": "md_dmDS_ex_a045", "md_file": "knowledge_base/domains/DS/examples.md", "md_atom_type": "SENTENCE", "md_parent_section": "§DS.3 [Example 3]", "md_verbatim": "Data on protocol milestones were not collected, but data were collected if a subject's treatment was unblinded. For these records, EPOCH represents the epoch during which the blind was broken.", "score": 0.5541, "match_basis": "verbatim_token+domain_route:DS"}, {"md_atom_id": "md_dmDS_assn_a028", "md_file": "knowledge_base/domains/DS/assumptions.md", "md_atom_type": "SENTENCE", "md_parent_section": "§DS [DS — Assumptions]", "md_verbatim": "   For example, in a case where DSTERM = \"SEVERE NAUSEA\" and DSDECOD = \"ADVERSE EVENT\", the supplemental qualifiers dataset might include records with", "score": 0.5486, "match_basis": "verbatim_token+domain_route:DS"}, {"md_atom_id": "md_dmDS_ex_a106", "md_file": "knowledge_base/domains/DS/examples.md", "md_atom_type": "SENTENCE", "md_parent_section": "§DS.8 [Example 8]", "md_verbatim": "**Rows 1, 2, 4, 5:** Represent the disposition of the blinded treatments for each of the 2 treatment epochs, indicated by DSSCAT = \"BLINDED DRUG A\" and DSSCAT = \"BLINDED DRUG B\".", "score": 0.537, "match_basis": "verbatim_token+domain_route:DS"}, {"md_atom_id": "md_dmDS_assn_a025", "md_file": "knowledge_base/domains/DS/assumptions.md", "md_atom_type": "SENTENCE", "md_parent_section": "§DS [DS — Assumptions]", "md_verbatim": "      For example, a subject reported severe vertigo on June 1, 2006 (AESTDTC). After ruling out other possible causes, the investigator decided to discontinue study treatment on June 6, 2006 (DSSTDTC). The subject reported that the vertigo had resolved on June 8, 2006 (AEENDTC).", "score": 0.5333, "match_basis": "verbatim_token+domain_route:DS"}], "candidate_count": 5, "zero_candidate": false}
{"pdf_atom_id": "ig34_p0157_a0013", "pdf_atom_type": "SENTENCE", "pdf_source": "SDTMIG_v3.4", "pdf_page": 157, "pdf_parent_section": "§6.2.4 Disposition (DS)", "pdf_verbatim": "If no reason was collected, then DSTERM should be populated with the value in DSDECOD.", "figure_ref": null, "candidates": [{"md_atom_id": "md_dmDS_assn_a021", "md_file": "knowledge_base/domains/DS/assumptions.md", "md_atom_type": "LIST_ITEM", "md_parent_section": "§DS [DS — Assumptions]", "md_verbatim": "      ii. If no reason was collected, then DSTERM should be populated with the value in DSDECOD.", "score": 0.91, "match_basis": "verbatim_token+domain_route:DS"}, {"md_atom_id": "md_dmDS_ex_a005", "md_file": "knowledge_base/domains/DS/examples.md", "md_atom_type": "SENTENCE", "md_parent_section": "§DS.1 [Example 1]", "md_verbatim": "**Rows 1, 2, 6, 8, 9, 12, 13, 17, 18:** Show records for protocol milestones. DSTERM and DSDECOD are populated with the same value, the name of the milestone. Note that for randomization events, EPOCH = \"SCREENING\", because randomization occurred before the start of treatment, during the screening epoch.", "score": 0.5282, "match_basis": "verbatim_token+domain_route:DS"}, {"md_atom_id": "md_dmDS_ex_a008", "md_file": "knowledge_base/domains/DS/examples.md", "md_atom_type": "SENTENCE", "md_parent_section": "§DS.1 [Example 1]", "md_verbatim": "**Rows 10-11:** Show disposition of a subject who completed the screening stage but did not complete the treatment stage. For completed epochs, both DSTERM and DSDECOD are \"COMPLETED\". For epochs that were not completed, the verbatim reason for the treatment epoch is in DSTERM, while the value from controlled terminology is in DSDECOD.", "score": 0.5128, "match_basis": "verbatim_token+domain_route:DS"}, {"md_atom_id": "md_dmDS_ex_a007", "md_file": "knowledge_base/domains/DS/examples.md", "md_atom_type": "SENTENCE", "md_parent_section": "§DS.1 [Example 1]", "md_verbatim": "**Row 7:** Shows disposition of a subject who was a screen failure. The verbatim reason the subject was a screen failure is represented in DSTERM. Because the subject did not complete the screening epoch, DSDECOD is not \"COMPLETED\" but another appropriate controlled term, \"PROTOCOL VIOLATION\". The date of discontinuation is in DSSTDTC. The protocol deviation event itself would be represented in the DV dataset.", "score": 0.5007, "match_basis": "verbatim_token+domain_route:DS"}, {"md_atom_id": "md_dmDS_ex_a117", "md_file": "knowledge_base/domains/DS/examples.md", "md_atom_type": "SENTENCE", "md_parent_section": "§DS.9 [Example 9]", "md_verbatim": "This example is for a study in which multiple informed consents were collected. DSTERM is populated with a full description of the informed consent. DSDECOD is populated with the standardized value \"INFORMED CONSENT OBTAINED\" from the Protocol Milestone (PROTMLST) codelist. For all informed consent records, DSCAT = \"PROTOCOL MILESTONE\". The sponsor chose to include the EPOCH timing variable, to indicate the epoch during which each protocol milestone occurred.", "score": 0.5, "match_basis": "verbatim_token+domain_route:DS"}], "candidate_count": 5, "zero_candidate": false}
{"pdf_atom_id": "ig34_p0157_a0014", "pdf_atom_type": "LIST_ITEM", "pdf_source": "SDTMIG_v3.4", "pdf_page": 157, "pdf_parent_section": "§6.2.4 Disposition (DS)", "pdf_verbatim": "Timing variables", "figure_ref": null, "candidates": [{"md_atom_id": "md_dmDS_assn_a022", "md_file": "knowledge_base/domains/DS/assumptions.md", "md_atom_type": "LIST_ITEM", "md_parent_section": "§DS [DS — Assumptions]", "md_verbatim": "4. **Timing variables**", "score": 1.0, "match_basis": "verbatim_token+domain_route:DS"}, {"md_atom_id": "md_dmDS_assn_a026", "md_file": "knowledge_base/domains/DS/assumptions.md", "md_atom_type": "LIST_ITEM", "md_parent_section": "§DS [DS — Assumptions]", "md_verbatim": "   c. EPOCH may be included as a timing variable as in other general observation-class domains. In DS, EPOCH is based on DSSTDTC. The values of EPOCH are drawn from the Trial Arms (TA) dataset (see Section 7.2.1, Trial Arms).", "score": 0.4789, "match_basis": "verbatim_token+domain_route:DS"}, {"md_atom_id": "md_dmDS_assn_a031", "md_file": "knowledge_base/domains/DS/assumptions.md", "md_atom_type": "LIST_ITEM", "md_parent_section": "§DS [DS — Assumptions]", "md_verbatim": "6. Any identifier variables, timing variables, or Events general observation-class qualifiers may be added to the DS domain, but the following Qualifiers would generally not be used: --PRESP, --OCCUR, --STAT, --REASND, --BODSYS, --LOC, --SEV, --SER, --ACN, --ACNOTH, --REL, --RELNST, --PATT, --OUT, --SCAN, --SCONG, --SDISAB, --SDTH, --SHOSP, --SLIFE, --SOD, --SMIE, --CONTRT, --TOXGR.", "score": 0.4541, "match_basis": "verbatim_token+domain_route:DS"}, {"md_atom_id": "md_dmDS_assn_a018", "md_file": "knowledge_base/domains/DS/assumptions.md", "md_atom_type": "LIST_ITEM", "md_parent_section": "§DS [DS — Assumptions]", "md_verbatim": "   c. When DSCAT = \"PROTOCOL MILESTONE\", DSTERM contains the verbatim (as collected) and/or standardized text, DSDECOD will use the extensible Controlled Terminology codelist PROTMLST.", "score": 0.4253, "match_basis": "verbatim_token+domain_route:DS"}, {"md_atom_id": "md_dmDS_assn_a013", "md_file": "knowledge_base/domains/DS/assumptions.md", "md_atom_type": "LIST_ITEM", "md_parent_section": "§DS [DS — Assumptions]", "md_verbatim": "3. **DS description and coding**", "score": 0.425, "match_basis": "verbatim_token+domain_route:DS"}], "candidate_count": 5, "zero_candidate": false}
{"pdf_atom_id": "ig34_p0157_a0015", "pdf_atom_type": "SENTENCE", "pdf_source": "SDTMIG_v3.4", "pdf_page": 157, "pdf_parent_section": "§6.2.4 Disposition (DS)", "pdf_verbatim": "DSSTDTC is expected and is used for the date/time of the disposition event.", "figure_ref": null, "candidates": [{"md_atom_id": "md_dmDS_ex_a187", "md_file": "knowledge_base/domains/DS/examples.md", "md_atom_type": "SENTENCE", "md_parent_section": "§DS.10 [Example 10]", "md_verbatim": "The DS dataset shows the disposition events and protocol milestones for each subject.", "score": 0.57, "match_basis": "verbatim_token+domain_route:DS"}, {"md_atom_id": "md_dmDS_assn_a029", "md_file": "knowledge_base/domains/DS/assumptions.md", "md_atom_type": "SENTENCE", "md_parent_section": "§DS [DS — Assumptions]", "md_verbatim": "   SUPPDS QNAM = \"DSTERM1\", SUPPDS QLABEL = \"Reported Term for Disposition Event 1\", and SUPPDS QVAL = \"SUBJECT REFUSED FURTHER TREATMENT\"", "score": 0.5606, "match_basis": "verbatim_token+domain_route:DS"}, {"md_atom_id": "md_dmDS_ex_a009", "md_file": "knowledge_base/domains/DS/examples.md", "md_atom_type": "SENTENCE", "md_parent_section": "§DS.1 [Example 1]", "md_verbatim": "**Rows 14-16:** Show disposition of a subject who completed treatment, but did not complete follow-up. Note that for final disposition event, the date of collection of the event information, DSDTC, was different from the date of the disposition event (the subject's death), DSSTDTC.", "score": 0.5551, "match_basis": "verbatim_token+domain_route:DS"}, {"md_atom_id": "md_dmDS_ex_a096", "md_file": "knowledge_base/domains/DS/examples.md", "md_atom_type": "SENTENCE", "md_parent_section": "§DS.7 [Example 7]", "md_verbatim": "**Rows 1, 3:** Represent the disposition of treatment for each treatment epoch, as indicated by DSSCAT = \"STUDY TREATMENT\".", "score": 0.5475, "match_basis": "verbatim_token+domain_route:DS"}, {"md_atom_id": "md_dmDS_ex_a106", "md_file": "knowledge_base/domains/DS/examples.md", "md_atom_type": "SENTENCE", "md_parent_section": "§DS.8 [Example 8]", "md_verbatim": "**Rows 1, 2, 4, 5:** Represent the disposition of the blinded treatments for each of the 2 treatment epochs, indicated by DSSCAT = \"BLINDED DRUG A\" and DSSCAT = \"BLINDED DRUG B\".", "score": 0.5455, "match_basis": "verbatim_token+domain_route:DS"}], "candidate_count": 5, "zero_candidate": false}
{"pdf_atom_id": "ig34_p0157_a0016", "pdf_atom_type": "SENTENCE", "pdf_source": "SDTMIG_v3.4", "pdf_page": 157, "pdf_parent_section": "§6.2.4 Disposition (DS)", "pdf_verbatim": "Events represented in the DS domain do not have end dates; disposition events do not span an interval, but rather occur at a single date/time (e.g., randomization date, disposition of study participation or study treatment).", "figure_ref": null, "candidates": [{"md_atom_id": "md_dmDS_assn_a023", "md_file": "knowledge_base/domains/DS/assumptions.md", "md_atom_type": "LIST_ITEM", "md_parent_section": "§DS [DS — Assumptions]", "md_verbatim": "   a. DSSTDTC is expected and is used for the date/time of the disposition event. Events represented in the DS domain do not have end dates; disposition events do not span an interval, but rather occur at a single date/time (e.g., randomization date, disposition of study participation or study treatment).", "score": 0.8243, "match_basis": "verbatim_token+domain_route:DS"}, {"md_atom_id": "md_dmDS_ex_a076", "md_file": "knowledge_base/domains/DS/examples.md", "md_atom_type": "SENTENCE", "md_parent_section": "§DS.5 [Example 5]", "md_verbatim": "**Rows 3, 5:** Represent the study disposition for each treatment epoch, as indicated by DSSCAT = \"STUDY PARTICIPATION\".", "score": 0.6362, "match_basis": "verbatim_token+domain_route:DS"}, {"md_atom_id": "md_dmDS_ex_a107", "md_file": "knowledge_base/domains/DS/examples.md", "md_atom_type": "SENTENCE", "md_parent_section": "§DS.8 [Example 8]", "md_verbatim": "**Rows 3, 6:** Represent the disposition of study participation for each of the 2 treatment epochs, as indicated by DSSCAT = \"STUDY PARTICIPATION\".", "score": 0.6337, "match_basis": "verbatim_token+domain_route:DS"}, {"md_atom_id": "md_dmDS_ex_a097", "md_file": "knowledge_base/domains/DS/examples.md", "md_atom_type": "SENTENCE", "md_parent_section": "§DS.7 [Example 7]", "md_verbatim": "**Rows 2, 4:** Represent the disposition of study participation continuation for each treatment epoch, as indicated by DSSCAT = \"STUDY PARTICIPATION\".", "score": 0.6198, "match_basis": "verbatim_token+domain_route:DS"}, {"md_atom_id": "md_dmDS_ex_a058", "md_file": "knowledge_base/domains/DS/examples.md", "md_atom_type": "SENTENCE", "md_parent_section": "§DS.4 [Example 4]", "md_verbatim": "The DS domain represents the end of the subject's participation in the study, due to their death from heart failure. In this case, the disposition was collected (DSDTC) on the same day that death occurred and the subject's study participation ended. (DSDTDTC).", "score": 0.6083, "match_basis": "verbatim_token+domain_route:DS"}], "candidate_count": 5, "zero_candidate": false}
{"pdf_atom_id": "ig34_p0157_a0017", "pdf_atom_type": "SENTENCE", "pdf_source": "SDTMIG_v3.4", "pdf_page": 157, "pdf_parent_section": "§6.2.4 Disposition (DS)", "pdf_verbatim": "DSSTDTC documents the date/time that a protocol milestone, disposition event, or other event occurred.", "figure_ref": null, "candidates": [{"md_atom_id": "md_dmDS_ex_a187", "md_file": "knowledge_base/domains/DS/examples.md", "md_atom_type": "SENTENCE", "md_parent_section": "§DS.10 [Example 10]", "md_verbatim": "The DS dataset shows the disposition events and protocol milestones for each subject.", "score": 0.6471, "match_basis": "verbatim_token+domain_route:DS"}, {"md_atom_id": "md_dmDS_ex_a119", "md_file": "knowledge_base/domains/DS/examples.md", "md_atom_type": "SENTENCE", "md_parent_section": "§DS.9 [Example 9]", "md_verbatim": "**Row 2:** Shows randomization, another event with DSCAT = \"PROTOCOL MILESTONE\".", "score": 0.5775, "match_basis": "verbatim_token+domain_route:DS"}, {"md_atom_id": "md_dmDS_assn_a024", "md_file": "knowledge_base/domains/DS/assumptions.md", "md_atom_type": "LIST_ITEM", "md_parent_section": "§DS [DS — Assumptions]", "md_verbatim": "   b. DSSTDTC documents the date/time that a protocol milestone, disposition event, or other event occurred. For an event with DSCAT = \"DISPOSITION EVENT\" where DSTERM is not \"COMPLETED\", the reason for non-completion may be related to an observation reported in another dataset. DSSTDTC is the date/time that the Epoch was completed and is not necessarily the same as the date/time, start date/time, or end date/time of the observation that led to discontinuation.", "score": 0.5509, "match_basis": "verbatim_token+domain_route:DS"}, {"md_atom_id": "md_dmDS_ex_a005", "md_file": "knowledge_base/domains/DS/examples.md", "md_atom_type": "SENTENCE", "md_parent_section": "§DS.1 [Example 1]", "md_verbatim": "**Rows 1, 2, 6, 8, 9, 12, 13, 17, 18:** Show records for protocol milestones. DSTERM and DSDECOD are populated with the same value, the name of the milestone. Note that for randomization events, EPOCH = \"SCREENING\", because randomization occurred before the start of treatment, during the screening epoch.", "score": 0.544, "match_basis": "verbatim_token+domain_route:DS"}, {"md_atom_id": "md_dmDS_ex_a009", "md_file": "knowledge_base/domains/DS/examples.md", "md_atom_type": "SENTENCE", "md_parent_section": "§DS.1 [Example 1]", "md_verbatim": "**Rows 14-16:** Show disposition of a subject who completed treatment, but did not complete follow-up. Note that for final disposition event, the date of collection of the event information, DSDTC, was different from the date of the disposition event (the subject's death), DSSTDTC.", "score": 0.5346, "match_basis": "verbatim_token+domain_route:DS"}], "candidate_count": 5, "zero_candidate": false}
{"pdf_atom_id": "ig34_p0157_a0018", "pdf_atom_type": "SENTENCE", "pdf_source": "SDTMIG_v3.4", "pdf_page": 157, "pdf_parent_section": "§6.2.4 Disposition (DS)", "pdf_verbatim": "For an event with DSCAT = \"DISPOSITION EVENT\" where DSTERM is not \"COMPLETED\", the reason for non-completion may be related to an observation reported in another dataset.", "figure_ref": null, "candidates": [{"md_atom_id": "md_dmDS_assn_a024", "md_file": "knowledge_base/domains/DS/assumptions.md", "md_atom_type": "LIST_ITEM", "md_parent_section": "§DS [DS — Assumptions]", "md_verbatim": "   b. DSSTDTC documents the date/time that a protocol milestone, disposition event, or other event occurred. For an event with DSCAT = \"DISPOSITION EVENT\" where DSTERM is not \"COMPLETED\", the reason for non-completion may be related to an observation reported in another dataset. DSSTDTC is the date/time that the Epoch was completed and is not necessarily the same as the date/time, start date/time, or end date/time of the observation that led to discontinuation.", "score": 0.6124, "match_basis": "verbatim_token+domain_route:DS"}, {"md_atom_id": "md_dmDS_assn_a029", "md_file": "knowledge_base/domains/DS/assumptions.md", "md_atom_type": "SENTENCE", "md_parent_section": "§DS [DS — Assumptions]", "md_verbatim": "   SUPPDS QNAM = \"DSTERM1\", SUPPDS QLABEL = \"Reported Term for Disposition Event 1\", and SUPPDS QVAL = \"SUBJECT REFUSED FURTHER TREATMENT\"", "score": 0.5625, "match_basis": "verbatim_token+domain_route:DS"}, {"md_atom_id": "md_dmDS_ex_a007", "md_file": "knowledge_base/domains/DS/examples.md", "md_atom_type": "SENTENCE", "md_parent_section": "§DS.1 [Example 1]", "md_verbatim": "**Row 7:** Shows disposition of a subject who was a screen failure. The verbatim reason the subject was a screen failure is represented in DSTERM. Because the subject did not complete the screening epoch, DSDECOD is not \"COMPLETED\" but another appropriate controlled term, \"PROTOCOL VIOLATION\". The date of discontinuation is in DSSTDTC. The protocol deviation event itself would be represented in the DV dataset.", "score": 0.5595, "match_basis": "verbatim_token+domain_route:DS"}, {"md_atom_id": "md_dmDS_assn_a015", "md_file": "knowledge_base/domains/DS/assumptions.md", "md_atom_type": "LIST_ITEM", "md_parent_section": "§DS [DS — Assumptions]", "md_verbatim": "   b. When DSCAT = \"DISPOSITION EVENT\" DSTERM contains either \"COMPLETED\" or, if the subject did not complete, specific verbatim information about the reason for non-completion.", "score": 0.5512, "match_basis": "verbatim_token+domain_route:DS"}, {"md_atom_id": "md_dmDS_ex_a003", "md_file": "knowledge_base/domains/DS/examples.md", "md_atom_type": "SENTENCE", "md_parent_section": "§DS.1 [Example 1]", "md_verbatim": "In this example, disposition of study participation was collected for each epoch of a trial. Disposition of study participation is indicated by DSCAT = \"DISPOSITION EVENT\". EPOCH was taken from the CRF, which asked about completion of each epoch of the study. Data about disposition of study treatment was not collected, but the sponsor populated DSSCAT with \"STUDY PARTICIPATION\" to emphasize that these represent disposition of study participation.", "score": 0.5458, "match_basis": "verbatim_token+domain_route:DS"}], "candidate_count": 5, "zero_candidate": false}
{"pdf_atom_id": "ig34_p0157_a0019", "pdf_atom_type": "SENTENCE", "pdf_source": "SDTMIG_v3.4", "pdf_page": 157, "pdf_parent_section": "§6.2.4 Disposition (DS)", "pdf_verbatim": "DSSTDTC is the date/time that the Epoch was completed and is not necessarily the same as the date/time, start date/time, or end date/time of the observation that led to discontinuation.", "figure_ref": null, "candidates": [{"md_atom_id": "md_dmDS_assn_a024", "md_file": "knowledge_base/domains/DS/assumptions.md", "md_atom_type": "LIST_ITEM", "md_parent_section": "§DS [DS — Assumptions]", "md_verbatim": "   b. DSSTDTC documents the date/time that a protocol milestone, disposition event, or other event occurred. For an event with DSCAT = \"DISPOSITION EVENT\" where DSTERM is not \"COMPLETED\", the reason for non-completion may be related to an observation reported in another dataset. DSSTDTC is the date/time that the Epoch was completed and is not necessarily the same as the date/time, start date/time, or end date/time of the observation that led to discontinuation.", "score": 0.5935, "match_basis": "verbatim_token+domain_route:DS"}, {"md_atom_id": "md_dmDS_ex_a192", "md_file": "knowledge_base/domains/DS/examples.md", "md_atom_type": "SENTENCE", "md_parent_section": "§DS.10 [Example 10]", "md_verbatim": "**Rows 7, 14:** Represent the completion of study participation follow-up epoch, where DSSCAT has the name of \"STUDY PARTICIPATION\". The DSSTDTC is the end date of study participation for the epoch.", "score": 0.5419, "match_basis": "verbatim_token+domain_route:DS"}, {"md_atom_id": "md_dmDS_ex_a075", "md_file": "knowledge_base/domains/DS/examples.md", "md_atom_type": "SENTENCE", "md_parent_section": "§DS.5 [Example 5]", "md_verbatim": "**Rows 2, 4:** Represent the treatment continuation and completion for isoniazid each treatment epoch.", "score": 0.5395, "match_basis": "verbatim_token+domain_route:DS"}, {"md_atom_id": "md_dmDS_ex_a191", "md_file": "knowledge_base/domains/DS/examples.md", "md_atom_type": "SENTENCE", "md_parent_section": "§DS.10 [Example 10]", "md_verbatim": "**Rows 4, 6, 11, 13:** Represent the completion of study participation for each epoch, where DSSCAT has the name of \"STUDY PARTICIPATION\". The DSSTDTC is the end date of study participation for the epoch. There was a 1-day evaluation post-treatment.", "score": 0.5385, "match_basis": "verbatim_token+domain_route:DS"}, {"md_atom_id": "md_dmDS_ex_a007", "md_file": "knowledge_base/domains/DS/examples.md", "md_atom_type": "SENTENCE", "md_parent_section": "§DS.1 [Example 1]", "md_verbatim": "**Row 7:** Shows disposition of a subject who was a screen failure. The verbatim reason the subject was a screen failure is represented in DSTERM. Because the subject did not complete the screening epoch, DSDECOD is not \"COMPLETED\" but another appropriate controlled term, \"PROTOCOL VIOLATION\". The date of discontinuation is in DSSTDTC. The protocol deviation event itself would be represented in the DV dataset.", "score": 0.5304, "match_basis": "verbatim_token+domain_route:DS"}], "candidate_count": 5, "zero_candidate": false}
{"pdf_atom_id": "ig34_p0157_a0020", "pdf_atom_type": "SENTENCE", "pdf_source": "SDTMIG_v3.4", "pdf_page": 157, "pdf_parent_section": "§6.2.4 Disposition (DS)", "pdf_verbatim": "For example, a subject reported severe vertigo on June 1, 2006 (AESTDTC).", "figure_ref": null, "candidates": [{"md_atom_id": "md_dmDS_assn_a025", "md_file": "knowledge_base/domains/DS/assumptions.md", "md_atom_type": "SENTENCE", "md_parent_section": "§DS [DS — Assumptions]", "md_verbatim": "      For example, a subject reported severe vertigo on June 1, 2006 (AESTDTC). After ruling out other possible causes, the investigator decided to discontinue study treatment on June 6, 2006 (DSSTDTC). The subject reported that the vertigo had resolved on June 8, 2006 (AEENDTC).", "score": 0.6, "match_basis": "verbatim_token+domain_route:DS"}, {"md_atom_id": "md_dmDS_assn_a029", "md_file": "knowledge_base/domains/DS/assumptions.md", "md_atom_type": "SENTENCE", "md_parent_section": "§DS [DS — Assumptions]", "md_verbatim": "   SUPPDS QNAM = \"DSTERM1\", SUPPDS QLABEL = \"Reported Term for Disposition Event 1\", and SUPPDS QVAL = \"SUBJECT REFUSED FURTHER TREATMENT\"", "score": 0.4987, "match_basis": "verbatim_token+domain_route:DS"}, {"md_atom_id": "md_dmDS_ex_a249", "md_file": "knowledge_base/domains/DS/examples.md", "md_atom_type": "SENTENCE", "md_parent_section": "§DS.11 [Example 11]", "md_verbatim": "**Row 3:** Shows disposition of study participation for screening epoch. The subject completed this epoch.", "score": 0.4892, "match_basis": "verbatim_token+domain_route:DS"}, {"md_atom_id": "md_dmDS_ex_a009", "md_file": "knowledge_base/domains/DS/examples.md", "md_atom_type": "SENTENCE", "md_parent_section": "§DS.1 [Example 1]", "md_verbatim": "**Rows 14-16:** Show disposition of a subject who completed treatment, but did not complete follow-up. Note that for final disposition event, the date of collection of the event information, DSDTC, was different from the date of the disposition event (the subject's death), DSSTDTC.", "score": 0.484, "match_basis": "verbatim_token+domain_route:DS"}, {"md_atom_id": "md_dmDS_ex_a036", "md_file": "knowledge_base/domains/DS/examples.md", "md_atom_type": "SENTENCE", "md_parent_section": "§DS.2 [Example 2]", "md_verbatim": "**Row 1:** Subject 456101 completed the study. EPOCH = \"FOLLOW-UP\", which was the last epoch in the design of this study.", "score": 0.4831, "match_basis": "verbatim_token+domain_route:DS"}], "candidate_count": 5, "zero_candidate": false}
{"pdf_atom_id": "ig34_p0157_a0021", "pdf_atom_type": "SENTENCE", "pdf_source": "SDTMIG_v3.4", "pdf_page": 157, "pdf_parent_section": "§6.2.4 Disposition (DS)", "pdf_verbatim": "After ruling out other possible causes, the investigator decided to discontinue study treatment on June 6, 2006 (DSSTDTC).", "figure_ref": null, "candidates": [{"md_atom_id": "md_dmDS_assn_a025", "md_file": "knowledge_base/domains/DS/assumptions.md", "md_atom_type": "SENTENCE", "md_parent_section": "§DS [DS — Assumptions]", "md_verbatim": "      For example, a subject reported severe vertigo on June 1, 2006 (AESTDTC). After ruling out other possible causes, the investigator decided to discontinue study treatment on June 6, 2006 (DSSTDTC). The subject reported that the vertigo had resolved on June 8, 2006 (AEENDTC).", "score": 0.7765, "match_basis": "verbatim_token+domain_route:DS"}, {"md_atom_id": "md_dmDS_ex_a095", "md_file": "knowledge_base/domains/DS/examples.md", "md_atom_type": "SENTENCE", "md_parent_section": "§DS.7 [Example 7]", "md_verbatim": "This is an example of a trial with a single investigative treatment. The sponsor used the generic DSSCAT value \"STUDY TREATMENT\" rather than the name of the treatment. This subject discontinued both treatment and study participation due to an adverse event.", "score": 0.5511, "match_basis": "verbatim_token+domain_route:DS"}, {"md_atom_id": "md_dmDS_ex_a037", "md_file": "knowledge_base/domains/DS/examples.md", "md_atom_type": "SENTENCE", "md_parent_section": "§DS.2 [Example 2]", "md_verbatim": "**Rows 2-3:** Subjects 456102 and 456103 discontinued. Both discontinued participation during the treatment epoch.", "score": 0.5175, "match_basis": "verbatim_token+domain_route:DS"}, {"md_atom_id": "md_dmDS_ex_a085", "md_file": "knowledge_base/domains/DS/examples.md", "md_atom_type": "SENTENCE", "md_parent_section": "§DS.6 [Example 6]", "md_verbatim": "This example is for a study of a multidrug (isoniazid and levofloxacin) investigational treatment for MDR-TB. The protocol allowed a subject to discontinue levofloxacin and continue single treatment of isoniazid throughout the remainder of the study. Disposition of study participation and of each study treatment was collected. For records of disposition of the subject's participation in the study DSSCAT = \"STUDY PARTICIPATION\", whereas for records of disposition of a study treatment DSSCAT is the name of the treatment.", "score": 0.5165, "match_basis": "verbatim_token+domain_route:DS"}, {"md_atom_id": "md_dmDS_ex_a097", "md_file": "knowledge_base/domains/DS/examples.md", "md_atom_type": "SENTENCE", "md_parent_section": "§DS.7 [Example 7]", "md_verbatim": "**Rows 2, 4:** Represent the disposition of study participation continuation for each treatment epoch, as indicated by DSSCAT = \"STUDY PARTICIPATION\".", "score": 0.5086, "match_basis": "verbatim_token+domain_route:DS"}], "candidate_count": 5, "zero_candidate": false}
{"pdf_atom_id": "ig34_p0157_a0022", "pdf_atom_type": "SENTENCE", "pdf_source": "SDTMIG_v3.4", "pdf_page": 157, "pdf_parent_section": "§6.2.4 Disposition (DS)", "pdf_verbatim": "The subject reported that the vertigo had resolved on June 8, 2006 (AEENDTC).", "figure_ref": null, "candidates": [{"md_atom_id": "md_dmDS_assn_a025", "md_file": "knowledge_base/domains/DS/assumptions.md", "md_atom_type": "SENTENCE", "md_parent_section": "§DS [DS — Assumptions]", "md_verbatim": "      For example, a subject reported severe vertigo on June 1, 2006 (AESTDTC). After ruling out other possible causes, the investigator decided to discontinue study treatment on June 6, 2006 (DSSTDTC). The subject reported that the vertigo had resolved on June 8, 2006 (AEENDTC).", "score": 0.6059, "match_basis": "verbatim_token+domain_route:DS"}, {"md_atom_id": "md_dmDS_ex_a173", "md_file": "knowledge_base/domains/DS/examples.md", "md_atom_type": "SENTENCE", "md_parent_section": "§DS.10 [Example 10]", "md_verbatim": "**Rows 1, 5:** Represent the subjects' actual screening elements.", "score": 0.4931, "match_basis": "verbatim_token+domain_route:DS"}, {"md_atom_id": "md_dmDS_ex_a238", "md_file": "knowledge_base/domains/DS/examples.md", "md_atom_type": "SENTENCE", "md_parent_section": "§DS.11 [Example 11]", "md_verbatim": "**Rows 1-4:** The subject participated in the screening epoch and 3 elements of the treatment epoch.", "score": 0.4923, "match_basis": "verbatim_token+domain_route:DS"}, {"md_atom_id": "md_dmDS_ex_a175", "md_file": "knowledge_base/domains/DS/examples.md", "md_atom_type": "SENTENCE", "md_parent_section": "§DS.10 [Example 10]", "md_verbatim": "**Rows 3, 7:** Represent the subjects' actual second treatment epochs.", "score": 0.49, "match_basis": "verbatim_token+domain_route:DS"}, {"md_atom_id": "md_dmDS_assn_a029", "md_file": "knowledge_base/domains/DS/assumptions.md", "md_atom_type": "SENTENCE", "md_parent_section": "§DS [DS — Assumptions]", "md_verbatim": "   SUPPDS QNAM = \"DSTERM1\", SUPPDS QLABEL = \"Reported Term for Disposition Event 1\", and SUPPDS QVAL = \"SUBJECT REFUSED FURTHER TREATMENT\"", "score": 0.4889, "match_basis": "verbatim_token+domain_route:DS"}], "candidate_count": 5, "zero_candidate": false}
{"pdf_atom_id": "ig34_p0157_a0023", "pdf_atom_type": "SENTENCE", "pdf_source": "SDTMIG_v3.4", "pdf_page": 157, "pdf_parent_section": "§6.2.4 Disposition (DS)", "pdf_verbatim": "EPOCH may be included as a timing variable as in other general observation-class domains.", "figure_ref": null, "candidates": [{"md_atom_id": "md_dmDS_assn_a026", "md_file": "knowledge_base/domains/DS/assumptions.md", "md_atom_type": "LIST_ITEM", "md_parent_section": "§DS [DS — Assumptions]", "md_verbatim": "   c. EPOCH may be included as a timing variable as in other general observation-class domains. In DS, EPOCH is based on DSSTDTC. The values of EPOCH are drawn from the Trial Arms (TA) dataset (see Section 7.2.1, Trial Arms).", "score": 0.67, "match_basis": "verbatim_token+domain_route:DS"}, {"md_atom_id": "md_dmDS_ex_a062", "md_file": "knowledge_base/domains/DS/examples.md", "md_atom_type": "SENTENCE", "md_parent_section": "§DS.4 [Example 4]", "md_verbatim": "The heart failure is represented as an adverse event. In order to save space, only 2 of the MedDRA coding variables for the adverse event have been included.", "score": 0.4923, "match_basis": "verbatim_token+domain_route:DS"}, {"md_atom_id": "md_dmDS_ex_a035", "md_file": "knowledge_base/domains/DS/examples.md", "md_atom_type": "SENTENCE", "md_parent_section": "§DS.2 [Example 2]", "md_verbatim": "In this example, the sponsor has chosen to simply submit whether or not subjects completed the study, so there is only 1 record per subject. The sponsor did not collect disposition of treatment and did not include DSSCAT. EPOCH was populated as a timing variable, and represents the epoch during which the subject discontinued.", "score": 0.491, "match_basis": "verbatim_token+domain_route:DS"}, {"md_atom_id": "md_dmDS_ex_a117", "md_file": "knowledge_base/domains/DS/examples.md", "md_atom_type": "SENTENCE", "md_parent_section": "§DS.9 [Example 9]", "md_verbatim": "This example is for a study in which multiple informed consents were collected. DSTERM is populated with a full description of the informed consent. DSDECOD is populated with the standardized value \"INFORMED CONSENT OBTAINED\" from the Protocol Milestone (PROTMLST) codelist. For all informed consent records, DSCAT = \"PROTOCOL MILESTONE\". The sponsor chose to include the EPOCH timing variable, to indicate the epoch during which each protocol milestone occurred.", "score": 0.4729, "match_basis": "verbatim_token+domain_route:DS"}, {"md_atom_id": "md_dmDS_assn_a031", "md_file": "knowledge_base/domains/DS/assumptions.md", "md_atom_type": "LIST_ITEM", "md_parent_section": "§DS [DS — Assumptions]", "md_verbatim": "6. Any identifier variables, timing variables, or Events general observation-class qualifiers may be added to the DS domain, but the following Qualifiers would generally not be used: --PRESP, --OCCUR, --STAT, --REASND, --BODSYS, --LOC, --SEV, --SER, --ACN, --ACNOTH, --REL, --RELNST, --PATT, --OUT, --SCAN, --SCONG, --SDISAB, --SDTH, --SHOSP, --SLIFE, --SOD, --SMIE, --CONTRT, --TOXGR.", "score": 0.4691, "match_basis": "verbatim_token+domain_route:DS"}], "candidate_count": 5, "zero_candidate": false}
{"pdf_atom_id": "ig34_p0157_a0024", "pdf_atom_type": "SENTENCE", "pdf_source": "SDTMIG_v3.4", "pdf_page": 157, "pdf_parent_section": "§6.2.4 Disposition (DS)", "pdf_verbatim": "In DS, EPOCH is based on DSSTDTC.", "figure_ref": null, "candidates": [{"md_atom_id": "md_dmDS_ex_a190", "md_file": "knowledge_base/domains/DS/examples.md", "md_atom_type": "SENTENCE", "md_parent_section": "§DS.10 [Example 10]", "md_verbatim": "**Rows 3, 5, 10, 12:** Represent the completion of drug for each EPOCH, where DSSCAT has the name of the drug(s). The DSSTDTC is the end date of study treatment for the epoch.", "score": 0.4873, "match_basis": "verbatim_token+domain_route:DS"}, {"md_atom_id": "md_dmDS_ex_a192", "md_file": "knowledge_base/domains/DS/examples.md", "md_atom_type": "SENTENCE", "md_parent_section": "§DS.10 [Example 10]", "md_verbatim": "**Rows 7, 14:** Represent the completion of study participation follow-up epoch, where DSSCAT has the name of \"STUDY PARTICIPATION\". The DSSTDTC is the end date of study participation for the epoch.", "score": 0.4828, "match_basis": "verbatim_token+domain_route:DS"}, {"md_atom_id": "md_dmDS_ex_a191", "md_file": "knowledge_base/domains/DS/examples.md", "md_atom_type": "SENTENCE", "md_parent_section": "§DS.10 [Example 10]", "md_verbatim": "**Rows 4, 6, 11, 13:** Represent the completion of study participation for each epoch, where DSSCAT has the name of \"STUDY PARTICIPATION\". The DSSTDTC is the end date of study participation for the epoch. There was a 1-day evaluation post-treatment.", "score": 0.4676, "match_basis": "verbatim_token+domain_route:DS"}, {"md_atom_id": "md_dmDS_ex_a132", "md_file": "knowledge_base/domains/DS/examples.md", "md_atom_type": "SENTENCE", "md_parent_section": "§DS.10 [Example 10]", "md_verbatim": "**Rows 2, 3:** Show the elements for treatment (either \"DRUG1\" or \"DRUG2\"). These appear in the first treatment epoch in the TA dataset.", "score": 0.45, "match_basis": "verbatim_token+domain_route:DS"}, {"md_atom_id": "md_dmDS_ex_a096", "md_file": "knowledge_base/domains/DS/examples.md", "md_atom_type": "SENTENCE", "md_parent_section": "§DS.7 [Example 7]", "md_verbatim": "**Rows 1, 3:** Represent the disposition of treatment for each treatment epoch, as indicated by DSSCAT = \"STUDY TREATMENT\".", "score": 0.4471, "match_basis": "verbatim_token+domain_route:DS"}], "candidate_count": 5, "zero_candidate": false}
{"pdf_atom_id": "ig34_p0157_a0025", "pdf_atom_type": "SENTENCE", "pdf_source": "SDTMIG_v3.4", "pdf_page": 157, "pdf_parent_section": "§6.2.4 Disposition (DS)", "pdf_verbatim": "The values of EPOCH are drawn from the Trial Arms (TA) dataset (see Section 7.2.1, Trial Arms).", "figure_ref": null, "candidates": [{"md_atom_id": "md_dmDS_assn_a026", "md_file": "knowledge_base/domains/DS/assumptions.md", "md_atom_type": "LIST_ITEM", "md_parent_section": "§DS [DS — Assumptions]", "md_verbatim": "   c. EPOCH may be included as a timing variable as in other general observation-class domains. In DS, EPOCH is based on DSSTDTC. The values of EPOCH are drawn from the Trial Arms (TA) dataset (see Section 7.2.1, Trial Arms).", "score": 0.55, "match_basis": "verbatim_token+domain_route:DS"}, {"md_atom_id": "md_dmDS_ex_a211", "md_file": "knowledge_base/domains/DS/examples.md", "md_atom_type": "SENTENCE", "md_parent_section": "§DS.11 [Example 11]", "md_verbatim": "The TE dataset shows the elements of the trial.", "score": 0.5385, "match_basis": "verbatim_token+domain_route:DS"}, {"md_atom_id": "md_dmDS_ex_a147", "md_file": "knowledge_base/domains/DS/examples.md", "md_atom_type": "SENTENCE", "md_parent_section": "§DS.10 [Example 10]", "md_verbatim": "**Rows 4, 8:** Follow-up portion of the trial arm.", "score": 0.5077, "match_basis": "verbatim_token+domain_route:DS"}, {"md_atom_id": "md_dmDS_ex_a144", "md_file": "knowledge_base/domains/DS/examples.md", "md_atom_type": "SENTENCE", "md_parent_section": "§DS.10 [Example 10]", "md_verbatim": "**Rows 1, 5:** Screening portion of the trial arm.", "score": 0.5, "match_basis": "verbatim_token+domain_route:DS"}, {"md_atom_id": "md_dmDS_ex_a130", "md_file": "knowledge_base/domains/DS/examples.md", "md_atom_type": "SENTENCE", "md_parent_section": "§DS.10 [Example 10]", "md_verbatim": "The elements used in the TA dataset are defined in the TE dataset.", "score": 0.4977, "match_basis": "verbatim_token+domain_route:DS"}], "candidate_count": 5, "zero_candidate": false}
