{"pdf_atom_id": "ig34_p0309_a001", "pdf_atom_type": "TABLE_ROW", "pdf_source": "SDTMIG_v3.4", "pdf_page": 309, "pdf_parent_section": "§6.3.7.7 Respiratory System Findings (RE)", "pdf_verbatim": "| RESTRESU | Standard Units | Char | (UNIT) | Variable Qualifier | Standardized unit used for RESTRESC, RESTRESN and RESTREFN. | Perm |", "figure_ref": null, "candidates": [{"md_atom_id": "md_dmRE_ex_a042", "md_file": "knowledge_base/domains/RE/examples.md", "md_atom_type": "TABLE_ROW", "md_parent_section": "§RE.2 [Example 2]", "md_verbatim": "| 4 | XYZ | RE | XYZ-001-001 | RESEQ | 4 | REIRREA2 | Inadequate Result Reason 2 | FEV1 REPEATABILITY IS UNACCEPTABLE | CRF | |", "score": 0.4353, "match_basis": "verbatim_token+domain_route:RE"}, {"md_atom_id": "md_dmRE_ex_a039", "md_file": "knowledge_base/domains/RE/examples.md", "md_atom_type": "TABLE_ROW", "md_parent_section": "§RE.2 [Example 2]", "md_verbatim": "| 1 | XYZ | RE | XYZ-001-001 | RESEQ | 1 | REBRESFL | Best Result Flag | Y | CRF | |", "score": 0.4316, "match_basis": "verbatim_token+domain_route:RE"}, {"md_atom_id": "md_dmRE_ex_a040", "md_file": "knowledge_base/domains/RE/examples.md", "md_atom_type": "TABLE_ROW", "md_parent_section": "§RE.2 [Example 2]", "md_verbatim": "| 2 | XYZ | RE | XYZ-001-001 | RESEQ | 4 | REIRESFL | Inadequate Results Flag | Y | CRF | |", "score": 0.4281, "match_basis": "verbatim_token+domain_route:RE"}, {"md_atom_id": "md_dmRE_ex_a041", "md_file": "knowledge_base/domains/RE/examples.md", "md_atom_type": "TABLE_ROW", "md_parent_section": "§RE.2 [Example 2]", "md_verbatim": "| 3 | XYZ | RE | XYZ-001-001 | RESEQ | 4 | REIRREA1 | Inadequate Result Reason 1 | COUGHING WAS DETECTED IN THE FIRST PART OF THE EXPIRATION | CRF | |", "score": 0.4196, "match_basis": "verbatim_token+domain_route:RE"}, {"md_atom_id": "md_dmRE_ex_a013", "md_file": "knowledge_base/domains/RE/examples.md", "md_atom_type": "TABLE_ROW", "md_parent_section": "§RE.1 [Example 1]", "md_verbatim": "| 4 | XYZ | RE | XYZ-001-001 | ABC001 | 4 | FVCPP | Percent Predicted Forced Vital Capacity | 101.3 | % | | ... | 2 | VISIT 2 | 2013-06-30 |", "score": 0.4154, "match_basis": "verbatim_token+domain_route:RE"}], "candidate_count": 5, "zero_candidate": false}
{"pdf_atom_id": "ig34_p0309_a002", "pdf_atom_type": "TABLE_ROW", "pdf_source": "SDTMIG_v3.4", "pdf_page": 309, "pdf_parent_section": "§6.3.7.7 Respiratory System Findings (RE)", "pdf_verbatim": "| RESTREFC | Character Reference Result | Char | | Variable Qualifier | Reference value for the result or finding copied or derived from –ORREF in a standard format. | Perm |", "figure_ref": null, "candidates": [{"md_atom_id": "md_dmRE_ex_a041", "md_file": "knowledge_base/domains/RE/examples.md", "md_atom_type": "TABLE_ROW", "md_parent_section": "§RE.2 [Example 2]", "md_verbatim": "| 3 | XYZ | RE | XYZ-001-001 | RESEQ | 4 | REIRREA1 | Inadequate Result Reason 1 | COUGHING WAS DETECTED IN THE FIRST PART OF THE EXPIRATION | CRF | |", "score": 0.4478, "match_basis": "verbatim_token+domain_route:RE"}, {"md_atom_id": "md_dmRE_ex_a023", "md_file": "knowledge_base/domains/RE/examples.md", "md_atom_type": "TABLE_ROW", "md_parent_section": "§RE.1 [Example 1]", "md_verbatim": "| 1 | XYZ | DU | | ABC001 | 1 | SPIREFEQ | Spirometric Reference Equation | NATIONAL HEALTH NUTRITION EXAMINATION SURVEY (NHANES) III |", "score": 0.4474, "match_basis": "verbatim_token+domain_route:RE"}, {"md_atom_id": "md_dmRE_ex_a042", "md_file": "knowledge_base/domains/RE/examples.md", "md_atom_type": "TABLE_ROW", "md_parent_section": "§RE.2 [Example 2]", "md_verbatim": "| 4 | XYZ | RE | XYZ-001-001 | RESEQ | 4 | REIRREA2 | Inadequate Result Reason 2 | FEV1 REPEATABILITY IS UNACCEPTABLE | CRF | |", "score": 0.444, "match_basis": "verbatim_token+domain_route:RE"}, {"md_atom_id": "md_dmRE_ex_a039", "md_file": "knowledge_base/domains/RE/examples.md", "md_atom_type": "TABLE_ROW", "md_parent_section": "§RE.2 [Example 2]", "md_verbatim": "| 1 | XYZ | RE | XYZ-001-001 | RESEQ | 1 | REBRESFL | Best Result Flag | Y | CRF | |", "score": 0.4366, "match_basis": "verbatim_token+domain_route:RE"}, {"md_atom_id": "md_dmRE_ex_a040", "md_file": "knowledge_base/domains/RE/examples.md", "md_atom_type": "TABLE_ROW", "md_parent_section": "§RE.2 [Example 2]", "md_verbatim": "| 2 | XYZ | RE | XYZ-001-001 | RESEQ | 4 | REIRESFL | Inadequate Results Flag | Y | CRF | |", "score": 0.4337, "match_basis": "verbatim_token+domain_route:RE"}], "candidate_count": 5, "zero_candidate": false}
{"pdf_atom_id": "ig34_p0309_a003", "pdf_atom_type": "TABLE_ROW", "pdf_source": "SDTMIG_v3.4", "pdf_page": 309, "pdf_parent_section": "§6.3.7.7 Respiratory System Findings (RE)", "pdf_verbatim": "| RESTREFN | Numeric Reference Result in Std Units | Num | | Variable Qualifier | Reference result for continuous measurements in standard units. Should be populated only for continuous results. | Perm |", "figure_ref": null, "candidates": [{"md_atom_id": "md_dmRE_ex_a023", "md_file": "knowledge_base/domains/RE/examples.md", "md_atom_type": "TABLE_ROW", "md_parent_section": "§RE.1 [Example 1]", "md_verbatim": "| 1 | XYZ | DU | | ABC001 | 1 | SPIREFEQ | Spirometric Reference Equation | NATIONAL HEALTH NUTRITION EXAMINATION SURVEY (NHANES) III |", "score": 0.4492, "match_basis": "verbatim_token+domain_route:RE"}, {"md_atom_id": "md_dmRE_ex_a042", "md_file": "knowledge_base/domains/RE/examples.md", "md_atom_type": "TABLE_ROW", "md_parent_section": "§RE.2 [Example 2]", "md_verbatim": "| 4 | XYZ | RE | XYZ-001-001 | RESEQ | 4 | REIRREA2 | Inadequate Result Reason 2 | FEV1 REPEATABILITY IS UNACCEPTABLE | CRF | |", "score": 0.4462, "match_basis": "verbatim_token+domain_route:RE"}, {"md_atom_id": "md_dmRE_ex_a040", "md_file": "knowledge_base/domains/RE/examples.md", "md_atom_type": "TABLE_ROW", "md_parent_section": "§RE.2 [Example 2]", "md_verbatim": "| 2 | XYZ | RE | XYZ-001-001 | RESEQ | 4 | REIRESFL | Inadequate Results Flag | Y | CRF | |", "score": 0.4437, "match_basis": "verbatim_token+domain_route:RE"}, {"md_atom_id": "md_dmRE_ex_a041", "md_file": "knowledge_base/domains/RE/examples.md", "md_atom_type": "TABLE_ROW", "md_parent_section": "§RE.2 [Example 2]", "md_verbatim": "| 3 | XYZ | RE | XYZ-001-001 | RESEQ | 4 | REIRREA1 | Inadequate Result Reason 1 | COUGHING WAS DETECTED IN THE FIRST PART OF THE EXPIRATION | CRF | |", "score": 0.439, "match_basis": "verbatim_token+domain_route:RE"}, {"md_atom_id": "md_dmRE_ex_a039", "md_file": "knowledge_base/domains/RE/examples.md", "md_atom_type": "TABLE_ROW", "md_parent_section": "§RE.2 [Example 2]", "md_verbatim": "| 1 | XYZ | RE | XYZ-001-001 | RESEQ | 1 | REBRESFL | Best Result Flag | Y | CRF | |", "score": 0.433, "match_basis": "verbatim_token+domain_route:RE"}], "candidate_count": 5, "zero_candidate": false}
{"pdf_atom_id": "ig34_p0309_a004", "pdf_atom_type": "TABLE_ROW", "pdf_source": "SDTMIG_v3.4", "pdf_page": 309, "pdf_parent_section": "§6.3.7.7 Respiratory System Findings (RE)", "pdf_verbatim": "| RESTAT | Completion Status | Char | (ND) | Record Qualifier | Used to indicate that a test was not done or a measurement was not taken. Should be null if a result exists in REORRES. | Perm |", "figure_ref": null, "candidates": [{"md_atom_id": "md_dmRE_ex_a041", "md_file": "knowledge_base/domains/RE/examples.md", "md_atom_type": "TABLE_ROW", "md_parent_section": "§RE.2 [Example 2]", "md_verbatim": "| 3 | XYZ | RE | XYZ-001-001 | RESEQ | 4 | REIRREA1 | Inadequate Result Reason 1 | COUGHING WAS DETECTED IN THE FIRST PART OF THE EXPIRATION | CRF | |", "score": 0.4574, "match_basis": "verbatim_token+domain_route:RE"}, {"md_atom_id": "md_dmRE_ex_a042", "md_file": "knowledge_base/domains/RE/examples.md", "md_atom_type": "TABLE_ROW", "md_parent_section": "§RE.2 [Example 2]", "md_verbatim": "| 4 | XYZ | RE | XYZ-001-001 | RESEQ | 4 | REIRREA2 | Inadequate Result Reason 2 | FEV1 REPEATABILITY IS UNACCEPTABLE | CRF | |", "score": 0.4425, "match_basis": "verbatim_token+domain_route:RE"}, {"md_atom_id": "md_dmRE_ex_a040", "md_file": "knowledge_base/domains/RE/examples.md", "md_atom_type": "TABLE_ROW", "md_parent_section": "§RE.2 [Example 2]", "md_verbatim": "| 2 | XYZ | RE | XYZ-001-001 | RESEQ | 4 | REIRESFL | Inadequate Results Flag | Y | CRF | |", "score": 0.4391, "match_basis": "verbatim_token+domain_route:RE"}, {"md_atom_id": "md_dmRE_ex_a039", "md_file": "knowledge_base/domains/RE/examples.md", "md_atom_type": "TABLE_ROW", "md_parent_section": "§RE.2 [Example 2]", "md_verbatim": "| 1 | XYZ | RE | XYZ-001-001 | RESEQ | 1 | REBRESFL | Best Result Flag | Y | CRF | |", "score": 0.4349, "match_basis": "verbatim_token+domain_route:RE"}, {"md_atom_id": "md_dmRE_ex_a023", "md_file": "knowledge_base/domains/RE/examples.md", "md_atom_type": "TABLE_ROW", "md_parent_section": "§RE.1 [Example 1]", "md_verbatim": "| 1 | XYZ | DU | | ABC001 | 1 | SPIREFEQ | Spirometric Reference Equation | NATIONAL HEALTH NUTRITION EXAMINATION SURVEY (NHANES) III |", "score": 0.4195, "match_basis": "verbatim_token+domain_route:RE"}], "candidate_count": 5, "zero_candidate": false}
{"pdf_atom_id": "ig34_p0309_a005", "pdf_atom_type": "TABLE_ROW", "pdf_source": "SDTMIG_v3.4", "pdf_page": 309, "pdf_parent_section": "§6.3.7.7 Respiratory System Findings (RE)", "pdf_verbatim": "| REREASND | Reason Not Done | Char | | Record Qualifier | Describes why a measurement or test was not performed. Examples: \"BROKEN EQUIPMENT\", \"SUBJECT REFUSED\". Used in conjunction with RESTAT when value is \"NOT DONE\". | Perm |", "figure_ref": null, "candidates": [{"md_atom_id": "md_dmRE_ex_a041", "md_file": "knowledge_base/domains/RE/examples.md", "md_atom_type": "TABLE_ROW", "md_parent_section": "§RE.2 [Example 2]", "md_verbatim": "| 3 | XYZ | RE | XYZ-001-001 | RESEQ | 4 | REIRREA1 | Inadequate Result Reason 1 | COUGHING WAS DETECTED IN THE FIRST PART OF THE EXPIRATION | CRF | |", "score": 0.4482, "match_basis": "verbatim_token+domain_route:RE"}, {"md_atom_id": "md_dmRE_ex_a023", "md_file": "knowledge_base/domains/RE/examples.md", "md_atom_type": "TABLE_ROW", "md_parent_section": "§RE.1 [Example 1]", "md_verbatim": "| 1 | XYZ | DU | | ABC001 | 1 | SPIREFEQ | Spirometric Reference Equation | NATIONAL HEALTH NUTRITION EXAMINATION SURVEY (NHANES) III |", "score": 0.4386, "match_basis": "verbatim_token+domain_route:RE"}, {"md_atom_id": "md_dmRE_ex_a042", "md_file": "knowledge_base/domains/RE/examples.md", "md_atom_type": "TABLE_ROW", "md_parent_section": "§RE.2 [Example 2]", "md_verbatim": "| 4 | XYZ | RE | XYZ-001-001 | RESEQ | 4 | REIRREA2 | Inadequate Result Reason 2 | FEV1 REPEATABILITY IS UNACCEPTABLE | CRF | |", "score": 0.4309, "match_basis": "verbatim_token+domain_route:RE"}, {"md_atom_id": "md_dmRE_ex_a039", "md_file": "knowledge_base/domains/RE/examples.md", "md_atom_type": "TABLE_ROW", "md_parent_section": "§RE.2 [Example 2]", "md_verbatim": "| 1 | XYZ | RE | XYZ-001-001 | RESEQ | 1 | REBRESFL | Best Result Flag | Y | CRF | |", "score": 0.4164, "match_basis": "verbatim_token+domain_route:RE"}, {"md_atom_id": "md_dmRE_ex_a040", "md_file": "knowledge_base/domains/RE/examples.md", "md_atom_type": "TABLE_ROW", "md_parent_section": "§RE.2 [Example 2]", "md_verbatim": "| 2 | XYZ | RE | XYZ-001-001 | RESEQ | 4 | REIRESFL | Inadequate Results Flag | Y | CRF | |", "score": 0.4154, "match_basis": "verbatim_token+domain_route:RE"}], "candidate_count": 5, "zero_candidate": false}
{"pdf_atom_id": "ig34_p0309_a006", "pdf_atom_type": "TABLE_ROW", "pdf_source": "SDTMIG_v3.4", "pdf_page": 309, "pdf_parent_section": "§6.3.7.7 Respiratory System Findings (RE)", "pdf_verbatim": "| RELOC | Location Used for the Measurement | Char | (LOC) | Record Qualifier | Anatomical location of the subject relevant to the collection of the measurement. Examples: \"LUNG\", \"BRONCHUS\" | Perm |", "figure_ref": null, "candidates": [{"md_atom_id": "md_dmRE_ex_a023", "md_file": "knowledge_base/domains/RE/examples.md", "md_atom_type": "TABLE_ROW", "md_parent_section": "§RE.1 [Example 1]", "md_verbatim": "| 1 | XYZ | DU | | ABC001 | 1 | SPIREFEQ | Spirometric Reference Equation | NATIONAL HEALTH NUTRITION EXAMINATION SURVEY (NHANES) III |", "score": 0.4403, "match_basis": "verbatim_token+domain_route:RE"}, {"md_atom_id": "md_dmRE_ex_a041", "md_file": "knowledge_base/domains/RE/examples.md", "md_atom_type": "TABLE_ROW", "md_parent_section": "§RE.2 [Example 2]", "md_verbatim": "| 3 | XYZ | RE | XYZ-001-001 | RESEQ | 4 | REIRREA1 | Inadequate Result Reason 1 | COUGHING WAS DETECTED IN THE FIRST PART OF THE EXPIRATION | CRF | |", "score": 0.4353, "match_basis": "verbatim_token+domain_route:RE"}, {"md_atom_id": "md_dmRE_ex_a010", "md_file": "knowledge_base/domains/RE/examples.md", "md_atom_type": "TABLE_ROW", "md_parent_section": "§RE.1 [Example 1]", "md_verbatim": "| 1 | XYZ | RE | XYZ-001-001 | ABC001 | 1 | FEV1 | Forced Expiratory Volume in 1 Second | 2.73 | L | 3.37 | ... | 2 | VISIT 2 | 2013-06-30 |", "score": 0.4176, "match_basis": "verbatim_token+domain_route:RE"}, {"md_atom_id": "md_dmRE_ex_a030", "md_file": "knowledge_base/domains/RE/examples.md", "md_atom_type": "TABLE_ROW", "md_parent_section": "§RE.2 [Example 2]", "md_verbatim": "| 1 | XYZ | RE | XYZ-001-001 | ABC001 | 1 | FEV1 | Forced Expiratory Volume in 1 Second | 1.94 | L | 1.94 | L | 1 | 2 | VISIT 2 | 2013-04-23 |", "score": 0.4176, "match_basis": "verbatim_token+domain_route:RE"}, {"md_atom_id": "md_dmRE_ex_a031", "md_file": "knowledge_base/domains/RE/examples.md", "md_atom_type": "TABLE_ROW", "md_parent_section": "§RE.2 [Example 2]", "md_verbatim": "| 2 | XYZ | RE | XYZ-001-001 | ABC001 | 2 | FEV1 | Forced Expiratory Volume in 1 Second | 1.88 | L | 1.88 | L | 2 | 2 | VISIT 2 | 2013-04-23 |", "score": 0.4176, "match_basis": "verbatim_token+domain_route:RE"}], "candidate_count": 5, "zero_candidate": false}
{"pdf_atom_id": "ig34_p0309_a007", "pdf_atom_type": "TABLE_ROW", "pdf_source": "SDTMIG_v3.4", "pdf_page": 309, "pdf_parent_section": "§6.3.7.7 Respiratory System Findings (RE)", "pdf_verbatim": "| RELAT | Laterality | Char | (LAT) | Variable Qualifier | Side of the body used to collect measurement. Examples: \"RIGHT\", \"LEFT\". | Perm |", "figure_ref": null, "candidates": [{"md_atom_id": "md_dmRE_ex_a042", "md_file": "knowledge_base/domains/RE/examples.md", "md_atom_type": "TABLE_ROW", "md_parent_section": "§RE.2 [Example 2]", "md_verbatim": "| 4 | XYZ | RE | XYZ-001-001 | RESEQ | 4 | REIRREA2 | Inadequate Result Reason 2 | FEV1 REPEATABILITY IS UNACCEPTABLE | CRF | |", "score": 0.4424, "match_basis": "verbatim_token+domain_route:RE"}, {"md_atom_id": "md_dmRE_ex_a041", "md_file": "knowledge_base/domains/RE/examples.md", "md_atom_type": "TABLE_ROW", "md_parent_section": "§RE.2 [Example 2]", "md_verbatim": "| 3 | XYZ | RE | XYZ-001-001 | RESEQ | 4 | REIRREA1 | Inadequate Result Reason 1 | COUGHING WAS DETECTED IN THE FIRST PART OF THE EXPIRATION | CRF | |", "score": 0.4283, "match_basis": "verbatim_token+domain_route:RE"}, {"md_atom_id": "md_dmRE_ex_a023", "md_file": "knowledge_base/domains/RE/examples.md", "md_atom_type": "TABLE_ROW", "md_parent_section": "§RE.1 [Example 1]", "md_verbatim": "| 1 | XYZ | DU | | ABC001 | 1 | SPIREFEQ | Spirometric Reference Equation | NATIONAL HEALTH NUTRITION EXAMINATION SURVEY (NHANES) III |", "score": 0.4222, "match_basis": "verbatim_token+domain_route:RE"}, {"md_atom_id": "md_dmRE_ex_a013", "md_file": "knowledge_base/domains/RE/examples.md", "md_atom_type": "TABLE_ROW", "md_parent_section": "§RE.1 [Example 1]", "md_verbatim": "| 4 | XYZ | RE | XYZ-001-001 | ABC001 | 4 | FVCPP | Percent Predicted Forced Vital Capacity | 101.3 | % | | ... | 2 | VISIT 2 | 2013-06-30 |", "score": 0.4194, "match_basis": "verbatim_token+domain_route:RE"}, {"md_atom_id": "md_dmRE_ex_a040", "md_file": "knowledge_base/domains/RE/examples.md", "md_atom_type": "TABLE_ROW", "md_parent_section": "§RE.2 [Example 2]", "md_verbatim": "| 2 | XYZ | RE | XYZ-001-001 | RESEQ | 4 | REIRESFL | Inadequate Results Flag | Y | CRF | |", "score": 0.4148, "match_basis": "verbatim_token+domain_route:RE"}], "candidate_count": 5, "zero_candidate": false}
{"pdf_atom_id": "ig34_p0309_a008", "pdf_atom_type": "TABLE_ROW", "pdf_source": "SDTMIG_v3.4", "pdf_page": 309, "pdf_parent_section": "§6.3.7.7 Respiratory System Findings (RE)", "pdf_verbatim": "| REDIR | Directionality | Char | (DIR) | Variable Qualifier | Qualifier for anatomical location or specimen further detailing directionality. Examples: \"ANTERIOR\", \"LOWER\", \"PROXIMAL\". | Perm |", "figure_ref": null, "candidates": [{"md_atom_id": "md_dmRE_ex_a023", "md_file": "knowledge_base/domains/RE/examples.md", "md_atom_type": "TABLE_ROW", "md_parent_section": "§RE.1 [Example 1]", "md_verbatim": "| 1 | XYZ | DU | | ABC001 | 1 | SPIREFEQ | Spirometric Reference Equation | NATIONAL HEALTH NUTRITION EXAMINATION SURVEY (NHANES) III |", "score": 0.4476, "match_basis": "verbatim_token+domain_route:RE"}, {"md_atom_id": "md_dmRE_ex_a041", "md_file": "knowledge_base/domains/RE/examples.md", "md_atom_type": "TABLE_ROW", "md_parent_section": "§RE.2 [Example 2]", "md_verbatim": "| 3 | XYZ | RE | XYZ-001-001 | RESEQ | 4 | REIRREA1 | Inadequate Result Reason 1 | COUGHING WAS DETECTED IN THE FIRST PART OF THE EXPIRATION | CRF | |", "score": 0.4378, "match_basis": "verbatim_token+domain_route:RE"}, {"md_atom_id": "md_dmRE_ex_a042", "md_file": "knowledge_base/domains/RE/examples.md", "md_atom_type": "TABLE_ROW", "md_parent_section": "§RE.2 [Example 2]", "md_verbatim": "| 4 | XYZ | RE | XYZ-001-001 | RESEQ | 4 | REIRREA2 | Inadequate Result Reason 2 | FEV1 REPEATABILITY IS UNACCEPTABLE | CRF | |", "score": 0.429, "match_basis": "verbatim_token+domain_route:RE"}, {"md_atom_id": "md_dmRE_ex_a013", "md_file": "knowledge_base/domains/RE/examples.md", "md_atom_type": "TABLE_ROW", "md_parent_section": "§RE.1 [Example 1]", "md_verbatim": "| 4 | XYZ | RE | XYZ-001-001 | ABC001 | 4 | FVCPP | Percent Predicted Forced Vital Capacity | 101.3 | % | | ... | 2 | VISIT 2 | 2013-06-30 |", "score": 0.4261, "match_basis": "verbatim_token+domain_route:RE"}, {"md_atom_id": "md_dmRE_ex_a012", "md_file": "knowledge_base/domains/RE/examples.md", "md_atom_type": "TABLE_ROW", "md_parent_section": "§RE.1 [Example 1]", "md_verbatim": "| 3 | XYZ | RE | XYZ-001-001 | ABC001 | 3 | FEV1PP | Percent Predicted FEV1 | 81 | % | | ... | 2 | VISIT 2 | 2013-06-30 |", "score": 0.4171, "match_basis": "verbatim_token+domain_route:RE"}], "candidate_count": 5, "zero_candidate": false}
{"pdf_atom_id": "ig34_p0309_a009", "pdf_atom_type": "TABLE_ROW", "pdf_source": "SDTMIG_v3.4", "pdf_page": 309, "pdf_parent_section": "§6.3.7.7 Respiratory System Findings (RE)", "pdf_verbatim": "| REMETHOD | Method of Test or Examination | Char | (METHOD) | Record Qualifier | Method used to create the result. | Perm |", "figure_ref": null, "candidates": [{"md_atom_id": "md_dmRE_ex_a041", "md_file": "knowledge_base/domains/RE/examples.md", "md_atom_type": "TABLE_ROW", "md_parent_section": "§RE.2 [Example 2]", "md_verbatim": "| 3 | XYZ | RE | XYZ-001-001 | RESEQ | 4 | REIRREA1 | Inadequate Result Reason 1 | COUGHING WAS DETECTED IN THE FIRST PART OF THE EXPIRATION | CRF | |", "score": 0.4857, "match_basis": "verbatim_token+domain_route:RE"}, {"md_atom_id": "md_dmRE_ex_a023", "md_file": "knowledge_base/domains/RE/examples.md", "md_atom_type": "TABLE_ROW", "md_parent_section": "§RE.1 [Example 1]", "md_verbatim": "| 1 | XYZ | DU | | ABC001 | 1 | SPIREFEQ | Spirometric Reference Equation | NATIONAL HEALTH NUTRITION EXAMINATION SURVEY (NHANES) III |", "score": 0.4767, "match_basis": "verbatim_token+domain_route:RE"}, {"md_atom_id": "md_dmRE_ex_a040", "md_file": "knowledge_base/domains/RE/examples.md", "md_atom_type": "TABLE_ROW", "md_parent_section": "§RE.2 [Example 2]", "md_verbatim": "| 2 | XYZ | RE | XYZ-001-001 | RESEQ | 4 | REIRESFL | Inadequate Results Flag | Y | CRF | |", "score": 0.4689, "match_basis": "verbatim_token+domain_route:RE"}, {"md_atom_id": "md_dmRE_ex_a042", "md_file": "knowledge_base/domains/RE/examples.md", "md_atom_type": "TABLE_ROW", "md_parent_section": "§RE.2 [Example 2]", "md_verbatim": "| 4 | XYZ | RE | XYZ-001-001 | RESEQ | 4 | REIRREA2 | Inadequate Result Reason 2 | FEV1 REPEATABILITY IS UNACCEPTABLE | CRF | |", "score": 0.4659, "match_basis": "verbatim_token+domain_route:RE"}, {"md_atom_id": "md_dmRE_ex_a039", "md_file": "knowledge_base/domains/RE/examples.md", "md_atom_type": "TABLE_ROW", "md_parent_section": "§RE.2 [Example 2]", "md_verbatim": "| 1 | XYZ | RE | XYZ-001-001 | RESEQ | 1 | REBRESFL | Best Result Flag | Y | CRF | |", "score": 0.4536, "match_basis": "verbatim_token+domain_route:RE"}], "candidate_count": 5, "zero_candidate": false}
{"pdf_atom_id": "ig34_p0309_a010", "pdf_atom_type": "TABLE_ROW", "pdf_source": "SDTMIG_v3.4", "pdf_page": 309, "pdf_parent_section": "§6.3.7.7 Respiratory System Findings (RE)", "pdf_verbatim": "| RELOBXFL | Last Observation Before Exposure Flag | Char | (NY) | Record Qualifier | Operationally-derived indicator used to identify the last non-missing value prior to RFXSTDTC. The value should be \"Y\" or null. | Exp |", "figure_ref": null, "candidates": [{"md_atom_id": "md_dmRE_ex_a041", "md_file": "knowledge_base/domains/RE/examples.md", "md_atom_type": "TABLE_ROW", "md_parent_section": "§RE.2 [Example 2]", "md_verbatim": "| 3 | XYZ | RE | XYZ-001-001 | RESEQ | 4 | REIRREA1 | Inadequate Result Reason 1 | COUGHING WAS DETECTED IN THE FIRST PART OF THE EXPIRATION | CRF | |", "score": 0.4343, "match_basis": "verbatim_token+domain_route:RE"}, {"md_atom_id": "md_dmRE_ex_a010", "md_file": "knowledge_base/domains/RE/examples.md", "md_atom_type": "TABLE_ROW", "md_parent_section": "§RE.1 [Example 1]", "md_verbatim": "| 1 | XYZ | RE | XYZ-001-001 | ABC001 | 1 | FEV1 | Forced Expiratory Volume in 1 Second | 2.73 | L | 3.37 | ... | 2 | VISIT 2 | 2013-06-30 |", "score": 0.4298, "match_basis": "verbatim_token+domain_route:RE"}, {"md_atom_id": "md_dmRE_ex_a030", "md_file": "knowledge_base/domains/RE/examples.md", "md_atom_type": "TABLE_ROW", "md_parent_section": "§RE.2 [Example 2]", "md_verbatim": "| 1 | XYZ | RE | XYZ-001-001 | ABC001 | 1 | FEV1 | Forced Expiratory Volume in 1 Second | 1.94 | L | 1.94 | L | 1 | 2 | VISIT 2 | 2013-04-23 |", "score": 0.4298, "match_basis": "verbatim_token+domain_route:RE"}, {"md_atom_id": "md_dmRE_ex_a031", "md_file": "knowledge_base/domains/RE/examples.md", "md_atom_type": "TABLE_ROW", "md_parent_section": "§RE.2 [Example 2]", "md_verbatim": "| 2 | XYZ | RE | XYZ-001-001 | ABC001 | 2 | FEV1 | Forced Expiratory Volume in 1 Second | 1.88 | L | 1.88 | L | 2 | 2 | VISIT 2 | 2013-04-23 |", "score": 0.4298, "match_basis": "verbatim_token+domain_route:RE"}, {"md_atom_id": "md_dmRE_ex_a032", "md_file": "knowledge_base/domains/RE/examples.md", "md_atom_type": "TABLE_ROW", "md_parent_section": "§RE.2 [Example 2]", "md_verbatim": "| 3 | XYZ | RE | XYZ-001-001 | ABC001 | 3 | FEV1 | Forced Expiratory Volume in 1 Second | 1.88 | L | 1.88 | L | 3 | 2 | VISIT 2 | 2013-04-23 |", "score": 0.4298, "match_basis": "verbatim_token+domain_route:RE"}], "candidate_count": 5, "zero_candidate": false}
{"pdf_atom_id": "ig34_p0309_a011", "pdf_atom_type": "TABLE_ROW", "pdf_source": "SDTMIG_v3.4", "pdf_page": 309, "pdf_parent_section": "§6.3.7.7 Respiratory System Findings (RE)", "pdf_verbatim": "| REBLFL | Baseline Flag | Char | (NY) | Record Qualifier | Indicator used to identify a baseline value. Should be Y or null. Note that REBLFL is retained for backward compatibility. The authoritative baseline flag for statistical analysis is in an ADaM dataset. | Perm |", "figure_ref": null, "candidates": [{"md_atom_id": "md_dmRE_ex_a013", "md_file": "knowledge_base/domains/RE/examples.md", "md_atom_type": "TABLE_ROW", "md_parent_section": "§RE.1 [Example 1]", "md_verbatim": "| 4 | XYZ | RE | XYZ-001-001 | ABC001 | 4 | FVCPP | Percent Predicted Forced Vital Capacity | 101.3 | % | | ... | 2 | VISIT 2 | 2013-06-30 |", "score": 0.4259, "match_basis": "verbatim_token+domain_route:RE"}, {"md_atom_id": "md_dmRE_ex_a042", "md_file": "knowledge_base/domains/RE/examples.md", "md_atom_type": "TABLE_ROW", "md_parent_section": "§RE.2 [Example 2]", "md_verbatim": "| 4 | XYZ | RE | XYZ-001-001 | RESEQ | 4 | REIRREA2 | Inadequate Result Reason 2 | FEV1 REPEATABILITY IS UNACCEPTABLE | CRF | |", "score": 0.4242, "match_basis": "verbatim_token+domain_route:RE"}, {"md_atom_id": "md_dmRE_ex_a010", "md_file": "knowledge_base/domains/RE/examples.md", "md_atom_type": "TABLE_ROW", "md_parent_section": "§RE.1 [Example 1]", "md_verbatim": "| 1 | XYZ | RE | XYZ-001-001 | ABC001 | 1 | FEV1 | Forced Expiratory Volume in 1 Second | 2.73 | L | 3.37 | ... | 2 | VISIT 2 | 2013-06-30 |", "score": 0.4178, "match_basis": "verbatim_token+domain_route:RE"}, {"md_atom_id": "md_dmRE_ex_a030", "md_file": "knowledge_base/domains/RE/examples.md", "md_atom_type": "TABLE_ROW", "md_parent_section": "§RE.2 [Example 2]", "md_verbatim": "| 1 | XYZ | RE | XYZ-001-001 | ABC001 | 1 | FEV1 | Forced Expiratory Volume in 1 Second | 1.94 | L | 1.94 | L | 1 | 2 | VISIT 2 | 2013-04-23 |", "score": 0.4178, "match_basis": "verbatim_token+domain_route:RE"}, {"md_atom_id": "md_dmRE_ex_a031", "md_file": "knowledge_base/domains/RE/examples.md", "md_atom_type": "TABLE_ROW", "md_parent_section": "§RE.2 [Example 2]", "md_verbatim": "| 2 | XYZ | RE | XYZ-001-001 | ABC001 | 2 | FEV1 | Forced Expiratory Volume in 1 Second | 1.88 | L | 1.88 | L | 2 | 2 | VISIT 2 | 2013-04-23 |", "score": 0.4178, "match_basis": "verbatim_token+domain_route:RE"}], "candidate_count": 5, "zero_candidate": false}
{"pdf_atom_id": "ig34_p0309_a012", "pdf_atom_type": "TABLE_ROW", "pdf_source": "SDTMIG_v3.4", "pdf_page": 309, "pdf_parent_section": "§6.3.7.7 Respiratory System Findings (RE)", "pdf_verbatim": "| REDRVFL | Derived Flag | Char | (NY) | Record Qualifier | Used to indicate a derived record. Should be \"Y\" or null. Records that represent the average of other records, or that do not come from the CRF, or are not as originally collected or received are examples of records that would be derived for the submission datasets. If REDRVFL = \"Y\", then REORRES could be null, with RESTRESC and (if numeric) RESTRESN having the derived value. | Perm |", "figure_ref": null, "candidates": [{"md_atom_id": "md_dmRE_ex_a041", "md_file": "knowledge_base/domains/RE/examples.md", "md_atom_type": "TABLE_ROW", "md_parent_section": "§RE.2 [Example 2]", "md_verbatim": "| 3 | XYZ | RE | XYZ-001-001 | RESEQ | 4 | REIRREA1 | Inadequate Result Reason 1 | COUGHING WAS DETECTED IN THE FIRST PART OF THE EXPIRATION | CRF | |", "score": 0.4494, "match_basis": "verbatim_token+domain_route:RE"}, {"md_atom_id": "md_dmRE_ex_a040", "md_file": "knowledge_base/domains/RE/examples.md", "md_atom_type": "TABLE_ROW", "md_parent_section": "§RE.2 [Example 2]", "md_verbatim": "| 2 | XYZ | RE | XYZ-001-001 | RESEQ | 4 | REIRESFL | Inadequate Results Flag | Y | CRF | |", "score": 0.4324, "match_basis": "verbatim_token+domain_route:RE"}, {"md_atom_id": "md_dmRE_ex_a042", "md_file": "knowledge_base/domains/RE/examples.md", "md_atom_type": "TABLE_ROW", "md_parent_section": "§RE.2 [Example 2]", "md_verbatim": "| 4 | XYZ | RE | XYZ-001-001 | RESEQ | 4 | REIRREA2 | Inadequate Result Reason 2 | FEV1 REPEATABILITY IS UNACCEPTABLE | CRF | |", "score": 0.4318, "match_basis": "verbatim_token+domain_route:RE"}, {"md_atom_id": "md_dmRE_ex_a023", "md_file": "knowledge_base/domains/RE/examples.md", "md_atom_type": "TABLE_ROW", "md_parent_section": "§RE.1 [Example 1]", "md_verbatim": "| 1 | XYZ | DU | | ABC001 | 1 | SPIREFEQ | Spirometric Reference Equation | NATIONAL HEALTH NUTRITION EXAMINATION SURVEY (NHANES) III |", "score": 0.4307, "match_basis": "verbatim_token+domain_route:RE"}, {"md_atom_id": "md_dmRE_ex_a013", "md_file": "knowledge_base/domains/RE/examples.md", "md_atom_type": "TABLE_ROW", "md_parent_section": "§RE.1 [Example 1]", "md_verbatim": "| 4 | XYZ | RE | XYZ-001-001 | ABC001 | 4 | FVCPP | Percent Predicted Forced Vital Capacity | 101.3 | % | | ... | 2 | VISIT 2 | 2013-06-30 |", "score": 0.4298, "match_basis": "verbatim_token+domain_route:RE"}], "candidate_count": 5, "zero_candidate": false}
{"pdf_atom_id": "ig34_p0309_a013", "pdf_atom_type": "TABLE_ROW", "pdf_source": "SDTMIG_v3.4", "pdf_page": 309, "pdf_parent_section": "§6.3.7.7 Respiratory System Findings (RE)", "pdf_verbatim": "| REEVAL | Evaluator | Char | (EVAL) | Record Qualifier | Role of the person who provided the evaluation. Used only for results that are subjective (e.g., assigned by a person or a group). Examples: \"ADJUDICATION COMMITTEE\", \"INDEPENDENT ASSESSOR\", \"RADIOLOGIST\". | Perm |", "figure_ref": null, "candidates": [{"md_atom_id": "md_dmRE_ex_a041", "md_file": "knowledge_base/domains/RE/examples.md", "md_atom_type": "TABLE_ROW", "md_parent_section": "§RE.2 [Example 2]", "md_verbatim": "| 3 | XYZ | RE | XYZ-001-001 | RESEQ | 4 | REIRREA1 | Inadequate Result Reason 1 | COUGHING WAS DETECTED IN THE FIRST PART OF THE EXPIRATION | CRF | |", "score": 0.4471, "match_basis": "verbatim_token+domain_route:RE"}, {"md_atom_id": "md_dmRE_ex_a040", "md_file": "knowledge_base/domains/RE/examples.md", "md_atom_type": "TABLE_ROW", "md_parent_section": "§RE.2 [Example 2]", "md_verbatim": "| 2 | XYZ | RE | XYZ-001-001 | RESEQ | 4 | REIRESFL | Inadequate Results Flag | Y | CRF | |", "score": 0.4323, "match_basis": "verbatim_token+domain_route:RE"}, {"md_atom_id": "md_dmRE_ex_a042", "md_file": "knowledge_base/domains/RE/examples.md", "md_atom_type": "TABLE_ROW", "md_parent_section": "§RE.2 [Example 2]", "md_verbatim": "| 4 | XYZ | RE | XYZ-001-001 | RESEQ | 4 | REIRREA2 | Inadequate Result Reason 2 | FEV1 REPEATABILITY IS UNACCEPTABLE | CRF | |", "score": 0.4316, "match_basis": "verbatim_token+domain_route:RE"}, {"md_atom_id": "md_dmRE_ex_a023", "md_file": "knowledge_base/domains/RE/examples.md", "md_atom_type": "TABLE_ROW", "md_parent_section": "§RE.1 [Example 1]", "md_verbatim": "| 1 | XYZ | DU | | ABC001 | 1 | SPIREFEQ | Spirometric Reference Equation | NATIONAL HEALTH NUTRITION EXAMINATION SURVEY (NHANES) III |", "score": 0.4264, "match_basis": "verbatim_token+domain_route:RE"}, {"md_atom_id": "md_dmRE_ex_a039", "md_file": "knowledge_base/domains/RE/examples.md", "md_atom_type": "TABLE_ROW", "md_parent_section": "§RE.2 [Example 2]", "md_verbatim": "| 1 | XYZ | RE | XYZ-001-001 | RESEQ | 1 | REBRESFL | Best Result Flag | Y | CRF | |", "score": 0.419, "match_basis": "verbatim_token+domain_route:RE"}], "candidate_count": 5, "zero_candidate": false}
{"pdf_atom_id": "ig34_p0309_a014", "pdf_atom_type": "TABLE_ROW", "pdf_source": "SDTMIG_v3.4", "pdf_page": 309, "pdf_parent_section": "§6.3.7.7 Respiratory System Findings (RE)", "pdf_verbatim": "| REEVALID | Evaluator Identifier | Char | (MEDEVAL) | Variable Qualifier | Used to distinguish multiple evaluators with the same role recorded in REEVAL. Examples: \"RADIOLOGIST1\", \"RADIOLOGIST2\". | Perm |", "figure_ref": null, "candidates": [{"md_atom_id": "md_dmRE_ex_a042", "md_file": "knowledge_base/domains/RE/examples.md", "md_atom_type": "TABLE_ROW", "md_parent_section": "§RE.2 [Example 2]", "md_verbatim": "| 4 | XYZ | RE | XYZ-001-001 | RESEQ | 4 | REIRREA2 | Inadequate Result Reason 2 | FEV1 REPEATABILITY IS UNACCEPTABLE | CRF | |", "score": 0.4242, "match_basis": "verbatim_token+domain_route:RE"}, {"md_atom_id": "md_dmRE_ex_a041", "md_file": "knowledge_base/domains/RE/examples.md", "md_atom_type": "TABLE_ROW", "md_parent_section": "§RE.2 [Example 2]", "md_verbatim": "| 3 | XYZ | RE | XYZ-001-001 | RESEQ | 4 | REIRREA1 | Inadequate Result Reason 1 | COUGHING WAS DETECTED IN THE FIRST PART OF THE EXPIRATION | CRF | |", "score": 0.4233, "match_basis": "verbatim_token+domain_route:RE"}, {"md_atom_id": "md_dmRE_ex_a023", "md_file": "knowledge_base/domains/RE/examples.md", "md_atom_type": "TABLE_ROW", "md_parent_section": "§RE.1 [Example 1]", "md_verbatim": "| 1 | XYZ | DU | | ABC001 | 1 | SPIREFEQ | Spirometric Reference Equation | NATIONAL HEALTH NUTRITION EXAMINATION SURVEY (NHANES) III |", "score": 0.4183, "match_basis": "verbatim_token+domain_route:RE"}, {"md_atom_id": "md_dmRE_ex_a040", "md_file": "knowledge_base/domains/RE/examples.md", "md_atom_type": "TABLE_ROW", "md_parent_section": "§RE.2 [Example 2]", "md_verbatim": "| 2 | XYZ | RE | XYZ-001-001 | RESEQ | 4 | REIRESFL | Inadequate Results Flag | Y | CRF | |", "score": 0.4175, "match_basis": "verbatim_token+domain_route:RE"}, {"md_atom_id": "md_dmRE_ex_a010", "md_file": "knowledge_base/domains/RE/examples.md", "md_atom_type": "TABLE_ROW", "md_parent_section": "§RE.1 [Example 1]", "md_verbatim": "| 1 | XYZ | RE | XYZ-001-001 | ABC001 | 1 | FEV1 | Forced Expiratory Volume in 1 Second | 2.73 | L | 3.37 | ... | 2 | VISIT 2 | 2013-06-30 |", "score": 0.4164, "match_basis": "verbatim_token+domain_route:RE"}], "candidate_count": 5, "zero_candidate": false}
{"pdf_atom_id": "ig34_p0309_a015", "pdf_atom_type": "TABLE_ROW", "pdf_source": "SDTMIG_v3.4", "pdf_page": 309, "pdf_parent_section": "§6.3.7.7 Respiratory System Findings (RE)", "pdf_verbatim": "| REREPNUM | Repetition Number | Num | | Record Qualifier | The instance number of a test that is repeated within a given time frame for the same test. The level of granularity can vary (e.g., within a time point, within a visit). Example: multiple measurements of pulmonary function. | Perm |", "figure_ref": null, "candidates": [{"md_atom_id": "md_dmRE_ex_a023", "md_file": "knowledge_base/domains/RE/examples.md", "md_atom_type": "TABLE_ROW", "md_parent_section": "§RE.1 [Example 1]", "md_verbatim": "| 1 | XYZ | DU | | ABC001 | 1 | SPIREFEQ | Spirometric Reference Equation | NATIONAL HEALTH NUTRITION EXAMINATION SURVEY (NHANES) III |", "score": 0.4434, "match_basis": "verbatim_token+domain_route:RE"}, {"md_atom_id": "md_dmRE_ex_a042", "md_file": "knowledge_base/domains/RE/examples.md", "md_atom_type": "TABLE_ROW", "md_parent_section": "§RE.2 [Example 2]", "md_verbatim": "| 4 | XYZ | RE | XYZ-001-001 | RESEQ | 4 | REIRREA2 | Inadequate Result Reason 2 | FEV1 REPEATABILITY IS UNACCEPTABLE | CRF | |", "score": 0.4365, "match_basis": "verbatim_token+domain_route:RE"}, {"md_atom_id": "md_dmRE_ex_a041", "md_file": "knowledge_base/domains/RE/examples.md", "md_atom_type": "TABLE_ROW", "md_parent_section": "§RE.2 [Example 2]", "md_verbatim": "| 3 | XYZ | RE | XYZ-001-001 | RESEQ | 4 | REIRREA1 | Inadequate Result Reason 1 | COUGHING WAS DETECTED IN THE FIRST PART OF THE EXPIRATION | CRF | |", "score": 0.4353, "match_basis": "verbatim_token+domain_route:RE"}, {"md_atom_id": "md_dmRE_ex_a013", "md_file": "knowledge_base/domains/RE/examples.md", "md_atom_type": "TABLE_ROW", "md_parent_section": "§RE.1 [Example 1]", "md_verbatim": "| 4 | XYZ | RE | XYZ-001-001 | ABC001 | 4 | FVCPP | Percent Predicted Forced Vital Capacity | 101.3 | % | | ... | 2 | VISIT 2 | 2013-06-30 |", "score": 0.4345, "match_basis": "verbatim_token+domain_route:RE"}, {"md_atom_id": "md_dmRE_ex_a012", "md_file": "knowledge_base/domains/RE/examples.md", "md_atom_type": "TABLE_ROW", "md_parent_section": "§RE.1 [Example 1]", "md_verbatim": "| 3 | XYZ | RE | XYZ-001-001 | ABC001 | 3 | FEV1PP | Percent Predicted FEV1 | 81 | % | | ... | 2 | VISIT 2 | 2013-06-30 |", "score": 0.4279, "match_basis": "verbatim_token+domain_route:RE"}], "candidate_count": 5, "zero_candidate": false}
{"pdf_atom_id": "ig34_p0309_a016", "pdf_atom_type": "TABLE_ROW", "pdf_source": "SDTMIG_v3.4", "pdf_page": 309, "pdf_parent_section": "§6.3.7.7 Respiratory System Findings (RE)", "pdf_verbatim": "| VISITNUM | Visit Number | Num | | Timing | Clinical encounter number. Numeric version of VISIT, used for sorting. | Exp |", "figure_ref": null, "candidates": [{"md_atom_id": "md_dmRE_ex_a010", "md_file": "knowledge_base/domains/RE/examples.md", "md_atom_type": "TABLE_ROW", "md_parent_section": "§RE.1 [Example 1]", "md_verbatim": "| 1 | XYZ | RE | XYZ-001-001 | ABC001 | 1 | FEV1 | Forced Expiratory Volume in 1 Second | 2.73 | L | 3.37 | ... | 2 | VISIT 2 | 2013-06-30 |", "score": 0.4522, "match_basis": "verbatim_token+domain_route:RE"}, {"md_atom_id": "md_dmRE_ex_a030", "md_file": "knowledge_base/domains/RE/examples.md", "md_atom_type": "TABLE_ROW", "md_parent_section": "§RE.2 [Example 2]", "md_verbatim": "| 1 | XYZ | RE | XYZ-001-001 | ABC001 | 1 | FEV1 | Forced Expiratory Volume in 1 Second | 1.94 | L | 1.94 | L | 1 | 2 | VISIT 2 | 2013-04-23 |", "score": 0.4522, "match_basis": "verbatim_token+domain_route:RE"}, {"md_atom_id": "md_dmRE_ex_a031", "md_file": "knowledge_base/domains/RE/examples.md", "md_atom_type": "TABLE_ROW", "md_parent_section": "§RE.2 [Example 2]", "md_verbatim": "| 2 | XYZ | RE | XYZ-001-001 | ABC001 | 2 | FEV1 | Forced Expiratory Volume in 1 Second | 1.88 | L | 1.88 | L | 2 | 2 | VISIT 2 | 2013-04-23 |", "score": 0.4522, "match_basis": "verbatim_token+domain_route:RE"}, {"md_atom_id": "md_dmRE_ex_a032", "md_file": "knowledge_base/domains/RE/examples.md", "md_atom_type": "TABLE_ROW", "md_parent_section": "§RE.2 [Example 2]", "md_verbatim": "| 3 | XYZ | RE | XYZ-001-001 | ABC001 | 3 | FEV1 | Forced Expiratory Volume in 1 Second | 1.88 | L | 1.88 | L | 3 | 2 | VISIT 2 | 2013-04-23 |", "score": 0.4522, "match_basis": "verbatim_token+domain_route:RE"}, {"md_atom_id": "md_dmRE_ex_a033", "md_file": "knowledge_base/domains/RE/examples.md", "md_atom_type": "TABLE_ROW", "md_parent_section": "§RE.2 [Example 2]", "md_verbatim": "| 4 | XYZ | RE | XYZ-001-001 | ABC001 | 4 | FEV1 | Forced Expiratory Volume in 1 Second | 1.57 | L | 1.57 | L | 4 | 2 | VISIT 2 | 2013-04-23 |", "score": 0.4522, "match_basis": "verbatim_token+domain_route:RE"}], "candidate_count": 5, "zero_candidate": false}
{"pdf_atom_id": "ig34_p0309_a017", "pdf_atom_type": "TABLE_ROW", "pdf_source": "SDTMIG_v3.4", "pdf_page": 309, "pdf_parent_section": "§6.3.7.7 Respiratory System Findings (RE)", "pdf_verbatim": "| VISIT | Visit Name | Char | | Timing | Protocol-defined description of a clinical encounter. May be used in addition to VISITNUM and/or VISITDY. | Perm |", "figure_ref": null, "candidates": [{"md_atom_id": "md_dmRE_ex_a014", "md_file": "knowledge_base/domains/RE/examples.md", "md_atom_type": "TABLE_ROW", "md_parent_section": "§RE.1 [Example 1]", "md_verbatim": "| 5 | XYZ | RE | XYZ-001-001 | DEF999 | 5 | PEF | Peak Expiratory Flow | 6.11 | L/s | 7.33 | ... | 4 | VISIT 4 | 2013-07-17 |", "score": 0.4304, "match_basis": "verbatim_token+domain_route:RE"}, {"md_atom_id": "md_dmRE_ex_a012", "md_file": "knowledge_base/domains/RE/examples.md", "md_atom_type": "TABLE_ROW", "md_parent_section": "§RE.1 [Example 1]", "md_verbatim": "| 3 | XYZ | RE | XYZ-001-001 | ABC001 | 3 | FEV1PP | Percent Predicted FEV1 | 81 | % | | ... | 2 | VISIT 2 | 2013-06-30 |", "score": 0.4296, "match_basis": "verbatim_token+domain_route:RE"}, {"md_atom_id": "md_dmRE_ex_a023", "md_file": "knowledge_base/domains/RE/examples.md", "md_atom_type": "TABLE_ROW", "md_parent_section": "§RE.1 [Example 1]", "md_verbatim": "| 1 | XYZ | DU | | ABC001 | 1 | SPIREFEQ | Spirometric Reference Equation | NATIONAL HEALTH NUTRITION EXAMINATION SURVEY (NHANES) III |", "score": 0.4278, "match_basis": "verbatim_token+domain_route:RE"}, {"md_atom_id": "md_dmRE_ex_a013", "md_file": "knowledge_base/domains/RE/examples.md", "md_atom_type": "TABLE_ROW", "md_parent_section": "§RE.1 [Example 1]", "md_verbatim": "| 4 | XYZ | RE | XYZ-001-001 | ABC001 | 4 | FVCPP | Percent Predicted Forced Vital Capacity | 101.3 | % | | ... | 2 | VISIT 2 | 2013-06-30 |", "score": 0.4258, "match_basis": "verbatim_token+domain_route:RE"}, {"md_atom_id": "md_dmRE_ex_a011", "md_file": "knowledge_base/domains/RE/examples.md", "md_atom_type": "TABLE_ROW", "md_parent_section": "§RE.1 [Example 1]", "md_verbatim": "| 2 | XYZ | RE | XYZ-001-001 | ABC001 | 2 | FVC | Forced Vital Capacity | 3.91 | L | 3.86 | ... | 2 | VISIT 2 | 2013-06-30 |", "score": 0.4225, "match_basis": "verbatim_token+domain_route:RE"}], "candidate_count": 5, "zero_candidate": false}
{"pdf_atom_id": "ig34_p0309_a018", "pdf_atom_type": "TABLE_ROW", "pdf_source": "SDTMIG_v3.4", "pdf_page": 309, "pdf_parent_section": "§6.3.7.7 Respiratory System Findings (RE)", "pdf_verbatim": "| VISITDY | Planned Study Day of Visit | Num | | Timing | Planned study day of the visit based upon RFSTDTC in Demographics. | Perm |", "figure_ref": null, "candidates": [{"md_atom_id": "md_dmRE_ex_a012", "md_file": "knowledge_base/domains/RE/examples.md", "md_atom_type": "TABLE_ROW", "md_parent_section": "§RE.1 [Example 1]", "md_verbatim": "| 3 | XYZ | RE | XYZ-001-001 | ABC001 | 3 | FEV1PP | Percent Predicted FEV1 | 81 | % | | ... | 2 | VISIT 2 | 2013-06-30 |", "score": 0.4375, "match_basis": "verbatim_token+domain_route:RE"}, {"md_atom_id": "md_dmRE_ex_a013", "md_file": "knowledge_base/domains/RE/examples.md", "md_atom_type": "TABLE_ROW", "md_parent_section": "§RE.1 [Example 1]", "md_verbatim": "| 4 | XYZ | RE | XYZ-001-001 | ABC001 | 4 | FVCPP | Percent Predicted Forced Vital Capacity | 101.3 | % | | ... | 2 | VISIT 2 | 2013-06-30 |", "score": 0.4316, "match_basis": "verbatim_token+domain_route:RE"}, {"md_atom_id": "md_dmRE_ex_a011", "md_file": "knowledge_base/domains/RE/examples.md", "md_atom_type": "TABLE_ROW", "md_parent_section": "§RE.1 [Example 1]", "md_verbatim": "| 2 | XYZ | RE | XYZ-001-001 | ABC001 | 2 | FVC | Forced Vital Capacity | 3.91 | L | 3.86 | ... | 2 | VISIT 2 | 2013-06-30 |", "score": 0.4286, "match_basis": "verbatim_token+domain_route:RE"}, {"md_atom_id": "md_dmRE_ex_a014", "md_file": "knowledge_base/domains/RE/examples.md", "md_atom_type": "TABLE_ROW", "md_parent_section": "§RE.1 [Example 1]", "md_verbatim": "| 5 | XYZ | RE | XYZ-001-001 | DEF999 | 5 | PEF | Peak Expiratory Flow | 6.11 | L/s | 7.33 | ... | 4 | VISIT 4 | 2013-07-17 |", "score": 0.4286, "match_basis": "verbatim_token+domain_route:RE"}, {"md_atom_id": "md_dmRE_ex_a010", "md_file": "knowledge_base/domains/RE/examples.md", "md_atom_type": "TABLE_ROW", "md_parent_section": "§RE.1 [Example 1]", "md_verbatim": "| 1 | XYZ | RE | XYZ-001-001 | ABC001 | 1 | FEV1 | Forced Expiratory Volume in 1 Second | 2.73 | L | 3.37 | ... | 2 | VISIT 2 | 2013-06-30 |", "score": 0.4254, "match_basis": "verbatim_token+domain_route:RE"}], "candidate_count": 5, "zero_candidate": false}
{"pdf_atom_id": "ig34_p0309_a019", "pdf_atom_type": "TABLE_ROW", "pdf_source": "SDTMIG_v3.4", "pdf_page": 309, "pdf_parent_section": "§6.3.7.7 Respiratory System Findings (RE)", "pdf_verbatim": "| TAETORD | Planned Order of Element within Arm | Num | | Timing | Number that gives the planned order of the element within the arm for the element in which the assessment was made. | Perm |", "figure_ref": null, "candidates": [{"md_atom_id": "md_dmRE_ex_a041", "md_file": "knowledge_base/domains/RE/examples.md", "md_atom_type": "TABLE_ROW", "md_parent_section": "§RE.2 [Example 2]", "md_verbatim": "| 3 | XYZ | RE | XYZ-001-001 | RESEQ | 4 | REIRREA1 | Inadequate Result Reason 1 | COUGHING WAS DETECTED IN THE FIRST PART OF THE EXPIRATION | CRF | |", "score": 0.4303, "match_basis": "verbatim_token+domain_route:RE"}, {"md_atom_id": "md_dmRE_ex_a013", "md_file": "knowledge_base/domains/RE/examples.md", "md_atom_type": "TABLE_ROW", "md_parent_section": "§RE.1 [Example 1]", "md_verbatim": "| 4 | XYZ | RE | XYZ-001-001 | ABC001 | 4 | FVCPP | Percent Predicted Forced Vital Capacity | 101.3 | % | | ... | 2 | VISIT 2 | 2013-06-30 |", "score": 0.4209, "match_basis": "verbatim_token+domain_route:RE"}, {"md_atom_id": "md_dmRE_ex_a012", "md_file": "knowledge_base/domains/RE/examples.md", "md_atom_type": "TABLE_ROW", "md_parent_section": "§RE.1 [Example 1]", "md_verbatim": "| 3 | XYZ | RE | XYZ-001-001 | ABC001 | 3 | FEV1PP | Percent Predicted FEV1 | 81 | % | | ... | 2 | VISIT 2 | 2013-06-30 |", "score": 0.416, "match_basis": "verbatim_token+domain_route:RE"}, {"md_atom_id": "md_dmRE_ex_a010", "md_file": "knowledge_base/domains/RE/examples.md", "md_atom_type": "TABLE_ROW", "md_parent_section": "§RE.1 [Example 1]", "md_verbatim": "| 1 | XYZ | RE | XYZ-001-001 | ABC001 | 1 | FEV1 | Forced Expiratory Volume in 1 Second | 2.73 | L | 3.37 | ... | 2 | VISIT 2 | 2013-06-30 |", "score": 0.4148, "match_basis": "verbatim_token+domain_route:RE"}, {"md_atom_id": "md_dmRE_ex_a030", "md_file": "knowledge_base/domains/RE/examples.md", "md_atom_type": "TABLE_ROW", "md_parent_section": "§RE.2 [Example 2]", "md_verbatim": "| 1 | XYZ | RE | XYZ-001-001 | ABC001 | 1 | FEV1 | Forced Expiratory Volume in 1 Second | 1.94 | L | 1.94 | L | 1 | 2 | VISIT 2 | 2013-04-23 |", "score": 0.4148, "match_basis": "verbatim_token+domain_route:RE"}], "candidate_count": 5, "zero_candidate": false}
{"pdf_atom_id": "ig34_p0309_a020", "pdf_atom_type": "TABLE_ROW", "pdf_source": "SDTMIG_v3.4", "pdf_page": 309, "pdf_parent_section": "§6.3.7.7 Respiratory System Findings (RE)", "pdf_verbatim": "| EPOCH | Epoch | Char | (EPOCH) | Timing | Epoch associated with the date/time at which the assessment was made. | Perm |", "figure_ref": null, "candidates": [{"md_atom_id": "md_dmRE_ex_a041", "md_file": "knowledge_base/domains/RE/examples.md", "md_atom_type": "TABLE_ROW", "md_parent_section": "§RE.2 [Example 2]", "md_verbatim": "| 3 | XYZ | RE | XYZ-001-001 | RESEQ | 4 | REIRREA1 | Inadequate Result Reason 1 | COUGHING WAS DETECTED IN THE FIRST PART OF THE EXPIRATION | CRF | |", "score": 0.4429, "match_basis": "verbatim_token+domain_route:RE"}, {"md_atom_id": "md_dmRE_ex_a012", "md_file": "knowledge_base/domains/RE/examples.md", "md_atom_type": "TABLE_ROW", "md_parent_section": "§RE.1 [Example 1]", "md_verbatim": "| 3 | XYZ | RE | XYZ-001-001 | ABC001 | 3 | FEV1PP | Percent Predicted FEV1 | 81 | % | | ... | 2 | VISIT 2 | 2013-06-30 |", "score": 0.43, "match_basis": "verbatim_token+domain_route:RE"}, {"md_atom_id": "md_dmRE_ex_a013", "md_file": "knowledge_base/domains/RE/examples.md", "md_atom_type": "TABLE_ROW", "md_parent_section": "§RE.1 [Example 1]", "md_verbatim": "| 4 | XYZ | RE | XYZ-001-001 | ABC001 | 4 | FVCPP | Percent Predicted Forced Vital Capacity | 101.3 | % | | ... | 2 | VISIT 2 | 2013-06-30 |", "score": 0.425, "match_basis": "verbatim_token+domain_route:RE"}, {"md_atom_id": "md_dmRE_ex_a040", "md_file": "knowledge_base/domains/RE/examples.md", "md_atom_type": "TABLE_ROW", "md_parent_section": "§RE.2 [Example 2]", "md_verbatim": "| 2 | XYZ | RE | XYZ-001-001 | RESEQ | 4 | REIRESFL | Inadequate Results Flag | Y | CRF | |", "score": 0.42, "match_basis": "verbatim_token+domain_route:RE"}, {"md_atom_id": "md_dmRE_ex_a042", "md_file": "knowledge_base/domains/RE/examples.md", "md_atom_type": "TABLE_ROW", "md_parent_section": "§RE.2 [Example 2]", "md_verbatim": "| 4 | XYZ | RE | XYZ-001-001 | RESEQ | 4 | REIRREA2 | Inadequate Result Reason 2 | FEV1 REPEATABILITY IS UNACCEPTABLE | CRF | |", "score": 0.4145, "match_basis": "verbatim_token+domain_route:RE"}], "candidate_count": 5, "zero_candidate": false}
{"pdf_atom_id": "ig34_p0309_a021", "pdf_atom_type": "TABLE_ROW", "pdf_source": "SDTMIG_v3.4", "pdf_page": 309, "pdf_parent_section": "§6.3.7.7 Respiratory System Findings (RE)", "pdf_verbatim": "| REDTC | Date/Time of Collection | Char | ISO 8601 datetime or interval | Timing | Date/time of procedure or test. | Exp |", "figure_ref": null, "candidates": [{"md_atom_id": "md_dmRE_ex_a041", "md_file": "knowledge_base/domains/RE/examples.md", "md_atom_type": "TABLE_ROW", "md_parent_section": "§RE.2 [Example 2]", "md_verbatim": "| 3 | XYZ | RE | XYZ-001-001 | RESEQ | 4 | REIRREA1 | Inadequate Result Reason 1 | COUGHING WAS DETECTED IN THE FIRST PART OF THE EXPIRATION | CRF | |", "score": 0.4409, "match_basis": "verbatim_token+domain_route:RE"}, {"md_atom_id": "md_dmRE_ex_a023", "md_file": "knowledge_base/domains/RE/examples.md", "md_atom_type": "TABLE_ROW", "md_parent_section": "§RE.1 [Example 1]", "md_verbatim": "| 1 | XYZ | DU | | ABC001 | 1 | SPIREFEQ | Spirometric Reference Equation | NATIONAL HEALTH NUTRITION EXAMINATION SURVEY (NHANES) III |", "score": 0.4196, "match_basis": "verbatim_token+domain_route:RE"}, {"md_atom_id": "md_dmRE_ex_a010", "md_file": "knowledge_base/domains/RE/examples.md", "md_atom_type": "TABLE_ROW", "md_parent_section": "§RE.1 [Example 1]", "md_verbatim": "| 1 | XYZ | RE | XYZ-001-001 | ABC001 | 1 | FEV1 | Forced Expiratory Volume in 1 Second | 2.73 | L | 3.37 | ... | 2 | VISIT 2 | 2013-06-30 |", "score": 0.4169, "match_basis": "verbatim_token+domain_route:RE"}, {"md_atom_id": "md_dmRE_ex_a030", "md_file": "knowledge_base/domains/RE/examples.md", "md_atom_type": "TABLE_ROW", "md_parent_section": "§RE.2 [Example 2]", "md_verbatim": "| 1 | XYZ | RE | XYZ-001-001 | ABC001 | 1 | FEV1 | Forced Expiratory Volume in 1 Second | 1.94 | L | 1.94 | L | 1 | 2 | VISIT 2 | 2013-04-23 |", "score": 0.4169, "match_basis": "verbatim_token+domain_route:RE"}, {"md_atom_id": "md_dmRE_ex_a031", "md_file": "knowledge_base/domains/RE/examples.md", "md_atom_type": "TABLE_ROW", "md_parent_section": "§RE.2 [Example 2]", "md_verbatim": "| 2 | XYZ | RE | XYZ-001-001 | ABC001 | 2 | FEV1 | Forced Expiratory Volume in 1 Second | 1.88 | L | 1.88 | L | 2 | 2 | VISIT 2 | 2013-04-23 |", "score": 0.4169, "match_basis": "verbatim_token+domain_route:RE"}], "candidate_count": 5, "zero_candidate": false}
{"pdf_atom_id": "ig34_p0309_a022", "pdf_atom_type": "TABLE_ROW", "pdf_source": "SDTMIG_v3.4", "pdf_page": 309, "pdf_parent_section": "§6.3.7.7 Respiratory System Findings (RE)", "pdf_verbatim": "| REDY | Study Day of Visit/Collection/Exam | Num | | Timing | Actual study day of visit/collection/exam expressed in integer days relative to the sponsor-defined RFSTDTC in Demographics. | Perm |", "figure_ref": null, "candidates": [{"md_atom_id": "md_dmRE_ex_a041", "md_file": "knowledge_base/domains/RE/examples.md", "md_atom_type": "TABLE_ROW", "md_parent_section": "§RE.2 [Example 2]", "md_verbatim": "| 3 | XYZ | RE | XYZ-001-001 | RESEQ | 4 | REIRREA1 | Inadequate Result Reason 1 | COUGHING WAS DETECTED IN THE FIRST PART OF THE EXPIRATION | CRF | |", "score": 0.44, "match_basis": "verbatim_token+domain_route:RE"}, {"md_atom_id": "md_dmRE_ex_a012", "md_file": "knowledge_base/domains/RE/examples.md", "md_atom_type": "TABLE_ROW", "md_parent_section": "§RE.1 [Example 1]", "md_verbatim": "| 3 | XYZ | RE | XYZ-001-001 | ABC001 | 3 | FEV1PP | Percent Predicted FEV1 | 81 | % | | ... | 2 | VISIT 2 | 2013-06-30 |", "score": 0.4379, "match_basis": "verbatim_token+domain_route:RE"}, {"md_atom_id": "md_dmRE_ex_a013", "md_file": "knowledge_base/domains/RE/examples.md", "md_atom_type": "TABLE_ROW", "md_parent_section": "§RE.1 [Example 1]", "md_verbatim": "| 4 | XYZ | RE | XYZ-001-001 | ABC001 | 4 | FVCPP | Percent Predicted Forced Vital Capacity | 101.3 | % | | ... | 2 | VISIT 2 | 2013-06-30 |", "score": 0.4336, "match_basis": "verbatim_token+domain_route:RE"}, {"md_atom_id": "md_dmRE_ex_a014", "md_file": "knowledge_base/domains/RE/examples.md", "md_atom_type": "TABLE_ROW", "md_parent_section": "§RE.1 [Example 1]", "md_verbatim": "| 5 | XYZ | RE | XYZ-001-001 | DEF999 | 5 | PEF | Peak Expiratory Flow | 6.11 | L/s | 7.33 | ... | 4 | VISIT 4 | 2013-07-17 |", "score": 0.4319, "match_basis": "verbatim_token+domain_route:RE"}, {"md_atom_id": "md_dmRE_ex_a023", "md_file": "knowledge_base/domains/RE/examples.md", "md_atom_type": "TABLE_ROW", "md_parent_section": "§RE.1 [Example 1]", "md_verbatim": "| 1 | XYZ | DU | | ABC001 | 1 | SPIREFEQ | Spirometric Reference Equation | NATIONAL HEALTH NUTRITION EXAMINATION SURVEY (NHANES) III |", "score": 0.4293, "match_basis": "verbatim_token+domain_route:RE"}], "candidate_count": 5, "zero_candidate": false}
{"pdf_atom_id": "ig34_p0309_a023", "pdf_atom_type": "TABLE_ROW", "pdf_source": "SDTMIG_v3.4", "pdf_page": 309, "pdf_parent_section": "§6.3.7.7 Respiratory System Findings (RE)", "pdf_verbatim": "| RETPT | Planned Time Point Name | Char | | Timing | Text description of time when a measurement or observation should be taken as defined in the protocol. This may be represented as an elapsed time relative to a fixed reference point (e.g., \"TIME OF LAST DOSE\"). See RETPTNUM and RETPTREF. Examples: \"START\", \"5 MINUTES POST\". | Perm |", "figure_ref": null, "candidates": [{"md_atom_id": "md_dmRE_ex_a023", "md_file": "knowledge_base/domains/RE/examples.md", "md_atom_type": "TABLE_ROW", "md_parent_section": "§RE.1 [Example 1]", "md_verbatim": "| 1 | XYZ | DU | | ABC001 | 1 | SPIREFEQ | Spirometric Reference Equation | NATIONAL HEALTH NUTRITION EXAMINATION SURVEY (NHANES) III |", "score": 0.4549, "match_basis": "verbatim_token+domain_route:RE"}, {"md_atom_id": "md_dmRE_ex_a041", "md_file": "knowledge_base/domains/RE/examples.md", "md_atom_type": "TABLE_ROW", "md_parent_section": "§RE.2 [Example 2]", "md_verbatim": "| 3 | XYZ | RE | XYZ-001-001 | RESEQ | 4 | REIRREA1 | Inadequate Result Reason 1 | COUGHING WAS DETECTED IN THE FIRST PART OF THE EXPIRATION | CRF | |", "score": 0.4357, "match_basis": "verbatim_token+domain_route:RE"}, {"md_atom_id": "md_dmRE_ex_a012", "md_file": "knowledge_base/domains/RE/examples.md", "md_atom_type": "TABLE_ROW", "md_parent_section": "§RE.1 [Example 1]", "md_verbatim": "| 3 | XYZ | RE | XYZ-001-001 | ABC001 | 3 | FEV1PP | Percent Predicted FEV1 | 81 | % | | ... | 2 | VISIT 2 | 2013-06-30 |", "score": 0.4163, "match_basis": "verbatim_token+domain_route:RE"}, {"md_atom_id": "md_dmRE_ex_a013", "md_file": "knowledge_base/domains/RE/examples.md", "md_atom_type": "TABLE_ROW", "md_parent_section": "§RE.1 [Example 1]", "md_verbatim": "| 4 | XYZ | RE | XYZ-001-001 | ABC001 | 4 | FVCPP | Percent Predicted Forced Vital Capacity | 101.3 | % | | ... | 2 | VISIT 2 | 2013-06-30 |", "score": 0.4151, "match_basis": "verbatim_token+domain_route:RE"}, {"md_atom_id": "md_dmRE_ex_a042", "md_file": "knowledge_base/domains/RE/examples.md", "md_atom_type": "TABLE_ROW", "md_parent_section": "§RE.2 [Example 2]", "md_verbatim": "| 4 | XYZ | RE | XYZ-001-001 | RESEQ | 4 | REIRREA2 | Inadequate Result Reason 2 | FEV1 REPEATABILITY IS UNACCEPTABLE | CRF | |", "score": 0.4142, "match_basis": "verbatim_token+domain_route:RE"}], "candidate_count": 5, "zero_candidate": false}
{"pdf_atom_id": "ig34_p0310_a001", "pdf_atom_type": "TABLE_ROW", "pdf_source": "SDTMIG_v3.4", "pdf_page": 310, "pdf_parent_section": "§6.3.7.7 Respiratory System Findings (RE)", "pdf_verbatim": "| RETPTNUM | Planned Time Point Number | Num | | Timing | Numeric version of RETPT to aid in sorting. | Perm |", "figure_ref": null, "candidates": [{"md_atom_id": "md_dmRE_ex_a023", "md_file": "knowledge_base/domains/RE/examples.md", "md_atom_type": "TABLE_ROW", "md_parent_section": "§RE.1 [Example 1]", "md_verbatim": "| 1 | XYZ | DU | | ABC001 | 1 | SPIREFEQ | Spirometric Reference Equation | NATIONAL HEALTH NUTRITION EXAMINATION SURVEY (NHANES) III |", "score": 0.4202, "match_basis": "verbatim_token+domain_route:RE"}, {"md_atom_id": "md_dmRE_ex_a041", "md_file": "knowledge_base/domains/RE/examples.md", "md_atom_type": "TABLE_ROW", "md_parent_section": "§RE.2 [Example 2]", "md_verbatim": "| 3 | XYZ | RE | XYZ-001-001 | RESEQ | 4 | REIRREA1 | Inadequate Result Reason 1 | COUGHING WAS DETECTED IN THE FIRST PART OF THE EXPIRATION | CRF | |", "score": 0.4135, "match_basis": "verbatim_token+domain_route:RE"}, {"md_atom_id": "md_dmRE_ex_a012", "md_file": "knowledge_base/domains/RE/examples.md", "md_atom_type": "TABLE_ROW", "md_parent_section": "§RE.1 [Example 1]", "md_verbatim": "| 3 | XYZ | RE | XYZ-001-001 | ABC001 | 3 | FEV1PP | Percent Predicted FEV1 | 81 | % | | ... | 2 | VISIT 2 | 2013-06-30 |", "score": 0.4095, "match_basis": "verbatim_token+domain_route:RE"}, {"md_atom_id": "md_dmRE_ex_a010", "md_file": "knowledge_base/domains/RE/examples.md", "md_atom_type": "TABLE_ROW", "md_parent_section": "§RE.1 [Example 1]", "md_verbatim": "| 1 | XYZ | RE | XYZ-001-001 | ABC001 | 1 | FEV1 | Forced Expiratory Volume in 1 Second | 2.73 | L | 3.37 | ... | 2 | VISIT 2 | 2013-06-30 |", "score": 0.4087, "match_basis": "verbatim_token+domain_route:RE"}, {"md_atom_id": "md_dmRE_ex_a030", "md_file": "knowledge_base/domains/RE/examples.md", "md_atom_type": "TABLE_ROW", "md_parent_section": "§RE.2 [Example 2]", "md_verbatim": "| 1 | XYZ | RE | XYZ-001-001 | ABC001 | 1 | FEV1 | Forced Expiratory Volume in 1 Second | 1.94 | L | 1.94 | L | 1 | 2 | VISIT 2 | 2013-04-23 |", "score": 0.4087, "match_basis": "verbatim_token+domain_route:RE"}], "candidate_count": 5, "zero_candidate": false}
{"pdf_atom_id": "ig34_p0310_a002", "pdf_atom_type": "TABLE_ROW", "pdf_source": "SDTMIG_v3.4", "pdf_page": 310, "pdf_parent_section": "§6.3.7.7 Respiratory System Findings (RE)", "pdf_verbatim": "| REELTM | Planned Elapsed Time from Time Point Ref | Char | ISO 8601 duration | Timing | Planned elapsed time relative to a planned fixed reference (RETPTREF). Not a clock time or a date/time variable, but an interval, represented as ISO duration. Examples: \"-PT15M\" to represent 15 minutes prior to the reference time point indicated by RETPTREF, \"PT8H\" to represent 8 hours after the reference time point represented by RETPTREF. | Perm |", "figure_ref": null, "candidates": [{"md_atom_id": "md_dmRE_ex_a023", "md_file": "knowledge_base/domains/RE/examples.md", "md_atom_type": "TABLE_ROW", "md_parent_section": "§RE.1 [Example 1]", "md_verbatim": "| 1 | XYZ | DU | | ABC001 | 1 | SPIREFEQ | Spirometric Reference Equation | NATIONAL HEALTH NUTRITION EXAMINATION SURVEY (NHANES) III |", "score": 0.46, "match_basis": "verbatim_token+domain_route:RE"}, {"md_atom_id": "md_dmRE_ex_a041", "md_file": "knowledge_base/domains/RE/examples.md", "md_atom_type": "TABLE_ROW", "md_parent_section": "§RE.2 [Example 2]", "md_verbatim": "| 3 | XYZ | RE | XYZ-001-001 | RESEQ | 4 | REIRREA1 | Inadequate Result Reason 1 | COUGHING WAS DETECTED IN THE FIRST PART OF THE EXPIRATION | CRF | |", "score": 0.439, "match_basis": "verbatim_token+domain_route:RE"}, {"md_atom_id": "md_dmRE_ex_a042", "md_file": "knowledge_base/domains/RE/examples.md", "md_atom_type": "TABLE_ROW", "md_parent_section": "§RE.2 [Example 2]", "md_verbatim": "| 4 | XYZ | RE | XYZ-001-001 | RESEQ | 4 | REIRREA2 | Inadequate Result Reason 2 | FEV1 REPEATABILITY IS UNACCEPTABLE | CRF | |", "score": 0.4235, "match_basis": "verbatim_token+domain_route:RE"}, {"md_atom_id": "md_dmRE_ex_a012", "md_file": "knowledge_base/domains/RE/examples.md", "md_atom_type": "TABLE_ROW", "md_parent_section": "§RE.1 [Example 1]", "md_verbatim": "| 3 | XYZ | RE | XYZ-001-001 | ABC001 | 3 | FEV1PP | Percent Predicted FEV1 | 81 | % | | ... | 2 | VISIT 2 | 2013-06-30 |", "score": 0.4227, "match_basis": "verbatim_token+domain_route:RE"}, {"md_atom_id": "md_dmRE_ex_a013", "md_file": "knowledge_base/domains/RE/examples.md", "md_atom_type": "TABLE_ROW", "md_parent_section": "§RE.1 [Example 1]", "md_verbatim": "| 4 | XYZ | RE | XYZ-001-001 | ABC001 | 4 | FVCPP | Percent Predicted Forced Vital Capacity | 101.3 | % | | ... | 2 | VISIT 2 | 2013-06-30 |", "score": 0.4208, "match_basis": "verbatim_token+domain_route:RE"}], "candidate_count": 5, "zero_candidate": false}
{"pdf_atom_id": "ig34_p0310_a003", "pdf_atom_type": "TABLE_ROW", "pdf_source": "SDTMIG_v3.4", "pdf_page": 310, "pdf_parent_section": "§6.3.7.7 Respiratory System Findings (RE)", "pdf_verbatim": "| RETPTREF | Time Point Reference | Char | | Timing | Description of the fixed reference point referred to by REELTM, RETPTNUM, and RETPT. Examples: \"PREVIOUS DOSE\", \"PREVIOUS MEAL\". | Perm |", "figure_ref": null, "candidates": [{"md_atom_id": "md_dmRE_ex_a023", "md_file": "knowledge_base/domains/RE/examples.md", "md_atom_type": "TABLE_ROW", "md_parent_section": "§RE.1 [Example 1]", "md_verbatim": "| 1 | XYZ | DU | | ABC001 | 1 | SPIREFEQ | Spirometric Reference Equation | NATIONAL HEALTH NUTRITION EXAMINATION SURVEY (NHANES) III |", "score": 0.4743, "match_basis": "verbatim_token+domain_route:RE"}, {"md_atom_id": "md_dmRE_ex_a041", "md_file": "knowledge_base/domains/RE/examples.md", "md_atom_type": "TABLE_ROW", "md_parent_section": "§RE.2 [Example 2]", "md_verbatim": "| 3 | XYZ | RE | XYZ-001-001 | RESEQ | 4 | REIRREA1 | Inadequate Result Reason 1 | COUGHING WAS DETECTED IN THE FIRST PART OF THE EXPIRATION | CRF | |", "score": 0.4268, "match_basis": "verbatim_token+domain_route:RE"}, {"md_atom_id": "md_dmRE_ex_a012", "md_file": "knowledge_base/domains/RE/examples.md", "md_atom_type": "TABLE_ROW", "md_parent_section": "§RE.1 [Example 1]", "md_verbatim": "| 3 | XYZ | RE | XYZ-001-001 | ABC001 | 3 | FEV1PP | Percent Predicted FEV1 | 81 | % | | ... | 2 | VISIT 2 | 2013-06-30 |", "score": 0.4207, "match_basis": "verbatim_token+domain_route:RE"}, {"md_atom_id": "md_dmRE_ex_a013", "md_file": "knowledge_base/domains/RE/examples.md", "md_atom_type": "TABLE_ROW", "md_parent_section": "§RE.1 [Example 1]", "md_verbatim": "| 4 | XYZ | RE | XYZ-001-001 | ABC001 | 4 | FVCPP | Percent Predicted Forced Vital Capacity | 101.3 | % | | ... | 2 | VISIT 2 | 2013-06-30 |", "score": 0.4182, "match_basis": "verbatim_token+domain_route:RE"}, {"md_atom_id": "md_dmRE_ex_a019", "md_file": "knowledge_base/domains/RE/examples.md", "md_atom_type": "TABLE_ROW", "md_parent_section": "§RE.1 [Example 1]", "md_verbatim": "| 2 | XYZ | DI | DEF999 | 1 | DEVTYPE | Device Type | PEAK FLOW METER |", "score": 0.4072, "match_basis": "verbatim_token+domain_route:RE"}], "candidate_count": 5, "zero_candidate": false}
{"pdf_atom_id": "ig34_p0310_a004", "pdf_atom_type": "TABLE_ROW", "pdf_source": "SDTMIG_v3.4", "pdf_page": 310, "pdf_parent_section": "§6.3.7.7 Respiratory System Findings (RE)", "pdf_verbatim": "| RERFTDTC | Date/Time of Reference Time Point | Char | ISO 8601 datetime or interval | Timing | Date/time for a fixed reference time point defined by RETPTREF. | Perm |", "figure_ref": null, "candidates": [{"md_atom_id": "md_dmRE_ex_a023", "md_file": "knowledge_base/domains/RE/examples.md", "md_atom_type": "TABLE_ROW", "md_parent_section": "§RE.1 [Example 1]", "md_verbatim": "| 1 | XYZ | DU | | ABC001 | 1 | SPIREFEQ | Spirometric Reference Equation | NATIONAL HEALTH NUTRITION EXAMINATION SURVEY (NHANES) III |", "score": 0.4495, "match_basis": "verbatim_token+domain_route:RE"}, {"md_atom_id": "md_dmRE_ex_a019", "md_file": "knowledge_base/domains/RE/examples.md", "md_atom_type": "TABLE_ROW", "md_parent_section": "§RE.1 [Example 1]", "md_verbatim": "| 2 | XYZ | DI | DEF999 | 1 | DEVTYPE | Device Type | PEAK FLOW METER |", "score": 0.4174, "match_basis": "verbatim_token+domain_route:RE"}, {"md_atom_id": "md_dmRE_ex_a013", "md_file": "knowledge_base/domains/RE/examples.md", "md_atom_type": "TABLE_ROW", "md_parent_section": "§RE.1 [Example 1]", "md_verbatim": "| 4 | XYZ | RE | XYZ-001-001 | ABC001 | 4 | FVCPP | Percent Predicted Forced Vital Capacity | 101.3 | % | | ... | 2 | VISIT 2 | 2013-06-30 |", "score": 0.4138, "match_basis": "verbatim_token+domain_route:RE"}, {"md_atom_id": "md_dmRE_ex_a041", "md_file": "knowledge_base/domains/RE/examples.md", "md_atom_type": "TABLE_ROW", "md_parent_section": "§RE.2 [Example 2]", "md_verbatim": "| 3 | XYZ | RE | XYZ-001-001 | RESEQ | 4 | REIRREA1 | Inadequate Result Reason 1 | COUGHING WAS DETECTED IN THE FIRST PART OF THE EXPIRATION | CRF | |", "score": 0.4118, "match_basis": "verbatim_token+domain_route:RE"}, {"md_atom_id": "md_dmRE_ex_a018", "md_file": "knowledge_base/domains/RE/examples.md", "md_atom_type": "TABLE_ROW", "md_parent_section": "§RE.1 [Example 1]", "md_verbatim": "| 1 | XYZ | DI | ABC001 | 1 | DEVTYPE | Device Type | SPIROMETER |", "score": 0.4085, "match_basis": "verbatim_token+domain_route:RE"}], "candidate_count": 5, "zero_candidate": false}
{"pdf_atom_id": "ig34_p0310_a005", "pdf_atom_type": "NOTE", "pdf_source": "SDTMIG_v3.4", "pdf_page": 310, "pdf_parent_section": "§6.3.7.7 Respiratory System Findings (RE)", "pdf_verbatim": "1In this column, an asterisk (*) indicates that the variable may be subject to controlled terminology. CDISC/NCI codelist values are enclosed in parentheses.", "figure_ref": null, "candidates": [{"md_atom_id": "md_dmRE_ex_a036", "md_file": "knowledge_base/domains/RE/examples.md", "md_atom_type": "SENTENCE", "md_parent_section": "§RE.2 [Example 2]", "md_verbatim": "**Rows 2-4:** The presence of a flag, IRESFL, indicates that the data were inadequate. The 2 reasons why this was the case are represented by QNAM=\"IRREA1\" and \"IREEA2\".", "score": 0.388, "match_basis": "verbatim_token+domain_route:RE"}, {"md_atom_id": "md_dmRE_ex_a025", "md_file": "knowledge_base/domains/RE/examples.md", "md_atom_type": "SENTENCE", "md_parent_section": "§RE.2 [Example 2]", "md_verbatim": "In this example, a subject made 4 attempts at the FEV1 pulmonary function test, and data about all attempts were collected. It is standard practice for multiple attempts to be made, and for the best result to be used in analyses. In this example, the spirometry report included an indicator of which was the best result. The spirometry report also included an indicator that 1 of the attempts was considered to have produced an inadequate result, with the reasons the result was considered inadequate.", "score": 0.3831, "match_basis": "verbatim_token+domain_route:RE"}, {"md_atom_id": "md_dmRE_ex_a006", "md_file": "knowledge_base/domains/RE/examples.md", "md_atom_type": "SENTENCE", "md_parent_section": "§RE.1 [Example 1]", "md_verbatim": "**Rows 3-4:** Show the results for FEV1 and FVC as percentages of the predicted values. This result is output by the spirometer device, not derived by the sponsor. REORREF is null as there are no reference results for percent predicted tests.", "score": 0.3716, "match_basis": "verbatim_token+domain_route:RE"}, {"md_atom_id": "md_dmRE_ex_a020", "md_file": "knowledge_base/domains/RE/examples.md", "md_atom_type": "SENTENCE", "md_parent_section": "§RE.1 [Example 1]", "md_verbatim": "The DU domain shows settings used on the devices with identifier \"ABC001\". The device was set to use the NHANES III reference equation. Because this setting was the same for all uses of the device for all subjects, USUBJID is null.", "score": 0.3649, "match_basis": "verbatim_token+domain_route:RE"}, {"md_atom_id": "md_dmRE_ex_a003", "md_file": "knowledge_base/domains/RE/examples.md", "md_atom_type": "SENTENCE", "md_parent_section": "§RE.1 [Example 1]", "md_verbatim": "This example shows results from several spirometry tests using either a spirometer or a peak flow meter. When spirometry tests are performed, the subject usually makes several efforts, each of which produces results, but only the best result for each test is used in analyses. In this study, the sponsor collected only the best results. The Device Identifiers (DI) domain was submitted for device identification, and the Device in Use (DU) domain was submitted to provide information about the use of the device.", "score": 0.3645, "match_basis": "verbatim_token+domain_route:RE"}], "candidate_count": 5, "zero_candidate": false}
{"pdf_atom_id": "ig34_p0310_a006", "pdf_atom_type": "HEADING", "pdf_source": "SDTMIG_v3.4", "pdf_page": 310, "pdf_parent_section": "§6.3.7.7 Respiratory System Findings (RE)", "pdf_verbatim": "RE – Assumptions", "figure_ref": null, "candidates": [{"md_atom_id": "md_dmRE_assn_a001", "md_file": "knowledge_base/domains/RE/assumptions.md", "md_atom_type": "HEADING", "md_parent_section": "§RE [RE — Assumptions]", "md_verbatim": "# RE — Assumptions", "score": 1.0, "match_basis": "verbatim_token+domain_route:RE"}, {"md_atom_id": "md_dmRE_ex_a001", "md_file": "knowledge_base/domains/RE/examples.md", "md_atom_type": "HEADING", "md_parent_section": "§RE [RE — Examples]", "md_verbatim": "# RE — Examples", "score": 0.4, "match_basis": "verbatim_token+domain_route:RE"}, {"md_atom_id": "md_dmRE_ex_a002", "md_file": "knowledge_base/domains/RE/examples.md", "md_atom_type": "HEADING", "md_parent_section": "§RE [RE — Examples]", "md_verbatim": "## Example 1", "score": 0.4, "match_basis": "verbatim_token+domain_route:RE"}, {"md_atom_id": "md_dmRE_ex_a024", "md_file": "knowledge_base/domains/RE/examples.md", "md_atom_type": "HEADING", "md_parent_section": "§RE [RE — Examples]", "md_verbatim": "## Example 2", "score": 0.4, "match_basis": "verbatim_token+domain_route:RE"}], "candidate_count": 4, "zero_candidate": false}
{"pdf_atom_id": "ig34_p0310_a007", "pdf_atom_type": "LIST_ITEM", "pdf_source": "SDTMIG_v3.4", "pdf_page": 310, "pdf_parent_section": "§6.3.7.7 Respiratory System Findings (RE)", "pdf_verbatim": "The Respiratory System Findings domain is used to represent the results/findings of respiratory diagnostic procedures (e.g., spirometry). Information about the conduct of the procedure(s), if collected, should be submitted in the Procedures (PR) domain.", "figure_ref": null, "candidates": [{"md_atom_id": "md_dmRE_assn_a002", "md_file": "knowledge_base/domains/RE/assumptions.md", "md_atom_type": "LIST_ITEM", "md_parent_section": "§RE [RE — Assumptions]", "md_verbatim": "1. The Respiratory System Findings domain is used to represent the results/findings of respiratory diagnostic procedures (e.g., spirometry). Information about the conduct of the procedure(s), if collected, should be submitted in the Procedures (PR) domain.", "score": 1.0, "match_basis": "verbatim_token+domain_route:RE"}, {"md_atom_id": "md_dmRE_assn_a003", "md_file": "knowledge_base/domains/RE/assumptions.md", "md_atom_type": "LIST_ITEM", "md_parent_section": "§RE [RE — Assumptions]", "md_verbatim": "2. Many respiratory assessments require the use of a device. When data about the device used for an assessment or additional information about its use in the assessment are collected, SPDEVID should be included in the record. See the SDTMIG for Medical Devices (SDTMIG-MD, available at https://www.cdisc.org/standards/foundational/medical-devices-sdtmig/) for further information about SPDEVID and the Device domains.", "score": 0.5364, "match_basis": "verbatim_token+domain_route:RE"}, {"md_atom_id": "md_dmRE_assn_a004", "md_file": "knowledge_base/domains/RE/assumptions.md", "md_atom_type": "LIST_ITEM", "md_parent_section": "§RE [RE — Assumptions]", "md_verbatim": "3. Any Identifier, Timing variables, or Findings general observation class qualifiers may be added to the RE domain, but the following qualifiers would generally not be used: --MODIFY, --BODSYS, and --FAST.", "score": 0.4829, "match_basis": "verbatim_token+domain_route:RE"}, {"md_atom_id": "md_dmRE_ex_a003", "md_file": "knowledge_base/domains/RE/examples.md", "md_atom_type": "SENTENCE", "md_parent_section": "§RE.1 [Example 1]", "md_verbatim": "This example shows results from several spirometry tests using either a spirometer or a peak flow meter. When spirometry tests are performed, the subject usually makes several efforts, each of which produces results, but only the best result for each test is used in analyses. In this study, the sponsor collected only the best results. The Device Identifiers (DI) domain was submitted for device identification, and the Device in Use (DU) domain was submitted to provide information about the use of the device.", "score": 0.4679, "match_basis": "verbatim_token+domain_route:RE"}, {"md_atom_id": "md_dmRE_ex_a025", "md_file": "knowledge_base/domains/RE/examples.md", "md_atom_type": "SENTENCE", "md_parent_section": "§RE.2 [Example 2]", "md_verbatim": "In this example, a subject made 4 attempts at the FEV1 pulmonary function test, and data about all attempts were collected. It is standard practice for multiple attempts to be made, and for the best result to be used in analyses. In this example, the spirometry report included an indicator of which was the best result. The spirometry report also included an indicator that 1 of the attempts was considered to have produced an inadequate result, with the reasons the result was considered inadequate.", "score": 0.4381, "match_basis": "verbatim_token+domain_route:RE"}], "candidate_count": 5, "zero_candidate": false}
{"pdf_atom_id": "ig34_p0310_a008", "pdf_atom_type": "LIST_ITEM", "pdf_source": "SDTMIG_v3.4", "pdf_page": 310, "pdf_parent_section": "§6.3.7.7 Respiratory System Findings (RE)", "pdf_verbatim": "Many respiratory assessments require the use of a device. When data about the device used for an assessment or additional information about its use in the assessment are collected, SPDEVID should be included in the record. See the SDTMIG for Medical Devices (SDTMIG-MD, available at https://www.cdisc.org/standards/foundational/medical-devices-sdtmig/) for further information about SPDEVID and the Device domains.", "figure_ref": null, "candidates": [{"md_atom_id": "md_dmRE_assn_a003", "md_file": "knowledge_base/domains/RE/assumptions.md", "md_atom_type": "LIST_ITEM", "md_parent_section": "§RE [RE — Assumptions]", "md_verbatim": "2. Many respiratory assessments require the use of a device. When data about the device used for an assessment or additional information about its use in the assessment are collected, SPDEVID should be included in the record. See the SDTMIG for Medical Devices (SDTMIG-MD, available at https://www.cdisc.org/standards/foundational/medical-devices-sdtmig/) for further information about SPDEVID and the Device domains.", "score": 1.0, "match_basis": "verbatim_token+domain_route:RE"}, {"md_atom_id": "md_dmRE_assn_a002", "md_file": "knowledge_base/domains/RE/assumptions.md", "md_atom_type": "LIST_ITEM", "md_parent_section": "§RE [RE — Assumptions]", "md_verbatim": "1. The Respiratory System Findings domain is used to represent the results/findings of respiratory diagnostic procedures (e.g., spirometry). Information about the conduct of the procedure(s), if collected, should be submitted in the Procedures (PR) domain.", "score": 0.5364, "match_basis": "verbatim_token+domain_route:RE"}, {"md_atom_id": "md_dmRE_assn_a004", "md_file": "knowledge_base/domains/RE/assumptions.md", "md_atom_type": "LIST_ITEM", "md_parent_section": "§RE [RE — Assumptions]", "md_verbatim": "3. Any Identifier, Timing variables, or Findings general observation class qualifiers may be added to the RE domain, but the following qualifiers would generally not be used: --MODIFY, --BODSYS, and --FAST.", "score": 0.4677, "match_basis": "verbatim_token+domain_route:RE"}, {"md_atom_id": "md_dmRE_ex_a003", "md_file": "knowledge_base/domains/RE/examples.md", "md_atom_type": "SENTENCE", "md_parent_section": "§RE.1 [Example 1]", "md_verbatim": "This example shows results from several spirometry tests using either a spirometer or a peak flow meter. When spirometry tests are performed, the subject usually makes several efforts, each of which produces results, but only the best result for each test is used in analyses. In this study, the sponsor collected only the best results. The Device Identifiers (DI) domain was submitted for device identification, and the Device in Use (DU) domain was submitted to provide information about the use of the device.", "score": 0.4311, "match_basis": "verbatim_token+domain_route:RE"}, {"md_atom_id": "md_dmRE_ex_a025", "md_file": "knowledge_base/domains/RE/examples.md", "md_atom_type": "SENTENCE", "md_parent_section": "§RE.2 [Example 2]", "md_verbatim": "In this example, a subject made 4 attempts at the FEV1 pulmonary function test, and data about all attempts were collected. It is standard practice for multiple attempts to be made, and for the best result to be used in analyses. In this example, the spirometry report included an indicator of which was the best result. The spirometry report also included an indicator that 1 of the attempts was considered to have produced an inadequate result, with the reasons the result was considered inadequate.", "score": 0.422, "match_basis": "verbatim_token+domain_route:RE"}], "candidate_count": 5, "zero_candidate": false}
{"pdf_atom_id": "ig34_p0310_a009", "pdf_atom_type": "LIST_ITEM", "pdf_source": "SDTMIG_v3.4", "pdf_page": 310, "pdf_parent_section": "§6.3.7.7 Respiratory System Findings (RE)", "pdf_verbatim": "Any Identifier variables, Timing variables, or Findings general observation class qualifiers may be added to the RE domain, but the following qualifiers would generally not be used: --MODIFY, --BODSYS, and --FAST.", "figure_ref": null, "candidates": [{"md_atom_id": "md_dmRE_assn_a004", "md_file": "knowledge_base/domains/RE/assumptions.md", "md_atom_type": "LIST_ITEM", "md_parent_section": "§RE [RE — Assumptions]", "md_verbatim": "3. Any Identifier, Timing variables, or Findings general observation class qualifiers may be added to the RE domain, but the following qualifiers would generally not be used: --MODIFY, --BODSYS, and --FAST.", "score": 1.0, "match_basis": "verbatim_token+domain_route:RE"}, {"md_atom_id": "md_dmRE_assn_a002", "md_file": "knowledge_base/domains/RE/assumptions.md", "md_atom_type": "LIST_ITEM", "md_parent_section": "§RE [RE — Assumptions]", "md_verbatim": "1. The Respiratory System Findings domain is used to represent the results/findings of respiratory diagnostic procedures (e.g., spirometry). Information about the conduct of the procedure(s), if collected, should be submitted in the Procedures (PR) domain.", "score": 0.4829, "match_basis": "verbatim_token+domain_route:RE"}, {"md_atom_id": "md_dmRE_assn_a003", "md_file": "knowledge_base/domains/RE/assumptions.md", "md_atom_type": "LIST_ITEM", "md_parent_section": "§RE [RE — Assumptions]", "md_verbatim": "2. Many respiratory assessments require the use of a device. When data about the device used for an assessment or additional information about its use in the assessment are collected, SPDEVID should be included in the record. See the SDTMIG for Medical Devices (SDTMIG-MD, available at https://www.cdisc.org/standards/foundational/medical-devices-sdtmig/) for further information about SPDEVID and the Device domains.", "score": 0.4677, "match_basis": "verbatim_token+domain_route:RE"}, {"md_atom_id": "md_dmRE_ex_a020", "md_file": "knowledge_base/domains/RE/examples.md", "md_atom_type": "SENTENCE", "md_parent_section": "§RE.1 [Example 1]", "md_verbatim": "The DU domain shows settings used on the devices with identifier \"ABC001\". The device was set to use the NHANES III reference equation. Because this setting was the same for all uses of the device for all subjects, USUBJID is null.", "score": 0.4071, "match_basis": "verbatim_token+domain_route:RE"}, {"md_atom_id": "md_dmRE_ex_a015", "md_file": "knowledge_base/domains/RE/examples.md", "md_atom_type": "SENTENCE", "md_parent_section": "§RE.1 [Example 1]", "md_verbatim": "The DI domain provides the information needed to distinguish among devices used in the study. In this example, the only parameter needed to establish identifiers was the device type.", "score": 0.405, "match_basis": "verbatim_token+domain_route:RE"}], "candidate_count": 5, "zero_candidate": false}
{"pdf_atom_id": "ig34_p0310_a010", "pdf_atom_type": "HEADING", "pdf_source": "SDTMIG_v3.4", "pdf_page": 310, "pdf_parent_section": "§6.3.7.7 Respiratory System Findings (RE)", "pdf_verbatim": "RE – Examples", "figure_ref": null, "candidates": [{"md_atom_id": "md_dmRE_ex_a001", "md_file": "knowledge_base/domains/RE/examples.md", "md_atom_type": "HEADING", "md_parent_section": "§RE [RE — Examples]", "md_verbatim": "# RE — Examples", "score": 1.0, "match_basis": "verbatim_token+domain_route:RE"}, {"md_atom_id": "md_dmRE_ex_a002", "md_file": "knowledge_base/domains/RE/examples.md", "md_atom_type": "HEADING", "md_parent_section": "§RE [RE — Examples]", "md_verbatim": "## Example 1", "score": 0.9, "match_basis": "verbatim_token+domain_route:RE"}, {"md_atom_id": "md_dmRE_ex_a024", "md_file": "knowledge_base/domains/RE/examples.md", "md_atom_type": "HEADING", "md_parent_section": "§RE [RE — Examples]", "md_verbatim": "## Example 2", "score": 0.9, "match_basis": "verbatim_token+domain_route:RE"}, {"md_atom_id": "md_dmRE_assn_a001", "md_file": "knowledge_base/domains/RE/assumptions.md", "md_atom_type": "HEADING", "md_parent_section": "§RE [RE — Assumptions]", "md_verbatim": "# RE — Assumptions", "score": 0.4, "match_basis": "verbatim_token+domain_route:RE"}], "candidate_count": 4, "zero_candidate": false}
{"pdf_atom_id": "ig34_p0310_a011", "pdf_atom_type": "HEADING", "pdf_source": "SDTMIG_v3.4", "pdf_page": 310, "pdf_parent_section": "§6.3.7.7 Respiratory System Findings (RE)", "pdf_verbatim": "Example 1", "figure_ref": null, "candidates": [{"md_atom_id": "md_dmRE_ex_a002", "md_file": "knowledge_base/domains/RE/examples.md", "md_atom_type": "HEADING", "md_parent_section": "§RE [RE — Examples]", "md_verbatim": "## Example 1", "score": 1.0, "match_basis": "verbatim_token+domain_route:RE"}, {"md_atom_id": "md_dmRE_ex_a024", "md_file": "knowledge_base/domains/RE/examples.md", "md_atom_type": "HEADING", "md_parent_section": "§RE [RE — Examples]", "md_verbatim": "## Example 2", "score": 1.0, "match_basis": "verbatim_token+domain_route:RE"}, {"md_atom_id": "md_dmRE_ex_a001", "md_file": "knowledge_base/domains/RE/examples.md", "md_atom_type": "HEADING", "md_parent_section": "§RE [RE — Examples]", "md_verbatim": "# RE — Examples", "score": 0.9, "match_basis": "verbatim_token+domain_route:RE"}, {"md_atom_id": "md_dmRE_assn_a001", "md_file": "knowledge_base/domains/RE/assumptions.md", "md_atom_type": "HEADING", "md_parent_section": "§RE [RE — Assumptions]", "md_verbatim": "# RE — Assumptions", "score": 0.4, "match_basis": "verbatim_token+domain_route:RE"}], "candidate_count": 4, "zero_candidate": false}
{"pdf_atom_id": "ig34_p0310_a012", "pdf_atom_type": "SENTENCE", "pdf_source": "SDTMIG_v3.4", "pdf_page": 310, "pdf_parent_section": "§6.3.7.7 Respiratory System Findings (RE)", "pdf_verbatim": "This example shows results from several spirometry tests using either a spirometer or a peak flow meter. When spirometry tests are performed, the subject usually makes several efforts, each of which produces results, but only the best result for each test is used in analyses. In this study, the sponsor collected only the best results. The Device Identifiers (DI) domain was submitted for device identification, and the Device in Use (DU) domain was submitted to provide information about the use of the device.", "figure_ref": null, "candidates": [{"md_atom_id": "md_dmRE_ex_a003", "md_file": "knowledge_base/domains/RE/examples.md", "md_atom_type": "SENTENCE", "md_parent_section": "§RE.1 [Example 1]", "md_verbatim": "This example shows results from several spirometry tests using either a spirometer or a peak flow meter. When spirometry tests are performed, the subject usually makes several efforts, each of which produces results, but only the best result for each test is used in analyses. In this study, the sponsor collected only the best results. The Device Identifiers (DI) domain was submitted for device identification, and the Device in Use (DU) domain was submitted to provide information about the use of the device.", "score": 1.0, "match_basis": "verbatim_token+domain_route:RE"}, {"md_atom_id": "md_dmRE_ex_a025", "md_file": "knowledge_base/domains/RE/examples.md", "md_atom_type": "SENTENCE", "md_parent_section": "§RE.2 [Example 2]", "md_verbatim": "In this example, a subject made 4 attempts at the FEV1 pulmonary function test, and data about all attempts were collected. It is standard practice for multiple attempts to be made, and for the best result to be used in analyses. In this example, the spirometry report included an indicator of which was the best result. The spirometry report also included an indicator that 1 of the attempts was considered to have produced an inadequate result, with the reasons the result was considered inadequate.", "score": 0.5795, "match_basis": "verbatim_token+domain_route:RE"}, {"md_atom_id": "md_dmRE_ex_a015", "md_file": "knowledge_base/domains/RE/examples.md", "md_atom_type": "SENTENCE", "md_parent_section": "§RE.1 [Example 1]", "md_verbatim": "The DI domain provides the information needed to distinguish among devices used in the study. In this example, the only parameter needed to establish identifiers was the device type.", "score": 0.5773, "match_basis": "verbatim_token+domain_route:RE"}, {"md_atom_id": "md_dmRE_ex_a034", "md_file": "knowledge_base/domains/RE/examples.md", "md_atom_type": "SENTENCE", "md_parent_section": "§RE.2 [Example 2]", "md_verbatim": "Supplemental qualifiers were used to indicate which was the best result and to provide information on the attempt that was considered to produce inadequate results.", "score": 0.5443, "match_basis": "verbatim_token+domain_route:RE"}, {"md_atom_id": "md_dmRE_ex_a005", "md_file": "knowledge_base/domains/RE/examples.md", "md_atom_type": "SENTENCE", "md_parent_section": "§RE.1 [Example 1]", "md_verbatim": "**Rows 1-2:** Show the results for the spirometry tests FEV1 and FVC, with the predicted values in REORREF. The spirometer used in the tests is identified by the SPDEVID.", "score": 0.5368, "match_basis": "verbatim_token+domain_route:RE"}], "candidate_count": 5, "zero_candidate": false}
{"pdf_atom_id": "ig34_p0310_a013", "pdf_atom_type": "SENTENCE", "pdf_source": "SDTMIG_v3.4", "pdf_page": 310, "pdf_parent_section": "§6.3.7.7 Respiratory System Findings (RE)", "pdf_verbatim": "Because the original and standardized units of measure are identical in this example, RESTRESC, RESTRESN, RESTRESU, and RESTREFN are not shown. Instead, an ellipsis marks their place in the dataset. Spirometry test values are compared to a predicted value, rather than a normal range. Predicted values are represented in REORREF.", "figure_ref": null, "candidates": [{"md_atom_id": "md_dmRE_ex_a004", "md_file": "knowledge_base/domains/RE/examples.md", "md_atom_type": "SENTENCE", "md_parent_section": "§RE.1 [Example 1]", "md_verbatim": "Because the original and standardized units of measure are identical in this example, RESTRESC, RESTRESN, RESTRESU, and RESTREFN are not shown. Instead, an ellipsis marks their place in the dataset. Spirometry test values are compared to a predicted value, rather than a normal range. Predicted values are represented in REORREF.", "score": 1.0, "match_basis": "verbatim_token+domain_route:RE"}, {"md_atom_id": "md_dmRE_ex_a005", "md_file": "knowledge_base/domains/RE/examples.md", "md_atom_type": "SENTENCE", "md_parent_section": "§RE.1 [Example 1]", "md_verbatim": "**Rows 1-2:** Show the results for the spirometry tests FEV1 and FVC, with the predicted values in REORREF. The spirometer used in the tests is identified by the SPDEVID.", "score": 0.547, "match_basis": "verbatim_token+domain_route:RE"}, {"md_atom_id": "md_dmRE_ex_a006", "md_file": "knowledge_base/domains/RE/examples.md", "md_atom_type": "SENTENCE", "md_parent_section": "§RE.1 [Example 1]", "md_verbatim": "**Rows 3-4:** Show the results for FEV1 and FVC as percentages of the predicted values. This result is output by the spirometer device, not derived by the sponsor. REORREF is null as there are no reference results for percent predicted tests.", "score": 0.5249, "match_basis": "verbatim_token+domain_route:RE"}, {"md_atom_id": "md_dmRE_ex_a027", "md_file": "knowledge_base/domains/RE/examples.md", "md_atom_type": "SENTENCE", "md_parent_section": "§RE.2 [Example 2]", "md_verbatim": "**Row 4:** Shows an individual test result for FEV1 as measured by spirometry. Note that this result is much less than the others.", "score": 0.508, "match_basis": "verbatim_token+domain_route:RE"}, {"md_atom_id": "md_dmRE_ex_a025", "md_file": "knowledge_base/domains/RE/examples.md", "md_atom_type": "SENTENCE", "md_parent_section": "§RE.2 [Example 2]", "md_verbatim": "In this example, a subject made 4 attempts at the FEV1 pulmonary function test, and data about all attempts were collected. It is standard practice for multiple attempts to be made, and for the best result to be used in analyses. In this example, the spirometry report included an indicator of which was the best result. The spirometry report also included an indicator that 1 of the attempts was considered to have produced an inadequate result, with the reasons the result was considered inadequate.", "score": 0.5079, "match_basis": "verbatim_token+domain_route:RE"}], "candidate_count": 5, "zero_candidate": false}
{"pdf_atom_id": "ig34_p0310_a014", "pdf_atom_type": "LIST_ITEM", "pdf_source": "SDTMIG_v3.4", "pdf_page": 310, "pdf_parent_section": "§6.3.7.7 Respiratory System Findings (RE)", "pdf_verbatim": "Rows 1-2:\tShow the results for the spirometry tests FEV1 and FVC, with the predicted values in REORREF. The spirometer used in the tests is identified by the SPDEVID.", "figure_ref": null, "candidates": [{"md_atom_id": "md_dmRE_ex_a005", "md_file": "knowledge_base/domains/RE/examples.md", "md_atom_type": "SENTENCE", "md_parent_section": "§RE.1 [Example 1]", "md_verbatim": "**Rows 1-2:** Show the results for the spirometry tests FEV1 and FVC, with the predicted values in REORREF. The spirometer used in the tests is identified by the SPDEVID.", "score": 0.91, "match_basis": "verbatim_token+domain_route:RE"}, {"md_atom_id": "md_dmRE_ex_a007", "md_file": "knowledge_base/domains/RE/examples.md", "md_atom_type": "SENTENCE", "md_parent_section": "§RE.1 [Example 1]", "md_verbatim": "**Row 5:** Shows the results of the PEF test with the predicted values in REORREF. These results were obtained with a different device, a peak flow meter, identified by the SPDEVID.", "score": 0.6425, "match_basis": "verbatim_token+domain_route:RE"}, {"md_atom_id": "md_dmRE_ex_a006", "md_file": "knowledge_base/domains/RE/examples.md", "md_atom_type": "SENTENCE", "md_parent_section": "§RE.1 [Example 1]", "md_verbatim": "**Rows 3-4:** Show the results for FEV1 and FVC as percentages of the predicted values. This result is output by the spirometer device, not derived by the sponsor. REORREF is null as there are no reference results for percent predicted tests.", "score": 0.5855, "match_basis": "verbatim_token+domain_route:RE"}, {"md_atom_id": "md_dmRE_ex_a026", "md_file": "knowledge_base/domains/RE/examples.md", "md_atom_type": "SENTENCE", "md_parent_section": "§RE.2 [Example 2]", "md_verbatim": "**Rows 1-3:** Show individual test results for FEV1 as measured by spirometry.", "score": 0.5073, "match_basis": "verbatim_token+domain_route:RE"}, {"md_atom_id": "md_dmRE_assn_a002", "md_file": "knowledge_base/domains/RE/assumptions.md", "md_atom_type": "LIST_ITEM", "md_parent_section": "§RE [RE — Assumptions]", "md_verbatim": "1. The Respiratory System Findings domain is used to represent the results/findings of respiratory diagnostic procedures (e.g., spirometry). Information about the conduct of the procedure(s), if collected, should be submitted in the Procedures (PR) domain.", "score": 0.5015, "match_basis": "verbatim_token+domain_route:RE"}], "candidate_count": 5, "zero_candidate": false}
{"pdf_atom_id": "ig34_p0310_a015", "pdf_atom_type": "LIST_ITEM", "pdf_source": "SDTMIG_v3.4", "pdf_page": 310, "pdf_parent_section": "§6.3.7.7 Respiratory System Findings (RE)", "pdf_verbatim": "Rows 3-4:\tShow the results for FEV1 and FVC as percentages of the predicted values. This result is output by the spirometer device, not derived by the sponsor. REORREF is null as there are no reference results for percent predicted tests.", "figure_ref": null, "candidates": [{"md_atom_id": "md_dmRE_ex_a006", "md_file": "knowledge_base/domains/RE/examples.md", "md_atom_type": "SENTENCE", "md_parent_section": "§RE.1 [Example 1]", "md_verbatim": "**Rows 3-4:** Show the results for FEV1 and FVC as percentages of the predicted values. This result is output by the spirometer device, not derived by the sponsor. REORREF is null as there are no reference results for percent predicted tests.", "score": 0.91, "match_basis": "verbatim_token+domain_route:RE"}, {"md_atom_id": "md_dmRE_ex_a005", "md_file": "knowledge_base/domains/RE/examples.md", "md_atom_type": "SENTENCE", "md_parent_section": "§RE.1 [Example 1]", "md_verbatim": "**Rows 1-2:** Show the results for the spirometry tests FEV1 and FVC, with the predicted values in REORREF. The spirometer used in the tests is identified by the SPDEVID.", "score": 0.5855, "match_basis": "verbatim_token+domain_route:RE"}, {"md_atom_id": "md_dmRE_ex_a007", "md_file": "knowledge_base/domains/RE/examples.md", "md_atom_type": "SENTENCE", "md_parent_section": "§RE.1 [Example 1]", "md_verbatim": "**Row 5:** Shows the results of the PEF test with the predicted values in REORREF. These results were obtained with a different device, a peak flow meter, identified by the SPDEVID.", "score": 0.5208, "match_basis": "verbatim_token+domain_route:RE"}, {"md_atom_id": "md_dmRE_assn_a002", "md_file": "knowledge_base/domains/RE/assumptions.md", "md_atom_type": "LIST_ITEM", "md_parent_section": "§RE [RE — Assumptions]", "md_verbatim": "1. The Respiratory System Findings domain is used to represent the results/findings of respiratory diagnostic procedures (e.g., spirometry). Information about the conduct of the procedure(s), if collected, should be submitted in the Procedures (PR) domain.", "score": 0.474, "match_basis": "verbatim_token+domain_route:RE"}, {"md_atom_id": "md_dmRE_assn_a003", "md_file": "knowledge_base/domains/RE/assumptions.md", "md_atom_type": "LIST_ITEM", "md_parent_section": "§RE [RE — Assumptions]", "md_verbatim": "2. Many respiratory assessments require the use of a device. When data about the device used for an assessment or additional information about its use in the assessment are collected, SPDEVID should be included in the record. See the SDTMIG for Medical Devices (SDTMIG-MD, available at https://www.cdisc.org/standards/foundational/medical-devices-sdtmig/) for further information about SPDEVID and the Device domains.", "score": 0.4606, "match_basis": "verbatim_token+domain_route:RE"}], "candidate_count": 5, "zero_candidate": false}
{"pdf_atom_id": "ig34_p0310_a016", "pdf_atom_type": "LIST_ITEM", "pdf_source": "SDTMIG_v3.4", "pdf_page": 310, "pdf_parent_section": "§6.3.7.7 Respiratory System Findings (RE)", "pdf_verbatim": "Row 5:\tShows the results of the PEF test with the predicted values in REORREF. These results were obtained with a different device, a peak flow meter, identified by the SPDEVID.", "figure_ref": null, "candidates": [{"md_atom_id": "md_dmRE_ex_a007", "md_file": "knowledge_base/domains/RE/examples.md", "md_atom_type": "SENTENCE", "md_parent_section": "§RE.1 [Example 1]", "md_verbatim": "**Row 5:** Shows the results of the PEF test with the predicted values in REORREF. These results were obtained with a different device, a peak flow meter, identified by the SPDEVID.", "score": 0.91, "match_basis": "verbatim_token+domain_route:RE"}, {"md_atom_id": "md_dmRE_ex_a005", "md_file": "knowledge_base/domains/RE/examples.md", "md_atom_type": "SENTENCE", "md_parent_section": "§RE.1 [Example 1]", "md_verbatim": "**Rows 1-2:** Show the results for the spirometry tests FEV1 and FVC, with the predicted values in REORREF. The spirometer used in the tests is identified by the SPDEVID.", "score": 0.6425, "match_basis": "verbatim_token+domain_route:RE"}, {"md_atom_id": "md_dmRE_ex_a006", "md_file": "knowledge_base/domains/RE/examples.md", "md_atom_type": "SENTENCE", "md_parent_section": "§RE.1 [Example 1]", "md_verbatim": "**Rows 3-4:** Show the results for FEV1 and FVC as percentages of the predicted values. This result is output by the spirometer device, not derived by the sponsor. REORREF is null as there are no reference results for percent predicted tests.", "score": 0.5208, "match_basis": "verbatim_token+domain_route:RE"}, {"md_atom_id": "md_dmRE_assn_a002", "md_file": "knowledge_base/domains/RE/assumptions.md", "md_atom_type": "LIST_ITEM", "md_parent_section": "§RE [RE — Assumptions]", "md_verbatim": "1. The Respiratory System Findings domain is used to represent the results/findings of respiratory diagnostic procedures (e.g., spirometry). Information about the conduct of the procedure(s), if collected, should be submitted in the Procedures (PR) domain.", "score": 0.4579, "match_basis": "verbatim_token+domain_route:RE"}, {"md_atom_id": "md_dmRE_assn_a003", "md_file": "knowledge_base/domains/RE/assumptions.md", "md_atom_type": "LIST_ITEM", "md_parent_section": "§RE [RE — Assumptions]", "md_verbatim": "2. Many respiratory assessments require the use of a device. When data about the device used for an assessment or additional information about its use in the assessment are collected, SPDEVID should be included in the record. See the SDTMIG for Medical Devices (SDTMIG-MD, available at https://www.cdisc.org/standards/foundational/medical-devices-sdtmig/) for further information about SPDEVID and the Device domains.", "score": 0.4542, "match_basis": "verbatim_token+domain_route:RE"}], "candidate_count": 5, "zero_candidate": false}
{"pdf_atom_id": "ig34_p0311_a001", "pdf_atom_type": "CODE_LITERAL", "pdf_source": "SDTMIG_v3.4", "pdf_page": 311, "pdf_parent_section": "§6.3.7.7 Respiratory System Findings (RE)", "pdf_verbatim": "re.xpt", "figure_ref": null, "candidates": [{"md_atom_id": "md_dmRE_ex_a008", "md_file": "knowledge_base/domains/RE/examples.md", "md_atom_type": "SENTENCE", "md_parent_section": "§RE.1 [Example 1]", "md_verbatim": "**re.xpt**", "score": 0.79, "match_basis": "verbatim_token+domain_route:RE"}, {"md_atom_id": "md_dmRE_ex_a016", "md_file": "knowledge_base/domains/RE/examples.md", "md_atom_type": "SENTENCE", "md_parent_section": "§RE.1 [Example 1]", "md_verbatim": "**di.xpt**", "score": 0.79, "match_basis": "verbatim_token+domain_route:RE"}, {"md_atom_id": "md_dmRE_ex_a021", "md_file": "knowledge_base/domains/RE/examples.md", "md_atom_type": "SENTENCE", "md_parent_section": "§RE.1 [Example 1]", "md_verbatim": "**du.xpt**", "score": 0.79, "match_basis": "verbatim_token+domain_route:RE"}, {"md_atom_id": "md_dmRE_ex_a028", "md_file": "knowledge_base/domains/RE/examples.md", "md_atom_type": "SENTENCE", "md_parent_section": "§RE.2 [Example 2]", "md_verbatim": "**re.xpt**", "score": 0.79, "match_basis": "verbatim_token+domain_route:RE"}, {"md_atom_id": "md_dmRE_ex_a044", "md_file": "knowledge_base/domains/RE/examples.md", "md_atom_type": "SENTENCE", "md_parent_section": "§RE.2 [Example 2]", "md_verbatim": "**di.xpt**", "score": 0.79, "match_basis": "verbatim_token+domain_route:RE"}, {"md_atom_id": "md_dmRE_ex_a037", "md_file": "knowledge_base/domains/RE/examples.md", "md_atom_type": "SENTENCE", "md_parent_section": "§RE.2 [Example 2]", "md_verbatim": "**suppre.xpt**", "score": 0.31, "match_basis": "verbatim_token+domain_route:RE"}, {"md_atom_id": "md_dmRE_assn_a001", "md_file": "knowledge_base/domains/RE/assumptions.md", "md_atom_type": "HEADING", "md_parent_section": "§RE [RE — Assumptions]", "md_verbatim": "# RE — Assumptions", "score": 0.19, "match_basis": "verbatim_token+domain_route:RE"}, {"md_atom_id": "md_dmRE_assn_a002", "md_file": "knowledge_base/domains/RE/assumptions.md", "md_atom_type": "LIST_ITEM", "md_parent_section": "§RE [RE — Assumptions]", "md_verbatim": "1. The Respiratory System Findings domain is used to represent the results/findings of respiratory diagnostic procedures (e.g., spirometry). Information about the conduct of the procedure(s), if collected, should be submitted in the Procedures (PR) domain.", "score": 0.19, "match_basis": "verbatim_token+domain_route:RE"}, {"md_atom_id": "md_dmRE_assn_a003", "md_file": "knowledge_base/domains/RE/assumptions.md", "md_atom_type": "LIST_ITEM", "md_parent_section": "§RE [RE — Assumptions]", "md_verbatim": "2. Many respiratory assessments require the use of a device. When data about the device used for an assessment or additional information about its use in the assessment are collected, SPDEVID should be included in the record. See the SDTMIG for Medical Devices (SDTMIG-MD, available at https://www.cdisc.org/standards/foundational/medical-devices-sdtmig/) for further information about SPDEVID and the Device domains.", "score": 0.19, "match_basis": "verbatim_token+domain_route:RE"}, {"md_atom_id": "md_dmRE_assn_a004", "md_file": "knowledge_base/domains/RE/assumptions.md", "md_atom_type": "LIST_ITEM", "md_parent_section": "§RE [RE — Assumptions]", "md_verbatim": "3. Any Identifier, Timing variables, or Findings general observation class qualifiers may be added to the RE domain, but the following qualifiers would generally not be used: --MODIFY, --BODSYS, and --FAST.", "score": 0.19, "match_basis": "verbatim_token+domain_route:RE"}], "candidate_count": 10, "zero_candidate": false}
{"pdf_atom_id": "ig34_p0311_a002", "pdf_atom_type": "TABLE_HEADER", "pdf_source": "SDTMIG_v3.4", "pdf_page": 311, "pdf_parent_section": "§6.3.7.7 Respiratory System Findings (RE)", "pdf_verbatim": "| Row | STUDYID | DOMAIN | USUBJID | SPDEVID | RESEQ | RETESTCD | RETEST | REORRES | REORRESU | REORREF | ... | VISITNUM | VISIT | REDTC |", "figure_ref": null, "candidates": [{"md_atom_id": "md_dmRE_ex_a009", "md_file": "knowledge_base/domains/RE/examples.md", "md_atom_type": "TABLE_HEADER", "md_parent_section": "§RE.1 [Example 1]", "md_verbatim": "| Row | STUDYID | DOMAIN | USUBJID | SPDEVID | RESEQ | RETESTCD | RETEST | REORRES | REORRESU | REORREF | ... | VISITNUM | VISIT | REDTC |\n|-----|---------|--------|---------|---------|-------|----------|--------|---------|----------|---------|-----|----------|-------|-------|", "score": 1.0, "match_basis": "verbatim_token+domain_route:RE"}, {"md_atom_id": "md_dmRE_ex_a029", "md_file": "knowledge_base/domains/RE/examples.md", "md_atom_type": "TABLE_HEADER", "md_parent_section": "§RE.2 [Example 2]", "md_verbatim": "| Row | STUDYID | DOMAIN | USUBJID | SPDEVID | RESEQ | RETESTCD | RETEST | REORRES | REORRESU | RESTRESN | RESTRESU | REREPNUM | VISITNUM | VISIT | REDTC |\n|-----|---------|--------|---------|---------|-------|----------|--------|---------|----------|----------|----------|----------|----------|-------|-------|", "score": 0.8962, "match_basis": "verbatim_token+domain_route:RE"}, {"md_atom_id": "md_dmRE_ex_a022", "md_file": "knowledge_base/domains/RE/examples.md", "md_atom_type": "TABLE_HEADER", "md_parent_section": "§RE.1 [Example 1]", "md_verbatim": "| Row | STUDYID | DOMAIN | USUBJID | SPDEVID | DUSEQ | DUTESTCD | DUTEST | DUORRES |\n|-----|---------|--------|---------|---------|-------|----------|--------|---------|", "score": 0.736, "match_basis": "verbatim_token+domain_route:RE"}, {"md_atom_id": "md_dmRE_ex_a017", "md_file": "knowledge_base/domains/RE/examples.md", "md_atom_type": "TABLE_HEADER", "md_parent_section": "§RE.1 [Example 1]", "md_verbatim": "| Row | STUDYID | DOMAIN | SPDEVID | DISEQ | DIPARMCD | DIPARM | DIVAL |\n|-----|---------|--------|---------|-------|----------|--------|-------|", "score": 0.5745, "match_basis": "verbatim_token+domain_route:RE"}, {"md_atom_id": "md_dmRE_ex_a045", "md_file": "knowledge_base/domains/RE/examples.md", "md_atom_type": "TABLE_HEADER", "md_parent_section": "§RE.2 [Example 2]", "md_verbatim": "| Row | STUDYID | DOMAIN | SPDEVID | DISEQ | DIPARMCD | DIPARM | DIVAL |\n|-----|---------|--------|---------|-------|----------|--------|-------|", "score": 0.5745, "match_basis": "verbatim_token+domain_route:RE"}], "candidate_count": 5, "zero_candidate": false}
{"pdf_atom_id": "ig34_p0311_a003", "pdf_atom_type": "TABLE_ROW", "pdf_source": "SDTMIG_v3.4", "pdf_page": 311, "pdf_parent_section": "§6.3.7.7 Respiratory System Findings (RE)", "pdf_verbatim": "| 1 | XYZ | RE | XYZ-001-001 | ABC001 | 1 | FEV1 | Forced Expiratory Volume in 1 Second | 2.73 | L | 3.37 | | 2 | VISIT 2 | 2013-06-30 |", "figure_ref": null, "candidates": [{"md_atom_id": "md_dmRE_ex_a010", "md_file": "knowledge_base/domains/RE/examples.md", "md_atom_type": "TABLE_ROW", "md_parent_section": "§RE.1 [Example 1]", "md_verbatim": "| 1 | XYZ | RE | XYZ-001-001 | ABC001 | 1 | FEV1 | Forced Expiratory Volume in 1 Second | 2.73 | L | 3.37 | ... | 2 | VISIT 2 | 2013-06-30 |", "score": 1.0, "match_basis": "verbatim_token+domain_route:RE"}, {"md_atom_id": "md_dmRE_ex_a030", "md_file": "knowledge_base/domains/RE/examples.md", "md_atom_type": "TABLE_ROW", "md_parent_section": "§RE.2 [Example 2]", "md_verbatim": "| 1 | XYZ | RE | XYZ-001-001 | ABC001 | 1 | FEV1 | Forced Expiratory Volume in 1 Second | 1.94 | L | 1.94 | L | 1 | 2 | VISIT 2 | 2013-04-23 |", "score": 1.0, "match_basis": "verbatim_token+domain_route:RE"}, {"md_atom_id": "md_dmRE_ex_a031", "md_file": "knowledge_base/domains/RE/examples.md", "md_atom_type": "TABLE_ROW", "md_parent_section": "§RE.2 [Example 2]", "md_verbatim": "| 2 | XYZ | RE | XYZ-001-001 | ABC001 | 2 | FEV1 | Forced Expiratory Volume in 1 Second | 1.88 | L | 1.88 | L | 2 | 2 | VISIT 2 | 2013-04-23 |", "score": 1.0, "match_basis": "verbatim_token+domain_route:RE"}, {"md_atom_id": "md_dmRE_ex_a032", "md_file": "knowledge_base/domains/RE/examples.md", "md_atom_type": "TABLE_ROW", "md_parent_section": "§RE.2 [Example 2]", "md_verbatim": "| 3 | XYZ | RE | XYZ-001-001 | ABC001 | 3 | FEV1 | Forced Expiratory Volume in 1 Second | 1.88 | L | 1.88 | L | 3 | 2 | VISIT 2 | 2013-04-23 |", "score": 1.0, "match_basis": "verbatim_token+domain_route:RE"}, {"md_atom_id": "md_dmRE_ex_a033", "md_file": "knowledge_base/domains/RE/examples.md", "md_atom_type": "TABLE_ROW", "md_parent_section": "§RE.2 [Example 2]", "md_verbatim": "| 4 | XYZ | RE | XYZ-001-001 | ABC001 | 4 | FEV1 | Forced Expiratory Volume in 1 Second | 1.57 | L | 1.57 | L | 4 | 2 | VISIT 2 | 2013-04-23 |", "score": 1.0, "match_basis": "verbatim_token+domain_route:RE"}], "candidate_count": 5, "zero_candidate": false}
{"pdf_atom_id": "ig34_p0311_a004", "pdf_atom_type": "TABLE_ROW", "pdf_source": "SDTMIG_v3.4", "pdf_page": 311, "pdf_parent_section": "§6.3.7.7 Respiratory System Findings (RE)", "pdf_verbatim": "| 2 | XYZ | RE | XYZ-001-001 | ABC001 | 2 | FVC | Forced Vital Capacity | 3.91 | L | 3.86 | | 2 | VISIT 2 | 2013-06-30 |", "figure_ref": null, "candidates": [{"md_atom_id": "md_dmRE_ex_a011", "md_file": "knowledge_base/domains/RE/examples.md", "md_atom_type": "TABLE_ROW", "md_parent_section": "§RE.1 [Example 1]", "md_verbatim": "| 2 | XYZ | RE | XYZ-001-001 | ABC001 | 2 | FVC | Forced Vital Capacity | 3.91 | L | 3.86 | ... | 2 | VISIT 2 | 2013-06-30 |", "score": 1.0, "match_basis": "verbatim_token+domain_route:RE"}, {"md_atom_id": "md_dmRE_ex_a013", "md_file": "knowledge_base/domains/RE/examples.md", "md_atom_type": "TABLE_ROW", "md_parent_section": "§RE.1 [Example 1]", "md_verbatim": "| 4 | XYZ | RE | XYZ-001-001 | ABC001 | 4 | FVCPP | Percent Predicted Forced Vital Capacity | 101.3 | % | | ... | 2 | VISIT 2 | 2013-06-30 |", "score": 0.7789, "match_basis": "verbatim_token+domain_route:RE"}, {"md_atom_id": "md_dmRE_ex_a010", "md_file": "knowledge_base/domains/RE/examples.md", "md_atom_type": "TABLE_ROW", "md_parent_section": "§RE.1 [Example 1]", "md_verbatim": "| 1 | XYZ | RE | XYZ-001-001 | ABC001 | 1 | FEV1 | Forced Expiratory Volume in 1 Second | 2.73 | L | 3.37 | ... | 2 | VISIT 2 | 2013-06-30 |", "score": 0.6, "match_basis": "verbatim_token+domain_route:RE"}, {"md_atom_id": "md_dmRE_ex_a030", "md_file": "knowledge_base/domains/RE/examples.md", "md_atom_type": "TABLE_ROW", "md_parent_section": "§RE.2 [Example 2]", "md_verbatim": "| 1 | XYZ | RE | XYZ-001-001 | ABC001 | 1 | FEV1 | Forced Expiratory Volume in 1 Second | 1.94 | L | 1.94 | L | 1 | 2 | VISIT 2 | 2013-04-23 |", "score": 0.6, "match_basis": "verbatim_token+domain_route:RE"}, {"md_atom_id": "md_dmRE_ex_a031", "md_file": "knowledge_base/domains/RE/examples.md", "md_atom_type": "TABLE_ROW", "md_parent_section": "§RE.2 [Example 2]", "md_verbatim": "| 2 | XYZ | RE | XYZ-001-001 | ABC001 | 2 | FEV1 | Forced Expiratory Volume in 1 Second | 1.88 | L | 1.88 | L | 2 | 2 | VISIT 2 | 2013-04-23 |", "score": 0.6, "match_basis": "verbatim_token+domain_route:RE"}], "candidate_count": 5, "zero_candidate": false}
{"pdf_atom_id": "ig34_p0311_a005", "pdf_atom_type": "TABLE_ROW", "pdf_source": "SDTMIG_v3.4", "pdf_page": 311, "pdf_parent_section": "§6.3.7.7 Respiratory System Findings (RE)", "pdf_verbatim": "| 3 | XYZ | RE | XYZ-001-001 | ABC001 | 3 | FEV1PP | Percent Predicted FEV1 | 81 | % | | | 2 | VISIT 2 | 2013-06-30 |", "figure_ref": null, "candidates": [{"md_atom_id": "md_dmRE_ex_a012", "md_file": "knowledge_base/domains/RE/examples.md", "md_atom_type": "TABLE_ROW", "md_parent_section": "§RE.1 [Example 1]", "md_verbatim": "| 3 | XYZ | RE | XYZ-001-001 | ABC001 | 3 | FEV1PP | Percent Predicted FEV1 | 81 | % | | ... | 2 | VISIT 2 | 2013-06-30 |", "score": 1.0, "match_basis": "verbatim_token+domain_route:RE"}, {"md_atom_id": "md_dmRE_ex_a013", "md_file": "knowledge_base/domains/RE/examples.md", "md_atom_type": "TABLE_ROW", "md_parent_section": "§RE.1 [Example 1]", "md_verbatim": "| 4 | XYZ | RE | XYZ-001-001 | ABC001 | 4 | FVCPP | Percent Predicted Forced Vital Capacity | 101.3 | % | | ... | 2 | VISIT 2 | 2013-06-30 |", "score": 0.7143, "match_basis": "verbatim_token+domain_route:RE"}, {"md_atom_id": "md_dmRE_ex_a010", "md_file": "knowledge_base/domains/RE/examples.md", "md_atom_type": "TABLE_ROW", "md_parent_section": "§RE.1 [Example 1]", "md_verbatim": "| 1 | XYZ | RE | XYZ-001-001 | ABC001 | 1 | FEV1 | Forced Expiratory Volume in 1 Second | 2.73 | L | 3.37 | ... | 2 | VISIT 2 | 2013-06-30 |", "score": 0.5733, "match_basis": "verbatim_token+domain_route:RE"}, {"md_atom_id": "md_dmRE_ex_a030", "md_file": "knowledge_base/domains/RE/examples.md", "md_atom_type": "TABLE_ROW", "md_parent_section": "§RE.2 [Example 2]", "md_verbatim": "| 1 | XYZ | RE | XYZ-001-001 | ABC001 | 1 | FEV1 | Forced Expiratory Volume in 1 Second | 1.94 | L | 1.94 | L | 1 | 2 | VISIT 2 | 2013-04-23 |", "score": 0.5733, "match_basis": "verbatim_token+domain_route:RE"}, {"md_atom_id": "md_dmRE_ex_a031", "md_file": "knowledge_base/domains/RE/examples.md", "md_atom_type": "TABLE_ROW", "md_parent_section": "§RE.2 [Example 2]", "md_verbatim": "| 2 | XYZ | RE | XYZ-001-001 | ABC001 | 2 | FEV1 | Forced Expiratory Volume in 1 Second | 1.88 | L | 1.88 | L | 2 | 2 | VISIT 2 | 2013-04-23 |", "score": 0.5733, "match_basis": "verbatim_token+domain_route:RE"}], "candidate_count": 5, "zero_candidate": false}
{"pdf_atom_id": "ig34_p0311_a006", "pdf_atom_type": "TABLE_ROW", "pdf_source": "SDTMIG_v3.4", "pdf_page": 311, "pdf_parent_section": "§6.3.7.7 Respiratory System Findings (RE)", "pdf_verbatim": "| 4 | XYZ | RE | XYZ-001-001 | ABC001 | 4 | FVCPP | Percent Predicted Forced Vital Capacity | 101.3 | % | | | 2 | VISIT 2 | 2013-06-30 |", "figure_ref": null, "candidates": [{"md_atom_id": "md_dmRE_ex_a013", "md_file": "knowledge_base/domains/RE/examples.md", "md_atom_type": "TABLE_ROW", "md_parent_section": "§RE.1 [Example 1]", "md_verbatim": "| 4 | XYZ | RE | XYZ-001-001 | ABC001 | 4 | FVCPP | Percent Predicted Forced Vital Capacity | 101.3 | % | | ... | 2 | VISIT 2 | 2013-06-30 |", "score": 1.0, "match_basis": "verbatim_token+domain_route:RE"}, {"md_atom_id": "md_dmRE_ex_a011", "md_file": "knowledge_base/domains/RE/examples.md", "md_atom_type": "TABLE_ROW", "md_parent_section": "§RE.1 [Example 1]", "md_verbatim": "| 2 | XYZ | RE | XYZ-001-001 | ABC001 | 2 | FVC | Forced Vital Capacity | 3.91 | L | 3.86 | ... | 2 | VISIT 2 | 2013-06-30 |", "score": 0.7789, "match_basis": "verbatim_token+domain_route:RE"}, {"md_atom_id": "md_dmRE_ex_a012", "md_file": "knowledge_base/domains/RE/examples.md", "md_atom_type": "TABLE_ROW", "md_parent_section": "§RE.1 [Example 1]", "md_verbatim": "| 3 | XYZ | RE | XYZ-001-001 | ABC001 | 3 | FEV1PP | Percent Predicted FEV1 | 81 | % | | ... | 2 | VISIT 2 | 2013-06-30 |", "score": 0.7143, "match_basis": "verbatim_token+domain_route:RE"}, {"md_atom_id": "md_dmRE_ex_a010", "md_file": "knowledge_base/domains/RE/examples.md", "md_atom_type": "TABLE_ROW", "md_parent_section": "§RE.1 [Example 1]", "md_verbatim": "| 1 | XYZ | RE | XYZ-001-001 | ABC001 | 1 | FEV1 | Forced Expiratory Volume in 1 Second | 2.73 | L | 3.37 | ... | 2 | VISIT 2 | 2013-06-30 |", "score": 0.55, "match_basis": "verbatim_token+domain_route:RE"}, {"md_atom_id": "md_dmRE_ex_a030", "md_file": "knowledge_base/domains/RE/examples.md", "md_atom_type": "TABLE_ROW", "md_parent_section": "§RE.2 [Example 2]", "md_verbatim": "| 1 | XYZ | RE | XYZ-001-001 | ABC001 | 1 | FEV1 | Forced Expiratory Volume in 1 Second | 1.94 | L | 1.94 | L | 1 | 2 | VISIT 2 | 2013-04-23 |", "score": 0.55, "match_basis": "verbatim_token+domain_route:RE"}], "candidate_count": 5, "zero_candidate": false}
{"pdf_atom_id": "ig34_p0311_a007", "pdf_atom_type": "TABLE_ROW", "pdf_source": "SDTMIG_v3.4", "pdf_page": 311, "pdf_parent_section": "§6.3.7.7 Respiratory System Findings (RE)", "pdf_verbatim": "| 5 | XYZ | RE | XYZ-001-001 | DEF999 | 5 | PEF | Peak Expiratory Flow | 6.11 | L/s | 7.33 | | 4 | VISIT 4 | 2013-07-17 |", "figure_ref": null, "candidates": [{"md_atom_id": "md_dmRE_ex_a014", "md_file": "knowledge_base/domains/RE/examples.md", "md_atom_type": "TABLE_ROW", "md_parent_section": "§RE.1 [Example 1]", "md_verbatim": "| 5 | XYZ | RE | XYZ-001-001 | DEF999 | 5 | PEF | Peak Expiratory Flow | 6.11 | L/s | 7.33 | ... | 4 | VISIT 4 | 2013-07-17 |", "score": 1.0, "match_basis": "verbatim_token+domain_route:RE"}, {"md_atom_id": "md_dmRE_ex_a010", "md_file": "knowledge_base/domains/RE/examples.md", "md_atom_type": "TABLE_ROW", "md_parent_section": "§RE.1 [Example 1]", "md_verbatim": "| 1 | XYZ | RE | XYZ-001-001 | ABC001 | 1 | FEV1 | Forced Expiratory Volume in 1 Second | 2.73 | L | 3.37 | ... | 2 | VISIT 2 | 2013-06-30 |", "score": 0.6195, "match_basis": "verbatim_token+domain_route:RE"}, {"md_atom_id": "md_dmRE_ex_a030", "md_file": "knowledge_base/domains/RE/examples.md", "md_atom_type": "TABLE_ROW", "md_parent_section": "§RE.2 [Example 2]", "md_verbatim": "| 1 | XYZ | RE | XYZ-001-001 | ABC001 | 1 | FEV1 | Forced Expiratory Volume in 1 Second | 1.94 | L | 1.94 | L | 1 | 2 | VISIT 2 | 2013-04-23 |", "score": 0.6195, "match_basis": "verbatim_token+domain_route:RE"}, {"md_atom_id": "md_dmRE_ex_a031", "md_file": "knowledge_base/domains/RE/examples.md", "md_atom_type": "TABLE_ROW", "md_parent_section": "§RE.2 [Example 2]", "md_verbatim": "| 2 | XYZ | RE | XYZ-001-001 | ABC001 | 2 | FEV1 | Forced Expiratory Volume in 1 Second | 1.88 | L | 1.88 | L | 2 | 2 | VISIT 2 | 2013-04-23 |", "score": 0.6195, "match_basis": "verbatim_token+domain_route:RE"}, {"md_atom_id": "md_dmRE_ex_a032", "md_file": "knowledge_base/domains/RE/examples.md", "md_atom_type": "TABLE_ROW", "md_parent_section": "§RE.2 [Example 2]", "md_verbatim": "| 3 | XYZ | RE | XYZ-001-001 | ABC001 | 3 | FEV1 | Forced Expiratory Volume in 1 Second | 1.88 | L | 1.88 | L | 3 | 2 | VISIT 2 | 2013-04-23 |", "score": 0.6195, "match_basis": "verbatim_token+domain_route:RE"}], "candidate_count": 5, "zero_candidate": false}
{"pdf_atom_id": "ig34_p0311_a008", "pdf_atom_type": "SENTENCE", "pdf_source": "SDTMIG_v3.4", "pdf_page": 311, "pdf_parent_section": "§6.3.7.7 Respiratory System Findings (RE)", "pdf_verbatim": "The DI domain provides the information needed to distinguish among devices used in the study.", "figure_ref": null, "candidates": [{"md_atom_id": "md_dmRE_ex_a015", "md_file": "knowledge_base/domains/RE/examples.md", "md_atom_type": "SENTENCE", "md_parent_section": "§RE.1 [Example 1]", "md_verbatim": "The DI domain provides the information needed to distinguish among devices used in the study. In this example, the only parameter needed to establish identifiers was the device type.", "score": 0.7494, "match_basis": "verbatim_token+domain_route:RE"}, {"md_atom_id": "md_dmRE_ex_a020", "md_file": "knowledge_base/domains/RE/examples.md", "md_atom_type": "SENTENCE", "md_parent_section": "§RE.1 [Example 1]", "md_verbatim": "The DU domain shows settings used on the devices with identifier \"ABC001\". The device was set to use the NHANES III reference equation. Because this setting was the same for all uses of the device for all subjects, USUBJID is null.", "score": 0.5107, "match_basis": "verbatim_token+domain_route:RE"}, {"md_atom_id": "md_dmRE_ex_a003", "md_file": "knowledge_base/domains/RE/examples.md", "md_atom_type": "SENTENCE", "md_parent_section": "§RE.1 [Example 1]", "md_verbatim": "This example shows results from several spirometry tests using either a spirometer or a peak flow meter. When spirometry tests are performed, the subject usually makes several efforts, each of which produces results, but only the best result for each test is used in analyses. In this study, the sponsor collected only the best results. The Device Identifiers (DI) domain was submitted for device identification, and the Device in Use (DU) domain was submitted to provide information about the use of the device.", "score": 0.5091, "match_basis": "verbatim_token+domain_route:RE"}, {"md_atom_id": "md_dmRE_ex_a043", "md_file": "knowledge_base/domains/RE/examples.md", "md_atom_type": "SENTENCE", "md_parent_section": "§RE.2 [Example 2]", "md_verbatim": "DI was used to represent the device type that was used to perform for the pulmonary function tests.", "score": 0.4973, "match_basis": "verbatim_token+domain_route:RE"}, {"md_atom_id": "md_dmRE_ex_a034", "md_file": "knowledge_base/domains/RE/examples.md", "md_atom_type": "SENTENCE", "md_parent_section": "§RE.2 [Example 2]", "md_verbatim": "Supplemental qualifiers were used to indicate which was the best result and to provide information on the attempt that was considered to produce inadequate results.", "score": 0.4953, "match_basis": "verbatim_token+domain_route:RE"}], "candidate_count": 5, "zero_candidate": false}
{"pdf_atom_id": "ig34_p0311_a009", "pdf_atom_type": "SENTENCE", "pdf_source": "SDTMIG_v3.4", "pdf_page": 311, "pdf_parent_section": "§6.3.7.7 Respiratory System Findings (RE)", "pdf_verbatim": "In this example, the only parameter needed to establish identifiers was the device type.", "figure_ref": null, "candidates": [{"md_atom_id": "md_dmRE_ex_a015", "md_file": "knowledge_base/domains/RE/examples.md", "md_atom_type": "SENTENCE", "md_parent_section": "§RE.1 [Example 1]", "md_verbatim": "The DI domain provides the information needed to distinguish among devices used in the study. In this example, the only parameter needed to establish identifiers was the device type.", "score": 0.7342, "match_basis": "verbatim_token+domain_route:RE"}, {"md_atom_id": "md_dmRE_ex_a003", "md_file": "knowledge_base/domains/RE/examples.md", "md_atom_type": "SENTENCE", "md_parent_section": "§RE.1 [Example 1]", "md_verbatim": "This example shows results from several spirometry tests using either a spirometer or a peak flow meter. When spirometry tests are performed, the subject usually makes several efforts, each of which produces results, but only the best result for each test is used in analyses. In this study, the sponsor collected only the best results. The Device Identifiers (DI) domain was submitted for device identification, and the Device in Use (DU) domain was submitted to provide information about the use of the device.", "score": 0.5018, "match_basis": "verbatim_token+domain_route:RE"}, {"md_atom_id": "md_dmRE_ex_a007", "md_file": "knowledge_base/domains/RE/examples.md", "md_atom_type": "SENTENCE", "md_parent_section": "§RE.1 [Example 1]", "md_verbatim": "**Row 5:** Shows the results of the PEF test with the predicted values in REORREF. These results were obtained with a different device, a peak flow meter, identified by the SPDEVID.", "score": 0.5, "match_basis": "verbatim_token+domain_route:RE"}, {"md_atom_id": "md_dmRE_ex_a020", "md_file": "knowledge_base/domains/RE/examples.md", "md_atom_type": "SENTENCE", "md_parent_section": "§RE.1 [Example 1]", "md_verbatim": "The DU domain shows settings used on the devices with identifier \"ABC001\". The device was set to use the NHANES III reference equation. Because this setting was the same for all uses of the device for all subjects, USUBJID is null.", "score": 0.499, "match_basis": "verbatim_token+domain_route:RE"}, {"md_atom_id": "md_dmRE_ex_a005", "md_file": "knowledge_base/domains/RE/examples.md", "md_atom_type": "SENTENCE", "md_parent_section": "§RE.1 [Example 1]", "md_verbatim": "**Rows 1-2:** Show the results for the spirometry tests FEV1 and FVC, with the predicted values in REORREF. The spirometer used in the tests is identified by the SPDEVID.", "score": 0.4923, "match_basis": "verbatim_token+domain_route:RE"}], "candidate_count": 5, "zero_candidate": false}
{"pdf_atom_id": "ig34_p0311_a010", "pdf_atom_type": "CODE_LITERAL", "pdf_source": "SDTMIG_v3.4", "pdf_page": 311, "pdf_parent_section": "§6.3.7.7 Respiratory System Findings (RE)", "pdf_verbatim": "di.xpt", "figure_ref": null, "candidates": [{"md_atom_id": "md_dmRE_ex_a008", "md_file": "knowledge_base/domains/RE/examples.md", "md_atom_type": "SENTENCE", "md_parent_section": "§RE.1 [Example 1]", "md_verbatim": "**re.xpt**", "score": 0.79, "match_basis": "verbatim_token+domain_route:RE"}, {"md_atom_id": "md_dmRE_ex_a016", "md_file": "knowledge_base/domains/RE/examples.md", "md_atom_type": "SENTENCE", "md_parent_section": "§RE.1 [Example 1]", "md_verbatim": "**di.xpt**", "score": 0.79, "match_basis": "verbatim_token+domain_route:RE"}, {"md_atom_id": "md_dmRE_ex_a021", "md_file": "knowledge_base/domains/RE/examples.md", "md_atom_type": "SENTENCE", "md_parent_section": "§RE.1 [Example 1]", "md_verbatim": "**du.xpt**", "score": 0.79, "match_basis": "verbatim_token+domain_route:RE"}, {"md_atom_id": "md_dmRE_ex_a028", "md_file": "knowledge_base/domains/RE/examples.md", "md_atom_type": "SENTENCE", "md_parent_section": "§RE.2 [Example 2]", "md_verbatim": "**re.xpt**", "score": 0.79, "match_basis": "verbatim_token+domain_route:RE"}, {"md_atom_id": "md_dmRE_ex_a044", "md_file": "knowledge_base/domains/RE/examples.md", "md_atom_type": "SENTENCE", "md_parent_section": "§RE.2 [Example 2]", "md_verbatim": "**di.xpt**", "score": 0.79, "match_basis": "verbatim_token+domain_route:RE"}, {"md_atom_id": "md_dmRE_ex_a037", "md_file": "knowledge_base/domains/RE/examples.md", "md_atom_type": "SENTENCE", "md_parent_section": "§RE.2 [Example 2]", "md_verbatim": "**suppre.xpt**", "score": 0.31, "match_basis": "verbatim_token+domain_route:RE"}, {"md_atom_id": "md_dmRE_assn_a001", "md_file": "knowledge_base/domains/RE/assumptions.md", "md_atom_type": "HEADING", "md_parent_section": "§RE [RE — Assumptions]", "md_verbatim": "# RE — Assumptions", "score": 0.19, "match_basis": "verbatim_token+domain_route:RE"}, {"md_atom_id": "md_dmRE_assn_a002", "md_file": "knowledge_base/domains/RE/assumptions.md", "md_atom_type": "LIST_ITEM", "md_parent_section": "§RE [RE — Assumptions]", "md_verbatim": "1. The Respiratory System Findings domain is used to represent the results/findings of respiratory diagnostic procedures (e.g., spirometry). Information about the conduct of the procedure(s), if collected, should be submitted in the Procedures (PR) domain.", "score": 0.19, "match_basis": "verbatim_token+domain_route:RE"}, {"md_atom_id": "md_dmRE_assn_a003", "md_file": "knowledge_base/domains/RE/assumptions.md", "md_atom_type": "LIST_ITEM", "md_parent_section": "§RE [RE — Assumptions]", "md_verbatim": "2. Many respiratory assessments require the use of a device. When data about the device used for an assessment or additional information about its use in the assessment are collected, SPDEVID should be included in the record. See the SDTMIG for Medical Devices (SDTMIG-MD, available at https://www.cdisc.org/standards/foundational/medical-devices-sdtmig/) for further information about SPDEVID and the Device domains.", "score": 0.19, "match_basis": "verbatim_token+domain_route:RE"}, {"md_atom_id": "md_dmRE_assn_a004", "md_file": "knowledge_base/domains/RE/assumptions.md", "md_atom_type": "LIST_ITEM", "md_parent_section": "§RE [RE — Assumptions]", "md_verbatim": "3. Any Identifier, Timing variables, or Findings general observation class qualifiers may be added to the RE domain, but the following qualifiers would generally not be used: --MODIFY, --BODSYS, and --FAST.", "score": 0.19, "match_basis": "verbatim_token+domain_route:RE"}], "candidate_count": 10, "zero_candidate": false}
{"pdf_atom_id": "ig34_p0311_a011", "pdf_atom_type": "TABLE_HEADER", "pdf_source": "SDTMIG_v3.4", "pdf_page": 311, "pdf_parent_section": "§6.3.7.7 Respiratory System Findings (RE)", "pdf_verbatim": "| Row | STUDYID | DOMAIN | SPDEVID | DISEQ | DIPARMCD | DIPARM | DIVAL |", "figure_ref": null, "candidates": [{"md_atom_id": "md_dmRE_ex_a017", "md_file": "knowledge_base/domains/RE/examples.md", "md_atom_type": "TABLE_HEADER", "md_parent_section": "§RE.1 [Example 1]", "md_verbatim": "| Row | STUDYID | DOMAIN | SPDEVID | DISEQ | DIPARMCD | DIPARM | DIVAL |\n|-----|---------|--------|---------|-------|----------|--------|-------|", "score": 1.0, "match_basis": "verbatim_token+domain_route:RE"}, {"md_atom_id": "md_dmRE_ex_a045", "md_file": "knowledge_base/domains/RE/examples.md", "md_atom_type": "TABLE_HEADER", "md_parent_section": "§RE.2 [Example 2]", "md_verbatim": "| Row | STUDYID | DOMAIN | SPDEVID | DISEQ | DIPARMCD | DIPARM | DIVAL |\n|-----|---------|--------|---------|-------|----------|--------|-------|", "score": 1.0, "match_basis": "verbatim_token+domain_route:RE"}, {"md_atom_id": "md_dmRE_ex_a022", "md_file": "knowledge_base/domains/RE/examples.md", "md_atom_type": "TABLE_HEADER", "md_parent_section": "§RE.1 [Example 1]", "md_verbatim": "| Row | STUDYID | DOMAIN | USUBJID | SPDEVID | DUSEQ | DUTESTCD | DUTEST | DUORRES |\n|-----|---------|--------|---------|---------|-------|----------|--------|---------|", "score": 0.6133, "match_basis": "verbatim_token+domain_route:RE"}, {"md_atom_id": "md_dmRE_ex_a009", "md_file": "knowledge_base/domains/RE/examples.md", "md_atom_type": "TABLE_HEADER", "md_parent_section": "§RE.1 [Example 1]", "md_verbatim": "| Row | STUDYID | DOMAIN | USUBJID | SPDEVID | RESEQ | RETESTCD | RETEST | REORRES | REORRESU | REORREF | ... | VISITNUM | VISIT | REDTC |\n|-----|---------|--------|---------|---------|-------|----------|--------|---------|----------|---------|-----|----------|-------|-------|", "score": 0.5745, "match_basis": "verbatim_token+domain_route:RE"}, {"md_atom_id": "md_dmRE_ex_a029", "md_file": "knowledge_base/domains/RE/examples.md", "md_atom_type": "TABLE_HEADER", "md_parent_section": "§RE.2 [Example 2]", "md_verbatim": "| Row | STUDYID | DOMAIN | USUBJID | SPDEVID | RESEQ | RETESTCD | RETEST | REORRES | REORRESU | RESTRESN | RESTRESU | REREPNUM | VISITNUM | VISIT | REDTC |\n|-----|---------|--------|---------|---------|-------|----------|--------|---------|----------|----------|----------|----------|----------|-------|-------|", "score": 0.5548, "match_basis": "verbatim_token+domain_route:RE"}], "candidate_count": 5, "zero_candidate": false}
{"pdf_atom_id": "ig34_p0311_a012", "pdf_atom_type": "TABLE_ROW", "pdf_source": "SDTMIG_v3.4", "pdf_page": 311, "pdf_parent_section": "§6.3.7.7 Respiratory System Findings (RE)", "pdf_verbatim": "| 1 | XYZ | DI | ABC001 | 1 | DEVTYPE | Device Type | SPIROMETER |", "figure_ref": null, "candidates": [{"md_atom_id": "md_dmRE_ex_a018", "md_file": "knowledge_base/domains/RE/examples.md", "md_atom_type": "TABLE_ROW", "md_parent_section": "§RE.1 [Example 1]", "md_verbatim": "| 1 | XYZ | DI | ABC001 | 1 | DEVTYPE | Device Type | SPIROMETER |", "score": 1.0, "match_basis": "verbatim_token+domain_route:RE"}, {"md_atom_id": "md_dmRE_ex_a046", "md_file": "knowledge_base/domains/RE/examples.md", "md_atom_type": "TABLE_ROW", "md_parent_section": "§RE.2 [Example 2]", "md_verbatim": "| 1 | XYZ | DI | ABC001 | 1 | DEVTYPE | Device Type | SPIROMETER |", "score": 1.0, "match_basis": "verbatim_token+domain_route:RE"}, {"md_atom_id": "md_dmRE_ex_a019", "md_file": "knowledge_base/domains/RE/examples.md", "md_atom_type": "TABLE_ROW", "md_parent_section": "§RE.1 [Example 1]", "md_verbatim": "| 2 | XYZ | DI | DEF999 | 1 | DEVTYPE | Device Type | PEAK FLOW METER |", "score": 0.6483, "match_basis": "verbatim_token+domain_route:RE"}, {"md_atom_id": "md_dmRE_ex_a023", "md_file": "knowledge_base/domains/RE/examples.md", "md_atom_type": "TABLE_ROW", "md_parent_section": "§RE.1 [Example 1]", "md_verbatim": "| 1 | XYZ | DU | | ABC001 | 1 | SPIREFEQ | Spirometric Reference Equation | NATIONAL HEALTH NUTRITION EXAMINATION SURVEY (NHANES) III |", "score": 0.5031, "match_basis": "verbatim_token+domain_route:RE"}, {"md_atom_id": "md_dmRE_ex_a010", "md_file": "knowledge_base/domains/RE/examples.md", "md_atom_type": "TABLE_ROW", "md_parent_section": "§RE.1 [Example 1]", "md_verbatim": "| 1 | XYZ | RE | XYZ-001-001 | ABC001 | 1 | FEV1 | Forced Expiratory Volume in 1 Second | 2.73 | L | 3.37 | ... | 2 | VISIT 2 | 2013-06-30 |", "score": 0.4766, "match_basis": "verbatim_token+domain_route:RE"}], "candidate_count": 5, "zero_candidate": false}
{"pdf_atom_id": "ig34_p0311_a013", "pdf_atom_type": "TABLE_ROW", "pdf_source": "SDTMIG_v3.4", "pdf_page": 311, "pdf_parent_section": "§6.3.7.7 Respiratory System Findings (RE)", "pdf_verbatim": "| 2 | XYZ | DI | DEF999 | 1 | DEVTYPE | Device Type | PEAK FLOW METER |", "figure_ref": null, "candidates": [{"md_atom_id": "md_dmRE_ex_a019", "md_file": "knowledge_base/domains/RE/examples.md", "md_atom_type": "TABLE_ROW", "md_parent_section": "§RE.1 [Example 1]", "md_verbatim": "| 2 | XYZ | DI | DEF999 | 1 | DEVTYPE | Device Type | PEAK FLOW METER |", "score": 1.0, "match_basis": "verbatim_token+domain_route:RE"}, {"md_atom_id": "md_dmRE_ex_a018", "md_file": "knowledge_base/domains/RE/examples.md", "md_atom_type": "TABLE_ROW", "md_parent_section": "§RE.1 [Example 1]", "md_verbatim": "| 1 | XYZ | DI | ABC001 | 1 | DEVTYPE | Device Type | SPIROMETER |", "score": 0.6483, "match_basis": "verbatim_token+domain_route:RE"}, {"md_atom_id": "md_dmRE_ex_a046", "md_file": "knowledge_base/domains/RE/examples.md", "md_atom_type": "TABLE_ROW", "md_parent_section": "§RE.2 [Example 2]", "md_verbatim": "| 1 | XYZ | DI | ABC001 | 1 | DEVTYPE | Device Type | SPIROMETER |", "score": 0.6483, "match_basis": "verbatim_token+domain_route:RE"}, {"md_atom_id": "md_dmRE_ex_a014", "md_file": "knowledge_base/domains/RE/examples.md", "md_atom_type": "TABLE_ROW", "md_parent_section": "§RE.1 [Example 1]", "md_verbatim": "| 5 | XYZ | RE | XYZ-001-001 | DEF999 | 5 | PEF | Peak Expiratory Flow | 6.11 | L/s | 7.33 | ... | 4 | VISIT 4 | 2013-07-17 |", "score": 0.5543, "match_basis": "verbatim_token+domain_route:RE"}, {"md_atom_id": "md_dmRE_ex_a042", "md_file": "knowledge_base/domains/RE/examples.md", "md_atom_type": "TABLE_ROW", "md_parent_section": "§RE.2 [Example 2]", "md_verbatim": "| 4 | XYZ | RE | XYZ-001-001 | RESEQ | 4 | REIRREA2 | Inadequate Result Reason 2 | FEV1 REPEATABILITY IS UNACCEPTABLE | CRF | |", "score": 0.4182, "match_basis": "verbatim_token+domain_route:RE"}], "candidate_count": 5, "zero_candidate": false}
{"pdf_atom_id": "ig34_p0311_a014", "pdf_atom_type": "SENTENCE", "pdf_source": "SDTMIG_v3.4", "pdf_page": 311, "pdf_parent_section": "§6.3.7.7 Respiratory System Findings (RE)", "pdf_verbatim": "The DU domain shows settings used on the devices with identifier \"ABC001\".", "figure_ref": null, "candidates": [{"md_atom_id": "md_dmRE_ex_a020", "md_file": "knowledge_base/domains/RE/examples.md", "md_atom_type": "SENTENCE", "md_parent_section": "§RE.1 [Example 1]", "md_verbatim": "The DU domain shows settings used on the devices with identifier \"ABC001\". The device was set to use the NHANES III reference equation. Because this setting was the same for all uses of the device for all subjects, USUBJID is null.", "score": 0.6763, "match_basis": "verbatim_token+domain_route:RE"}, {"md_atom_id": "md_dmRE_ex_a015", "md_file": "knowledge_base/domains/RE/examples.md", "md_atom_type": "SENTENCE", "md_parent_section": "§RE.1 [Example 1]", "md_verbatim": "The DI domain provides the information needed to distinguish among devices used in the study. In this example, the only parameter needed to establish identifiers was the device type.", "score": 0.5435, "match_basis": "verbatim_token+domain_route:RE"}, {"md_atom_id": "md_dmRE_ex_a005", "md_file": "knowledge_base/domains/RE/examples.md", "md_atom_type": "SENTENCE", "md_parent_section": "§RE.1 [Example 1]", "md_verbatim": "**Rows 1-2:** Show the results for the spirometry tests FEV1 and FVC, with the predicted values in REORREF. The spirometer used in the tests is identified by the SPDEVID.", "score": 0.5291, "match_basis": "verbatim_token+domain_route:RE"}, {"md_atom_id": "md_dmRE_ex_a007", "md_file": "knowledge_base/domains/RE/examples.md", "md_atom_type": "SENTENCE", "md_parent_section": "§RE.1 [Example 1]", "md_verbatim": "**Row 5:** Shows the results of the PEF test with the predicted values in REORREF. These results were obtained with a different device, a peak flow meter, identified by the SPDEVID.", "score": 0.5271, "match_basis": "verbatim_token+domain_route:RE"}, {"md_atom_id": "md_dmRE_ex_a003", "md_file": "knowledge_base/domains/RE/examples.md", "md_atom_type": "SENTENCE", "md_parent_section": "§RE.1 [Example 1]", "md_verbatim": "This example shows results from several spirometry tests using either a spirometer or a peak flow meter. When spirometry tests are performed, the subject usually makes several efforts, each of which produces results, but only the best result for each test is used in analyses. In this study, the sponsor collected only the best results. The Device Identifiers (DI) domain was submitted for device identification, and the Device in Use (DU) domain was submitted to provide information about the use of the device.", "score": 0.4943, "match_basis": "verbatim_token+domain_route:RE"}], "candidate_count": 5, "zero_candidate": false}
{"pdf_atom_id": "ig34_p0311_a015", "pdf_atom_type": "SENTENCE", "pdf_source": "SDTMIG_v3.4", "pdf_page": 311, "pdf_parent_section": "§6.3.7.7 Respiratory System Findings (RE)", "pdf_verbatim": "The device was set to use the NHANES III reference equation.", "figure_ref": null, "candidates": [{"md_atom_id": "md_dmRE_ex_a020", "md_file": "knowledge_base/domains/RE/examples.md", "md_atom_type": "SENTENCE", "md_parent_section": "§RE.1 [Example 1]", "md_verbatim": "The DU domain shows settings used on the devices with identifier \"ABC001\". The device was set to use the NHANES III reference equation. Because this setting was the same for all uses of the device for all subjects, USUBJID is null.", "score": 0.6053, "match_basis": "verbatim_token+domain_route:RE"}, {"md_atom_id": "md_dmRE_ex_a043", "md_file": "knowledge_base/domains/RE/examples.md", "md_atom_type": "SENTENCE", "md_parent_section": "§RE.2 [Example 2]", "md_verbatim": "DI was used to represent the device type that was used to perform for the pulmonary function tests.", "score": 0.4947, "match_basis": "verbatim_token+domain_route:RE"}, {"md_atom_id": "md_dmRE_ex_a006", "md_file": "knowledge_base/domains/RE/examples.md", "md_atom_type": "SENTENCE", "md_parent_section": "§RE.1 [Example 1]", "md_verbatim": "**Rows 3-4:** Show the results for FEV1 and FVC as percentages of the predicted values. This result is output by the spirometer device, not derived by the sponsor. REORREF is null as there are no reference results for percent predicted tests.", "score": 0.475, "match_basis": "verbatim_token+domain_route:RE"}, {"md_atom_id": "md_dmRE_ex_a034", "md_file": "knowledge_base/domains/RE/examples.md", "md_atom_type": "SENTENCE", "md_parent_section": "§RE.2 [Example 2]", "md_verbatim": "Supplemental qualifiers were used to indicate which was the best result and to provide information on the attempt that was considered to produce inadequate results.", "score": 0.4638, "match_basis": "verbatim_token+domain_route:RE"}, {"md_atom_id": "md_dmRE_ex_a007", "md_file": "knowledge_base/domains/RE/examples.md", "md_atom_type": "SENTENCE", "md_parent_section": "§RE.1 [Example 1]", "md_verbatim": "**Row 5:** Shows the results of the PEF test with the predicted values in REORREF. These results were obtained with a different device, a peak flow meter, identified by the SPDEVID.", "score": 0.4635, "match_basis": "verbatim_token+domain_route:RE"}], "candidate_count": 5, "zero_candidate": false}
{"pdf_atom_id": "ig34_p0311_a016", "pdf_atom_type": "SENTENCE", "pdf_source": "SDTMIG_v3.4", "pdf_page": 311, "pdf_parent_section": "§6.3.7.7 Respiratory System Findings (RE)", "pdf_verbatim": "Because this setting was the same for all uses of the device for all subjects, USUBJID is null.", "figure_ref": null, "candidates": [{"md_atom_id": "md_dmRE_ex_a020", "md_file": "knowledge_base/domains/RE/examples.md", "md_atom_type": "SENTENCE", "md_parent_section": "§RE.1 [Example 1]", "md_verbatim": "The DU domain shows settings used on the devices with identifier \"ABC001\". The device was set to use the NHANES III reference equation. Because this setting was the same for all uses of the device for all subjects, USUBJID is null.", "score": 0.6684, "match_basis": "verbatim_token+domain_route:RE"}, {"md_atom_id": "md_dmRE_ex_a015", "md_file": "knowledge_base/domains/RE/examples.md", "md_atom_type": "SENTENCE", "md_parent_section": "§RE.1 [Example 1]", "md_verbatim": "The DI domain provides the information needed to distinguish among devices used in the study. In this example, the only parameter needed to establish identifiers was the device type.", "score": 0.478, "match_basis": "verbatim_token+domain_route:RE"}, {"md_atom_id": "md_dmRE_ex_a043", "md_file": "knowledge_base/domains/RE/examples.md", "md_atom_type": "SENTENCE", "md_parent_section": "§RE.2 [Example 2]", "md_verbatim": "DI was used to represent the device type that was used to perform for the pulmonary function tests.", "score": 0.4727, "match_basis": "verbatim_token+domain_route:RE"}, {"md_atom_id": "md_dmRE_ex_a003", "md_file": "knowledge_base/domains/RE/examples.md", "md_atom_type": "SENTENCE", "md_parent_section": "§RE.1 [Example 1]", "md_verbatim": "This example shows results from several spirometry tests using either a spirometer or a peak flow meter. When spirometry tests are performed, the subject usually makes several efforts, each of which produces results, but only the best result for each test is used in analyses. In this study, the sponsor collected only the best results. The Device Identifiers (DI) domain was submitted for device identification, and the Device in Use (DU) domain was submitted to provide information about the use of the device.", "score": 0.4695, "match_basis": "verbatim_token+domain_route:RE"}, {"md_atom_id": "md_dmRE_ex_a006", "md_file": "knowledge_base/domains/RE/examples.md", "md_atom_type": "SENTENCE", "md_parent_section": "§RE.1 [Example 1]", "md_verbatim": "**Rows 3-4:** Show the results for FEV1 and FVC as percentages of the predicted values. This result is output by the spirometer device, not derived by the sponsor. REORREF is null as there are no reference results for percent predicted tests.", "score": 0.4566, "match_basis": "verbatim_token+domain_route:RE"}], "candidate_count": 5, "zero_candidate": false}
{"pdf_atom_id": "ig34_p0311_a017", "pdf_atom_type": "CODE_LITERAL", "pdf_source": "SDTMIG_v3.4", "pdf_page": 311, "pdf_parent_section": "§6.3.7.7 Respiratory System Findings (RE)", "pdf_verbatim": "du.xpt", "figure_ref": null, "candidates": [{"md_atom_id": "md_dmRE_ex_a008", "md_file": "knowledge_base/domains/RE/examples.md", "md_atom_type": "SENTENCE", "md_parent_section": "§RE.1 [Example 1]", "md_verbatim": "**re.xpt**", "score": 0.79, "match_basis": "verbatim_token+domain_route:RE"}, {"md_atom_id": "md_dmRE_ex_a016", "md_file": "knowledge_base/domains/RE/examples.md", "md_atom_type": "SENTENCE", "md_parent_section": "§RE.1 [Example 1]", "md_verbatim": "**di.xpt**", "score": 0.79, "match_basis": "verbatim_token+domain_route:RE"}, {"md_atom_id": "md_dmRE_ex_a021", "md_file": "knowledge_base/domains/RE/examples.md", "md_atom_type": "SENTENCE", "md_parent_section": "§RE.1 [Example 1]", "md_verbatim": "**du.xpt**", "score": 0.79, "match_basis": "verbatim_token+domain_route:RE"}, {"md_atom_id": "md_dmRE_ex_a028", "md_file": "knowledge_base/domains/RE/examples.md", "md_atom_type": "SENTENCE", "md_parent_section": "§RE.2 [Example 2]", "md_verbatim": "**re.xpt**", "score": 0.79, "match_basis": "verbatim_token+domain_route:RE"}, {"md_atom_id": "md_dmRE_ex_a044", "md_file": "knowledge_base/domains/RE/examples.md", "md_atom_type": "SENTENCE", "md_parent_section": "§RE.2 [Example 2]", "md_verbatim": "**di.xpt**", "score": 0.79, "match_basis": "verbatim_token+domain_route:RE"}, {"md_atom_id": "md_dmRE_ex_a037", "md_file": "knowledge_base/domains/RE/examples.md", "md_atom_type": "SENTENCE", "md_parent_section": "§RE.2 [Example 2]", "md_verbatim": "**suppre.xpt**", "score": 0.31, "match_basis": "verbatim_token+domain_route:RE"}, {"md_atom_id": "md_dmRE_assn_a001", "md_file": "knowledge_base/domains/RE/assumptions.md", "md_atom_type": "HEADING", "md_parent_section": "§RE [RE — Assumptions]", "md_verbatim": "# RE — Assumptions", "score": 0.19, "match_basis": "verbatim_token+domain_route:RE"}, {"md_atom_id": "md_dmRE_assn_a002", "md_file": "knowledge_base/domains/RE/assumptions.md", "md_atom_type": "LIST_ITEM", "md_parent_section": "§RE [RE — Assumptions]", "md_verbatim": "1. The Respiratory System Findings domain is used to represent the results/findings of respiratory diagnostic procedures (e.g., spirometry). Information about the conduct of the procedure(s), if collected, should be submitted in the Procedures (PR) domain.", "score": 0.19, "match_basis": "verbatim_token+domain_route:RE"}, {"md_atom_id": "md_dmRE_assn_a003", "md_file": "knowledge_base/domains/RE/assumptions.md", "md_atom_type": "LIST_ITEM", "md_parent_section": "§RE [RE — Assumptions]", "md_verbatim": "2. Many respiratory assessments require the use of a device. When data about the device used for an assessment or additional information about its use in the assessment are collected, SPDEVID should be included in the record. See the SDTMIG for Medical Devices (SDTMIG-MD, available at https://www.cdisc.org/standards/foundational/medical-devices-sdtmig/) for further information about SPDEVID and the Device domains.", "score": 0.19, "match_basis": "verbatim_token+domain_route:RE"}, {"md_atom_id": "md_dmRE_assn_a004", "md_file": "knowledge_base/domains/RE/assumptions.md", "md_atom_type": "LIST_ITEM", "md_parent_section": "§RE [RE — Assumptions]", "md_verbatim": "3. Any Identifier, Timing variables, or Findings general observation class qualifiers may be added to the RE domain, but the following qualifiers would generally not be used: --MODIFY, --BODSYS, and --FAST.", "score": 0.19, "match_basis": "verbatim_token+domain_route:RE"}], "candidate_count": 10, "zero_candidate": false}
{"pdf_atom_id": "ig34_p0311_a018", "pdf_atom_type": "TABLE_HEADER", "pdf_source": "SDTMIG_v3.4", "pdf_page": 311, "pdf_parent_section": "§6.3.7.7 Respiratory System Findings (RE)", "pdf_verbatim": "| Row | STUDYID | DOMAIN | USUBJID | SPDEVID | DUSEQ | DUTESTCD | DUTEST | DUORRES |", "figure_ref": null, "candidates": [{"md_atom_id": "md_dmRE_ex_a022", "md_file": "knowledge_base/domains/RE/examples.md", "md_atom_type": "TABLE_HEADER", "md_parent_section": "§RE.1 [Example 1]", "md_verbatim": "| Row | STUDYID | DOMAIN | USUBJID | SPDEVID | DUSEQ | DUTESTCD | DUTEST | DUORRES |\n|-----|---------|--------|---------|---------|-------|----------|--------|---------|", "score": 1.0, "match_basis": "verbatim_token+domain_route:RE"}, {"md_atom_id": "md_dmRE_ex_a009", "md_file": "knowledge_base/domains/RE/examples.md", "md_atom_type": "TABLE_HEADER", "md_parent_section": "§RE.1 [Example 1]", "md_verbatim": "| Row | STUDYID | DOMAIN | USUBJID | SPDEVID | RESEQ | RETESTCD | RETEST | REORRES | REORRESU | REORREF | ... | VISITNUM | VISIT | REDTC |\n|-----|---------|--------|---------|---------|-------|----------|--------|---------|----------|---------|-----|----------|-------|-------|", "score": 0.736, "match_basis": "verbatim_token+domain_route:RE"}, {"md_atom_id": "md_dmRE_ex_a029", "md_file": "knowledge_base/domains/RE/examples.md", "md_atom_type": "TABLE_HEADER", "md_parent_section": "§RE.2 [Example 2]", "md_verbatim": "| Row | STUDYID | DOMAIN | USUBJID | SPDEVID | RESEQ | RETESTCD | RETEST | REORRES | REORRESU | RESTRESN | RESTRESU | REREPNUM | VISITNUM | VISIT | REDTC |\n|-----|---------|--------|---------|---------|-------|----------|--------|---------|----------|----------|----------|----------|----------|-------|-------|", "score": 0.6947, "match_basis": "verbatim_token+domain_route:RE"}, {"md_atom_id": "md_dmRE_ex_a017", "md_file": "knowledge_base/domains/RE/examples.md", "md_atom_type": "TABLE_HEADER", "md_parent_section": "§RE.1 [Example 1]", "md_verbatim": "| Row | STUDYID | DOMAIN | SPDEVID | DISEQ | DIPARMCD | DIPARM | DIVAL |\n|-----|---------|--------|---------|-------|----------|--------|-------|", "score": 0.6133, "match_basis": "verbatim_token+domain_route:RE"}, {"md_atom_id": "md_dmRE_ex_a045", "md_file": "knowledge_base/domains/RE/examples.md", "md_atom_type": "TABLE_HEADER", "md_parent_section": "§RE.2 [Example 2]", "md_verbatim": "| Row | STUDYID | DOMAIN | SPDEVID | DISEQ | DIPARMCD | DIPARM | DIVAL |\n|-----|---------|--------|---------|-------|----------|--------|-------|", "score": 0.6133, "match_basis": "verbatim_token+domain_route:RE"}], "candidate_count": 5, "zero_candidate": false}
{"pdf_atom_id": "ig34_p0311_a019", "pdf_atom_type": "TABLE_ROW", "pdf_source": "SDTMIG_v3.4", "pdf_page": 311, "pdf_parent_section": "§6.3.7.7 Respiratory System Findings (RE)", "pdf_verbatim": "| 1 | XYZ | DU | | ABC001 | 1 | SPIREFEQ | Spirometric Reference Equation | NATIONAL HEALTH NUTRITION EXAMINATION SURVEY (NHANES) III |", "figure_ref": null, "candidates": [{"md_atom_id": "md_dmRE_ex_a023", "md_file": "knowledge_base/domains/RE/examples.md", "md_atom_type": "TABLE_ROW", "md_parent_section": "§RE.1 [Example 1]", "md_verbatim": "| 1 | XYZ | DU | | ABC001 | 1 | SPIREFEQ | Spirometric Reference Equation | NATIONAL HEALTH NUTRITION EXAMINATION SURVEY (NHANES) III |", "score": 1.0, "match_basis": "verbatim_token+domain_route:RE"}, {"md_atom_id": "md_dmRE_ex_a018", "md_file": "knowledge_base/domains/RE/examples.md", "md_atom_type": "TABLE_ROW", "md_parent_section": "§RE.1 [Example 1]", "md_verbatim": "| 1 | XYZ | DI | ABC001 | 1 | DEVTYPE | Device Type | SPIROMETER |", "score": 0.5031, "match_basis": "verbatim_token+domain_route:RE"}, {"md_atom_id": "md_dmRE_ex_a046", "md_file": "knowledge_base/domains/RE/examples.md", "md_atom_type": "TABLE_ROW", "md_parent_section": "§RE.2 [Example 2]", "md_verbatim": "| 1 | XYZ | DI | ABC001 | 1 | DEVTYPE | Device Type | SPIROMETER |", "score": 0.5031, "match_basis": "verbatim_token+domain_route:RE"}, {"md_atom_id": "md_dmRE_ex_a041", "md_file": "knowledge_base/domains/RE/examples.md", "md_atom_type": "TABLE_ROW", "md_parent_section": "§RE.2 [Example 2]", "md_verbatim": "| 3 | XYZ | RE | XYZ-001-001 | RESEQ | 4 | REIRREA1 | Inadequate Result Reason 1 | COUGHING WAS DETECTED IN THE FIRST PART OF THE EXPIRATION | CRF | |", "score": 0.4619, "match_basis": "verbatim_token+domain_route:RE"}, {"md_atom_id": "md_dmRE_ex_a040", "md_file": "knowledge_base/domains/RE/examples.md", "md_atom_type": "TABLE_ROW", "md_parent_section": "§RE.2 [Example 2]", "md_verbatim": "| 2 | XYZ | RE | XYZ-001-001 | RESEQ | 4 | REIRESFL | Inadequate Results Flag | Y | CRF | |", "score": 0.4583, "match_basis": "verbatim_token+domain_route:RE"}], "candidate_count": 5, "zero_candidate": false}
{"pdf_atom_id": "ig34_p0311_a020", "pdf_atom_type": "HEADING", "pdf_source": "SDTMIG_v3.4", "pdf_page": 311, "pdf_parent_section": "§6.3.7.7 Respiratory System Findings (RE)", "pdf_verbatim": "Example 2", "figure_ref": null, "candidates": [{"md_atom_id": "md_dmRE_ex_a002", "md_file": "knowledge_base/domains/RE/examples.md", "md_atom_type": "HEADING", "md_parent_section": "§RE [RE — Examples]", "md_verbatim": "## Example 1", "score": 1.0, "match_basis": "verbatim_token+domain_route:RE"}, {"md_atom_id": "md_dmRE_ex_a024", "md_file": "knowledge_base/domains/RE/examples.md", "md_atom_type": "HEADING", "md_parent_section": "§RE [RE — Examples]", "md_verbatim": "## Example 2", "score": 1.0, "match_basis": "verbatim_token+domain_route:RE"}, {"md_atom_id": "md_dmRE_ex_a001", "md_file": "knowledge_base/domains/RE/examples.md", "md_atom_type": "HEADING", "md_parent_section": "§RE [RE — Examples]", "md_verbatim": "# RE — Examples", "score": 0.9, "match_basis": "verbatim_token+domain_route:RE"}, {"md_atom_id": "md_dmRE_assn_a001", "md_file": "knowledge_base/domains/RE/assumptions.md", "md_atom_type": "HEADING", "md_parent_section": "§RE [RE — Assumptions]", "md_verbatim": "# RE — Assumptions", "score": 0.4, "match_basis": "verbatim_token+domain_route:RE"}], "candidate_count": 4, "zero_candidate": false}
{"pdf_atom_id": "ig34_p0311_a021", "pdf_atom_type": "SENTENCE", "pdf_source": "SDTMIG_v3.4", "pdf_page": 311, "pdf_parent_section": "§6.3.7.7 Respiratory System Findings (RE)", "pdf_verbatim": "In this example, a subject made 4 attempts at the FEV1 pulmonary function test, and data about all attempts were collected.", "figure_ref": null, "candidates": [{"md_atom_id": "md_dmRE_ex_a025", "md_file": "knowledge_base/domains/RE/examples.md", "md_atom_type": "SENTENCE", "md_parent_section": "§RE.2 [Example 2]", "md_verbatim": "In this example, a subject made 4 attempts at the FEV1 pulmonary function test, and data about all attempts were collected. It is standard practice for multiple attempts to be made, and for the best result to be used in analyses. In this example, the spirometry report included an indicator of which was the best result. The spirometry report also included an indicator that 1 of the attempts was considered to have produced an inadequate result, with the reasons the result was considered inadequate.", "score": 0.6239, "match_basis": "verbatim_token+domain_route:RE"}, {"md_atom_id": "md_dmRE_ex_a043", "md_file": "knowledge_base/domains/RE/examples.md", "md_atom_type": "SENTENCE", "md_parent_section": "§RE.2 [Example 2]", "md_verbatim": "DI was used to represent the device type that was used to perform for the pulmonary function tests.", "score": 0.5247, "match_basis": "verbatim_token+domain_route:RE"}, {"md_atom_id": "md_dmRE_ex_a003", "md_file": "knowledge_base/domains/RE/examples.md", "md_atom_type": "SENTENCE", "md_parent_section": "§RE.1 [Example 1]", "md_verbatim": "This example shows results from several spirometry tests using either a spirometer or a peak flow meter. When spirometry tests are performed, the subject usually makes several efforts, each of which produces results, but only the best result for each test is used in analyses. In this study, the sponsor collected only the best results. The Device Identifiers (DI) domain was submitted for device identification, and the Device in Use (DU) domain was submitted to provide information about the use of the device.", "score": 0.5006, "match_basis": "verbatim_token+domain_route:RE"}, {"md_atom_id": "md_dmRE_ex_a034", "md_file": "knowledge_base/domains/RE/examples.md", "md_atom_type": "SENTENCE", "md_parent_section": "§RE.2 [Example 2]", "md_verbatim": "Supplemental qualifiers were used to indicate which was the best result and to provide information on the attempt that was considered to produce inadequate results.", "score": 0.4718, "match_basis": "verbatim_token+domain_route:RE"}, {"md_atom_id": "md_dmRE_ex_a036", "md_file": "knowledge_base/domains/RE/examples.md", "md_atom_type": "SENTENCE", "md_parent_section": "§RE.2 [Example 2]", "md_verbatim": "**Rows 2-4:** The presence of a flag, IRESFL, indicates that the data were inadequate. The 2 reasons why this was the case are represented by QNAM=\"IRREA1\" and \"IREEA2\".", "score": 0.4647, "match_basis": "verbatim_token+domain_route:RE"}], "candidate_count": 5, "zero_candidate": false}
{"pdf_atom_id": "ig34_p0311_a022", "pdf_atom_type": "SENTENCE", "pdf_source": "SDTMIG_v3.4", "pdf_page": 311, "pdf_parent_section": "§6.3.7.7 Respiratory System Findings (RE)", "pdf_verbatim": "It is standard practice for multiple attempts to be made, and for the best result to be used in analyses.", "figure_ref": null, "candidates": [{"md_atom_id": "md_dmRE_ex_a025", "md_file": "knowledge_base/domains/RE/examples.md", "md_atom_type": "SENTENCE", "md_parent_section": "§RE.2 [Example 2]", "md_verbatim": "In this example, a subject made 4 attempts at the FEV1 pulmonary function test, and data about all attempts were collected. It is standard practice for multiple attempts to be made, and for the best result to be used in analyses. In this example, the spirometry report included an indicator of which was the best result. The spirometry report also included an indicator that 1 of the attempts was considered to have produced an inadequate result, with the reasons the result was considered inadequate.", "score": 0.5732, "match_basis": "verbatim_token+domain_route:RE"}, {"md_atom_id": "md_dmRE_ex_a034", "md_file": "knowledge_base/domains/RE/examples.md", "md_atom_type": "SENTENCE", "md_parent_section": "§RE.2 [Example 2]", "md_verbatim": "Supplemental qualifiers were used to indicate which was the best result and to provide information on the attempt that was considered to produce inadequate results.", "score": 0.5069, "match_basis": "verbatim_token+domain_route:RE"}, {"md_atom_id": "md_dmRE_ex_a003", "md_file": "knowledge_base/domains/RE/examples.md", "md_atom_type": "SENTENCE", "md_parent_section": "§RE.1 [Example 1]", "md_verbatim": "This example shows results from several spirometry tests using either a spirometer or a peak flow meter. When spirometry tests are performed, the subject usually makes several efforts, each of which produces results, but only the best result for each test is used in analyses. In this study, the sponsor collected only the best results. The Device Identifiers (DI) domain was submitted for device identification, and the Device in Use (DU) domain was submitted to provide information about the use of the device.", "score": 0.4706, "match_basis": "verbatim_token+domain_route:RE"}, {"md_atom_id": "md_dmRE_ex_a043", "md_file": "knowledge_base/domains/RE/examples.md", "md_atom_type": "SENTENCE", "md_parent_section": "§RE.2 [Example 2]", "md_verbatim": "DI was used to represent the device type that was used to perform for the pulmonary function tests.", "score": 0.4658, "match_basis": "verbatim_token+domain_route:RE"}, {"md_atom_id": "md_dmRE_ex_a005", "md_file": "knowledge_base/domains/RE/examples.md", "md_atom_type": "SENTENCE", "md_parent_section": "§RE.1 [Example 1]", "md_verbatim": "**Rows 1-2:** Show the results for the spirometry tests FEV1 and FVC, with the predicted values in REORREF. The spirometer used in the tests is identified by the SPDEVID.", "score": 0.4652, "match_basis": "verbatim_token+domain_route:RE"}], "candidate_count": 5, "zero_candidate": false}
{"pdf_atom_id": "ig34_p0311_a023", "pdf_atom_type": "SENTENCE", "pdf_source": "SDTMIG_v3.4", "pdf_page": 311, "pdf_parent_section": "§6.3.7.7 Respiratory System Findings (RE)", "pdf_verbatim": "In this example, the spirometry report included an indicator of which was the best result.", "figure_ref": null, "candidates": [{"md_atom_id": "md_dmRE_ex_a025", "md_file": "knowledge_base/domains/RE/examples.md", "md_atom_type": "SENTENCE", "md_parent_section": "§RE.2 [Example 2]", "md_verbatim": "In this example, a subject made 4 attempts at the FEV1 pulmonary function test, and data about all attempts were collected. It is standard practice for multiple attempts to be made, and for the best result to be used in analyses. In this example, the spirometry report included an indicator of which was the best result. The spirometry report also included an indicator that 1 of the attempts was considered to have produced an inadequate result, with the reasons the result was considered inadequate.", "score": 0.5817, "match_basis": "verbatim_token+domain_route:RE"}, {"md_atom_id": "md_dmRE_ex_a027", "md_file": "knowledge_base/domains/RE/examples.md", "md_atom_type": "SENTENCE", "md_parent_section": "§RE.2 [Example 2]", "md_verbatim": "**Row 4:** Shows an individual test result for FEV1 as measured by spirometry. Note that this result is much less than the others.", "score": 0.544, "match_basis": "verbatim_token+domain_route:RE"}, {"md_atom_id": "md_dmRE_ex_a026", "md_file": "knowledge_base/domains/RE/examples.md", "md_atom_type": "SENTENCE", "md_parent_section": "§RE.2 [Example 2]", "md_verbatim": "**Rows 1-3:** Show individual test results for FEV1 as measured by spirometry.", "score": 0.5406, "match_basis": "verbatim_token+domain_route:RE"}, {"md_atom_id": "md_dmRE_ex_a035", "md_file": "knowledge_base/domains/RE/examples.md", "md_atom_type": "SENTENCE", "md_parent_section": "§RE.2 [Example 2]", "md_verbatim": "**Row 1:** Shows the record with RESEQ=\"1\" was the best test result, indicated by BRESFL=\"Y\".", "score": 0.5279, "match_basis": "verbatim_token+domain_route:RE"}, {"md_atom_id": "md_dmRE_ex_a003", "md_file": "knowledge_base/domains/RE/examples.md", "md_atom_type": "SENTENCE", "md_parent_section": "§RE.1 [Example 1]", "md_verbatim": "This example shows results from several spirometry tests using either a spirometer or a peak flow meter. When spirometry tests are performed, the subject usually makes several efforts, each of which produces results, but only the best result for each test is used in analyses. In this study, the sponsor collected only the best results. The Device Identifiers (DI) domain was submitted for device identification, and the Device in Use (DU) domain was submitted to provide information about the use of the device.", "score": 0.5067, "match_basis": "verbatim_token+domain_route:RE"}], "candidate_count": 5, "zero_candidate": false}
{"pdf_atom_id": "ig34_p0311_a024", "pdf_atom_type": "SENTENCE", "pdf_source": "SDTMIG_v3.4", "pdf_page": 311, "pdf_parent_section": "§6.3.7.7 Respiratory System Findings (RE)", "pdf_verbatim": "The spirometry report also included an indicator that 1 of the attempts was considered to have produced an inadequate result, with the reasons the result was considered inadequate.", "figure_ref": null, "candidates": [{"md_atom_id": "md_dmRE_ex_a025", "md_file": "knowledge_base/domains/RE/examples.md", "md_atom_type": "SENTENCE", "md_parent_section": "§RE.2 [Example 2]", "md_verbatim": "In this example, a subject made 4 attempts at the FEV1 pulmonary function test, and data about all attempts were collected. It is standard practice for multiple attempts to be made, and for the best result to be used in analyses. In this example, the spirometry report included an indicator of which was the best result. The spirometry report also included an indicator that 1 of the attempts was considered to have produced an inadequate result, with the reasons the result was considered inadequate.", "score": 0.7, "match_basis": "verbatim_token+domain_route:RE"}, {"md_atom_id": "md_dmRE_ex_a034", "md_file": "knowledge_base/domains/RE/examples.md", "md_atom_type": "SENTENCE", "md_parent_section": "§RE.2 [Example 2]", "md_verbatim": "Supplemental qualifiers were used to indicate which was the best result and to provide information on the attempt that was considered to produce inadequate results.", "score": 0.6127, "match_basis": "verbatim_token+domain_route:RE"}, {"md_atom_id": "md_dmRE_ex_a036", "md_file": "knowledge_base/domains/RE/examples.md", "md_atom_type": "SENTENCE", "md_parent_section": "§RE.2 [Example 2]", "md_verbatim": "**Rows 2-4:** The presence of a flag, IRESFL, indicates that the data were inadequate. The 2 reasons why this was the case are represented by QNAM=\"IRREA1\" and \"IREEA2\".", "score": 0.5415, "match_basis": "verbatim_token+domain_route:RE"}, {"md_atom_id": "md_dmRE_ex_a027", "md_file": "knowledge_base/domains/RE/examples.md", "md_atom_type": "SENTENCE", "md_parent_section": "§RE.2 [Example 2]", "md_verbatim": "**Row 4:** Shows an individual test result for FEV1 as measured by spirometry. Note that this result is much less than the others.", "score": 0.5118, "match_basis": "verbatim_token+domain_route:RE"}, {"md_atom_id": "md_dmRE_ex_a026", "md_file": "knowledge_base/domains/RE/examples.md", "md_atom_type": "SENTENCE", "md_parent_section": "§RE.2 [Example 2]", "md_verbatim": "**Rows 1-3:** Show individual test results for FEV1 as measured by spirometry.", "score": 0.5055, "match_basis": "verbatim_token+domain_route:RE"}], "candidate_count": 5, "zero_candidate": false}
{"pdf_atom_id": "ig34_p0311_a025", "pdf_atom_type": "LIST_ITEM", "pdf_source": "SDTMIG_v3.4", "pdf_page": 311, "pdf_parent_section": "§6.3.7.7 Respiratory System Findings (RE)", "pdf_verbatim": "Rows 1-3:\tShow individual test results for FEV1 as measured by spirometry.", "figure_ref": null, "candidates": [{"md_atom_id": "md_dmRE_ex_a026", "md_file": "knowledge_base/domains/RE/examples.md", "md_atom_type": "SENTENCE", "md_parent_section": "§RE.2 [Example 2]", "md_verbatim": "**Rows 1-3:** Show individual test results for FEV1 as measured by spirometry.", "score": 0.91, "match_basis": "verbatim_token+domain_route:RE"}, {"md_atom_id": "md_dmRE_ex_a027", "md_file": "knowledge_base/domains/RE/examples.md", "md_atom_type": "SENTENCE", "md_parent_section": "§RE.2 [Example 2]", "md_verbatim": "**Row 4:** Shows an individual test result for FEV1 as measured by spirometry. Note that this result is much less than the others.", "score": 0.7218, "match_basis": "verbatim_token+domain_route:RE"}, {"md_atom_id": "md_dmRE_ex_a005", "md_file": "knowledge_base/domains/RE/examples.md", "md_atom_type": "SENTENCE", "md_parent_section": "§RE.1 [Example 1]", "md_verbatim": "**Rows 1-2:** Show the results for the spirometry tests FEV1 and FVC, with the predicted values in REORREF. The spirometer used in the tests is identified by the SPDEVID.", "score": 0.5073, "match_basis": "verbatim_token+domain_route:RE"}, {"md_atom_id": "md_dmRE_assn_a002", "md_file": "knowledge_base/domains/RE/assumptions.md", "md_atom_type": "LIST_ITEM", "md_parent_section": "§RE [RE — Assumptions]", "md_verbatim": "1. The Respiratory System Findings domain is used to represent the results/findings of respiratory diagnostic procedures (e.g., spirometry). Information about the conduct of the procedure(s), if collected, should be submitted in the Procedures (PR) domain.", "score": 0.4991, "match_basis": "verbatim_token+domain_route:RE"}, {"md_atom_id": "md_dmRE_ex_a035", "md_file": "knowledge_base/domains/RE/examples.md", "md_atom_type": "SENTENCE", "md_parent_section": "§RE.2 [Example 2]", "md_verbatim": "**Row 1:** Shows the record with RESEQ=\"1\" was the best test result, indicated by BRESFL=\"Y\".", "score": 0.4409, "match_basis": "verbatim_token+domain_route:RE"}], "candidate_count": 5, "zero_candidate": false}
{"pdf_atom_id": "ig34_p0311_a026", "pdf_atom_type": "LIST_ITEM", "pdf_source": "SDTMIG_v3.4", "pdf_page": 311, "pdf_parent_section": "§6.3.7.7 Respiratory System Findings (RE)", "pdf_verbatim": "Row 4:\tShows an individual test result for FEV1 as measured by spirometry. Note that this result is much less than the others.", "figure_ref": null, "candidates": [{"md_atom_id": "md_dmRE_ex_a027", "md_file": "knowledge_base/domains/RE/examples.md", "md_atom_type": "SENTENCE", "md_parent_section": "§RE.2 [Example 2]", "md_verbatim": "**Row 4:** Shows an individual test result for FEV1 as measured by spirometry. Note that this result is much less than the others.", "score": 0.91, "match_basis": "verbatim_token+domain_route:RE"}, {"md_atom_id": "md_dmRE_ex_a026", "md_file": "knowledge_base/domains/RE/examples.md", "md_atom_type": "SENTENCE", "md_parent_section": "§RE.2 [Example 2]", "md_verbatim": "**Rows 1-3:** Show individual test results for FEV1 as measured by spirometry.", "score": 0.7218, "match_basis": "verbatim_token+domain_route:RE"}, {"md_atom_id": "md_dmRE_assn_a002", "md_file": "knowledge_base/domains/RE/assumptions.md", "md_atom_type": "LIST_ITEM", "md_parent_section": "§RE [RE — Assumptions]", "md_verbatim": "1. The Respiratory System Findings domain is used to represent the results/findings of respiratory diagnostic procedures (e.g., spirometry). Information about the conduct of the procedure(s), if collected, should be submitted in the Procedures (PR) domain.", "score": 0.4878, "match_basis": "verbatim_token+domain_route:RE"}, {"md_atom_id": "md_dmRE_ex_a005", "md_file": "knowledge_base/domains/RE/examples.md", "md_atom_type": "SENTENCE", "md_parent_section": "§RE.1 [Example 1]", "md_verbatim": "**Rows 1-2:** Show the results for the spirometry tests FEV1 and FVC, with the predicted values in REORREF. The spirometer used in the tests is identified by the SPDEVID.", "score": 0.4755, "match_basis": "verbatim_token+domain_route:RE"}, {"md_atom_id": "md_dmRE_ex_a006", "md_file": "knowledge_base/domains/RE/examples.md", "md_atom_type": "SENTENCE", "md_parent_section": "§RE.1 [Example 1]", "md_verbatim": "**Rows 3-4:** Show the results for FEV1 and FVC as percentages of the predicted values. This result is output by the spirometer device, not derived by the sponsor. REORREF is null as there are no reference results for percent predicted tests.", "score": 0.4502, "match_basis": "verbatim_token+domain_route:RE"}], "candidate_count": 5, "zero_candidate": false}
{"pdf_atom_id": "ig34_p0311_a027", "pdf_atom_type": "CODE_LITERAL", "pdf_source": "SDTMIG_v3.4", "pdf_page": 311, "pdf_parent_section": "§6.3.7.7 Respiratory System Findings (RE)", "pdf_verbatim": "re.xpt", "figure_ref": null, "candidates": [{"md_atom_id": "md_dmRE_ex_a008", "md_file": "knowledge_base/domains/RE/examples.md", "md_atom_type": "SENTENCE", "md_parent_section": "§RE.1 [Example 1]", "md_verbatim": "**re.xpt**", "score": 0.79, "match_basis": "verbatim_token+domain_route:RE"}, {"md_atom_id": "md_dmRE_ex_a016", "md_file": "knowledge_base/domains/RE/examples.md", "md_atom_type": "SENTENCE", "md_parent_section": "§RE.1 [Example 1]", "md_verbatim": "**di.xpt**", "score": 0.79, "match_basis": "verbatim_token+domain_route:RE"}, {"md_atom_id": "md_dmRE_ex_a021", "md_file": "knowledge_base/domains/RE/examples.md", "md_atom_type": "SENTENCE", "md_parent_section": "§RE.1 [Example 1]", "md_verbatim": "**du.xpt**", "score": 0.79, "match_basis": "verbatim_token+domain_route:RE"}, {"md_atom_id": "md_dmRE_ex_a028", "md_file": "knowledge_base/domains/RE/examples.md", "md_atom_type": "SENTENCE", "md_parent_section": "§RE.2 [Example 2]", "md_verbatim": "**re.xpt**", "score": 0.79, "match_basis": "verbatim_token+domain_route:RE"}, {"md_atom_id": "md_dmRE_ex_a044", "md_file": "knowledge_base/domains/RE/examples.md", "md_atom_type": "SENTENCE", "md_parent_section": "§RE.2 [Example 2]", "md_verbatim": "**di.xpt**", "score": 0.79, "match_basis": "verbatim_token+domain_route:RE"}, {"md_atom_id": "md_dmRE_ex_a037", "md_file": "knowledge_base/domains/RE/examples.md", "md_atom_type": "SENTENCE", "md_parent_section": "§RE.2 [Example 2]", "md_verbatim": "**suppre.xpt**", "score": 0.31, "match_basis": "verbatim_token+domain_route:RE"}, {"md_atom_id": "md_dmRE_assn_a001", "md_file": "knowledge_base/domains/RE/assumptions.md", "md_atom_type": "HEADING", "md_parent_section": "§RE [RE — Assumptions]", "md_verbatim": "# RE — Assumptions", "score": 0.19, "match_basis": "verbatim_token+domain_route:RE"}, {"md_atom_id": "md_dmRE_assn_a002", "md_file": "knowledge_base/domains/RE/assumptions.md", "md_atom_type": "LIST_ITEM", "md_parent_section": "§RE [RE — Assumptions]", "md_verbatim": "1. The Respiratory System Findings domain is used to represent the results/findings of respiratory diagnostic procedures (e.g., spirometry). Information about the conduct of the procedure(s), if collected, should be submitted in the Procedures (PR) domain.", "score": 0.19, "match_basis": "verbatim_token+domain_route:RE"}, {"md_atom_id": "md_dmRE_assn_a003", "md_file": "knowledge_base/domains/RE/assumptions.md", "md_atom_type": "LIST_ITEM", "md_parent_section": "§RE [RE — Assumptions]", "md_verbatim": "2. Many respiratory assessments require the use of a device. When data about the device used for an assessment or additional information about its use in the assessment are collected, SPDEVID should be included in the record. See the SDTMIG for Medical Devices (SDTMIG-MD, available at https://www.cdisc.org/standards/foundational/medical-devices-sdtmig/) for further information about SPDEVID and the Device domains.", "score": 0.19, "match_basis": "verbatim_token+domain_route:RE"}, {"md_atom_id": "md_dmRE_assn_a004", "md_file": "knowledge_base/domains/RE/assumptions.md", "md_atom_type": "LIST_ITEM", "md_parent_section": "§RE [RE — Assumptions]", "md_verbatim": "3. Any Identifier, Timing variables, or Findings general observation class qualifiers may be added to the RE domain, but the following qualifiers would generally not be used: --MODIFY, --BODSYS, and --FAST.", "score": 0.19, "match_basis": "verbatim_token+domain_route:RE"}], "candidate_count": 10, "zero_candidate": false}
{"pdf_atom_id": "ig34_p0311_a028", "pdf_atom_type": "TABLE_HEADER", "pdf_source": "SDTMIG_v3.4", "pdf_page": 311, "pdf_parent_section": "§6.3.7.7 Respiratory System Findings (RE)", "pdf_verbatim": "| Row | STUDYID | DOMAIN | USUBJID | SPDEVID | RESEQ | RETESTCD | RETEST | REORRES | REORRESU | RESTRESN | RESTRESU | REREPNUM | VISITNUM | VISIT | REDTC |", "figure_ref": null, "candidates": [{"md_atom_id": "md_dmRE_ex_a029", "md_file": "knowledge_base/domains/RE/examples.md", "md_atom_type": "TABLE_HEADER", "md_parent_section": "§RE.2 [Example 2]", "md_verbatim": "| Row | STUDYID | DOMAIN | USUBJID | SPDEVID | RESEQ | RETESTCD | RETEST | REORRES | REORRESU | RESTRESN | RESTRESU | REREPNUM | VISITNUM | VISIT | REDTC |\n|-----|---------|--------|---------|---------|-------|----------|--------|---------|----------|----------|----------|----------|----------|-------|-------|", "score": 1.0, "match_basis": "verbatim_token+domain_route:RE"}, {"md_atom_id": "md_dmRE_ex_a009", "md_file": "knowledge_base/domains/RE/examples.md", "md_atom_type": "TABLE_HEADER", "md_parent_section": "§RE.1 [Example 1]", "md_verbatim": "| Row | STUDYID | DOMAIN | USUBJID | SPDEVID | RESEQ | RETESTCD | RETEST | REORRES | REORRESU | REORREF | ... | VISITNUM | VISIT | REDTC |\n|-----|---------|--------|---------|---------|-------|----------|--------|---------|----------|---------|-----|----------|-------|-------|", "score": 0.8962, "match_basis": "verbatim_token+domain_route:RE"}, {"md_atom_id": "md_dmRE_ex_a022", "md_file": "knowledge_base/domains/RE/examples.md", "md_atom_type": "TABLE_HEADER", "md_parent_section": "§RE.1 [Example 1]", "md_verbatim": "| Row | STUDYID | DOMAIN | USUBJID | SPDEVID | DUSEQ | DUTESTCD | DUTEST | DUORRES |\n|-----|---------|--------|---------|---------|-------|----------|--------|---------|", "score": 0.6947, "match_basis": "verbatim_token+domain_route:RE"}, {"md_atom_id": "md_dmRE_ex_a017", "md_file": "knowledge_base/domains/RE/examples.md", "md_atom_type": "TABLE_HEADER", "md_parent_section": "§RE.1 [Example 1]", "md_verbatim": "| Row | STUDYID | DOMAIN | SPDEVID | DISEQ | DIPARMCD | DIPARM | DIVAL |\n|-----|---------|--------|---------|-------|----------|--------|-------|", "score": 0.5548, "match_basis": "verbatim_token+domain_route:RE"}, {"md_atom_id": "md_dmRE_ex_a045", "md_file": "knowledge_base/domains/RE/examples.md", "md_atom_type": "TABLE_HEADER", "md_parent_section": "§RE.2 [Example 2]", "md_verbatim": "| Row | STUDYID | DOMAIN | SPDEVID | DISEQ | DIPARMCD | DIPARM | DIVAL |\n|-----|---------|--------|---------|-------|----------|--------|-------|", "score": 0.5548, "match_basis": "verbatim_token+domain_route:RE"}], "candidate_count": 5, "zero_candidate": false}
{"pdf_atom_id": "ig34_p0311_a029", "pdf_atom_type": "TABLE_ROW", "pdf_source": "SDTMIG_v3.4", "pdf_page": 311, "pdf_parent_section": "§6.3.7.7 Respiratory System Findings (RE)", "pdf_verbatim": "| 1 | XYZ | RE | XYZ-001-001 | ABC001 | 1 | FEV1 | Forced Expiratory Volume in 1 Second | 1.94 | L | 1.94 | L | 1 | 2 | VISIT 2 | 2013-04-23 |", "figure_ref": null, "candidates": [{"md_atom_id": "md_dmRE_ex_a010", "md_file": "knowledge_base/domains/RE/examples.md", "md_atom_type": "TABLE_ROW", "md_parent_section": "§RE.1 [Example 1]", "md_verbatim": "| 1 | XYZ | RE | XYZ-001-001 | ABC001 | 1 | FEV1 | Forced Expiratory Volume in 1 Second | 2.73 | L | 3.37 | ... | 2 | VISIT 2 | 2013-06-30 |", "score": 1.0, "match_basis": "verbatim_token+domain_route:RE"}, {"md_atom_id": "md_dmRE_ex_a030", "md_file": "knowledge_base/domains/RE/examples.md", "md_atom_type": "TABLE_ROW", "md_parent_section": "§RE.2 [Example 2]", "md_verbatim": "| 1 | XYZ | RE | XYZ-001-001 | ABC001 | 1 | FEV1 | Forced Expiratory Volume in 1 Second | 1.94 | L | 1.94 | L | 1 | 2 | VISIT 2 | 2013-04-23 |", "score": 1.0, "match_basis": "verbatim_token+domain_route:RE"}, {"md_atom_id": "md_dmRE_ex_a031", "md_file": "knowledge_base/domains/RE/examples.md", "md_atom_type": "TABLE_ROW", "md_parent_section": "§RE.2 [Example 2]", "md_verbatim": "| 2 | XYZ | RE | XYZ-001-001 | ABC001 | 2 | FEV1 | Forced Expiratory Volume in 1 Second | 1.88 | L | 1.88 | L | 2 | 2 | VISIT 2 | 2013-04-23 |", "score": 1.0, "match_basis": "verbatim_token+domain_route:RE"}, {"md_atom_id": "md_dmRE_ex_a032", "md_file": "knowledge_base/domains/RE/examples.md", "md_atom_type": "TABLE_ROW", "md_parent_section": "§RE.2 [Example 2]", "md_verbatim": "| 3 | XYZ | RE | XYZ-001-001 | ABC001 | 3 | FEV1 | Forced Expiratory Volume in 1 Second | 1.88 | L | 1.88 | L | 3 | 2 | VISIT 2 | 2013-04-23 |", "score": 1.0, "match_basis": "verbatim_token+domain_route:RE"}, {"md_atom_id": "md_dmRE_ex_a033", "md_file": "knowledge_base/domains/RE/examples.md", "md_atom_type": "TABLE_ROW", "md_parent_section": "§RE.2 [Example 2]", "md_verbatim": "| 4 | XYZ | RE | XYZ-001-001 | ABC001 | 4 | FEV1 | Forced Expiratory Volume in 1 Second | 1.57 | L | 1.57 | L | 4 | 2 | VISIT 2 | 2013-04-23 |", "score": 1.0, "match_basis": "verbatim_token+domain_route:RE"}], "candidate_count": 5, "zero_candidate": false}
{"pdf_atom_id": "ig34_p0311_a030", "pdf_atom_type": "TABLE_ROW", "pdf_source": "SDTMIG_v3.4", "pdf_page": 311, "pdf_parent_section": "§6.3.7.7 Respiratory System Findings (RE)", "pdf_verbatim": "| 2 | XYZ | RE | XYZ-001-001 | ABC001 | 2 | FEV1 | Forced Expiratory Volume in 1 Second | 1.88 | L | 1.88 | L | 2 | 2 | VISIT 2 | 2013-04-23 |", "figure_ref": null, "candidates": [{"md_atom_id": "md_dmRE_ex_a010", "md_file": "knowledge_base/domains/RE/examples.md", "md_atom_type": "TABLE_ROW", "md_parent_section": "§RE.1 [Example 1]", "md_verbatim": "| 1 | XYZ | RE | XYZ-001-001 | ABC001 | 1 | FEV1 | Forced Expiratory Volume in 1 Second | 2.73 | L | 3.37 | ... | 2 | VISIT 2 | 2013-06-30 |", "score": 1.0, "match_basis": "verbatim_token+domain_route:RE"}, {"md_atom_id": "md_dmRE_ex_a030", "md_file": "knowledge_base/domains/RE/examples.md", "md_atom_type": "TABLE_ROW", "md_parent_section": "§RE.2 [Example 2]", "md_verbatim": "| 1 | XYZ | RE | XYZ-001-001 | ABC001 | 1 | FEV1 | Forced Expiratory Volume in 1 Second | 1.94 | L | 1.94 | L | 1 | 2 | VISIT 2 | 2013-04-23 |", "score": 1.0, "match_basis": "verbatim_token+domain_route:RE"}, {"md_atom_id": "md_dmRE_ex_a031", "md_file": "knowledge_base/domains/RE/examples.md", "md_atom_type": "TABLE_ROW", "md_parent_section": "§RE.2 [Example 2]", "md_verbatim": "| 2 | XYZ | RE | XYZ-001-001 | ABC001 | 2 | FEV1 | Forced Expiratory Volume in 1 Second | 1.88 | L | 1.88 | L | 2 | 2 | VISIT 2 | 2013-04-23 |", "score": 1.0, "match_basis": "verbatim_token+domain_route:RE"}, {"md_atom_id": "md_dmRE_ex_a032", "md_file": "knowledge_base/domains/RE/examples.md", "md_atom_type": "TABLE_ROW", "md_parent_section": "§RE.2 [Example 2]", "md_verbatim": "| 3 | XYZ | RE | XYZ-001-001 | ABC001 | 3 | FEV1 | Forced Expiratory Volume in 1 Second | 1.88 | L | 1.88 | L | 3 | 2 | VISIT 2 | 2013-04-23 |", "score": 1.0, "match_basis": "verbatim_token+domain_route:RE"}, {"md_atom_id": "md_dmRE_ex_a033", "md_file": "knowledge_base/domains/RE/examples.md", "md_atom_type": "TABLE_ROW", "md_parent_section": "§RE.2 [Example 2]", "md_verbatim": "| 4 | XYZ | RE | XYZ-001-001 | ABC001 | 4 | FEV1 | Forced Expiratory Volume in 1 Second | 1.57 | L | 1.57 | L | 4 | 2 | VISIT 2 | 2013-04-23 |", "score": 1.0, "match_basis": "verbatim_token+domain_route:RE"}], "candidate_count": 5, "zero_candidate": false}
{"pdf_atom_id": "ig34_p0311_a031", "pdf_atom_type": "TABLE_ROW", "pdf_source": "SDTMIG_v3.4", "pdf_page": 311, "pdf_parent_section": "§6.3.7.7 Respiratory System Findings (RE)", "pdf_verbatim": "| 3 | XYZ | RE | XYZ-001-001 | ABC001 | 3 | FEV1 | Forced Expiratory Volume in 1 Second | 1.88 | L | 1.88 | L | 3 | 2 | VISIT 2 | 2013-04-23 |", "figure_ref": null, "candidates": [{"md_atom_id": "md_dmRE_ex_a010", "md_file": "knowledge_base/domains/RE/examples.md", "md_atom_type": "TABLE_ROW", "md_parent_section": "§RE.1 [Example 1]", "md_verbatim": "| 1 | XYZ | RE | XYZ-001-001 | ABC001 | 1 | FEV1 | Forced Expiratory Volume in 1 Second | 2.73 | L | 3.37 | ... | 2 | VISIT 2 | 2013-06-30 |", "score": 1.0, "match_basis": "verbatim_token+domain_route:RE"}, {"md_atom_id": "md_dmRE_ex_a030", "md_file": "knowledge_base/domains/RE/examples.md", "md_atom_type": "TABLE_ROW", "md_parent_section": "§RE.2 [Example 2]", "md_verbatim": "| 1 | XYZ | RE | XYZ-001-001 | ABC001 | 1 | FEV1 | Forced Expiratory Volume in 1 Second | 1.94 | L | 1.94 | L | 1 | 2 | VISIT 2 | 2013-04-23 |", "score": 1.0, "match_basis": "verbatim_token+domain_route:RE"}, {"md_atom_id": "md_dmRE_ex_a031", "md_file": "knowledge_base/domains/RE/examples.md", "md_atom_type": "TABLE_ROW", "md_parent_section": "§RE.2 [Example 2]", "md_verbatim": "| 2 | XYZ | RE | XYZ-001-001 | ABC001 | 2 | FEV1 | Forced Expiratory Volume in 1 Second | 1.88 | L | 1.88 | L | 2 | 2 | VISIT 2 | 2013-04-23 |", "score": 1.0, "match_basis": "verbatim_token+domain_route:RE"}, {"md_atom_id": "md_dmRE_ex_a032", "md_file": "knowledge_base/domains/RE/examples.md", "md_atom_type": "TABLE_ROW", "md_parent_section": "§RE.2 [Example 2]", "md_verbatim": "| 3 | XYZ | RE | XYZ-001-001 | ABC001 | 3 | FEV1 | Forced Expiratory Volume in 1 Second | 1.88 | L | 1.88 | L | 3 | 2 | VISIT 2 | 2013-04-23 |", "score": 1.0, "match_basis": "verbatim_token+domain_route:RE"}, {"md_atom_id": "md_dmRE_ex_a033", "md_file": "knowledge_base/domains/RE/examples.md", "md_atom_type": "TABLE_ROW", "md_parent_section": "§RE.2 [Example 2]", "md_verbatim": "| 4 | XYZ | RE | XYZ-001-001 | ABC001 | 4 | FEV1 | Forced Expiratory Volume in 1 Second | 1.57 | L | 1.57 | L | 4 | 2 | VISIT 2 | 2013-04-23 |", "score": 1.0, "match_basis": "verbatim_token+domain_route:RE"}], "candidate_count": 5, "zero_candidate": false}
{"pdf_atom_id": "ig34_p0311_a032", "pdf_atom_type": "TABLE_ROW", "pdf_source": "SDTMIG_v3.4", "pdf_page": 311, "pdf_parent_section": "§6.3.7.7 Respiratory System Findings (RE)", "pdf_verbatim": "| 4 | XYZ | RE | XYZ-001-001 | ABC001 | 4 | FEV1 | Forced Expiratory Volume in 1 Second | 1.57 | L | 1.57 | L | 4 | 2 | VISIT 2 | 2013-04-23 |", "figure_ref": null, "candidates": [{"md_atom_id": "md_dmRE_ex_a010", "md_file": "knowledge_base/domains/RE/examples.md", "md_atom_type": "TABLE_ROW", "md_parent_section": "§RE.1 [Example 1]", "md_verbatim": "| 1 | XYZ | RE | XYZ-001-001 | ABC001 | 1 | FEV1 | Forced Expiratory Volume in 1 Second | 2.73 | L | 3.37 | ... | 2 | VISIT 2 | 2013-06-30 |", "score": 1.0, "match_basis": "verbatim_token+domain_route:RE"}, {"md_atom_id": "md_dmRE_ex_a030", "md_file": "knowledge_base/domains/RE/examples.md", "md_atom_type": "TABLE_ROW", "md_parent_section": "§RE.2 [Example 2]", "md_verbatim": "| 1 | XYZ | RE | XYZ-001-001 | ABC001 | 1 | FEV1 | Forced Expiratory Volume in 1 Second | 1.94 | L | 1.94 | L | 1 | 2 | VISIT 2 | 2013-04-23 |", "score": 1.0, "match_basis": "verbatim_token+domain_route:RE"}, {"md_atom_id": "md_dmRE_ex_a031", "md_file": "knowledge_base/domains/RE/examples.md", "md_atom_type": "TABLE_ROW", "md_parent_section": "§RE.2 [Example 2]", "md_verbatim": "| 2 | XYZ | RE | XYZ-001-001 | ABC001 | 2 | FEV1 | Forced Expiratory Volume in 1 Second | 1.88 | L | 1.88 | L | 2 | 2 | VISIT 2 | 2013-04-23 |", "score": 1.0, "match_basis": "verbatim_token+domain_route:RE"}, {"md_atom_id": "md_dmRE_ex_a032", "md_file": "knowledge_base/domains/RE/examples.md", "md_atom_type": "TABLE_ROW", "md_parent_section": "§RE.2 [Example 2]", "md_verbatim": "| 3 | XYZ | RE | XYZ-001-001 | ABC001 | 3 | FEV1 | Forced Expiratory Volume in 1 Second | 1.88 | L | 1.88 | L | 3 | 2 | VISIT 2 | 2013-04-23 |", "score": 1.0, "match_basis": "verbatim_token+domain_route:RE"}, {"md_atom_id": "md_dmRE_ex_a033", "md_file": "knowledge_base/domains/RE/examples.md", "md_atom_type": "TABLE_ROW", "md_parent_section": "§RE.2 [Example 2]", "md_verbatim": "| 4 | XYZ | RE | XYZ-001-001 | ABC001 | 4 | FEV1 | Forced Expiratory Volume in 1 Second | 1.57 | L | 1.57 | L | 4 | 2 | VISIT 2 | 2013-04-23 |", "score": 1.0, "match_basis": "verbatim_token+domain_route:RE"}], "candidate_count": 5, "zero_candidate": false}
{"pdf_atom_id": "ig34_p0311_a033", "pdf_atom_type": "SENTENCE", "pdf_source": "SDTMIG_v3.4", "pdf_page": 311, "pdf_parent_section": "§6.3.7.7 Respiratory System Findings (RE)", "pdf_verbatim": "Supplemental qualifiers were used to indicate which was the best result and to provide information on the attempt that was considered to produce inadequate results.", "figure_ref": null, "candidates": [{"md_atom_id": "md_dmRE_ex_a034", "md_file": "knowledge_base/domains/RE/examples.md", "md_atom_type": "SENTENCE", "md_parent_section": "§RE.2 [Example 2]", "md_verbatim": "Supplemental qualifiers were used to indicate which was the best result and to provide information on the attempt that was considered to produce inadequate results.", "score": 1.0, "match_basis": "verbatim_token+domain_route:RE"}, {"md_atom_id": "md_dmRE_ex_a025", "md_file": "knowledge_base/domains/RE/examples.md", "md_atom_type": "SENTENCE", "md_parent_section": "§RE.2 [Example 2]", "md_verbatim": "In this example, a subject made 4 attempts at the FEV1 pulmonary function test, and data about all attempts were collected. It is standard practice for multiple attempts to be made, and for the best result to be used in analyses. In this example, the spirometry report included an indicator of which was the best result. The spirometry report also included an indicator that 1 of the attempts was considered to have produced an inadequate result, with the reasons the result was considered inadequate.", "score": 0.5857, "match_basis": "verbatim_token+domain_route:RE"}, {"md_atom_id": "md_dmRE_ex_a003", "md_file": "knowledge_base/domains/RE/examples.md", "md_atom_type": "SENTENCE", "md_parent_section": "§RE.1 [Example 1]", "md_verbatim": "This example shows results from several spirometry tests using either a spirometer or a peak flow meter. When spirometry tests are performed, the subject usually makes several efforts, each of which produces results, but only the best result for each test is used in analyses. In this study, the sponsor collected only the best results. The Device Identifiers (DI) domain was submitted for device identification, and the Device in Use (DU) domain was submitted to provide information about the use of the device.", "score": 0.5443, "match_basis": "verbatim_token+domain_route:RE"}, {"md_atom_id": "md_dmRE_ex_a036", "md_file": "knowledge_base/domains/RE/examples.md", "md_atom_type": "SENTENCE", "md_parent_section": "§RE.2 [Example 2]", "md_verbatim": "**Rows 2-4:** The presence of a flag, IRESFL, indicates that the data were inadequate. The 2 reasons why this was the case are represented by QNAM=\"IRREA1\" and \"IREEA2\".", "score": 0.52, "match_basis": "verbatim_token+domain_route:RE"}, {"md_atom_id": "md_dmRE_ex_a015", "md_file": "knowledge_base/domains/RE/examples.md", "md_atom_type": "SENTENCE", "md_parent_section": "§RE.1 [Example 1]", "md_verbatim": "The DI domain provides the information needed to distinguish among devices used in the study. In this example, the only parameter needed to establish identifiers was the device type.", "score": 0.5136, "match_basis": "verbatim_token+domain_route:RE"}], "candidate_count": 5, "zero_candidate": false}
{"pdf_atom_id": "ig34_p0311_a034", "pdf_atom_type": "LIST_ITEM", "pdf_source": "SDTMIG_v3.4", "pdf_page": 311, "pdf_parent_section": "§6.3.7.7 Respiratory System Findings (RE)", "pdf_verbatim": "Row 1:\tShows the record with RESEQ=\"1\" was the best test result, indicated by BRESFL=\"Y\".", "figure_ref": null, "candidates": [{"md_atom_id": "md_dmRE_ex_a035", "md_file": "knowledge_base/domains/RE/examples.md", "md_atom_type": "SENTENCE", "md_parent_section": "§RE.2 [Example 2]", "md_verbatim": "**Row 1:** Shows the record with RESEQ=\"1\" was the best test result, indicated by BRESFL=\"Y\".", "score": 0.91, "match_basis": "verbatim_token+domain_route:RE"}, {"md_atom_id": "md_dmRE_assn_a002", "md_file": "knowledge_base/domains/RE/assumptions.md", "md_atom_type": "LIST_ITEM", "md_parent_section": "§RE [RE — Assumptions]", "md_verbatim": "1. The Respiratory System Findings domain is used to represent the results/findings of respiratory diagnostic procedures (e.g., spirometry). Information about the conduct of the procedure(s), if collected, should be submitted in the Procedures (PR) domain.", "score": 0.4536, "match_basis": "verbatim_token+domain_route:RE"}, {"md_atom_id": "md_dmRE_assn_a003", "md_file": "knowledge_base/domains/RE/assumptions.md", "md_atom_type": "LIST_ITEM", "md_parent_section": "§RE [RE — Assumptions]", "md_verbatim": "2. Many respiratory assessments require the use of a device. When data about the device used for an assessment or additional information about its use in the assessment are collected, SPDEVID should be included in the record. See the SDTMIG for Medical Devices (SDTMIG-MD, available at https://www.cdisc.org/standards/foundational/medical-devices-sdtmig/) for further information about SPDEVID and the Device domains.", "score": 0.4411, "match_basis": "verbatim_token+domain_route:RE"}, {"md_atom_id": "md_dmRE_ex_a026", "md_file": "knowledge_base/domains/RE/examples.md", "md_atom_type": "SENTENCE", "md_parent_section": "§RE.2 [Example 2]", "md_verbatim": "**Rows 1-3:** Show individual test results for FEV1 as measured by spirometry.", "score": 0.4409, "match_basis": "verbatim_token+domain_route:RE"}, {"md_atom_id": "md_dmRE_ex_a036", "md_file": "knowledge_base/domains/RE/examples.md", "md_atom_type": "SENTENCE", "md_parent_section": "§RE.2 [Example 2]", "md_verbatim": "**Rows 2-4:** The presence of a flag, IRESFL, indicates that the data were inadequate. The 2 reasons why this was the case are represented by QNAM=\"IRREA1\" and \"IREEA2\".", "score": 0.438, "match_basis": "verbatim_token+domain_route:RE"}], "candidate_count": 5, "zero_candidate": false}
{"pdf_atom_id": "ig34_p0311_a035", "pdf_atom_type": "LIST_ITEM", "pdf_source": "SDTMIG_v3.4", "pdf_page": 311, "pdf_parent_section": "§6.3.7.7 Respiratory System Findings (RE)", "pdf_verbatim": "Rows 2-4:\tThe presence of a flag, IRESFL, indicates that the data were inadequate. The 2 reasons why this was the case are represented by QNAM=\"IRREA1\" and \"IREEA2\".", "figure_ref": null, "candidates": [{"md_atom_id": "md_dmRE_ex_a036", "md_file": "knowledge_base/domains/RE/examples.md", "md_atom_type": "SENTENCE", "md_parent_section": "§RE.2 [Example 2]", "md_verbatim": "**Rows 2-4:** The presence of a flag, IRESFL, indicates that the data were inadequate. The 2 reasons why this was the case are represented by QNAM=\"IRREA1\" and \"IREEA2\".", "score": 0.91, "match_basis": "verbatim_token+domain_route:RE"}, {"md_atom_id": "md_dmRE_assn_a002", "md_file": "knowledge_base/domains/RE/assumptions.md", "md_atom_type": "LIST_ITEM", "md_parent_section": "§RE [RE — Assumptions]", "md_verbatim": "1. The Respiratory System Findings domain is used to represent the results/findings of respiratory diagnostic procedures (e.g., spirometry). Information about the conduct of the procedure(s), if collected, should be submitted in the Procedures (PR) domain.", "score": 0.4471, "match_basis": "verbatim_token+domain_route:RE"}, {"md_atom_id": "md_dmRE_assn_a003", "md_file": "knowledge_base/domains/RE/assumptions.md", "md_atom_type": "LIST_ITEM", "md_parent_section": "§RE [RE — Assumptions]", "md_verbatim": "2. Many respiratory assessments require the use of a device. When data about the device used for an assessment or additional information about its use in the assessment are collected, SPDEVID should be included in the record. See the SDTMIG for Medical Devices (SDTMIG-MD, available at https://www.cdisc.org/standards/foundational/medical-devices-sdtmig/) for further information about SPDEVID and the Device domains.", "score": 0.4416, "match_basis": "verbatim_token+domain_route:RE"}, {"md_atom_id": "md_dmRE_ex_a035", "md_file": "knowledge_base/domains/RE/examples.md", "md_atom_type": "SENTENCE", "md_parent_section": "§RE.2 [Example 2]", "md_verbatim": "**Row 1:** Shows the record with RESEQ=\"1\" was the best test result, indicated by BRESFL=\"Y\".", "score": 0.438, "match_basis": "verbatim_token+domain_route:RE"}, {"md_atom_id": "md_dmRE_ex_a034", "md_file": "knowledge_base/domains/RE/examples.md", "md_atom_type": "SENTENCE", "md_parent_section": "§RE.2 [Example 2]", "md_verbatim": "Supplemental qualifiers were used to indicate which was the best result and to provide information on the attempt that was considered to produce inadequate results.", "score": 0.43, "match_basis": "verbatim_token+domain_route:RE"}], "candidate_count": 5, "zero_candidate": false}
{"pdf_atom_id": "ig34_p0312_a001", "pdf_atom_type": "CODE_LITERAL", "pdf_source": "SDTMIG_v3.4", "pdf_page": 312, "pdf_parent_section": "§6.3.7.7 Respiratory System Findings (RE)", "pdf_verbatim": "suppre.xpt", "figure_ref": null, "candidates": [{"md_atom_id": "md_dmRE_ex_a037", "md_file": "knowledge_base/domains/RE/examples.md", "md_atom_type": "SENTENCE", "md_parent_section": "§RE.2 [Example 2]", "md_verbatim": "**suppre.xpt**", "score": 0.79, "match_basis": "verbatim_token+domain_route:RE"}, {"md_atom_id": "md_dmRE_ex_a008", "md_file": "knowledge_base/domains/RE/examples.md", "md_atom_type": "SENTENCE", "md_parent_section": "§RE.1 [Example 1]", "md_verbatim": "**re.xpt**", "score": 0.31, "match_basis": "verbatim_token+domain_route:RE"}, {"md_atom_id": "md_dmRE_ex_a016", "md_file": "knowledge_base/domains/RE/examples.md", "md_atom_type": "SENTENCE", "md_parent_section": "§RE.1 [Example 1]", "md_verbatim": "**di.xpt**", "score": 0.31, "match_basis": "verbatim_token+domain_route:RE"}, {"md_atom_id": "md_dmRE_ex_a021", "md_file": "knowledge_base/domains/RE/examples.md", "md_atom_type": "SENTENCE", "md_parent_section": "§RE.1 [Example 1]", "md_verbatim": "**du.xpt**", "score": 0.31, "match_basis": "verbatim_token+domain_route:RE"}, {"md_atom_id": "md_dmRE_ex_a028", "md_file": "knowledge_base/domains/RE/examples.md", "md_atom_type": "SENTENCE", "md_parent_section": "§RE.2 [Example 2]", "md_verbatim": "**re.xpt**", "score": 0.31, "match_basis": "verbatim_token+domain_route:RE"}, {"md_atom_id": "md_dmRE_ex_a044", "md_file": "knowledge_base/domains/RE/examples.md", "md_atom_type": "SENTENCE", "md_parent_section": "§RE.2 [Example 2]", "md_verbatim": "**di.xpt**", "score": 0.31, "match_basis": "verbatim_token+domain_route:RE"}, {"md_atom_id": "md_dmRE_ex_a012", "md_file": "knowledge_base/domains/RE/examples.md", "md_atom_type": "TABLE_ROW", "md_parent_section": "§RE.1 [Example 1]", "md_verbatim": "| 3 | XYZ | RE | XYZ-001-001 | ABC001 | 3 | FEV1PP | Percent Predicted FEV1 | 81 | % | | ... | 2 | VISIT 2 | 2013-06-30 |", "score": 0.21, "match_basis": "verbatim_token+domain_route:RE"}, {"md_atom_id": "md_dmRE_ex_a034", "md_file": "knowledge_base/domains/RE/examples.md", "md_atom_type": "SENTENCE", "md_parent_section": "§RE.2 [Example 2]", "md_verbatim": "Supplemental qualifiers were used to indicate which was the best result and to provide information on the attempt that was considered to produce inadequate results.", "score": 0.2048, "match_basis": "verbatim_token+domain_route:RE"}, {"md_atom_id": "md_dmRE_ex_a013", "md_file": "knowledge_base/domains/RE/examples.md", "md_atom_type": "TABLE_ROW", "md_parent_section": "§RE.1 [Example 1]", "md_verbatim": "| 4 | XYZ | RE | XYZ-001-001 | ABC001 | 4 | FVCPP | Percent Predicted Forced Vital Capacity | 101.3 | % | | ... | 2 | VISIT 2 | 2013-06-30 |", "score": 0.2043, "match_basis": "verbatim_token+domain_route:RE"}, {"md_atom_id": "md_dmRE_ex_a043", "md_file": "knowledge_base/domains/RE/examples.md", "md_atom_type": "SENTENCE", "md_parent_section": "§RE.2 [Example 2]", "md_verbatim": "DI was used to represent the device type that was used to perform for the pulmonary function tests.", "score": 0.2036, "match_basis": "verbatim_token+domain_route:RE"}], "candidate_count": 10, "zero_candidate": false}
{"pdf_atom_id": "ig34_p0312_a002", "pdf_atom_type": "TABLE_HEADER", "pdf_source": "SDTMIG_v3.4", "pdf_page": 312, "pdf_parent_section": "§6.3.7.7 Respiratory System Findings (RE)", "pdf_verbatim": "| Row | STUDYID | RDOMAIN | USUBJID | IDVAR | IDVARVAL | QNAM | QLABEL | QVAL | QORIG | QEVAL |", "figure_ref": null, "candidates": [{"md_atom_id": "md_dmRE_ex_a038", "md_file": "knowledge_base/domains/RE/examples.md", "md_atom_type": "TABLE_HEADER", "md_parent_section": "§RE.2 [Example 2]", "md_verbatim": "| Row | STUDYID | RDOMAIN | USUBJID | IDVAR | IDVARVAL | QNAM | QLABEL | QVAL | QORIG | QEVAL |\n|-----|---------|---------|---------|-------|----------|------|--------|------|-------|-------|", "score": 1.0, "match_basis": "verbatim_token+domain_route:RE"}, {"md_atom_id": "md_dmRE_ex_a022", "md_file": "knowledge_base/domains/RE/examples.md", "md_atom_type": "TABLE_HEADER", "md_parent_section": "§RE.1 [Example 1]", "md_verbatim": "| Row | STUDYID | DOMAIN | USUBJID | SPDEVID | DUSEQ | DUTESTCD | DUTEST | DUORRES |\n|-----|---------|--------|---------|---------|-------|----------|--------|---------|", "score": 0.5698, "match_basis": "verbatim_token+domain_route:RE"}, {"md_atom_id": "md_dmRE_ex_a009", "md_file": "knowledge_base/domains/RE/examples.md", "md_atom_type": "TABLE_HEADER", "md_parent_section": "§RE.1 [Example 1]", "md_verbatim": "| Row | STUDYID | DOMAIN | USUBJID | SPDEVID | RESEQ | RETESTCD | RETEST | REORRES | REORRESU | REORREF | ... | VISITNUM | VISIT | REDTC |\n|-----|---------|--------|---------|---------|-------|----------|--------|---------|----------|---------|-----|----------|-------|-------|", "score": 0.5429, "match_basis": "verbatim_token+domain_route:RE"}, {"md_atom_id": "md_dmRE_ex_a017", "md_file": "knowledge_base/domains/RE/examples.md", "md_atom_type": "TABLE_HEADER", "md_parent_section": "§RE.1 [Example 1]", "md_verbatim": "| Row | STUDYID | DOMAIN | SPDEVID | DISEQ | DIPARMCD | DIPARM | DIVAL |\n|-----|---------|--------|---------|-------|----------|--------|-------|", "score": 0.532, "match_basis": "verbatim_token+domain_route:RE"}, {"md_atom_id": "md_dmRE_ex_a045", "md_file": "knowledge_base/domains/RE/examples.md", "md_atom_type": "TABLE_HEADER", "md_parent_section": "§RE.2 [Example 2]", "md_verbatim": "| Row | STUDYID | DOMAIN | SPDEVID | DISEQ | DIPARMCD | DIPARM | DIVAL |\n|-----|---------|--------|---------|-------|----------|--------|-------|", "score": 0.532, "match_basis": "verbatim_token+domain_route:RE"}], "candidate_count": 5, "zero_candidate": false}
{"pdf_atom_id": "ig34_p0312_a003", "pdf_atom_type": "TABLE_ROW", "pdf_source": "SDTMIG_v3.4", "pdf_page": 312, "pdf_parent_section": "§6.3.7.7 Respiratory System Findings (RE)", "pdf_verbatim": "| 1 | XYZ | RE | XYZ-001-001 | RESEQ | 1 | REBRESFL | Best Result Flag | Y | CRF | |", "figure_ref": null, "candidates": [{"md_atom_id": "md_dmRE_ex_a039", "md_file": "knowledge_base/domains/RE/examples.md", "md_atom_type": "TABLE_ROW", "md_parent_section": "§RE.2 [Example 2]", "md_verbatim": "| 1 | XYZ | RE | XYZ-001-001 | RESEQ | 1 | REBRESFL | Best Result Flag | Y | CRF | |", "score": 1.0, "match_basis": "verbatim_token+domain_route:RE"}, {"md_atom_id": "md_dmRE_ex_a040", "md_file": "knowledge_base/domains/RE/examples.md", "md_atom_type": "TABLE_ROW", "md_parent_section": "§RE.2 [Example 2]", "md_verbatim": "| 2 | XYZ | RE | XYZ-001-001 | RESEQ | 4 | REIRESFL | Inadequate Results Flag | Y | CRF | |", "score": 0.66, "match_basis": "verbatim_token+domain_route:RE"}, {"md_atom_id": "md_dmRE_ex_a042", "md_file": "knowledge_base/domains/RE/examples.md", "md_atom_type": "TABLE_ROW", "md_parent_section": "§RE.2 [Example 2]", "md_verbatim": "| 4 | XYZ | RE | XYZ-001-001 | RESEQ | 4 | REIRREA2 | Inadequate Result Reason 2 | FEV1 REPEATABILITY IS UNACCEPTABLE | CRF | |", "score": 0.4947, "match_basis": "verbatim_token+domain_route:RE"}, {"md_atom_id": "md_dmRE_ex_a041", "md_file": "knowledge_base/domains/RE/examples.md", "md_atom_type": "TABLE_ROW", "md_parent_section": "§RE.2 [Example 2]", "md_verbatim": "| 3 | XYZ | RE | XYZ-001-001 | RESEQ | 4 | REIRREA1 | Inadequate Result Reason 1 | COUGHING WAS DETECTED IN THE FIRST PART OF THE EXPIRATION | CRF | |", "score": 0.4871, "match_basis": "verbatim_token+domain_route:RE"}, {"md_atom_id": "md_dmRE_ex_a018", "md_file": "knowledge_base/domains/RE/examples.md", "md_atom_type": "TABLE_ROW", "md_parent_section": "§RE.1 [Example 1]", "md_verbatim": "| 1 | XYZ | DI | ABC001 | 1 | DEVTYPE | Device Type | SPIROMETER |", "score": 0.4324, "match_basis": "verbatim_token+domain_route:RE"}], "candidate_count": 5, "zero_candidate": false}
{"pdf_atom_id": "ig34_p0312_a004", "pdf_atom_type": "TABLE_ROW", "pdf_source": "SDTMIG_v3.4", "pdf_page": 312, "pdf_parent_section": "§6.3.7.7 Respiratory System Findings (RE)", "pdf_verbatim": "| 2 | XYZ | RE | XYZ-001-001 | RESEQ | 4 | REIRESFL | Inadequate Results Flag | Y | CRF | |", "figure_ref": null, "candidates": [{"md_atom_id": "md_dmRE_ex_a040", "md_file": "knowledge_base/domains/RE/examples.md", "md_atom_type": "TABLE_ROW", "md_parent_section": "§RE.2 [Example 2]", "md_verbatim": "| 2 | XYZ | RE | XYZ-001-001 | RESEQ | 4 | REIRESFL | Inadequate Results Flag | Y | CRF | |", "score": 1.0, "match_basis": "verbatim_token+domain_route:RE"}, {"md_atom_id": "md_dmRE_ex_a039", "md_file": "knowledge_base/domains/RE/examples.md", "md_atom_type": "TABLE_ROW", "md_parent_section": "§RE.2 [Example 2]", "md_verbatim": "| 1 | XYZ | RE | XYZ-001-001 | RESEQ | 1 | REBRESFL | Best Result Flag | Y | CRF | |", "score": 0.66, "match_basis": "verbatim_token+domain_route:RE"}, {"md_atom_id": "md_dmRE_ex_a042", "md_file": "knowledge_base/domains/RE/examples.md", "md_atom_type": "TABLE_ROW", "md_parent_section": "§RE.2 [Example 2]", "md_verbatim": "| 4 | XYZ | RE | XYZ-001-001 | RESEQ | 4 | REIRREA2 | Inadequate Result Reason 2 | FEV1 REPEATABILITY IS UNACCEPTABLE | CRF | |", "score": 0.6111, "match_basis": "verbatim_token+domain_route:RE"}, {"md_atom_id": "md_dmRE_ex_a041", "md_file": "knowledge_base/domains/RE/examples.md", "md_atom_type": "TABLE_ROW", "md_parent_section": "§RE.2 [Example 2]", "md_verbatim": "| 3 | XYZ | RE | XYZ-001-001 | RESEQ | 4 | REIRREA1 | Inadequate Result Reason 1 | COUGHING WAS DETECTED IN THE FIRST PART OF THE EXPIRATION | CRF | |", "score": 0.5932, "match_basis": "verbatim_token+domain_route:RE"}, {"md_atom_id": "md_dmRE_ex_a023", "md_file": "knowledge_base/domains/RE/examples.md", "md_atom_type": "TABLE_ROW", "md_parent_section": "§RE.1 [Example 1]", "md_verbatim": "| 1 | XYZ | DU | | ABC001 | 1 | SPIREFEQ | Spirometric Reference Equation | NATIONAL HEALTH NUTRITION EXAMINATION SURVEY (NHANES) III |", "score": 0.4583, "match_basis": "verbatim_token+domain_route:RE"}], "candidate_count": 5, "zero_candidate": false}
