{"pdf_atom_id": "ig34_p0165_a0012", "pdf_atom_type": "LIST_ITEM", "pdf_source": "SDTMIG_v3.4", "pdf_page": 165, "pdf_parent_section": "§6.2.4 Disposition (DS)", "pdf_verbatim": "Rows 1, 8:\tShow randomization to either DRUG 1 or DRUG 2 in the study.", "figure_ref": null, "candidates": [{"md_atom_id": "md_dmDS_ex_a188", "md_file": "knowledge_base/domains/DS/examples.md", "md_atom_type": "SENTENCE", "md_parent_section": "§DS.10 [Example 10]", "md_verbatim": "**Rows 1, 8:** Show randomization to either DRUG 1 or DRUG 2 in the study.", "score": 0.91, "match_basis": "verbatim_token+domain_route:DS"}, {"md_atom_id": "md_dmDS_ex_a119", "md_file": "knowledge_base/domains/DS/examples.md", "md_atom_type": "SENTENCE", "md_parent_section": "§DS.9 [Example 9]", "md_verbatim": "**Row 2:** Shows randomization, another event with DSCAT = \"PROTOCOL MILESTONE\".", "score": 0.5398, "match_basis": "verbatim_token+domain_route:DS"}, {"md_atom_id": "md_dmDS_assn_a023", "md_file": "knowledge_base/domains/DS/assumptions.md", "md_atom_type": "LIST_ITEM", "md_parent_section": "§DS [DS — Assumptions]", "md_verbatim": "   a. DSSTDTC is expected and is used for the date/time of the disposition event. Events represented in the DS domain do not have end dates; disposition events do not span an interval, but rather occur at a single date/time (e.g., randomization date, disposition of study participation or study treatment).", "score": 0.497, "match_basis": "verbatim_token+domain_route:DS"}, {"md_atom_id": "md_dmDS_assn_a003", "md_file": "knowledge_base/domains/DS/assumptions.md", "md_atom_type": "LIST_ITEM", "md_parent_section": "§DS [DS — Assumptions]", "md_verbatim": "2. **Categorization**", "score": 0.4968, "match_basis": "verbatim_token+domain_route:DS"}, {"md_atom_id": "md_dmDS_assn_a006", "md_file": "knowledge_base/domains/DS/assumptions.md", "md_atom_type": "LIST_ITEM", "md_parent_section": "§DS [DS — Assumptions]", "md_verbatim": "      i. DSSCAT = \"STUDY PARTICIPATION\" is used to represent disposition of study participation.", "score": 0.4692, "match_basis": "verbatim_token+domain_route:DS"}], "candidate_count": 5, "zero_candidate": false}
{"pdf_atom_id": "ig34_p0165_a0013", "pdf_atom_type": "LIST_ITEM", "pdf_source": "SDTMIG_v3.4", "pdf_page": 165, "pdf_parent_section": "§6.2.4 Disposition (DS)", "pdf_verbatim": "Rows 2, 9:\tRepresent the completion of the screening phase of the study. Note that although a form describing disposition of the screening epoch may be filled out before treatment starts, the screening epoch does not end until treatment begins.", "figure_ref": null, "candidates": [{"md_atom_id": "md_dmDS_ex_a189", "md_file": "knowledge_base/domains/DS/examples.md", "md_atom_type": "SENTENCE", "md_parent_section": "§DS.10 [Example 10]", "md_verbatim": "**Rows 2, 9:** Represent the completion of the screening phase of the study. Note that although a form describing disposition of the screening epoch does not end until treatment starts, the screening epoch does not end until treatment starts.", "score": 0.8214, "match_basis": "verbatim_token+domain_route:DS"}, {"md_atom_id": "md_dmDS_assn_a005", "md_file": "knowledge_base/domains/DS/assumptions.md", "md_atom_type": "LIST_ITEM", "md_parent_section": "§DS [DS — Assumptions]", "md_verbatim": "   b. An event with DSCAT = \"DISPOSITION EVENT\" describes either disposition of study participation or of a study treatment. It describes whether a subject completed study participation or a study treatment and, if not, the reason they did not complete it. Dispositions may be described for each epoch (e.g., screening, initial treatment, washout, cross-over treatment, follow-up) or for the study as a whole. If disposition events for both study participation and study treatment(s) are to be represented, then DSCAT provides this distinction. For records with DSCAT = \"DISPOSITION EVENT\",", "score": 0.58, "match_basis": "verbatim_token+domain_route:DS"}, {"md_atom_id": "md_dmDS_assn_a002", "md_file": "knowledge_base/domains/DS/assumptions.md", "md_atom_type": "LIST_ITEM", "md_parent_section": "§DS [DS — Assumptions]", "md_verbatim": "1. The Disposition (DS) dataset provides an accounting for all subjects who entered the study and may include protocol milestones, such as randomization, as well as the subject's completion status or reason for discontinuation for the entire study or each phase or segment of the study, including screening and post-treatment follow-up. Sponsors may choose which disposition events and milestones to submit for a study. See ICH E3, Section 10.1, for information about disposition events.", "score": 0.5327, "match_basis": "verbatim_token+domain_route:DS"}, {"md_atom_id": "md_dmDS_assn_a023", "md_file": "knowledge_base/domains/DS/assumptions.md", "md_atom_type": "LIST_ITEM", "md_parent_section": "§DS [DS — Assumptions]", "md_verbatim": "   a. DSSTDTC is expected and is used for the date/time of the disposition event. Events represented in the DS domain do not have end dates; disposition events do not span an interval, but rather occur at a single date/time (e.g., randomization date, disposition of study participation or study treatment).", "score": 0.5257, "match_basis": "verbatim_token+domain_route:DS"}, {"md_atom_id": "md_dmDS_assn_a006", "md_file": "knowledge_base/domains/DS/assumptions.md", "md_atom_type": "LIST_ITEM", "md_parent_section": "§DS [DS — Assumptions]", "md_verbatim": "      i. DSSCAT = \"STUDY PARTICIPATION\" is used to represent disposition of study participation.", "score": 0.5176, "match_basis": "verbatim_token+domain_route:DS"}], "candidate_count": 5, "zero_candidate": false}
{"pdf_atom_id": "ig34_p0165_a0014", "pdf_atom_type": "LIST_ITEM", "pdf_source": "SDTMIG_v3.4", "pdf_page": 165, "pdf_parent_section": "§6.2.4 Disposition (DS)", "pdf_verbatim": "Rows 3, 5, 10, 12:\tRepresent the completion of drug for each EPOCH, where DSSCAT has the name of the drug(s). The DSSTDTC is the end date of study treatment for the epoch.", "figure_ref": null, "candidates": [{"md_atom_id": "md_dmDS_ex_a190", "md_file": "knowledge_base/domains/DS/examples.md", "md_atom_type": "SENTENCE", "md_parent_section": "§DS.10 [Example 10]", "md_verbatim": "**Rows 3, 5, 10, 12:** Represent the completion of drug for each EPOCH, where DSSCAT has the name of the drug(s). The DSSTDTC is the end date of study treatment for the epoch.", "score": 0.91, "match_basis": "verbatim_token+domain_route:DS"}, {"md_atom_id": "md_dmDS_ex_a191", "md_file": "knowledge_base/domains/DS/examples.md", "md_atom_type": "SENTENCE", "md_parent_section": "§DS.10 [Example 10]", "md_verbatim": "**Rows 4, 6, 11, 13:** Represent the completion of study participation for each epoch, where DSSCAT has the name of \"STUDY PARTICIPATION\". The DSSTDTC is the end date of study participation for the epoch. There was a 1-day evaluation post-treatment.", "score": 0.7386, "match_basis": "verbatim_token+domain_route:DS"}, {"md_atom_id": "md_dmDS_ex_a192", "md_file": "knowledge_base/domains/DS/examples.md", "md_atom_type": "SENTENCE", "md_parent_section": "§DS.10 [Example 10]", "md_verbatim": "**Rows 7, 14:** Represent the completion of study participation follow-up epoch, where DSSCAT has the name of \"STUDY PARTICIPATION\". The DSSTDTC is the end date of study participation for the epoch.", "score": 0.6977, "match_basis": "verbatim_token+domain_route:DS"}, {"md_atom_id": "md_dmDS_ex_a096", "md_file": "knowledge_base/domains/DS/examples.md", "md_atom_type": "SENTENCE", "md_parent_section": "§DS.7 [Example 7]", "md_verbatim": "**Rows 1, 3:** Represent the disposition of treatment for each treatment epoch, as indicated by DSSCAT = \"STUDY TREATMENT\".", "score": 0.61, "match_basis": "verbatim_token+domain_route:DS"}, {"md_atom_id": "md_dmDS_ex_a075", "md_file": "knowledge_base/domains/DS/examples.md", "md_atom_type": "SENTENCE", "md_parent_section": "§DS.5 [Example 5]", "md_verbatim": "**Rows 2, 4:** Represent the treatment continuation and completion for isoniazid each treatment epoch.", "score": 0.5747, "match_basis": "verbatim_token+domain_route:DS"}], "candidate_count": 5, "zero_candidate": false}
{"pdf_atom_id": "ig34_p0165_a0015", "pdf_atom_type": "LIST_ITEM", "pdf_source": "SDTMIG_v3.4", "pdf_page": 165, "pdf_parent_section": "§6.2.4 Disposition (DS)", "pdf_verbatim": "Rows 4, 6, 11, 13:\tRepresent the completion of study participation for each epoch, where DSSCAT has the name of \"STUDY PARTICIPATION\". The DSSTDTC is the end date of study participation for the epoch. There was a 1-day evaluation post-treatment.", "figure_ref": null, "candidates": [{"md_atom_id": "md_dmDS_ex_a191", "md_file": "knowledge_base/domains/DS/examples.md", "md_atom_type": "SENTENCE", "md_parent_section": "§DS.10 [Example 10]", "md_verbatim": "**Rows 4, 6, 11, 13:** Represent the completion of study participation for each epoch, where DSSCAT has the name of \"STUDY PARTICIPATION\". The DSSTDTC is the end date of study participation for the epoch. There was a 1-day evaluation post-treatment.", "score": 0.91, "match_basis": "verbatim_token+domain_route:DS"}, {"md_atom_id": "md_dmDS_ex_a190", "md_file": "knowledge_base/domains/DS/examples.md", "md_atom_type": "SENTENCE", "md_parent_section": "§DS.10 [Example 10]", "md_verbatim": "**Rows 3, 5, 10, 12:** Represent the completion of drug for each EPOCH, where DSSCAT has the name of the drug(s). The DSSTDTC is the end date of study treatment for the epoch.", "score": 0.7386, "match_basis": "verbatim_token+domain_route:DS"}, {"md_atom_id": "md_dmDS_ex_a192", "md_file": "knowledge_base/domains/DS/examples.md", "md_atom_type": "SENTENCE", "md_parent_section": "§DS.10 [Example 10]", "md_verbatim": "**Rows 7, 14:** Represent the completion of study participation follow-up epoch, where DSSCAT has the name of \"STUDY PARTICIPATION\". The DSSTDTC is the end date of study participation for the epoch.", "score": 0.735, "match_basis": "verbatim_token+domain_route:DS"}, {"md_atom_id": "md_dmDS_ex_a076", "md_file": "knowledge_base/domains/DS/examples.md", "md_atom_type": "SENTENCE", "md_parent_section": "§DS.5 [Example 5]", "md_verbatim": "**Rows 3, 5:** Represent the study disposition for each treatment epoch, as indicated by DSSCAT = \"STUDY PARTICIPATION\".", "score": 0.629, "match_basis": "verbatim_token+domain_route:DS"}, {"md_atom_id": "md_dmDS_ex_a107", "md_file": "knowledge_base/domains/DS/examples.md", "md_atom_type": "SENTENCE", "md_parent_section": "§DS.8 [Example 8]", "md_verbatim": "**Rows 3, 6:** Represent the disposition of study participation for each of the 2 treatment epochs, as indicated by DSSCAT = \"STUDY PARTICIPATION\".", "score": 0.625, "match_basis": "verbatim_token+domain_route:DS"}], "candidate_count": 5, "zero_candidate": false}
{"pdf_atom_id": "ig34_p0165_a0016", "pdf_atom_type": "LIST_ITEM", "pdf_source": "SDTMIG_v3.4", "pdf_page": 165, "pdf_parent_section": "§6.2.4 Disposition (DS)", "pdf_verbatim": "Rows 7, 14:\tRepresent the completion of the study participation follow-up epoch, where DSSCAT has the name of \"STUDY PARTICIPATION\". The DSSTDTC is the end date of study participation for the epoch.", "figure_ref": null, "candidates": [{"md_atom_id": "md_dmDS_ex_a192", "md_file": "knowledge_base/domains/DS/examples.md", "md_atom_type": "SENTENCE", "md_parent_section": "§DS.10 [Example 10]", "md_verbatim": "**Rows 7, 14:** Represent the completion of study participation follow-up epoch, where DSSCAT has the name of \"STUDY PARTICIPATION\". The DSSTDTC is the end date of study participation for the epoch.", "score": 0.91, "match_basis": "verbatim_token+domain_route:DS"}, {"md_atom_id": "md_dmDS_ex_a191", "md_file": "knowledge_base/domains/DS/examples.md", "md_atom_type": "SENTENCE", "md_parent_section": "§DS.10 [Example 10]", "md_verbatim": "**Rows 4, 6, 11, 13:** Represent the completion of study participation for each epoch, where DSSCAT has the name of \"STUDY PARTICIPATION\". The DSSTDTC is the end date of study participation for the epoch. There was a 1-day evaluation post-treatment.", "score": 0.735, "match_basis": "verbatim_token+domain_route:DS"}, {"md_atom_id": "md_dmDS_ex_a190", "md_file": "knowledge_base/domains/DS/examples.md", "md_atom_type": "SENTENCE", "md_parent_section": "§DS.10 [Example 10]", "md_verbatim": "**Rows 3, 5, 10, 12:** Represent the completion of drug for each EPOCH, where DSSCAT has the name of the drug(s). The DSSTDTC is the end date of study treatment for the epoch.", "score": 0.6977, "match_basis": "verbatim_token+domain_route:DS"}, {"md_atom_id": "md_dmDS_assn_a006", "md_file": "knowledge_base/domains/DS/assumptions.md", "md_atom_type": "LIST_ITEM", "md_parent_section": "§DS [DS — Assumptions]", "md_verbatim": "      i. DSSCAT = \"STUDY PARTICIPATION\" is used to represent disposition of study participation.", "score": 0.6344, "match_basis": "verbatim_token+domain_route:DS"}, {"md_atom_id": "md_dmDS_ex_a088", "md_file": "knowledge_base/domains/DS/examples.md", "md_atom_type": "SENTENCE", "md_parent_section": "§DS.6 [Example 6]", "md_verbatim": "**Row 3:** Represents the final study completion within the trial, which is indicated by DSSCAT = \"STUDY PARTICIPATION\".", "score": 0.5857, "match_basis": "verbatim_token+domain_route:DS"}], "candidate_count": 5, "zero_candidate": false}
{"pdf_atom_id": "ig34_p0165_a0017", "pdf_atom_type": "CODE_LITERAL", "pdf_source": "SDTMIG_v3.4", "pdf_page": 165, "pdf_parent_section": "§6.2.4 Disposition (DS)", "pdf_verbatim": "ds.xpt", "figure_ref": null, "candidates": [{"md_atom_id": "md_dmDS_ex_a011", "md_file": "knowledge_base/domains/DS/examples.md", "md_atom_type": "SENTENCE", "md_parent_section": "§DS.1 [Example 1]", "md_verbatim": "**ds.xpt**", "score": 0.79, "match_basis": "verbatim_token+domain_route:DS"}, {"md_atom_id": "md_dmDS_ex_a038", "md_file": "knowledge_base/domains/DS/examples.md", "md_atom_type": "SENTENCE", "md_parent_section": "§DS.2 [Example 2]", "md_verbatim": "**ds.xpt**", "score": 0.79, "match_basis": "verbatim_token+domain_route:DS"}, {"md_atom_id": "md_dmDS_ex_a049", "md_file": "knowledge_base/domains/DS/examples.md", "md_atom_type": "SENTENCE", "md_parent_section": "§DS.3 [Example 3]", "md_verbatim": "**ds.xpt**", "score": 0.79, "match_basis": "verbatim_token+domain_route:DS"}, {"md_atom_id": "md_dmDS_ex_a059", "md_file": "knowledge_base/domains/DS/examples.md", "md_atom_type": "SENTENCE", "md_parent_section": "§DS.4 [Example 4]", "md_verbatim": "**ds.xpt**", "score": 0.79, "match_basis": "verbatim_token+domain_route:DS"}, {"md_atom_id": "md_dmDS_ex_a063", "md_file": "knowledge_base/domains/DS/examples.md", "md_atom_type": "SENTENCE", "md_parent_section": "§DS.4 [Example 4]", "md_verbatim": "**ae.xpt**", "score": 0.79, "match_basis": "verbatim_token+domain_route:DS"}, {"md_atom_id": "md_dmDS_ex_a077", "md_file": "knowledge_base/domains/DS/examples.md", "md_atom_type": "SENTENCE", "md_parent_section": "§DS.5 [Example 5]", "md_verbatim": "**ds.xpt**", "score": 0.79, "match_basis": "verbatim_token+domain_route:DS"}, {"md_atom_id": "md_dmDS_ex_a089", "md_file": "knowledge_base/domains/DS/examples.md", "md_atom_type": "SENTENCE", "md_parent_section": "§DS.6 [Example 6]", "md_verbatim": "**ds.xpt**", "score": 0.79, "match_basis": "verbatim_token+domain_route:DS"}, {"md_atom_id": "md_dmDS_ex_a098", "md_file": "knowledge_base/domains/DS/examples.md", "md_atom_type": "SENTENCE", "md_parent_section": "§DS.7 [Example 7]", "md_verbatim": "**ds.xpt**", "score": 0.79, "match_basis": "verbatim_token+domain_route:DS"}, {"md_atom_id": "md_dmDS_ex_a108", "md_file": "knowledge_base/domains/DS/examples.md", "md_atom_type": "SENTENCE", "md_parent_section": "§DS.8 [Example 8]", "md_verbatim": "**ds.xpt**", "score": 0.79, "match_basis": "verbatim_token+domain_route:DS"}, {"md_atom_id": "md_dmDS_ex_a121", "md_file": "knowledge_base/domains/DS/examples.md", "md_atom_type": "SENTENCE", "md_parent_section": "§DS.9 [Example 9]", "md_verbatim": "**ds.xpt**", "score": 0.79, "match_basis": "verbatim_token+domain_route:DS"}], "candidate_count": 10, "zero_candidate": false}
{"pdf_atom_id": "ig34_p0165_a0018", "pdf_atom_type": "TABLE_HEADER", "pdf_source": "SDTMIG_v3.4", "pdf_page": 165, "pdf_parent_section": "§6.2.4 Disposition (DS)", "pdf_verbatim": "| Row | STUDYID | DOMAIN | USUBJID | DSSEQ | DSTERM | DSDECOD | DSCAT | DSSCAT | EPOCH | DSSTDTC |", "figure_ref": null, "candidates": [{"md_atom_id": "md_dmDS_ex_a078", "md_file": "knowledge_base/domains/DS/examples.md", "md_atom_type": "TABLE_HEADER", "md_parent_section": "§DS.5 [Example 5]", "md_verbatim": "| Row | STUDYID | DOMAIN | USUBJID | DSSEQ | DSTERM | DSDECOD | DSCAT | DSSCAT | EPOCH | DSSTDTC |\n|-----|---------|--------|---------|-------|--------|---------|-------|--------|-------|---------|", "score": 1.0, "match_basis": "verbatim_token+domain_route:DS"}, {"md_atom_id": "md_dmDS_ex_a090", "md_file": "knowledge_base/domains/DS/examples.md", "md_atom_type": "TABLE_HEADER", "md_parent_section": "§DS.6 [Example 6]", "md_verbatim": "| Row | STUDYID | DOMAIN | USUBJID | DSSEQ | DSTERM | DSDECOD | DSCAT | DSSCAT | EPOCH | DSSTDTC |\n|-----|---------|--------|---------|-------|--------|---------|-------|--------|-------|---------|", "score": 1.0, "match_basis": "verbatim_token+domain_route:DS"}, {"md_atom_id": "md_dmDS_ex_a099", "md_file": "knowledge_base/domains/DS/examples.md", "md_atom_type": "TABLE_HEADER", "md_parent_section": "§DS.7 [Example 7]", "md_verbatim": "| Row | STUDYID | DOMAIN | USUBJID | DSSEQ | DSTERM | DSDECOD | DSCAT | DSSCAT | EPOCH | DSSTDTC |\n|-----|---------|--------|---------|-------|--------|---------|-------|--------|-------|---------|", "score": 1.0, "match_basis": "verbatim_token+domain_route:DS"}, {"md_atom_id": "md_dmDS_ex_a109", "md_file": "knowledge_base/domains/DS/examples.md", "md_atom_type": "TABLE_HEADER", "md_parent_section": "§DS.8 [Example 8]", "md_verbatim": "| Row | STUDYID | DOMAIN | USUBJID | DSSEQ | DSTERM | DSDECOD | DSCAT | DSSCAT | EPOCH | DSSTDTC |\n|-----|---------|--------|---------|-------|--------|---------|-------|--------|-------|---------|", "score": 1.0, "match_basis": "verbatim_token+domain_route:DS"}, {"md_atom_id": "md_dmDS_ex_a194", "md_file": "knowledge_base/domains/DS/examples.md", "md_atom_type": "TABLE_HEADER", "md_parent_section": "§DS.10 [Example 10]", "md_verbatim": "| Row | STUDYID | DOMAIN | USUBJID | DSSEQ | DSTERM | DSDECOD | DSCAT | DSSCAT | EPOCH | DSSTDTC |\n|-----|---------|--------|---------|-------|--------|---------|-------|--------|-------|---------|", "score": 1.0, "match_basis": "verbatim_token+domain_route:DS"}], "candidate_count": 5, "zero_candidate": false}
{"pdf_atom_id": "ig34_p0165_a0019", "pdf_atom_type": "TABLE_ROW", "pdf_source": "SDTMIG_v3.4", "pdf_page": 165, "pdf_parent_section": "§6.2.4 Disposition (DS)", "pdf_verbatim": "| 1 | XYZ | DS | XYZ-767-001 | 1 | RANDOMIZED | RANDOMIZED | PROTOCOL MILESTONE | | SCREENING | 2016-02-13 |", "figure_ref": null, "candidates": [{"md_atom_id": "md_dmDS_ex_a195", "md_file": "knowledge_base/domains/DS/examples.md", "md_atom_type": "TABLE_ROW", "md_parent_section": "§DS.10 [Example 10]", "md_verbatim": "| 1 | XYZ | DS | XYZ-767-001 | 1 | RANDOMIZED | RANDOMIZED | PROTOCOL MILESTONE | | SCREENING | 2016-02-13 |", "score": 1.0, "match_basis": "verbatim_token+domain_route:DS"}, {"md_atom_id": "md_dmDS_ex_a124", "md_file": "knowledge_base/domains/DS/examples.md", "md_atom_type": "TABLE_ROW", "md_parent_section": "§DS.9 [Example 9]", "md_verbatim": "| 2 | XXX | DS | XXX-767-001 | 2 | RANDOMIZED | RANDOMIZED | PROTOCOL MILESTONE | SCREENING | 2016-02-26 |", "score": 0.9647, "match_basis": "verbatim_token+domain_route:DS"}, {"md_atom_id": "md_dmDS_ex_a202", "md_file": "knowledge_base/domains/DS/examples.md", "md_atom_type": "TABLE_ROW", "md_parent_section": "§DS.10 [Example 10]", "md_verbatim": "| 8 | XYZ | DS | XYZ-767-002 | 1 | RANDOMIZED | RANDOMIZED | PROTOCOL MILESTONE | | SCREENING | 2016-02-20 |", "score": 0.9647, "match_basis": "verbatim_token+domain_route:DS"}, {"md_atom_id": "md_dmDS_ex_a257", "md_file": "knowledge_base/domains/DS/examples.md", "md_atom_type": "TABLE_ROW", "md_parent_section": "§DS.11 [Example 11]", "md_verbatim": "| 2 | DS10 | DS | 101 | 2 | RANDOMIZED | RANDOMIZED | PROTOCOL MILESTONE | | 1 | SCREENING | 2015-02-01 |", "score": 0.8703, "match_basis": "verbatim_token+domain_route:DS"}, {"md_atom_id": "md_dmDS_ex_a014", "md_file": "knowledge_base/domains/DS/examples.md", "md_atom_type": "TABLE_ROW", "md_parent_section": "§DS.1 [Example 1]", "md_verbatim": "| 2 | ABC123 | DS | 123101 | 2 | RANDOMIZED | RANDOMIZED | PROTOCOL MILESTONE | | SCREENING | 2003-09-30 | 2003-09-30 |", "score": 0.8, "match_basis": "verbatim_token+domain_route:DS"}], "candidate_count": 5, "zero_candidate": false}
{"pdf_atom_id": "ig34_p0165_a0020", "pdf_atom_type": "TABLE_ROW", "pdf_source": "SDTMIG_v3.4", "pdf_page": 165, "pdf_parent_section": "§6.2.4 Disposition (DS)", "pdf_verbatim": "| 2 | XYZ | DS | XYZ-767-001 | 2 | COMPLETED | COMPLETED | DISPOSITION EVENT | STUDY PARTICIPATION | SCREENING | 2016-02-13 |", "figure_ref": null, "candidates": [{"md_atom_id": "md_dmDS_ex_a196", "md_file": "knowledge_base/domains/DS/examples.md", "md_atom_type": "TABLE_ROW", "md_parent_section": "§DS.10 [Example 10]", "md_verbatim": "| 2 | XYZ | DS | XYZ-767-001 | 2 | COMPLETED | COMPLETED | DISPOSITION EVENT | STUDY PARTICIPATION | SCREENING | 2016-03-13 |", "score": 1.0, "match_basis": "verbatim_token+domain_route:DS"}, {"md_atom_id": "md_dmDS_ex_a203", "md_file": "knowledge_base/domains/DS/examples.md", "md_atom_type": "TABLE_ROW", "md_parent_section": "§DS.10 [Example 10]", "md_verbatim": "| 9 | XYZ | DS | XYZ-767-002 | 2 | COMPLETED | COMPLETED | DISPOSITION EVENT | STUDY PARTICIPATION | SCREENING | 2016-03-23 |", "score": 0.9727, "match_basis": "verbatim_token+domain_route:DS"}, {"md_atom_id": "md_dmDS_ex_a258", "md_file": "knowledge_base/domains/DS/examples.md", "md_atom_type": "TABLE_ROW", "md_parent_section": "§DS.11 [Example 11]", "md_verbatim": "| 3 | DS10 | DS | 101 | 3 | COMPLETED | COMPLETED | DISPOSITION EVENT | STUDY PARTICIPATION | 1 | SCREENING | 2015-02-01 |", "score": 0.8979, "match_basis": "verbatim_token+domain_route:DS"}, {"md_atom_id": "md_dmDS_ex_a201", "md_file": "knowledge_base/domains/DS/examples.md", "md_atom_type": "TABLE_ROW", "md_parent_section": "§DS.10 [Example 10]", "md_verbatim": "| 7 | XYZ | DS | XYZ-767-001 | 7 | COMPLETED | COMPLETED | DISPOSITION EVENT | STUDY PARTICIPATION | FOLLOW-UP | 2016-04-24 |", "score": 0.8596, "match_basis": "verbatim_token+domain_route:DS"}, {"md_atom_id": "md_dmDS_ex_a198", "md_file": "knowledge_base/domains/DS/examples.md", "md_atom_type": "TABLE_ROW", "md_parent_section": "§DS.10 [Example 10]", "md_verbatim": "| 4 | XYZ | DS | XYZ-767-001 | 4 | COMPLETED | COMPLETED | DISPOSITION EVENT | STUDY PARTICIPATION | TREATMENT 1 | 2016-03-19 |", "score": 0.8408, "match_basis": "verbatim_token+domain_route:DS"}], "candidate_count": 5, "zero_candidate": false}
{"pdf_atom_id": "ig34_p0165_a0021", "pdf_atom_type": "TABLE_ROW", "pdf_source": "SDTMIG_v3.4", "pdf_page": 165, "pdf_parent_section": "§6.2.4 Disposition (DS)", "pdf_verbatim": "| 3 | XYZ | DS | XYZ-767-001 | 3 | COMPLETED | COMPLETED | DISPOSITION EVENT | DRUG1 | TREATMENT 1 | 2016-03-13 |", "figure_ref": null, "candidates": [{"md_atom_id": "md_dmDS_ex_a197", "md_file": "knowledge_base/domains/DS/examples.md", "md_atom_type": "TABLE_ROW", "md_parent_section": "§DS.10 [Example 10]", "md_verbatim": "| 3 | XYZ | DS | XYZ-767-001 | 3 | COMPLETED | COMPLETED | DISPOSITION EVENT | DRUG1 | TREATMENT 1 | 2016-03-14 |", "score": 1.0, "match_basis": "verbatim_token+domain_route:DS"}, {"md_atom_id": "md_dmDS_ex_a204", "md_file": "knowledge_base/domains/DS/examples.md", "md_atom_type": "TABLE_ROW", "md_parent_section": "§DS.10 [Example 10]", "md_verbatim": "| 10 | XYZ | DS | XYZ-767-002 | 3 | COMPLETED | COMPLETED | DISPOSITION EVENT | DRUG2 | TREATMENT 1 | 2016-03-23 |", "score": 0.9314, "match_basis": "verbatim_token+domain_route:DS"}, {"md_atom_id": "md_dmDS_ex_a110", "md_file": "knowledge_base/domains/DS/examples.md", "md_atom_type": "TABLE_ROW", "md_parent_section": "§DS.8 [Example 8]", "md_verbatim": "| 1 | XXX | DS | XXX-767-001 | 1 | COMPLETED | COMPLETED | DISPOSITION EVENT | BLINDED DRUG A | TREATMENT 1 | 2016-02-15 |", "score": 0.8769, "match_basis": "verbatim_token+domain_route:DS"}, {"md_atom_id": "md_dmDS_ex_a111", "md_file": "knowledge_base/domains/DS/examples.md", "md_atom_type": "TABLE_ROW", "md_parent_section": "§DS.8 [Example 8]", "md_verbatim": "| 2 | XXX | DS | XXX-767-001 | 2 | COMPLETED | COMPLETED | DISPOSITION EVENT | BLINDED DRUG B | TREATMENT 1 | 2016-02-15 |", "score": 0.8769, "match_basis": "verbatim_token+domain_route:DS"}, {"md_atom_id": "md_dmDS_ex_a113", "md_file": "knowledge_base/domains/DS/examples.md", "md_atom_type": "TABLE_ROW", "md_parent_section": "§DS.8 [Example 8]", "md_verbatim": "| 4 | XXX | DS | XXX-767-001 | 4 | COMPLETED | COMPLETED | DISPOSITION EVENT | BLINDED DRUG A | TREATMENT 2 | 2016-03-14 |", "score": 0.8769, "match_basis": "verbatim_token+domain_route:DS"}], "candidate_count": 5, "zero_candidate": false}
{"pdf_atom_id": "ig34_p0165_a0022", "pdf_atom_type": "TABLE_ROW", "pdf_source": "SDTMIG_v3.4", "pdf_page": 165, "pdf_parent_section": "§6.2.4 Disposition (DS)", "pdf_verbatim": "| 4 | XYZ | DS | XYZ-767-001 | 4 | COMPLETED | COMPLETED | DISPOSITION EVENT | STUDY PARTICIPATION | TREATMENT 1 | 2016-03-14 |", "figure_ref": null, "candidates": [{"md_atom_id": "md_dmDS_ex_a198", "md_file": "knowledge_base/domains/DS/examples.md", "md_atom_type": "TABLE_ROW", "md_parent_section": "§DS.10 [Example 10]", "md_verbatim": "| 4 | XYZ | DS | XYZ-767-001 | 4 | COMPLETED | COMPLETED | DISPOSITION EVENT | STUDY PARTICIPATION | TREATMENT 1 | 2016-03-19 |", "score": 1.0, "match_basis": "verbatim_token+domain_route:DS"}, {"md_atom_id": "md_dmDS_ex_a200", "md_file": "knowledge_base/domains/DS/examples.md", "md_atom_type": "TABLE_ROW", "md_parent_section": "§DS.10 [Example 10]", "md_verbatim": "| 6 | XYZ | DS | XYZ-767-001 | 6 | COMPLETED | COMPLETED | DISPOSITION EVENT | STUDY PARTICIPATION | TREATMENT 2 | 2016-04-20 |", "score": 1.0, "match_basis": "verbatim_token+domain_route:DS"}, {"md_atom_id": "md_dmDS_ex_a081", "md_file": "knowledge_base/domains/DS/examples.md", "md_atom_type": "TABLE_ROW", "md_parent_section": "§DS.5 [Example 5]", "md_verbatim": "| 3 | XXX | DS | XXX-767-001 | 3 | COMPLETED | COMPLETED | DISPOSITION EVENT | STUDY PARTICIPATION | TREATMENT 1 | 2016-02-25 |", "score": 0.9721, "match_basis": "verbatim_token+domain_route:DS"}, {"md_atom_id": "md_dmDS_ex_a083", "md_file": "knowledge_base/domains/DS/examples.md", "md_atom_type": "TABLE_ROW", "md_parent_section": "§DS.5 [Example 5]", "md_verbatim": "| 5 | XXX | DS | XXX-767-001 | 5 | COMPLETED | COMPLETED | DISPOSITION EVENT | STUDY PARTICIPATION | TREATMENT 2 | 2016-03-24 |", "score": 0.9721, "match_basis": "verbatim_token+domain_route:DS"}, {"md_atom_id": "md_dmDS_ex_a093", "md_file": "knowledge_base/domains/DS/examples.md", "md_atom_type": "TABLE_ROW", "md_parent_section": "§DS.6 [Example 6]", "md_verbatim": "| 3 | XXX | DS | XXX-767-001 | 3 | COMPLETED | COMPLETED | DISPOSITION EVENT | STUDY PARTICIPATION | TREATMENT 2 | 2016-03-24 |", "score": 0.9721, "match_basis": "verbatim_token+domain_route:DS"}], "candidate_count": 5, "zero_candidate": false}
{"pdf_atom_id": "ig34_p0165_a0023", "pdf_atom_type": "TABLE_ROW", "pdf_source": "SDTMIG_v3.4", "pdf_page": 165, "pdf_parent_section": "§6.2.4 Disposition (DS)", "pdf_verbatim": "| 5 | XYZ | DS | XYZ-767-001 | 5 | COMPLETED | COMPLETED | DISPOSITION EVENT | DG1INDG | TREATMENT 2 | 2016-04-19 |", "figure_ref": null, "candidates": [{"md_atom_id": "md_dmDS_ex_a199", "md_file": "knowledge_base/domains/DS/examples.md", "md_atom_type": "TABLE_ROW", "md_parent_section": "§DS.10 [Example 10]", "md_verbatim": "| 5 | XYZ | DS | XYZ-767-001 | 5 | COMPLETED | COMPLETED | DISPOSITION EVENT | DG1INDG | TREATMENT 2 | 2016-04-20 |", "score": 1.0, "match_basis": "verbatim_token+domain_route:DS"}, {"md_atom_id": "md_dmDS_ex_a206", "md_file": "knowledge_base/domains/DS/examples.md", "md_atom_type": "TABLE_ROW", "md_parent_section": "§DS.10 [Example 10]", "md_verbatim": "| 12 | XYZ | DS | XYZ-767-002 | 5 | COMPLETED | COMPLETED | DISPOSITION EVENT | DG2INDG | TREATMENT 2 | 2016-04-25 |", "score": 0.8769, "match_basis": "verbatim_token+domain_route:DS"}, {"md_atom_id": "md_dmDS_ex_a197", "md_file": "knowledge_base/domains/DS/examples.md", "md_atom_type": "TABLE_ROW", "md_parent_section": "§DS.10 [Example 10]", "md_verbatim": "| 3 | XYZ | DS | XYZ-767-001 | 3 | COMPLETED | COMPLETED | DISPOSITION EVENT | DRUG1 | TREATMENT 1 | 2016-03-14 |", "score": 0.8737, "match_basis": "verbatim_token+domain_route:DS"}, {"md_atom_id": "md_dmDS_ex_a100", "md_file": "knowledge_base/domains/DS/examples.md", "md_atom_type": "TABLE_ROW", "md_parent_section": "§DS.7 [Example 7]", "md_verbatim": "| 1 | XXX | DS | XXX-767-001 | 1 | COMPLETED | COMPLETED | DISPOSITION EVENT | STUDY TREATMENT | TREATMENT 1 | 2016-02-15 |", "score": 0.8462, "match_basis": "verbatim_token+domain_route:DS"}, {"md_atom_id": "md_dmDS_ex_a204", "md_file": "knowledge_base/domains/DS/examples.md", "md_atom_type": "TABLE_ROW", "md_parent_section": "§DS.10 [Example 10]", "md_verbatim": "| 10 | XYZ | DS | XYZ-767-002 | 3 | COMPLETED | COMPLETED | DISPOSITION EVENT | DRUG2 | TREATMENT 1 | 2016-03-23 |", "score": 0.8462, "match_basis": "verbatim_token+domain_route:DS"}], "candidate_count": 5, "zero_candidate": false}
{"pdf_atom_id": "ig34_p0165_a0024", "pdf_atom_type": "TABLE_ROW", "pdf_source": "SDTMIG_v3.4", "pdf_page": 165, "pdf_parent_section": "§6.2.4 Disposition (DS)", "pdf_verbatim": "| 6 | XYZ | DS | XYZ-767-001 | 6 | COMPLETED | COMPLETED | DISPOSITION EVENT | STUDY PARTICIPATION | TREATMENT 2 | 2016-04-20 |", "figure_ref": null, "candidates": [{"md_atom_id": "md_dmDS_ex_a198", "md_file": "knowledge_base/domains/DS/examples.md", "md_atom_type": "TABLE_ROW", "md_parent_section": "§DS.10 [Example 10]", "md_verbatim": "| 4 | XYZ | DS | XYZ-767-001 | 4 | COMPLETED | COMPLETED | DISPOSITION EVENT | STUDY PARTICIPATION | TREATMENT 1 | 2016-03-19 |", "score": 1.0, "match_basis": "verbatim_token+domain_route:DS"}, {"md_atom_id": "md_dmDS_ex_a200", "md_file": "knowledge_base/domains/DS/examples.md", "md_atom_type": "TABLE_ROW", "md_parent_section": "§DS.10 [Example 10]", "md_verbatim": "| 6 | XYZ | DS | XYZ-767-001 | 6 | COMPLETED | COMPLETED | DISPOSITION EVENT | STUDY PARTICIPATION | TREATMENT 2 | 2016-04-20 |", "score": 1.0, "match_basis": "verbatim_token+domain_route:DS"}, {"md_atom_id": "md_dmDS_ex_a081", "md_file": "knowledge_base/domains/DS/examples.md", "md_atom_type": "TABLE_ROW", "md_parent_section": "§DS.5 [Example 5]", "md_verbatim": "| 3 | XXX | DS | XXX-767-001 | 3 | COMPLETED | COMPLETED | DISPOSITION EVENT | STUDY PARTICIPATION | TREATMENT 1 | 2016-02-25 |", "score": 0.9721, "match_basis": "verbatim_token+domain_route:DS"}, {"md_atom_id": "md_dmDS_ex_a083", "md_file": "knowledge_base/domains/DS/examples.md", "md_atom_type": "TABLE_ROW", "md_parent_section": "§DS.5 [Example 5]", "md_verbatim": "| 5 | XXX | DS | XXX-767-001 | 5 | COMPLETED | COMPLETED | DISPOSITION EVENT | STUDY PARTICIPATION | TREATMENT 2 | 2016-03-24 |", "score": 0.9721, "match_basis": "verbatim_token+domain_route:DS"}, {"md_atom_id": "md_dmDS_ex_a093", "md_file": "knowledge_base/domains/DS/examples.md", "md_atom_type": "TABLE_ROW", "md_parent_section": "§DS.6 [Example 6]", "md_verbatim": "| 3 | XXX | DS | XXX-767-001 | 3 | COMPLETED | COMPLETED | DISPOSITION EVENT | STUDY PARTICIPATION | TREATMENT 2 | 2016-03-24 |", "score": 0.9721, "match_basis": "verbatim_token+domain_route:DS"}], "candidate_count": 5, "zero_candidate": false}
{"pdf_atom_id": "ig34_p0165_a0025", "pdf_atom_type": "TABLE_ROW", "pdf_source": "SDTMIG_v3.4", "pdf_page": 165, "pdf_parent_section": "§6.2.4 Disposition (DS)", "pdf_verbatim": "| 7 | XYZ | DS | XYZ-767-001 | 7 | COMPLETED | COMPLETED | DISPOSITION EVENT | STUDY PARTICIPATION | FOLLOW-UP | 2016-04-24 |", "figure_ref": null, "candidates": [{"md_atom_id": "md_dmDS_ex_a201", "md_file": "knowledge_base/domains/DS/examples.md", "md_atom_type": "TABLE_ROW", "md_parent_section": "§DS.10 [Example 10]", "md_verbatim": "| 7 | XYZ | DS | XYZ-767-001 | 7 | COMPLETED | COMPLETED | DISPOSITION EVENT | STUDY PARTICIPATION | FOLLOW-UP | 2016-04-24 |", "score": 1.0, "match_basis": "verbatim_token+domain_route:DS"}, {"md_atom_id": "md_dmDS_ex_a208", "md_file": "knowledge_base/domains/DS/examples.md", "md_atom_type": "TABLE_ROW", "md_parent_section": "§DS.10 [Example 10]", "md_verbatim": "| 14 | XYZ | DS | XYZ-767-002 | 7 | COMPLETED | COMPLETED | DISPOSITION EVENT | STUDY PARTICIPATION | FOLLOW-UP | 2016-04-29 |", "score": 0.9707, "match_basis": "verbatim_token+domain_route:DS"}, {"md_atom_id": "md_dmDS_ex_a198", "md_file": "knowledge_base/domains/DS/examples.md", "md_atom_type": "TABLE_ROW", "md_parent_section": "§DS.10 [Example 10]", "md_verbatim": "| 4 | XYZ | DS | XYZ-767-001 | 4 | COMPLETED | COMPLETED | DISPOSITION EVENT | STUDY PARTICIPATION | TREATMENT 1 | 2016-03-19 |", "score": 0.8696, "match_basis": "verbatim_token+domain_route:DS"}, {"md_atom_id": "md_dmDS_ex_a200", "md_file": "knowledge_base/domains/DS/examples.md", "md_atom_type": "TABLE_ROW", "md_parent_section": "§DS.10 [Example 10]", "md_verbatim": "| 6 | XYZ | DS | XYZ-767-001 | 6 | COMPLETED | COMPLETED | DISPOSITION EVENT | STUDY PARTICIPATION | TREATMENT 2 | 2016-04-20 |", "score": 0.8696, "match_basis": "verbatim_token+domain_route:DS"}, {"md_atom_id": "md_dmDS_ex_a196", "md_file": "knowledge_base/domains/DS/examples.md", "md_atom_type": "TABLE_ROW", "md_parent_section": "§DS.10 [Example 10]", "md_verbatim": "| 2 | XYZ | DS | XYZ-767-001 | 2 | COMPLETED | COMPLETED | DISPOSITION EVENT | STUDY PARTICIPATION | SCREENING | 2016-03-13 |", "score": 0.8596, "match_basis": "verbatim_token+domain_route:DS"}], "candidate_count": 5, "zero_candidate": false}
{"pdf_atom_id": "ig34_p0165_a0026", "pdf_atom_type": "TABLE_ROW", "pdf_source": "SDTMIG_v3.4", "pdf_page": 165, "pdf_parent_section": "§6.2.4 Disposition (DS)", "pdf_verbatim": "| 8 | XYZ | DS | XYZ-767-002 | 1 | RANDOMIZED | RANDOMIZED | PROTOCOL MILESTONE | | SCREENING | 2016-02-20 |", "figure_ref": null, "candidates": [{"md_atom_id": "md_dmDS_ex_a202", "md_file": "knowledge_base/domains/DS/examples.md", "md_atom_type": "TABLE_ROW", "md_parent_section": "§DS.10 [Example 10]", "md_verbatim": "| 8 | XYZ | DS | XYZ-767-002 | 1 | RANDOMIZED | RANDOMIZED | PROTOCOL MILESTONE | | SCREENING | 2016-02-20 |", "score": 1.0, "match_basis": "verbatim_token+domain_route:DS"}, {"md_atom_id": "md_dmDS_ex_a195", "md_file": "knowledge_base/domains/DS/examples.md", "md_atom_type": "TABLE_ROW", "md_parent_section": "§DS.10 [Example 10]", "md_verbatim": "| 1 | XYZ | DS | XYZ-767-001 | 1 | RANDOMIZED | RANDOMIZED | PROTOCOL MILESTONE | | SCREENING | 2016-02-13 |", "score": 0.9647, "match_basis": "verbatim_token+domain_route:DS"}, {"md_atom_id": "md_dmDS_ex_a124", "md_file": "knowledge_base/domains/DS/examples.md", "md_atom_type": "TABLE_ROW", "md_parent_section": "§DS.9 [Example 9]", "md_verbatim": "| 2 | XXX | DS | XXX-767-001 | 2 | RANDOMIZED | RANDOMIZED | PROTOCOL MILESTONE | SCREENING | 2016-02-26 |", "score": 0.9314, "match_basis": "verbatim_token+domain_route:DS"}, {"md_atom_id": "md_dmDS_ex_a257", "md_file": "knowledge_base/domains/DS/examples.md", "md_atom_type": "TABLE_ROW", "md_parent_section": "§DS.11 [Example 11]", "md_verbatim": "| 2 | DS10 | DS | 101 | 2 | RANDOMIZED | RANDOMIZED | PROTOCOL MILESTONE | | 1 | SCREENING | 2015-02-01 |", "score": 0.8703, "match_basis": "verbatim_token+domain_route:DS"}, {"md_atom_id": "md_dmDS_ex_a014", "md_file": "knowledge_base/domains/DS/examples.md", "md_atom_type": "TABLE_ROW", "md_parent_section": "§DS.1 [Example 1]", "md_verbatim": "| 2 | ABC123 | DS | 123101 | 2 | RANDOMIZED | RANDOMIZED | PROTOCOL MILESTONE | | SCREENING | 2003-09-30 | 2003-09-30 |", "score": 0.8, "match_basis": "verbatim_token+domain_route:DS"}], "candidate_count": 5, "zero_candidate": false}
{"pdf_atom_id": "ig34_p0165_a0027", "pdf_atom_type": "TABLE_ROW", "pdf_source": "SDTMIG_v3.4", "pdf_page": 165, "pdf_parent_section": "§6.2.4 Disposition (DS)", "pdf_verbatim": "| 9 | XYZ | DS | XYZ-767-002 | 2 | COMPLETED | COMPLETED | DISPOSITION EVENT | STUDY PARTICIPATION | SCREENING | 2016-02-20 |", "figure_ref": null, "candidates": [{"md_atom_id": "md_dmDS_ex_a203", "md_file": "knowledge_base/domains/DS/examples.md", "md_atom_type": "TABLE_ROW", "md_parent_section": "§DS.10 [Example 10]", "md_verbatim": "| 9 | XYZ | DS | XYZ-767-002 | 2 | COMPLETED | COMPLETED | DISPOSITION EVENT | STUDY PARTICIPATION | SCREENING | 2016-03-23 |", "score": 1.0, "match_basis": "verbatim_token+domain_route:DS"}, {"md_atom_id": "md_dmDS_ex_a196", "md_file": "knowledge_base/domains/DS/examples.md", "md_atom_type": "TABLE_ROW", "md_parent_section": "§DS.10 [Example 10]", "md_verbatim": "| 2 | XYZ | DS | XYZ-767-001 | 2 | COMPLETED | COMPLETED | DISPOSITION EVENT | STUDY PARTICIPATION | SCREENING | 2016-03-13 |", "score": 0.9727, "match_basis": "verbatim_token+domain_route:DS"}, {"md_atom_id": "md_dmDS_ex_a258", "md_file": "knowledge_base/domains/DS/examples.md", "md_atom_type": "TABLE_ROW", "md_parent_section": "§DS.11 [Example 11]", "md_verbatim": "| 3 | DS10 | DS | 101 | 3 | COMPLETED | COMPLETED | DISPOSITION EVENT | STUDY PARTICIPATION | 1 | SCREENING | 2015-02-01 |", "score": 0.8979, "match_basis": "verbatim_token+domain_route:DS"}, {"md_atom_id": "md_dmDS_ex_a208", "md_file": "knowledge_base/domains/DS/examples.md", "md_atom_type": "TABLE_ROW", "md_parent_section": "§DS.10 [Example 10]", "md_verbatim": "| 14 | XYZ | DS | XYZ-767-002 | 7 | COMPLETED | COMPLETED | DISPOSITION EVENT | STUDY PARTICIPATION | FOLLOW-UP | 2016-04-29 |", "score": 0.8596, "match_basis": "verbatim_token+domain_route:DS"}, {"md_atom_id": "md_dmDS_ex_a205", "md_file": "knowledge_base/domains/DS/examples.md", "md_atom_type": "TABLE_ROW", "md_parent_section": "§DS.10 [Example 10]", "md_verbatim": "| 11 | XYZ | DS | XYZ-767-002 | 4 | COMPLETED | COMPLETED | DISPOSITION EVENT | STUDY PARTICIPATION | TREATMENT 1 | 2016-03-24 |", "score": 0.8408, "match_basis": "verbatim_token+domain_route:DS"}], "candidate_count": 5, "zero_candidate": false}
{"pdf_atom_id": "ig34_p0165_a0028", "pdf_atom_type": "TABLE_ROW", "pdf_source": "SDTMIG_v3.4", "pdf_page": 165, "pdf_parent_section": "§6.2.4 Disposition (DS)", "pdf_verbatim": "| 10 | XYZ | DS | XYZ-767-002 | 3 | COMPLETED | COMPLETED | DISPOSITION EVENT | DRUG2 | TREATMENT 1 | 2016-03-23 |", "figure_ref": null, "candidates": [{"md_atom_id": "md_dmDS_ex_a204", "md_file": "knowledge_base/domains/DS/examples.md", "md_atom_type": "TABLE_ROW", "md_parent_section": "§DS.10 [Example 10]", "md_verbatim": "| 10 | XYZ | DS | XYZ-767-002 | 3 | COMPLETED | COMPLETED | DISPOSITION EVENT | DRUG2 | TREATMENT 1 | 2016-03-23 |", "score": 1.0, "match_basis": "verbatim_token+domain_route:DS"}, {"md_atom_id": "md_dmDS_ex_a197", "md_file": "knowledge_base/domains/DS/examples.md", "md_atom_type": "TABLE_ROW", "md_parent_section": "§DS.10 [Example 10]", "md_verbatim": "| 3 | XYZ | DS | XYZ-767-001 | 3 | COMPLETED | COMPLETED | DISPOSITION EVENT | DRUG1 | TREATMENT 1 | 2016-03-14 |", "score": 0.9314, "match_basis": "verbatim_token+domain_route:DS"}, {"md_atom_id": "md_dmDS_ex_a206", "md_file": "knowledge_base/domains/DS/examples.md", "md_atom_type": "TABLE_ROW", "md_parent_section": "§DS.10 [Example 10]", "md_verbatim": "| 12 | XYZ | DS | XYZ-767-002 | 5 | COMPLETED | COMPLETED | DISPOSITION EVENT | DG2INDG | TREATMENT 2 | 2016-04-25 |", "score": 0.8737, "match_basis": "verbatim_token+domain_route:DS"}, {"md_atom_id": "md_dmDS_ex_a110", "md_file": "knowledge_base/domains/DS/examples.md", "md_atom_type": "TABLE_ROW", "md_parent_section": "§DS.8 [Example 8]", "md_verbatim": "| 1 | XXX | DS | XXX-767-001 | 1 | COMPLETED | COMPLETED | DISPOSITION EVENT | BLINDED DRUG A | TREATMENT 1 | 2016-02-15 |", "score": 0.85, "match_basis": "verbatim_token+domain_route:DS"}, {"md_atom_id": "md_dmDS_ex_a111", "md_file": "knowledge_base/domains/DS/examples.md", "md_atom_type": "TABLE_ROW", "md_parent_section": "§DS.8 [Example 8]", "md_verbatim": "| 2 | XXX | DS | XXX-767-001 | 2 | COMPLETED | COMPLETED | DISPOSITION EVENT | BLINDED DRUG B | TREATMENT 1 | 2016-02-15 |", "score": 0.85, "match_basis": "verbatim_token+domain_route:DS"}], "candidate_count": 5, "zero_candidate": false}
{"pdf_atom_id": "ig34_p0165_a0029", "pdf_atom_type": "TABLE_ROW", "pdf_source": "SDTMIG_v3.4", "pdf_page": 165, "pdf_parent_section": "§6.2.4 Disposition (DS)", "pdf_verbatim": "| 11 | XYZ | DS | XYZ-767-002 | 4 | COMPLETED | COMPLETED | DISPOSITION EVENT | STUDY PARTICIPATION | TREATMENT 1 | 2016-03-24 |", "figure_ref": null, "candidates": [{"md_atom_id": "md_dmDS_ex_a205", "md_file": "knowledge_base/domains/DS/examples.md", "md_atom_type": "TABLE_ROW", "md_parent_section": "§DS.10 [Example 10]", "md_verbatim": "| 11 | XYZ | DS | XYZ-767-002 | 4 | COMPLETED | COMPLETED | DISPOSITION EVENT | STUDY PARTICIPATION | TREATMENT 1 | 2016-03-24 |", "score": 1.0, "match_basis": "verbatim_token+domain_route:DS"}, {"md_atom_id": "md_dmDS_ex_a207", "md_file": "knowledge_base/domains/DS/examples.md", "md_atom_type": "TABLE_ROW", "md_parent_section": "§DS.10 [Example 10]", "md_verbatim": "| 13 | XYZ | DS | XYZ-767-002 | 6 | COMPLETED | COMPLETED | DISPOSITION EVENT | STUDY PARTICIPATION | TREATMENT 2 | 2016-04-25 |", "score": 1.0, "match_basis": "verbatim_token+domain_route:DS"}, {"md_atom_id": "md_dmDS_ex_a198", "md_file": "knowledge_base/domains/DS/examples.md", "md_atom_type": "TABLE_ROW", "md_parent_section": "§DS.10 [Example 10]", "md_verbatim": "| 4 | XYZ | DS | XYZ-767-001 | 4 | COMPLETED | COMPLETED | DISPOSITION EVENT | STUDY PARTICIPATION | TREATMENT 1 | 2016-03-19 |", "score": 0.9721, "match_basis": "verbatim_token+domain_route:DS"}, {"md_atom_id": "md_dmDS_ex_a200", "md_file": "knowledge_base/domains/DS/examples.md", "md_atom_type": "TABLE_ROW", "md_parent_section": "§DS.10 [Example 10]", "md_verbatim": "| 6 | XYZ | DS | XYZ-767-001 | 6 | COMPLETED | COMPLETED | DISPOSITION EVENT | STUDY PARTICIPATION | TREATMENT 2 | 2016-04-20 |", "score": 0.9721, "match_basis": "verbatim_token+domain_route:DS"}, {"md_atom_id": "md_dmDS_ex_a081", "md_file": "knowledge_base/domains/DS/examples.md", "md_atom_type": "TABLE_ROW", "md_parent_section": "§DS.5 [Example 5]", "md_verbatim": "| 3 | XXX | DS | XXX-767-001 | 3 | COMPLETED | COMPLETED | DISPOSITION EVENT | STUDY PARTICIPATION | TREATMENT 1 | 2016-02-25 |", "score": 0.9455, "match_basis": "verbatim_token+domain_route:DS"}], "candidate_count": 5, "zero_candidate": false}
{"pdf_atom_id": "ig34_p0165_a0030", "pdf_atom_type": "TABLE_ROW", "pdf_source": "SDTMIG_v3.4", "pdf_page": 165, "pdf_parent_section": "§6.2.4 Disposition (DS)", "pdf_verbatim": "| 12 | XYZ | DS | XYZ-767-002 | 5 | COMPLETED | COMPLETED | DISPOSITION EVENT | DG2INDG | TREATMENT 2 | 2016-04-24 |", "figure_ref": null, "candidates": [{"md_atom_id": "md_dmDS_ex_a206", "md_file": "knowledge_base/domains/DS/examples.md", "md_atom_type": "TABLE_ROW", "md_parent_section": "§DS.10 [Example 10]", "md_verbatim": "| 12 | XYZ | DS | XYZ-767-002 | 5 | COMPLETED | COMPLETED | DISPOSITION EVENT | DG2INDG | TREATMENT 2 | 2016-04-25 |", "score": 1.0, "match_basis": "verbatim_token+domain_route:DS"}, {"md_atom_id": "md_dmDS_ex_a199", "md_file": "knowledge_base/domains/DS/examples.md", "md_atom_type": "TABLE_ROW", "md_parent_section": "§DS.10 [Example 10]", "md_verbatim": "| 5 | XYZ | DS | XYZ-767-001 | 5 | COMPLETED | COMPLETED | DISPOSITION EVENT | DG1INDG | TREATMENT 2 | 2016-04-20 |", "score": 0.8769, "match_basis": "verbatim_token+domain_route:DS"}, {"md_atom_id": "md_dmDS_ex_a204", "md_file": "knowledge_base/domains/DS/examples.md", "md_atom_type": "TABLE_ROW", "md_parent_section": "§DS.10 [Example 10]", "md_verbatim": "| 10 | XYZ | DS | XYZ-767-002 | 3 | COMPLETED | COMPLETED | DISPOSITION EVENT | DRUG2 | TREATMENT 1 | 2016-03-23 |", "score": 0.8737, "match_basis": "verbatim_token+domain_route:DS"}, {"md_atom_id": "md_dmDS_ex_a197", "md_file": "knowledge_base/domains/DS/examples.md", "md_atom_type": "TABLE_ROW", "md_parent_section": "§DS.10 [Example 10]", "md_verbatim": "| 3 | XYZ | DS | XYZ-767-001 | 3 | COMPLETED | COMPLETED | DISPOSITION EVENT | DRUG1 | TREATMENT 1 | 2016-03-14 |", "score": 0.8462, "match_basis": "verbatim_token+domain_route:DS"}, {"md_atom_id": "md_dmDS_ex_a100", "md_file": "knowledge_base/domains/DS/examples.md", "md_atom_type": "TABLE_ROW", "md_parent_section": "§DS.7 [Example 7]", "md_verbatim": "| 1 | XXX | DS | XXX-767-001 | 1 | COMPLETED | COMPLETED | DISPOSITION EVENT | STUDY TREATMENT | TREATMENT 1 | 2016-02-15 |", "score": 0.82, "match_basis": "verbatim_token+domain_route:DS"}], "candidate_count": 5, "zero_candidate": false}
{"pdf_atom_id": "ig34_p0165_a0031", "pdf_atom_type": "TABLE_ROW", "pdf_source": "SDTMIG_v3.4", "pdf_page": 165, "pdf_parent_section": "§6.2.4 Disposition (DS)", "pdf_verbatim": "| 13 | XYZ | DS | XYZ-767-002 | 6 | COMPLETED | COMPLETED | DISPOSITION EVENT | STUDY PARTICIPATION | TREATMENT 2 | 2016-04-25 |", "figure_ref": null, "candidates": [{"md_atom_id": "md_dmDS_ex_a205", "md_file": "knowledge_base/domains/DS/examples.md", "md_atom_type": "TABLE_ROW", "md_parent_section": "§DS.10 [Example 10]", "md_verbatim": "| 11 | XYZ | DS | XYZ-767-002 | 4 | COMPLETED | COMPLETED | DISPOSITION EVENT | STUDY PARTICIPATION | TREATMENT 1 | 2016-03-24 |", "score": 1.0, "match_basis": "verbatim_token+domain_route:DS"}, {"md_atom_id": "md_dmDS_ex_a207", "md_file": "knowledge_base/domains/DS/examples.md", "md_atom_type": "TABLE_ROW", "md_parent_section": "§DS.10 [Example 10]", "md_verbatim": "| 13 | XYZ | DS | XYZ-767-002 | 6 | COMPLETED | COMPLETED | DISPOSITION EVENT | STUDY PARTICIPATION | TREATMENT 2 | 2016-04-25 |", "score": 1.0, "match_basis": "verbatim_token+domain_route:DS"}, {"md_atom_id": "md_dmDS_ex_a198", "md_file": "knowledge_base/domains/DS/examples.md", "md_atom_type": "TABLE_ROW", "md_parent_section": "§DS.10 [Example 10]", "md_verbatim": "| 4 | XYZ | DS | XYZ-767-001 | 4 | COMPLETED | COMPLETED | DISPOSITION EVENT | STUDY PARTICIPATION | TREATMENT 1 | 2016-03-19 |", "score": 0.9721, "match_basis": "verbatim_token+domain_route:DS"}, {"md_atom_id": "md_dmDS_ex_a200", "md_file": "knowledge_base/domains/DS/examples.md", "md_atom_type": "TABLE_ROW", "md_parent_section": "§DS.10 [Example 10]", "md_verbatim": "| 6 | XYZ | DS | XYZ-767-001 | 6 | COMPLETED | COMPLETED | DISPOSITION EVENT | STUDY PARTICIPATION | TREATMENT 2 | 2016-04-20 |", "score": 0.9721, "match_basis": "verbatim_token+domain_route:DS"}, {"md_atom_id": "md_dmDS_ex_a081", "md_file": "knowledge_base/domains/DS/examples.md", "md_atom_type": "TABLE_ROW", "md_parent_section": "§DS.5 [Example 5]", "md_verbatim": "| 3 | XXX | DS | XXX-767-001 | 3 | COMPLETED | COMPLETED | DISPOSITION EVENT | STUDY PARTICIPATION | TREATMENT 1 | 2016-02-25 |", "score": 0.9455, "match_basis": "verbatim_token+domain_route:DS"}], "candidate_count": 5, "zero_candidate": false}
{"pdf_atom_id": "ig34_p0165_a0032", "pdf_atom_type": "TABLE_ROW", "pdf_source": "SDTMIG_v3.4", "pdf_page": 165, "pdf_parent_section": "§6.2.4 Disposition (DS)", "pdf_verbatim": "| 14 | XYZ | DS | XYZ-767-002 | 7 | COMPLETED | COMPLETED | DISPOSITION EVENT | STUDY PARTICIPATION | FOLLOW-UP | 2016-04-29 |", "figure_ref": null, "candidates": [{"md_atom_id": "md_dmDS_ex_a208", "md_file": "knowledge_base/domains/DS/examples.md", "md_atom_type": "TABLE_ROW", "md_parent_section": "§DS.10 [Example 10]", "md_verbatim": "| 14 | XYZ | DS | XYZ-767-002 | 7 | COMPLETED | COMPLETED | DISPOSITION EVENT | STUDY PARTICIPATION | FOLLOW-UP | 2016-04-29 |", "score": 1.0, "match_basis": "verbatim_token+domain_route:DS"}, {"md_atom_id": "md_dmDS_ex_a201", "md_file": "knowledge_base/domains/DS/examples.md", "md_atom_type": "TABLE_ROW", "md_parent_section": "§DS.10 [Example 10]", "md_verbatim": "| 7 | XYZ | DS | XYZ-767-001 | 7 | COMPLETED | COMPLETED | DISPOSITION EVENT | STUDY PARTICIPATION | FOLLOW-UP | 2016-04-24 |", "score": 0.9707, "match_basis": "verbatim_token+domain_route:DS"}, {"md_atom_id": "md_dmDS_ex_a205", "md_file": "knowledge_base/domains/DS/examples.md", "md_atom_type": "TABLE_ROW", "md_parent_section": "§DS.10 [Example 10]", "md_verbatim": "| 11 | XYZ | DS | XYZ-767-002 | 4 | COMPLETED | COMPLETED | DISPOSITION EVENT | STUDY PARTICIPATION | TREATMENT 1 | 2016-03-24 |", "score": 0.8696, "match_basis": "verbatim_token+domain_route:DS"}, {"md_atom_id": "md_dmDS_ex_a207", "md_file": "knowledge_base/domains/DS/examples.md", "md_atom_type": "TABLE_ROW", "md_parent_section": "§DS.10 [Example 10]", "md_verbatim": "| 13 | XYZ | DS | XYZ-767-002 | 6 | COMPLETED | COMPLETED | DISPOSITION EVENT | STUDY PARTICIPATION | TREATMENT 2 | 2016-04-25 |", "score": 0.8696, "match_basis": "verbatim_token+domain_route:DS"}, {"md_atom_id": "md_dmDS_ex_a203", "md_file": "knowledge_base/domains/DS/examples.md", "md_atom_type": "TABLE_ROW", "md_parent_section": "§DS.10 [Example 10]", "md_verbatim": "| 9 | XYZ | DS | XYZ-767-002 | 2 | COMPLETED | COMPLETED | DISPOSITION EVENT | STUDY PARTICIPATION | SCREENING | 2016-03-23 |", "score": 0.8596, "match_basis": "verbatim_token+domain_route:DS"}], "candidate_count": 5, "zero_candidate": false}
{"pdf_atom_id": "ig34_p0165_a0033", "pdf_atom_type": "HEADING", "pdf_source": "SDTMIG_v3.4", "pdf_page": 165, "pdf_parent_section": "§6.2.4 Disposition (DS)", "pdf_verbatim": "Example 11", "figure_ref": null, "candidates": [{"md_atom_id": "md_dmDS_ex_a002", "md_file": "knowledge_base/domains/DS/examples.md", "md_atom_type": "HEADING", "md_parent_section": "§DS [DS — Examples]", "md_verbatim": "## Example 1", "score": 1.0, "match_basis": "verbatim_token+domain_route:DS"}, {"md_atom_id": "md_dmDS_ex_a034", "md_file": "knowledge_base/domains/DS/examples.md", "md_atom_type": "HEADING", "md_parent_section": "§DS [DS — Examples]", "md_verbatim": "## Example 2", "score": 1.0, "match_basis": "verbatim_token+domain_route:DS"}, {"md_atom_id": "md_dmDS_ex_a043", "md_file": "knowledge_base/domains/DS/examples.md", "md_atom_type": "HEADING", "md_parent_section": "§DS [DS — Examples]", "md_verbatim": "## Example 3", "score": 1.0, "match_basis": "verbatim_token+domain_route:DS"}, {"md_atom_id": "md_dmDS_ex_a056", "md_file": "knowledge_base/domains/DS/examples.md", "md_atom_type": "HEADING", "md_parent_section": "§DS [DS — Examples]", "md_verbatim": "## Example 4", "score": 1.0, "match_basis": "verbatim_token+domain_route:DS"}, {"md_atom_id": "md_dmDS_ex_a072", "md_file": "knowledge_base/domains/DS/examples.md", "md_atom_type": "HEADING", "md_parent_section": "§DS [DS — Examples]", "md_verbatim": "## Example 5", "score": 1.0, "match_basis": "verbatim_token+domain_route:DS"}, {"md_atom_id": "md_dmDS_ex_a084", "md_file": "knowledge_base/domains/DS/examples.md", "md_atom_type": "HEADING", "md_parent_section": "§DS [DS — Examples]", "md_verbatim": "## Example 6", "score": 1.0, "match_basis": "verbatim_token+domain_route:DS"}, {"md_atom_id": "md_dmDS_ex_a094", "md_file": "knowledge_base/domains/DS/examples.md", "md_atom_type": "HEADING", "md_parent_section": "§DS [DS — Examples]", "md_verbatim": "## Example 7", "score": 1.0, "match_basis": "verbatim_token+domain_route:DS"}, {"md_atom_id": "md_dmDS_ex_a104", "md_file": "knowledge_base/domains/DS/examples.md", "md_atom_type": "HEADING", "md_parent_section": "§DS [DS — Examples]", "md_verbatim": "## Example 8", "score": 1.0, "match_basis": "verbatim_token+domain_route:DS"}, {"md_atom_id": "md_dmDS_ex_a116", "md_file": "knowledge_base/domains/DS/examples.md", "md_atom_type": "HEADING", "md_parent_section": "§DS [DS — Examples]", "md_verbatim": "## Example 9", "score": 1.0, "match_basis": "verbatim_token+domain_route:DS"}, {"md_atom_id": "md_dmDS_ex_a128", "md_file": "knowledge_base/domains/DS/examples.md", "md_atom_type": "HEADING", "md_parent_section": "§DS [DS — Examples]", "md_verbatim": "## Example 10", "score": 1.0, "match_basis": "verbatim_token+domain_route:DS"}], "candidate_count": 10, "zero_candidate": false}
{"pdf_atom_id": "ig34_p0165_a0034", "pdf_atom_type": "SENTENCE", "pdf_source": "SDTMIG_v3.4", "pdf_page": 165, "pdf_parent_section": "§6.2.4 Disposition (DS)", "pdf_verbatim": "The study in this example had 4 cycles of treatment within the treatment epoch, and each cycle was represented as an element. Although it is not a general requirement that each cycle is represented as a distinct element, doing so was important for this study. The study compared a current standard treatment with drugs A and B to treatment with drugs A, B, and C. The protocol allowed for drug doses to be reduced under specified criteria. For drug C, these dose modifications could include dropping the drug. When drug C is dropped, the subject may transition to treatment with drugs A and B or to follow-up.", "figure_ref": null, "candidates": [{"md_atom_id": "md_dmDS_ex_a210", "md_file": "knowledge_base/domains/DS/examples.md", "md_atom_type": "SENTENCE", "md_parent_section": "§DS.11 [Example 11]", "md_verbatim": "The study in this example had 4 cycles of treatment within the treatment epoch, and each cycle was represented as an element. Although it is not a general requirement that each cycle is represented as a distinct element, doing so was important for this study. The study compared a current standard treatment with drugs A, B, and C. The protocol allowed for drug doses to be reduced under specified criteria. For drug C, these dose modifications could include dropping the drug. When drug C is dropped, the subject may transition to treatment with drugs A and B or to follow-up.", "score": 1.0, "match_basis": "verbatim_token+domain_route:DS"}, {"md_atom_id": "md_dmDS_ex_a073", "md_file": "knowledge_base/domains/DS/examples.md", "md_atom_type": "SENTENCE", "md_parent_section": "§DS.5 [Example 5]", "md_verbatim": "This below represents a multidrug (isoniazid and levofloxacin) investigational treatment trial for multidrug-resistant tuberculosis (MDR-TB). The protocol allows for a subject to discontinue levofloxacin and continue single treatment of isoniazid throughout the remainder of the study. Disposition of study participation and disposition of each drug was collected. Whether a record with DSCAT = \"DISPOSITION EVENT\" represents disposition of the subject's participation in the study or disposition of a study treatment is represented in DSSCAT. In this example, disposition of the study and of each drug a subject received for each of the study's 2 treatment epochs.", "score": 0.567, "match_basis": "verbatim_token+domain_route:DS"}, {"md_atom_id": "md_dmDS_ex_a250", "md_file": "knowledge_base/domains/DS/examples.md", "md_atom_type": "SENTENCE", "md_parent_section": "§DS.11 [Example 11]", "md_verbatim": "**Row 4:** Shows that drug C was ended during the second cycle (TAETORD = \"2\") of the treatment epoch. The subject did not complete treatment, due to disease progression. The date of disposition of the treatment epoch, DSSTDTC, is the date the subject started the follow-up element. For this study, that was defined as 4 weeks after the start of the last treatment element. This means that although the subject's last dose of treatment was \"2015-04-14\", the end of the treatment period was later, on \"2015-04-26\", when the subject started the follow-up treatment.", "score": 0.5657, "match_basis": "verbatim_token+domain_route:DS"}, {"md_atom_id": "md_dmDS_ex_a105", "md_file": "knowledge_base/domains/DS/examples.md", "md_atom_type": "SENTENCE", "md_parent_section": "§DS.8 [Example 8]", "md_verbatim": "This example represents data for an ongoing blinded study in which each subject received 2 treatments, identified by the sponsor as \"BLINDED DRUG A\" and \"BLINDED DRUG B\". Disposition of study participation and of each of the 2 blinded treatments was collected for each of the 2 treatment epochs in the study. The subject in this example completed study participation and both treatments for both treatment epochs.", "score": 0.5596, "match_basis": "verbatim_token+domain_route:DS"}, {"md_atom_id": "md_dmDS_ex_a035", "md_file": "knowledge_base/domains/DS/examples.md", "md_atom_type": "SENTENCE", "md_parent_section": "§DS.2 [Example 2]", "md_verbatim": "In this example, the sponsor has chosen to simply submit whether or not subjects completed the study, so there is only 1 record per subject. The sponsor did not collect disposition of treatment and did not include DSSCAT. EPOCH was populated as a timing variable, and represents the epoch during which the subject discontinued.", "score": 0.5468, "match_basis": "verbatim_token+domain_route:DS"}], "candidate_count": 5, "zero_candidate": false}
{"pdf_atom_id": "ig34_p0165_a0035", "pdf_atom_type": "SENTENCE", "pdf_source": "SDTMIG_v3.4", "pdf_page": 165, "pdf_parent_section": "§6.2.4 Disposition (DS)", "pdf_verbatim": "The TE dataset shows the elements of the trial.", "figure_ref": null, "candidates": [{"md_atom_id": "md_dmDS_ex_a211", "md_file": "knowledge_base/domains/DS/examples.md", "md_atom_type": "SENTENCE", "md_parent_section": "§DS.11 [Example 11]", "md_verbatim": "The TE dataset shows the elements of the trial.", "score": 1.0, "match_basis": "verbatim_token+domain_route:DS"}, {"md_atom_id": "md_dmDS_ex_a172", "md_file": "knowledge_base/domains/DS/examples.md", "md_atom_type": "SENTENCE", "md_parent_section": "§DS.10 [Example 10]", "md_verbatim": "The SE dataset shows the dates for the elements for each subject.", "score": 0.7214, "match_basis": "verbatim_token+domain_route:DS"}, {"md_atom_id": "md_dmDS_ex_a130", "md_file": "knowledge_base/domains/DS/examples.md", "md_atom_type": "SENTENCE", "md_parent_section": "§DS.10 [Example 10]", "md_verbatim": "The elements used in the TA dataset are defined in the TE dataset.", "score": 0.6769, "match_basis": "verbatim_token+domain_route:DS"}, {"md_atom_id": "md_dmDS_ex_a134", "md_file": "knowledge_base/domains/DS/examples.md", "md_atom_type": "SENTENCE", "md_parent_section": "§DS.10 [Example 10]", "md_verbatim": "**Row 6:** Shows the follow-up element.", "score": 0.6348, "match_basis": "verbatim_token+domain_route:DS"}, {"md_atom_id": "md_dmDS_ex_a131", "md_file": "knowledge_base/domains/DS/examples.md", "md_atom_type": "SENTENCE", "md_parent_section": "§DS.10 [Example 10]", "md_verbatim": "**Row 1:** Shows the screening element.", "score": 0.6077, "match_basis": "verbatim_token+domain_route:DS"}], "candidate_count": 5, "zero_candidate": false}
{"pdf_atom_id": "ig34_p0166_a0001", "pdf_atom_type": "CODE_LITERAL", "pdf_source": "SDTMIG_v3.4", "pdf_page": 166, "pdf_parent_section": "§6.2.4 Disposition (DS)", "pdf_verbatim": "te.xpt", "figure_ref": null, "candidates": [{"md_atom_id": "md_dmDS_ex_a011", "md_file": "knowledge_base/domains/DS/examples.md", "md_atom_type": "SENTENCE", "md_parent_section": "§DS.1 [Example 1]", "md_verbatim": "**ds.xpt**", "score": 0.79, "match_basis": "verbatim_token+domain_route:DS"}, {"md_atom_id": "md_dmDS_ex_a038", "md_file": "knowledge_base/domains/DS/examples.md", "md_atom_type": "SENTENCE", "md_parent_section": "§DS.2 [Example 2]", "md_verbatim": "**ds.xpt**", "score": 0.79, "match_basis": "verbatim_token+domain_route:DS"}, {"md_atom_id": "md_dmDS_ex_a049", "md_file": "knowledge_base/domains/DS/examples.md", "md_atom_type": "SENTENCE", "md_parent_section": "§DS.3 [Example 3]", "md_verbatim": "**ds.xpt**", "score": 0.79, "match_basis": "verbatim_token+domain_route:DS"}, {"md_atom_id": "md_dmDS_ex_a059", "md_file": "knowledge_base/domains/DS/examples.md", "md_atom_type": "SENTENCE", "md_parent_section": "§DS.4 [Example 4]", "md_verbatim": "**ds.xpt**", "score": 0.79, "match_basis": "verbatim_token+domain_route:DS"}, {"md_atom_id": "md_dmDS_ex_a063", "md_file": "knowledge_base/domains/DS/examples.md", "md_atom_type": "SENTENCE", "md_parent_section": "§DS.4 [Example 4]", "md_verbatim": "**ae.xpt**", "score": 0.79, "match_basis": "verbatim_token+domain_route:DS"}, {"md_atom_id": "md_dmDS_ex_a077", "md_file": "knowledge_base/domains/DS/examples.md", "md_atom_type": "SENTENCE", "md_parent_section": "§DS.5 [Example 5]", "md_verbatim": "**ds.xpt**", "score": 0.79, "match_basis": "verbatim_token+domain_route:DS"}, {"md_atom_id": "md_dmDS_ex_a089", "md_file": "knowledge_base/domains/DS/examples.md", "md_atom_type": "SENTENCE", "md_parent_section": "§DS.6 [Example 6]", "md_verbatim": "**ds.xpt**", "score": 0.79, "match_basis": "verbatim_token+domain_route:DS"}, {"md_atom_id": "md_dmDS_ex_a098", "md_file": "knowledge_base/domains/DS/examples.md", "md_atom_type": "SENTENCE", "md_parent_section": "§DS.7 [Example 7]", "md_verbatim": "**ds.xpt**", "score": 0.79, "match_basis": "verbatim_token+domain_route:DS"}, {"md_atom_id": "md_dmDS_ex_a108", "md_file": "knowledge_base/domains/DS/examples.md", "md_atom_type": "SENTENCE", "md_parent_section": "§DS.8 [Example 8]", "md_verbatim": "**ds.xpt**", "score": 0.79, "match_basis": "verbatim_token+domain_route:DS"}, {"md_atom_id": "md_dmDS_ex_a121", "md_file": "knowledge_base/domains/DS/examples.md", "md_atom_type": "SENTENCE", "md_parent_section": "§DS.9 [Example 9]", "md_verbatim": "**ds.xpt**", "score": 0.79, "match_basis": "verbatim_token+domain_route:DS"}], "candidate_count": 10, "zero_candidate": false}
{"pdf_atom_id": "ig34_p0166_a0002", "pdf_atom_type": "TABLE_HEADER", "pdf_source": "SDTMIG_v3.4", "pdf_page": 166, "pdf_parent_section": "§6.2.4 Disposition (DS)", "pdf_verbatim": "| Row | STUDYID | DOMAIN | ETCD | ELEMENT | TESTRL | TEENRL | TEDUR |", "figure_ref": null, "candidates": [{"md_atom_id": "md_dmDS_ex_a136", "md_file": "knowledge_base/domains/DS/examples.md", "md_atom_type": "TABLE_HEADER", "md_parent_section": "§DS.10 [Example 10]", "md_verbatim": "| Row | STUDYID | DOMAIN | ETCD | ELEMENT | TESTRL | TEENRL | TEDUR |\n|-----|---------|--------|------|---------|--------|--------|-------|", "score": 1.0, "match_basis": "verbatim_token+domain_route:DS"}, {"md_atom_id": "md_dmDS_ex_a213", "md_file": "knowledge_base/domains/DS/examples.md", "md_atom_type": "TABLE_HEADER", "md_parent_section": "§DS.11 [Example 11]", "md_verbatim": "| Row | STUDYID | DOMAIN | ETCD | ELEMENT | TESTRL | TEENRL | TEDUR |\n|-----|---------|--------|------|---------|--------|--------|-------|", "score": 1.0, "match_basis": "verbatim_token+domain_route:DS"}, {"md_atom_id": "md_dmDS_ex_a149", "md_file": "knowledge_base/domains/DS/examples.md", "md_atom_type": "TABLE_HEADER", "md_parent_section": "§DS.10 [Example 10]", "md_verbatim": "| Row | STUDYID | DOMAIN | ARMCD | ARM | TAETORD | ETCD | ELEMENT | TABRANCH | TATRANS | EPOCH |\n|-----|---------|--------|-------|-----|---------|------|---------|----------|---------|-------|", "score": 0.6082, "match_basis": "verbatim_token+domain_route:DS"}, {"md_atom_id": "md_dmDS_ex_a221", "md_file": "knowledge_base/domains/DS/examples.md", "md_atom_type": "TABLE_HEADER", "md_parent_section": "§DS.11 [Example 11]", "md_verbatim": "| Row | STUDYID | DOMAIN | ARMCD | ARM | TAETORD | ETCD | ELEMENT | TABRANCH | TATRANS | EPOCH |\n|-----|---------|--------|-------|-----|---------|------|---------|----------|---------|-------|", "score": 0.6082, "match_basis": "verbatim_token+domain_route:DS"}, {"md_atom_id": "md_dmDS_ex_a178", "md_file": "knowledge_base/domains/DS/examples.md", "md_atom_type": "TABLE_HEADER", "md_parent_section": "§DS.10 [Example 10]", "md_verbatim": "| Row | STUDYID | DOMAIN | USUBJID | SDSEQ | ETCD | SESTDTC | SEENDTC | TAETORD | EPOCH |\n|-----|---------|--------|---------|-------|------|---------|---------|---------|-------|", "score": 0.5647, "match_basis": "verbatim_token+domain_route:DS"}], "candidate_count": 5, "zero_candidate": false}
{"pdf_atom_id": "ig34_p0166_a0003", "pdf_atom_type": "TABLE_ROW", "pdf_source": "SDTMIG_v3.4", "pdf_page": 166, "pdf_parent_section": "§6.2.4 Disposition (DS)", "pdf_verbatim": "| 1 | DS10 | TE | SCRN | Screen | Informed Consent | Screening assessments are complete, up to 2 weeks after start of Element | |", "figure_ref": null, "candidates": [{"md_atom_id": "md_dmDS_ex_a214", "md_file": "knowledge_base/domains/DS/examples.md", "md_atom_type": "TABLE_ROW", "md_parent_section": "§DS.11 [Example 11]", "md_verbatim": "| 1 | DS10 | TE | SCRN | Screen | Informed Consent | Screening assessments are complete, up to 2 weeks after start of Element | |", "score": 1.0, "match_basis": "verbatim_token+domain_route:DS"}, {"md_atom_id": "md_dmDS_ex_a137", "md_file": "knowledge_base/domains/DS/examples.md", "md_atom_type": "TABLE_ROW", "md_parent_section": "§DS.10 [Example 10]", "md_verbatim": "| 1 | XYZ | TE | SCRN | Screen | Informed Consent | 1 week after start of Element | P7D |", "score": 0.736, "match_basis": "verbatim_token+domain_route:DS"}, {"md_atom_id": "md_dmDS_ex_a256", "md_file": "knowledge_base/domains/DS/examples.md", "md_atom_type": "TABLE_ROW", "md_parent_section": "§DS.11 [Example 11]", "md_verbatim": "| 1 | DS10 | DS | 101 | 1 | INFORMED CONSENT OBTAINED | INFORMED CONSENT OBTAINED | PROTOCOL MILESTONE | | 1 | SCREENING | 2015-01-21 |", "score": 0.5714, "match_basis": "verbatim_token+domain_route:DS"}, {"md_atom_id": "md_dmDS_ex_a217", "md_file": "knowledge_base/domains/DS/examples.md", "md_atom_type": "TABLE_ROW", "md_parent_section": "§DS.11 [Example 11]", "md_verbatim": "| 4 | DS10 | TE | FU | Follow-up | Four weeks after start of last treatment element | Death, withdrawal of consent, or loss to follow-up. | |", "score": 0.5644, "match_basis": "verbatim_token+domain_route:DS"}, {"md_atom_id": "md_dmDS_ex_a215", "md_file": "knowledge_base/domains/DS/examples.md", "md_atom_type": "TABLE_ROW", "md_parent_section": "§DS.11 [Example 11]", "md_verbatim": "| 2 | DS10 | TE | AB | Trt AB | First dose of treatment Element, where treatment is AB | 4 weeks after start of Element | P4W |", "score": 0.5524, "match_basis": "verbatim_token+domain_route:DS"}], "candidate_count": 5, "zero_candidate": false}
{"pdf_atom_id": "ig34_p0166_a0004", "pdf_atom_type": "TABLE_ROW", "pdf_source": "SDTMIG_v3.4", "pdf_page": 166, "pdf_parent_section": "§6.2.4 Disposition (DS)", "pdf_verbatim": "| 2 | DS10 | TE | AB | Trt AB | First dose of treatment Element, where treatment is AB | 4 weeks after start of Element | P4W |", "figure_ref": null, "candidates": [{"md_atom_id": "md_dmDS_ex_a215", "md_file": "knowledge_base/domains/DS/examples.md", "md_atom_type": "TABLE_ROW", "md_parent_section": "§DS.11 [Example 11]", "md_verbatim": "| 2 | DS10 | TE | AB | Trt AB | First dose of treatment Element, where treatment is AB | 4 weeks after start of Element | P4W |", "score": 1.0, "match_basis": "verbatim_token+domain_route:DS"}, {"md_atom_id": "md_dmDS_ex_a216", "md_file": "knowledge_base/domains/DS/examples.md", "md_atom_type": "TABLE_ROW", "md_parent_section": "§DS.11 [Example 11]", "md_verbatim": "| 3 | DS10 | TE | ABC | Trt ABC | First dose of treatment Element, where treatment is AB+C | 4 weeks after start of Element | P4W |", "score": 0.9812, "match_basis": "verbatim_token+domain_route:DS"}, {"md_atom_id": "md_dmDS_ex_a138", "md_file": "knowledge_base/domains/DS/examples.md", "md_atom_type": "TABLE_ROW", "md_parent_section": "§DS.10 [Example 10]", "md_verbatim": "| 2 | XYZ | TE | DRUG1 | Drug 1 | First dose of Drug 1 | 4 weeks after start of Element | P28D |", "score": 0.7081, "match_basis": "verbatim_token+domain_route:DS"}, {"md_atom_id": "md_dmDS_ex_a139", "md_file": "knowledge_base/domains/DS/examples.md", "md_atom_type": "TABLE_ROW", "md_parent_section": "§DS.10 [Example 10]", "md_verbatim": "| 3 | XYZ | TE | DRUG2 | Drug 2 | First dose of Drug 2 | 4 weeks after start of Element | P28D |", "score": 0.7081, "match_basis": "verbatim_token+domain_route:DS"}, {"md_atom_id": "md_dmDS_ex_a217", "md_file": "knowledge_base/domains/DS/examples.md", "md_atom_type": "TABLE_ROW", "md_parent_section": "§DS.11 [Example 11]", "md_verbatim": "| 4 | DS10 | TE | FU | Follow-up | Four weeks after start of last treatment element | Death, withdrawal of consent, or loss to follow-up. | |", "score": 0.6291, "match_basis": "verbatim_token+domain_route:DS"}], "candidate_count": 5, "zero_candidate": false}
{"pdf_atom_id": "ig34_p0166_a0005", "pdf_atom_type": "TABLE_ROW", "pdf_source": "SDTMIG_v3.4", "pdf_page": 166, "pdf_parent_section": "§6.2.4 Disposition (DS)", "pdf_verbatim": "| 3 | DS10 | TE | ABC | Trt ABC | First dose of treatment Element, where treatment AB +C | 4 weeks after start of Element | P4W |", "figure_ref": null, "candidates": [{"md_atom_id": "md_dmDS_ex_a216", "md_file": "knowledge_base/domains/DS/examples.md", "md_atom_type": "TABLE_ROW", "md_parent_section": "§DS.11 [Example 11]", "md_verbatim": "| 3 | DS10 | TE | ABC | Trt ABC | First dose of treatment Element, where treatment is AB+C | 4 weeks after start of Element | P4W |", "score": 1.0, "match_basis": "verbatim_token+domain_route:DS"}, {"md_atom_id": "md_dmDS_ex_a215", "md_file": "knowledge_base/domains/DS/examples.md", "md_atom_type": "TABLE_ROW", "md_parent_section": "§DS.11 [Example 11]", "md_verbatim": "| 2 | DS10 | TE | AB | Trt AB | First dose of treatment Element, where treatment is AB | 4 weeks after start of Element | P4W |", "score": 0.9812, "match_basis": "verbatim_token+domain_route:DS"}, {"md_atom_id": "md_dmDS_ex_a138", "md_file": "knowledge_base/domains/DS/examples.md", "md_atom_type": "TABLE_ROW", "md_parent_section": "§DS.10 [Example 10]", "md_verbatim": "| 2 | XYZ | TE | DRUG1 | Drug 1 | First dose of Drug 1 | 4 weeks after start of Element | P28D |", "score": 0.7, "match_basis": "verbatim_token+domain_route:DS"}, {"md_atom_id": "md_dmDS_ex_a139", "md_file": "knowledge_base/domains/DS/examples.md", "md_atom_type": "TABLE_ROW", "md_parent_section": "§DS.10 [Example 10]", "md_verbatim": "| 3 | XYZ | TE | DRUG2 | Drug 2 | First dose of Drug 2 | 4 weeks after start of Element | P28D |", "score": 0.7, "match_basis": "verbatim_token+domain_route:DS"}, {"md_atom_id": "md_dmDS_ex_a217", "md_file": "knowledge_base/domains/DS/examples.md", "md_atom_type": "TABLE_ROW", "md_parent_section": "§DS.11 [Example 11]", "md_verbatim": "| 4 | DS10 | TE | FU | Follow-up | Four weeks after start of last treatment element | Death, withdrawal of consent, or loss to follow-up. | |", "score": 0.625, "match_basis": "verbatim_token+domain_route:DS"}], "candidate_count": 5, "zero_candidate": false}
{"pdf_atom_id": "ig34_p0166_a0006", "pdf_atom_type": "TABLE_ROW", "pdf_source": "SDTMIG_v3.4", "pdf_page": 166, "pdf_parent_section": "§6.2.4 Disposition (DS)", "pdf_verbatim": "| 4 | DS10 | TE | FU | Follow-up | Four weeks after start of last treatment element | Death, withdrawal of consent, or loss to follow-up. | |", "figure_ref": null, "candidates": [{"md_atom_id": "md_dmDS_ex_a217", "md_file": "knowledge_base/domains/DS/examples.md", "md_atom_type": "TABLE_ROW", "md_parent_section": "§DS.11 [Example 11]", "md_verbatim": "| 4 | DS10 | TE | FU | Follow-up | Four weeks after start of last treatment element | Death, withdrawal of consent, or loss to follow-up. | |", "score": 1.0, "match_basis": "verbatim_token+domain_route:DS"}, {"md_atom_id": "md_dmDS_ex_a215", "md_file": "knowledge_base/domains/DS/examples.md", "md_atom_type": "TABLE_ROW", "md_parent_section": "§DS.11 [Example 11]", "md_verbatim": "| 2 | DS10 | TE | AB | Trt AB | First dose of treatment Element, where treatment is AB | 4 weeks after start of Element | P4W |", "score": 0.6291, "match_basis": "verbatim_token+domain_route:DS"}, {"md_atom_id": "md_dmDS_ex_a216", "md_file": "knowledge_base/domains/DS/examples.md", "md_atom_type": "TABLE_ROW", "md_parent_section": "§DS.11 [Example 11]", "md_verbatim": "| 3 | DS10 | TE | ABC | Trt ABC | First dose of treatment Element, where treatment is AB+C | 4 weeks after start of Element | P4W |", "score": 0.625, "match_basis": "verbatim_token+domain_route:DS"}, {"md_atom_id": "md_dmDS_ex_a137", "md_file": "knowledge_base/domains/DS/examples.md", "md_atom_type": "TABLE_ROW", "md_parent_section": "§DS.10 [Example 10]", "md_verbatim": "| 1 | XYZ | TE | SCRN | Screen | Informed Consent | 1 week after start of Element | P7D |", "score": 0.5759, "match_basis": "verbatim_token+domain_route:DS"}, {"md_atom_id": "md_dmDS_ex_a214", "md_file": "knowledge_base/domains/DS/examples.md", "md_atom_type": "TABLE_ROW", "md_parent_section": "§DS.11 [Example 11]", "md_verbatim": "| 1 | DS10 | TE | SCRN | Screen | Informed Consent | Screening assessments are complete, up to 2 weeks after start of Element | |", "score": 0.5644, "match_basis": "verbatim_token+domain_route:DS"}], "candidate_count": 5, "zero_candidate": false}
{"pdf_atom_id": "ig34_p0166_a0007", "pdf_atom_type": "SENTENCE", "pdf_source": "SDTMIG_v3.4", "pdf_page": 166, "pdf_parent_section": "§6.2.4 Disposition (DS)", "pdf_verbatim": "The TA dataset shows the trial design.", "figure_ref": null, "candidates": [{"md_atom_id": "md_dmDS_ex_a211", "md_file": "knowledge_base/domains/DS/examples.md", "md_atom_type": "SENTENCE", "md_parent_section": "§DS.11 [Example 11]", "md_verbatim": "The TE dataset shows the elements of the trial.", "score": 0.7273, "match_basis": "verbatim_token+domain_route:DS"}, {"md_atom_id": "md_dmDS_ex_a143", "md_file": "knowledge_base/domains/DS/examples.md", "md_atom_type": "SENTENCE", "md_parent_section": "§DS.10 [Example 10]", "md_verbatim": "The TA dataset describes the design of the study.", "score": 0.64, "match_basis": "verbatim_token+domain_route:DS"}, {"md_atom_id": "md_dmDS_ex_a172", "md_file": "knowledge_base/domains/DS/examples.md", "md_atom_type": "SENTENCE", "md_parent_section": "§DS.10 [Example 10]", "md_verbatim": "The SE dataset shows the dates for the elements for each subject.", "score": 0.5687, "match_basis": "verbatim_token+domain_route:DS"}, {"md_atom_id": "md_dmDS_ex_a163", "md_file": "knowledge_base/domains/DS/examples.md", "md_atom_type": "SENTENCE", "md_parent_section": "§DS.10 [Example 10]", "md_verbatim": "The EX dataset shows the administration of study treatments.", "score": 0.5385, "match_basis": "verbatim_token+domain_route:DS"}, {"md_atom_id": "md_dmDS_ex_a130", "md_file": "knowledge_base/domains/DS/examples.md", "md_atom_type": "SENTENCE", "md_parent_section": "§DS.10 [Example 10]", "md_verbatim": "The elements used in the TA dataset are defined in the TE dataset.", "score": 0.52, "match_basis": "verbatim_token+domain_route:DS"}], "candidate_count": 5, "zero_candidate": false}
{"pdf_atom_id": "ig34_p0166_a0008", "pdf_atom_type": "SENTENCE", "pdf_source": "SDTMIG_v3.4", "pdf_page": 166, "pdf_parent_section": "§6.2.4 Disposition (DS)", "pdf_verbatim": "The sponsor chose to number elements starting with zero for the screening element.", "figure_ref": null, "candidates": [{"md_atom_id": "md_dmDS_ex_a218", "md_file": "knowledge_base/domains/DS/examples.md", "md_atom_type": "SENTENCE", "md_parent_section": "§DS.11 [Example 11]", "md_verbatim": "The TA dataset shows the trial design. The sponsor chose to number elements starting with zero for the screening element. For the AB arm, TAETORD values are not chronological for this arm such that elements with TAETORD values of \"2\" or \"5\" would be during \"Cycle 2\", elements with TAETORD values of \"3\" or \"6\" would be during \"Cycle 3\", and elements with TAETORD values of \"4\" or \"7\" would be during \"Cycle 4\".", "score": 0.64, "match_basis": "verbatim_token+domain_route:DS"}, {"md_atom_id": "md_dmDS_ex_a131", "md_file": "knowledge_base/domains/DS/examples.md", "md_atom_type": "SENTENCE", "md_parent_section": "§DS.10 [Example 10]", "md_verbatim": "**Row 1:** Shows the screening element.", "score": 0.595, "match_basis": "verbatim_token+domain_route:DS"}, {"md_atom_id": "md_dmDS_ex_a238", "md_file": "knowledge_base/domains/DS/examples.md", "md_atom_type": "SENTENCE", "md_parent_section": "§DS.11 [Example 11]", "md_verbatim": "**Rows 1-4:** The subject participated in the screening epoch and 3 elements of the treatment epoch.", "score": 0.56, "match_basis": "verbatim_token+domain_route:DS"}, {"md_atom_id": "md_dmDS_ex_a173", "md_file": "knowledge_base/domains/DS/examples.md", "md_atom_type": "SENTENCE", "md_parent_section": "§DS.10 [Example 10]", "md_verbatim": "**Rows 1, 5:** Represent the subjects' actual screening elements.", "score": 0.5556, "match_basis": "verbatim_token+domain_route:DS"}, {"md_atom_id": "md_dmDS_ex_a144", "md_file": "knowledge_base/domains/DS/examples.md", "md_atom_type": "SENTENCE", "md_parent_section": "§DS.10 [Example 10]", "md_verbatim": "**Rows 1, 5:** Screening portion of the trial arm.", "score": 0.5174, "match_basis": "verbatim_token+domain_route:DS"}], "candidate_count": 5, "zero_candidate": false}
{"pdf_atom_id": "ig34_p0166_a0009", "pdf_atom_type": "SENTENCE", "pdf_source": "SDTMIG_v3.4", "pdf_page": 166, "pdf_parent_section": "§6.2.4 Disposition (DS)", "pdf_verbatim": "For the AB arm, the TAETORD values match the cycle numbers.", "figure_ref": null, "candidates": [{"md_atom_id": "md_dmDS_ex_a218", "md_file": "knowledge_base/domains/DS/examples.md", "md_atom_type": "SENTENCE", "md_parent_section": "§DS.11 [Example 11]", "md_verbatim": "The TA dataset shows the trial design. The sponsor chose to number elements starting with zero for the screening element. For the AB arm, TAETORD values are not chronological for this arm such that elements with TAETORD values of \"2\" or \"5\" would be during \"Cycle 2\", elements with TAETORD values of \"3\" or \"6\" would be during \"Cycle 3\", and elements with TAETORD values of \"4\" or \"7\" would be during \"Cycle 4\".", "score": 0.5213, "match_basis": "verbatim_token+domain_route:DS"}, {"md_atom_id": "md_dmDS_ex_a251", "md_file": "knowledge_base/domains/DS/examples.md", "md_atom_type": "SENTENCE", "md_parent_section": "§DS.11 [Example 11]", "md_verbatim": "**Row 5:** Shows that drugs A and B were ended on the same day during the third cycle (TAETORD = \"6\") of the treatment epoch.", "score": 0.4931, "match_basis": "verbatim_token+domain_route:DS"}, {"md_atom_id": "md_dmDS_ex_a250", "md_file": "knowledge_base/domains/DS/examples.md", "md_atom_type": "SENTENCE", "md_parent_section": "§DS.11 [Example 11]", "md_verbatim": "**Row 4:** Shows that drug C was ended during the second cycle (TAETORD = \"2\") of the treatment epoch. The subject did not complete treatment, due to disease progression. The date of disposition of the treatment epoch, DSSTDTC, is the date the subject started the follow-up element. For this study, that was defined as 4 weeks after the start of the last treatment element. This means that although the subject's last dose of treatment was \"2015-04-14\", the end of the treatment period was later, on \"2015-04-26\", when the subject started the follow-up treatment.", "score": 0.4414, "match_basis": "verbatim_token+domain_route:DS"}, {"md_atom_id": "md_dmDS_ex_a057", "md_file": "knowledge_base/domains/DS/examples.md", "md_atom_type": "SENTENCE", "md_parent_section": "§DS.4 [Example 4]", "md_verbatim": "In this example, the CRF included collection of an AE number when study participation was incomplete due to an adverse event. The relationship between the DS record and AE record is represented in a RELREC dataset.", "score": 0.4404, "match_basis": "verbatim_token+domain_route:DS"}, {"md_atom_id": "md_dmDS_ex_a239", "md_file": "knowledge_base/domains/DS/examples.md", "md_atom_type": "SENTENCE", "md_parent_section": "§DS.11 [Example 11]", "md_verbatim": "**Row 5:** The subject's fifth element was not \"ABC\" or \"AB\", as would have been expected if they received all 4 cycles of therapy, but \"FU\".", "score": 0.4364, "match_basis": "verbatim_token+domain_route:DS"}], "candidate_count": 5, "zero_candidate": false}
{"pdf_atom_id": "ig34_p0166_a0010", "pdf_atom_type": "SENTENCE", "pdf_source": "SDTMIG_v3.4", "pdf_page": 166, "pdf_parent_section": "§6.2.4 Disposition (DS)", "pdf_verbatim": "For the ABC arm, if drug C is dropped, the subject may transition to an AB element or follow-up.", "figure_ref": null, "candidates": [{"md_atom_id": "md_dmDS_ex_a176", "md_file": "knowledge_base/domains/DS/examples.md", "md_atom_type": "SENTENCE", "md_parent_section": "§DS.10 [Example 10]", "md_verbatim": "**Rows 4, 8:** Represent the subjects' actual follow-up elements.", "score": 0.5875, "match_basis": "verbatim_token+domain_route:DS"}, {"md_atom_id": "md_dmDS_ex_a134", "md_file": "knowledge_base/domains/DS/examples.md", "md_atom_type": "SENTENCE", "md_parent_section": "§DS.10 [Example 10]", "md_verbatim": "**Row 6:** Shows the follow-up element.", "score": 0.5579, "match_basis": "verbatim_token+domain_route:DS"}, {"md_atom_id": "md_dmDS_ex_a172", "md_file": "knowledge_base/domains/DS/examples.md", "md_atom_type": "SENTENCE", "md_parent_section": "§DS.10 [Example 10]", "md_verbatim": "The SE dataset shows the dates for the elements for each subject.", "score": 0.5532, "match_basis": "verbatim_token+domain_route:DS"}, {"md_atom_id": "md_dmDS_ex_a253", "md_file": "knowledge_base/domains/DS/examples.md", "md_atom_type": "SENTENCE", "md_parent_section": "§DS.11 [Example 11]", "md_verbatim": "**Row 7:** Shows disposition of study participation in the follow-up epoch. The subject died.", "score": 0.54, "match_basis": "verbatim_token+domain_route:DS"}, {"md_atom_id": "md_dmDS_ex_a219", "md_file": "knowledge_base/domains/DS/examples.md", "md_atom_type": "SENTENCE", "md_parent_section": "§DS.11 [Example 11]", "md_verbatim": "This example shows data for a subject who was randomized to treatment ABC. Treatment with drugs A and B was stopped after cycle 2 due to toxicity associated with drug C. The subject died during follow-up.", "score": 0.5304, "match_basis": "verbatim_token+domain_route:DS"}], "candidate_count": 5, "zero_candidate": false}
{"pdf_atom_id": "ig34_p0166_a0011", "pdf_atom_type": "SENTENCE", "pdf_source": "SDTMIG_v3.4", "pdf_page": 166, "pdf_parent_section": "§6.2.4 Disposition (DS)", "pdf_verbatim": "TAETORD values are not chronological for this arm such that elements with TAETORD values of \"2\" or \"5\" would be during \"Cycle 2\", elements with TAETORD values of \"3\" or \"6\" would be during \"Cycle 3\", and elements with TAETORD values of \"4\" or \"7\" would be during \"Cycle 4\".", "figure_ref": null, "candidates": [{"md_atom_id": "md_dmDS_ex_a218", "md_file": "knowledge_base/domains/DS/examples.md", "md_atom_type": "SENTENCE", "md_parent_section": "§DS.11 [Example 11]", "md_verbatim": "The TA dataset shows the trial design. The sponsor chose to number elements starting with zero for the screening element. For the AB arm, TAETORD values are not chronological for this arm such that elements with TAETORD values of \"2\" or \"5\" would be during \"Cycle 2\", elements with TAETORD values of \"3\" or \"6\" would be during \"Cycle 3\", and elements with TAETORD values of \"4\" or \"7\" would be during \"Cycle 4\".", "score": 0.7267, "match_basis": "verbatim_token+domain_route:DS"}, {"md_atom_id": "md_dmDS_ex_a251", "md_file": "knowledge_base/domains/DS/examples.md", "md_atom_type": "SENTENCE", "md_parent_section": "§DS.11 [Example 11]", "md_verbatim": "**Row 5:** Shows that drugs A and B were ended on the same day during the third cycle (TAETORD = \"6\") of the treatment epoch.", "score": 0.544, "match_basis": "verbatim_token+domain_route:DS"}, {"md_atom_id": "md_dmDS_ex_a250", "md_file": "knowledge_base/domains/DS/examples.md", "md_atom_type": "SENTENCE", "md_parent_section": "§DS.11 [Example 11]", "md_verbatim": "**Row 4:** Shows that drug C was ended during the second cycle (TAETORD = \"2\") of the treatment epoch. The subject did not complete treatment, due to disease progression. The date of disposition of the treatment epoch, DSSTDTC, is the date the subject started the follow-up element. For this study, that was defined as 4 weeks after the start of the last treatment element. This means that although the subject's last dose of treatment was \"2015-04-14\", the end of the treatment period was later, on \"2015-04-26\", when the subject started the follow-up treatment.", "score": 0.4873, "match_basis": "verbatim_token+domain_route:DS"}, {"md_atom_id": "md_dmDS_ex_a239", "md_file": "knowledge_base/domains/DS/examples.md", "md_atom_type": "SENTENCE", "md_parent_section": "§DS.11 [Example 11]", "md_verbatim": "**Row 5:** The subject's fifth element was not \"ABC\" or \"AB\", as would have been expected if they received all 4 cycles of therapy, but \"FU\".", "score": 0.4857, "match_basis": "verbatim_token+domain_route:DS"}, {"md_atom_id": "md_dmDS_ex_a005", "md_file": "knowledge_base/domains/DS/examples.md", "md_atom_type": "SENTENCE", "md_parent_section": "§DS.1 [Example 1]", "md_verbatim": "**Rows 1, 2, 6, 8, 9, 12, 13, 17, 18:** Show records for protocol milestones. DSTERM and DSDECOD are populated with the same value, the name of the milestone. Note that for randomization events, EPOCH = \"SCREENING\", because randomization occurred before the start of treatment, during the screening epoch.", "score": 0.4851, "match_basis": "verbatim_token+domain_route:DS"}], "candidate_count": 5, "zero_candidate": false}
{"pdf_atom_id": "ig34_p0166_a0012", "pdf_atom_type": "CODE_LITERAL", "pdf_source": "SDTMIG_v3.4", "pdf_page": 166, "pdf_parent_section": "§6.2.4 Disposition (DS)", "pdf_verbatim": "ta.xpt", "figure_ref": null, "candidates": [{"md_atom_id": "md_dmDS_ex_a011", "md_file": "knowledge_base/domains/DS/examples.md", "md_atom_type": "SENTENCE", "md_parent_section": "§DS.1 [Example 1]", "md_verbatim": "**ds.xpt**", "score": 0.79, "match_basis": "verbatim_token+domain_route:DS"}, {"md_atom_id": "md_dmDS_ex_a038", "md_file": "knowledge_base/domains/DS/examples.md", "md_atom_type": "SENTENCE", "md_parent_section": "§DS.2 [Example 2]", "md_verbatim": "**ds.xpt**", "score": 0.79, "match_basis": "verbatim_token+domain_route:DS"}, {"md_atom_id": "md_dmDS_ex_a049", "md_file": "knowledge_base/domains/DS/examples.md", "md_atom_type": "SENTENCE", "md_parent_section": "§DS.3 [Example 3]", "md_verbatim": "**ds.xpt**", "score": 0.79, "match_basis": "verbatim_token+domain_route:DS"}, {"md_atom_id": "md_dmDS_ex_a059", "md_file": "knowledge_base/domains/DS/examples.md", "md_atom_type": "SENTENCE", "md_parent_section": "§DS.4 [Example 4]", "md_verbatim": "**ds.xpt**", "score": 0.79, "match_basis": "verbatim_token+domain_route:DS"}, {"md_atom_id": "md_dmDS_ex_a063", "md_file": "knowledge_base/domains/DS/examples.md", "md_atom_type": "SENTENCE", "md_parent_section": "§DS.4 [Example 4]", "md_verbatim": "**ae.xpt**", "score": 0.79, "match_basis": "verbatim_token+domain_route:DS"}, {"md_atom_id": "md_dmDS_ex_a077", "md_file": "knowledge_base/domains/DS/examples.md", "md_atom_type": "SENTENCE", "md_parent_section": "§DS.5 [Example 5]", "md_verbatim": "**ds.xpt**", "score": 0.79, "match_basis": "verbatim_token+domain_route:DS"}, {"md_atom_id": "md_dmDS_ex_a089", "md_file": "knowledge_base/domains/DS/examples.md", "md_atom_type": "SENTENCE", "md_parent_section": "§DS.6 [Example 6]", "md_verbatim": "**ds.xpt**", "score": 0.79, "match_basis": "verbatim_token+domain_route:DS"}, {"md_atom_id": "md_dmDS_ex_a098", "md_file": "knowledge_base/domains/DS/examples.md", "md_atom_type": "SENTENCE", "md_parent_section": "§DS.7 [Example 7]", "md_verbatim": "**ds.xpt**", "score": 0.79, "match_basis": "verbatim_token+domain_route:DS"}, {"md_atom_id": "md_dmDS_ex_a108", "md_file": "knowledge_base/domains/DS/examples.md", "md_atom_type": "SENTENCE", "md_parent_section": "§DS.8 [Example 8]", "md_verbatim": "**ds.xpt**", "score": 0.79, "match_basis": "verbatim_token+domain_route:DS"}, {"md_atom_id": "md_dmDS_ex_a121", "md_file": "knowledge_base/domains/DS/examples.md", "md_atom_type": "SENTENCE", "md_parent_section": "§DS.9 [Example 9]", "md_verbatim": "**ds.xpt**", "score": 0.79, "match_basis": "verbatim_token+domain_route:DS"}], "candidate_count": 10, "zero_candidate": false}
{"pdf_atom_id": "ig34_p0166_a0013", "pdf_atom_type": "TABLE_HEADER", "pdf_source": "SDTMIG_v3.4", "pdf_page": 166, "pdf_parent_section": "§6.2.4 Disposition (DS)", "pdf_verbatim": "| Row | STUDYID | DOMAIN | ARMCD | ARM | TAETORD | ETCD | ELEMENT | TABRANCH | TATRANS | EPOCH |", "figure_ref": null, "candidates": [{"md_atom_id": "md_dmDS_ex_a149", "md_file": "knowledge_base/domains/DS/examples.md", "md_atom_type": "TABLE_HEADER", "md_parent_section": "§DS.10 [Example 10]", "md_verbatim": "| Row | STUDYID | DOMAIN | ARMCD | ARM | TAETORD | ETCD | ELEMENT | TABRANCH | TATRANS | EPOCH |\n|-----|---------|--------|-------|-----|---------|------|---------|----------|---------|-------|", "score": 1.0, "match_basis": "verbatim_token+domain_route:DS"}, {"md_atom_id": "md_dmDS_ex_a221", "md_file": "knowledge_base/domains/DS/examples.md", "md_atom_type": "TABLE_HEADER", "md_parent_section": "§DS.11 [Example 11]", "md_verbatim": "| Row | STUDYID | DOMAIN | ARMCD | ARM | TAETORD | ETCD | ELEMENT | TABRANCH | TATRANS | EPOCH |\n|-----|---------|--------|-------|-----|---------|------|---------|----------|---------|-------|", "score": 1.0, "match_basis": "verbatim_token+domain_route:DS"}, {"md_atom_id": "md_dmDS_ex_a178", "md_file": "knowledge_base/domains/DS/examples.md", "md_atom_type": "TABLE_HEADER", "md_parent_section": "§DS.10 [Example 10]", "md_verbatim": "| Row | STUDYID | DOMAIN | USUBJID | SDSEQ | ETCD | SESTDTC | SEENDTC | TAETORD | EPOCH |\n|-----|---------|--------|---------|-------|------|---------|---------|---------|-------|", "score": 0.6182, "match_basis": "verbatim_token+domain_route:DS"}, {"md_atom_id": "md_dmDS_ex_a136", "md_file": "knowledge_base/domains/DS/examples.md", "md_atom_type": "TABLE_HEADER", "md_parent_section": "§DS.10 [Example 10]", "md_verbatim": "| Row | STUDYID | DOMAIN | ETCD | ELEMENT | TESTRL | TEENRL | TEDUR |\n|-----|---------|--------|------|---------|--------|--------|-------|", "score": 0.6082, "match_basis": "verbatim_token+domain_route:DS"}, {"md_atom_id": "md_dmDS_ex_a213", "md_file": "knowledge_base/domains/DS/examples.md", "md_atom_type": "TABLE_HEADER", "md_parent_section": "§DS.11 [Example 11]", "md_verbatim": "| Row | STUDYID | DOMAIN | ETCD | ELEMENT | TESTRL | TEENRL | TEDUR |\n|-----|---------|--------|------|---------|--------|--------|-------|", "score": 0.6082, "match_basis": "verbatim_token+domain_route:DS"}], "candidate_count": 5, "zero_candidate": false}
{"pdf_atom_id": "ig34_p0166_a0014", "pdf_atom_type": "TABLE_ROW", "pdf_source": "SDTMIG_v3.4", "pdf_page": 166, "pdf_parent_section": "§6.2.4 Disposition (DS)", "pdf_verbatim": "| 1 | DS10 | TA | AB | AB | 0 | SCRN | Screen | Randomized to AB | | SCREENING |", "figure_ref": null, "candidates": [{"md_atom_id": "md_dmDS_ex_a222", "md_file": "knowledge_base/domains/DS/examples.md", "md_atom_type": "TABLE_ROW", "md_parent_section": "§DS.11 [Example 11]", "md_verbatim": "| 1 | DS10 | TA | AB | AB | 0 | SCRN | Screen | Randomized to AB | | SCREENING |", "score": 1.0, "match_basis": "verbatim_token+domain_route:DS"}, {"md_atom_id": "md_dmDS_ex_a228", "md_file": "knowledge_base/domains/DS/examples.md", "md_atom_type": "TABLE_ROW", "md_parent_section": "§DS.11 [Example 11]", "md_verbatim": "| 7 | DS10 | TA | ABC | ABC | 0 | SCRN | Screen | Randomized to ABC | | SCREENING |", "score": 0.9684, "match_basis": "verbatim_token+domain_route:DS"}, {"md_atom_id": "md_dmDS_ex_a257", "md_file": "knowledge_base/domains/DS/examples.md", "md_atom_type": "TABLE_ROW", "md_parent_section": "§DS.11 [Example 11]", "md_verbatim": "| 2 | DS10 | DS | 101 | 2 | RANDOMIZED | RANDOMIZED | PROTOCOL MILESTONE | | 1 | SCREENING | 2015-02-01 |", "score": 0.7, "match_basis": "verbatim_token+domain_route:DS"}, {"md_atom_id": "md_dmDS_ex_a242", "md_file": "knowledge_base/domains/DS/examples.md", "md_atom_type": "TABLE_ROW", "md_parent_section": "§DS.11 [Example 11]", "md_verbatim": "| 1 | DS10 | SE | 101 | 1 | SCRN | 2015-01-21 | 2015-02-01 | 0 | | SCREENING |", "score": 0.6857, "match_basis": "verbatim_token+domain_route:DS"}, {"md_atom_id": "md_dmDS_ex_a150", "md_file": "knowledge_base/domains/DS/examples.md", "md_atom_type": "TABLE_ROW", "md_parent_section": "§DS.10 [Example 10]", "md_verbatim": "| 1 | XYZ | TA | DG1INDG | Drug-1+Investigation-Drug | 1 | SCRN | Screen | Randomized to DG1INDG | | SCREENING |", "score": 0.6595, "match_basis": "verbatim_token+domain_route:DS"}], "candidate_count": 5, "zero_candidate": false}
{"pdf_atom_id": "ig34_p0166_a0015", "pdf_atom_type": "TABLE_ROW", "pdf_source": "SDTMIG_v3.4", "pdf_page": 166, "pdf_parent_section": "§6.2.4 Disposition (DS)", "pdf_verbatim": "| 2 | DS10 | TA | AB | AB | 1 | AB | Trt AB | | If disease progression, go to follow-up epoch. | TREATMENT |", "figure_ref": null, "candidates": [{"md_atom_id": "md_dmDS_ex_a223", "md_file": "knowledge_base/domains/DS/examples.md", "md_atom_type": "TABLE_ROW", "md_parent_section": "§DS.11 [Example 11]", "md_verbatim": "| 2 | DS10 | TA | AB | AB | 1 | AB | Trt AB | | If disease progression, go to follow-up epoch. | TREATMENT |", "score": 1.0, "match_basis": "verbatim_token+domain_route:DS"}, {"md_atom_id": "md_dmDS_ex_a224", "md_file": "knowledge_base/domains/DS/examples.md", "md_atom_type": "TABLE_ROW", "md_parent_section": "§DS.11 [Example 11]", "md_verbatim": "| 3 | DS10 | TA | AB | AB | 2 | AB | Trt AB | | If disease progression, go to follow-up epoch. | TREATMENT |", "score": 1.0, "match_basis": "verbatim_token+domain_route:DS"}, {"md_atom_id": "md_dmDS_ex_a225", "md_file": "knowledge_base/domains/DS/examples.md", "md_atom_type": "TABLE_ROW", "md_parent_section": "§DS.11 [Example 11]", "md_verbatim": "| 4 | DS10 | TA | AB | AB | 3 | AB | Trt AB | | If disease progression, go to follow-up epoch. | TREATMENT |", "score": 1.0, "match_basis": "verbatim_token+domain_route:DS"}, {"md_atom_id": "md_dmDS_ex_a229", "md_file": "knowledge_base/domains/DS/examples.md", "md_atom_type": "TABLE_ROW", "md_parent_section": "§DS.11 [Example 11]", "md_verbatim": "| 8 | DS10 | TA | ABC | ABC | 1 | ABC | Trt ABC | | If disease progression, go to follow-up epoch. If drug C is dropped, go to element with TAETORD = \"5\". | TREATMENT |", "score": 0.7796, "match_basis": "verbatim_token+domain_route:DS"}, {"md_atom_id": "md_dmDS_ex_a230", "md_file": "knowledge_base/domains/DS/examples.md", "md_atom_type": "TABLE_ROW", "md_parent_section": "§DS.11 [Example 11]", "md_verbatim": "| 9 | DS10 | TA | ABC | ABC | 2 | ABC | Trt ABC | | If disease progression, go to follow-up epoch. If drug C is dropped, go to element with TAETORD = \"5\". | TREATMENT |", "score": 0.7796, "match_basis": "verbatim_token+domain_route:DS"}], "candidate_count": 5, "zero_candidate": false}
{"pdf_atom_id": "ig34_p0166_a0016", "pdf_atom_type": "TABLE_ROW", "pdf_source": "SDTMIG_v3.4", "pdf_page": 166, "pdf_parent_section": "§6.2.4 Disposition (DS)", "pdf_verbatim": "| 3 | DS10 | TA | AB | AB | 2 | AB | Trt AB | | If disease progression, go to follow-up epoch. | TREATMENT |", "figure_ref": null, "candidates": [{"md_atom_id": "md_dmDS_ex_a223", "md_file": "knowledge_base/domains/DS/examples.md", "md_atom_type": "TABLE_ROW", "md_parent_section": "§DS.11 [Example 11]", "md_verbatim": "| 2 | DS10 | TA | AB | AB | 1 | AB | Trt AB | | If disease progression, go to follow-up epoch. | TREATMENT |", "score": 1.0, "match_basis": "verbatim_token+domain_route:DS"}, {"md_atom_id": "md_dmDS_ex_a224", "md_file": "knowledge_base/domains/DS/examples.md", "md_atom_type": "TABLE_ROW", "md_parent_section": "§DS.11 [Example 11]", "md_verbatim": "| 3 | DS10 | TA | AB | AB | 2 | AB | Trt AB | | If disease progression, go to follow-up epoch. | TREATMENT |", "score": 1.0, "match_basis": "verbatim_token+domain_route:DS"}, {"md_atom_id": "md_dmDS_ex_a225", "md_file": "knowledge_base/domains/DS/examples.md", "md_atom_type": "TABLE_ROW", "md_parent_section": "§DS.11 [Example 11]", "md_verbatim": "| 4 | DS10 | TA | AB | AB | 3 | AB | Trt AB | | If disease progression, go to follow-up epoch. | TREATMENT |", "score": 1.0, "match_basis": "verbatim_token+domain_route:DS"}, {"md_atom_id": "md_dmDS_ex_a229", "md_file": "knowledge_base/domains/DS/examples.md", "md_atom_type": "TABLE_ROW", "md_parent_section": "§DS.11 [Example 11]", "md_verbatim": "| 8 | DS10 | TA | ABC | ABC | 1 | ABC | Trt ABC | | If disease progression, go to follow-up epoch. If drug C is dropped, go to element with TAETORD = \"5\". | TREATMENT |", "score": 0.7796, "match_basis": "verbatim_token+domain_route:DS"}, {"md_atom_id": "md_dmDS_ex_a230", "md_file": "knowledge_base/domains/DS/examples.md", "md_atom_type": "TABLE_ROW", "md_parent_section": "§DS.11 [Example 11]", "md_verbatim": "| 9 | DS10 | TA | ABC | ABC | 2 | ABC | Trt ABC | | If disease progression, go to follow-up epoch. If drug C is dropped, go to element with TAETORD = \"5\". | TREATMENT |", "score": 0.7796, "match_basis": "verbatim_token+domain_route:DS"}], "candidate_count": 5, "zero_candidate": false}
{"pdf_atom_id": "ig34_p0166_a0017", "pdf_atom_type": "TABLE_ROW", "pdf_source": "SDTMIG_v3.4", "pdf_page": 166, "pdf_parent_section": "§6.2.4 Disposition (DS)", "pdf_verbatim": "| 4 | DS10 | TA | AB | AB | 3 | AB | Trt AB | | If disease progression, go to follow-up epoch. | TREATMENT |", "figure_ref": null, "candidates": [{"md_atom_id": "md_dmDS_ex_a223", "md_file": "knowledge_base/domains/DS/examples.md", "md_atom_type": "TABLE_ROW", "md_parent_section": "§DS.11 [Example 11]", "md_verbatim": "| 2 | DS10 | TA | AB | AB | 1 | AB | Trt AB | | If disease progression, go to follow-up epoch. | TREATMENT |", "score": 1.0, "match_basis": "verbatim_token+domain_route:DS"}, {"md_atom_id": "md_dmDS_ex_a224", "md_file": "knowledge_base/domains/DS/examples.md", "md_atom_type": "TABLE_ROW", "md_parent_section": "§DS.11 [Example 11]", "md_verbatim": "| 3 | DS10 | TA | AB | AB | 2 | AB | Trt AB | | If disease progression, go to follow-up epoch. | TREATMENT |", "score": 1.0, "match_basis": "verbatim_token+domain_route:DS"}, {"md_atom_id": "md_dmDS_ex_a225", "md_file": "knowledge_base/domains/DS/examples.md", "md_atom_type": "TABLE_ROW", "md_parent_section": "§DS.11 [Example 11]", "md_verbatim": "| 4 | DS10 | TA | AB | AB | 3 | AB | Trt AB | | If disease progression, go to follow-up epoch. | TREATMENT |", "score": 1.0, "match_basis": "verbatim_token+domain_route:DS"}, {"md_atom_id": "md_dmDS_ex_a229", "md_file": "knowledge_base/domains/DS/examples.md", "md_atom_type": "TABLE_ROW", "md_parent_section": "§DS.11 [Example 11]", "md_verbatim": "| 8 | DS10 | TA | ABC | ABC | 1 | ABC | Trt ABC | | If disease progression, go to follow-up epoch. If drug C is dropped, go to element with TAETORD = \"5\". | TREATMENT |", "score": 0.7796, "match_basis": "verbatim_token+domain_route:DS"}, {"md_atom_id": "md_dmDS_ex_a230", "md_file": "knowledge_base/domains/DS/examples.md", "md_atom_type": "TABLE_ROW", "md_parent_section": "§DS.11 [Example 11]", "md_verbatim": "| 9 | DS10 | TA | ABC | ABC | 2 | ABC | Trt ABC | | If disease progression, go to follow-up epoch. If drug C is dropped, go to element with TAETORD = \"5\". | TREATMENT |", "score": 0.7796, "match_basis": "verbatim_token+domain_route:DS"}], "candidate_count": 5, "zero_candidate": false}
{"pdf_atom_id": "ig34_p0166_a0018", "pdf_atom_type": "TABLE_ROW", "pdf_source": "SDTMIG_v3.4", "pdf_page": 166, "pdf_parent_section": "§6.2.4 Disposition (DS)", "pdf_verbatim": "| 5 | DS10 | TA | AB | AB | 4 | AB | Trt AB | | | TREATMENT |", "figure_ref": null, "candidates": [{"md_atom_id": "md_dmDS_ex_a226", "md_file": "knowledge_base/domains/DS/examples.md", "md_atom_type": "TABLE_ROW", "md_parent_section": "§DS.11 [Example 11]", "md_verbatim": "| 5 | DS10 | TA | AB | AB | 4 | AB | Trt AB | | | TREATMENT |", "score": 1.0, "match_basis": "verbatim_token+domain_route:DS"}, {"md_atom_id": "md_dmDS_ex_a233", "md_file": "knowledge_base/domains/DS/examples.md", "md_atom_type": "TABLE_ROW", "md_parent_section": "§DS.11 [Example 11]", "md_verbatim": "| 12 | DS10 | TA | ABC | ABC | 5 | AB | Trt AB | | | TREATMENT |", "score": 0.9455, "match_basis": "verbatim_token+domain_route:DS"}, {"md_atom_id": "md_dmDS_ex_a234", "md_file": "knowledge_base/domains/DS/examples.md", "md_atom_type": "TABLE_ROW", "md_parent_section": "§DS.11 [Example 11]", "md_verbatim": "| 13 | DS10 | TA | ABC | ABC | 6 | AB | Trt AB | | | TREATMENT |", "score": 0.9455, "match_basis": "verbatim_token+domain_route:DS"}, {"md_atom_id": "md_dmDS_ex_a235", "md_file": "knowledge_base/domains/DS/examples.md", "md_atom_type": "TABLE_ROW", "md_parent_section": "§DS.11 [Example 11]", "md_verbatim": "| 14 | DS10 | TA | ABC | ABC | 7 | AB | Trt AB | | | TREATMENT |", "score": 0.9455, "match_basis": "verbatim_token+domain_route:DS"}, {"md_atom_id": "md_dmDS_ex_a245", "md_file": "knowledge_base/domains/DS/examples.md", "md_atom_type": "TABLE_ROW", "md_parent_section": "§DS.11 [Example 11]", "md_verbatim": "| 4 | DS10 | SE | 101 | 4 | AB | 2015-03-29 | 2015-04-26 | 6 | | TREATMENT |", "score": 0.8154, "match_basis": "verbatim_token+domain_route:DS"}], "candidate_count": 5, "zero_candidate": false}
{"pdf_atom_id": "ig34_p0166_a0019", "pdf_atom_type": "TABLE_ROW", "pdf_source": "SDTMIG_v3.4", "pdf_page": 166, "pdf_parent_section": "§6.2.4 Disposition (DS)", "pdf_verbatim": "| 6 | DS10 | TA | AB | AB | 5 | FU | Follow-up | | | FOLLOW-UP |", "figure_ref": null, "candidates": [{"md_atom_id": "md_dmDS_ex_a227", "md_file": "knowledge_base/domains/DS/examples.md", "md_atom_type": "TABLE_ROW", "md_parent_section": "§DS.11 [Example 11]", "md_verbatim": "| 6 | DS10 | TA | AB | AB | 5 | FU | Follow-up | | | FOLLOW-UP |", "score": 1.0, "match_basis": "verbatim_token+domain_route:DS"}, {"md_atom_id": "md_dmDS_ex_a236", "md_file": "knowledge_base/domains/DS/examples.md", "md_atom_type": "TABLE_ROW", "md_parent_section": "§DS.11 [Example 11]", "md_verbatim": "| 15 | DS10 | TA | ABC | ABC | 8 | FU | Follow-up | | | FOLLOW-UP |", "score": 0.9143, "match_basis": "verbatim_token+domain_route:DS"}, {"md_atom_id": "md_dmDS_ex_a246", "md_file": "knowledge_base/domains/DS/examples.md", "md_atom_type": "TABLE_ROW", "md_parent_section": "§DS.11 [Example 11]", "md_verbatim": "| 5 | DS10 | SE | 101 | 5 | FU | 2015-04-26 | 2015-09-19 | 8 | | FOLLOW-UP |", "score": 0.8, "match_basis": "verbatim_token+domain_route:DS"}, {"md_atom_id": "md_dmDS_ex_a182", "md_file": "knowledge_base/domains/DS/examples.md", "md_atom_type": "TABLE_ROW", "md_parent_section": "§DS.10 [Example 10]", "md_verbatim": "| 4 | XYZ | SE | XYZ-767-001 | 4 | FU | 2016-04-19 | 2016-04-29 | 4 | FOLLOW-UP |", "score": 0.6182, "match_basis": "verbatim_token+domain_route:DS"}, {"md_atom_id": "md_dmDS_ex_a186", "md_file": "knowledge_base/domains/DS/examples.md", "md_atom_type": "TABLE_ROW", "md_parent_section": "§DS.10 [Example 10]", "md_verbatim": "| 8 | XYZ | SE | XYZ-767-002 | 4 | FU | 2016-04-24 | 2016-04-29 | 4 | FOLLOW-UP |", "score": 0.6182, "match_basis": "verbatim_token+domain_route:DS"}], "candidate_count": 5, "zero_candidate": false}
{"pdf_atom_id": "ig34_p0166_a0020", "pdf_atom_type": "TABLE_ROW", "pdf_source": "SDTMIG_v3.4", "pdf_page": 166, "pdf_parent_section": "§6.2.4 Disposition (DS)", "pdf_verbatim": "| 7 | DS10 | TA | ABC | ABC | 0 | SCRN | Screen | Randomized to ABC | | SCREENING |", "figure_ref": null, "candidates": [{"md_atom_id": "md_dmDS_ex_a228", "md_file": "knowledge_base/domains/DS/examples.md", "md_atom_type": "TABLE_ROW", "md_parent_section": "§DS.11 [Example 11]", "md_verbatim": "| 7 | DS10 | TA | ABC | ABC | 0 | SCRN | Screen | Randomized to ABC | | SCREENING |", "score": 1.0, "match_basis": "verbatim_token+domain_route:DS"}, {"md_atom_id": "md_dmDS_ex_a222", "md_file": "knowledge_base/domains/DS/examples.md", "md_atom_type": "TABLE_ROW", "md_parent_section": "§DS.11 [Example 11]", "md_verbatim": "| 1 | DS10 | TA | AB | AB | 0 | SCRN | Screen | Randomized to AB | | SCREENING |", "score": 0.9684, "match_basis": "verbatim_token+domain_route:DS"}, {"md_atom_id": "md_dmDS_ex_a257", "md_file": "knowledge_base/domains/DS/examples.md", "md_atom_type": "TABLE_ROW", "md_parent_section": "§DS.11 [Example 11]", "md_verbatim": "| 2 | DS10 | DS | 101 | 2 | RANDOMIZED | RANDOMIZED | PROTOCOL MILESTONE | | 1 | SCREENING | 2015-02-01 |", "score": 0.6914, "match_basis": "verbatim_token+domain_route:DS"}, {"md_atom_id": "md_dmDS_ex_a242", "md_file": "knowledge_base/domains/DS/examples.md", "md_atom_type": "TABLE_ROW", "md_parent_section": "§DS.11 [Example 11]", "md_verbatim": "| 1 | DS10 | SE | 101 | 1 | SCRN | 2015-01-21 | 2015-02-01 | 0 | | SCREENING |", "score": 0.6727, "match_basis": "verbatim_token+domain_route:DS"}, {"md_atom_id": "md_dmDS_ex_a150", "md_file": "knowledge_base/domains/DS/examples.md", "md_atom_type": "TABLE_ROW", "md_parent_section": "§DS.10 [Example 10]", "md_verbatim": "| 1 | XYZ | TA | DG1INDG | Drug-1+Investigation-Drug | 1 | SCRN | Screen | Randomized to DG1INDG | | SCREENING |", "score": 0.6526, "match_basis": "verbatim_token+domain_route:DS"}], "candidate_count": 5, "zero_candidate": false}
{"pdf_atom_id": "ig34_p0166_a0021", "pdf_atom_type": "TABLE_ROW", "pdf_source": "SDTMIG_v3.4", "pdf_page": 166, "pdf_parent_section": "§6.2.4 Disposition (DS)", "pdf_verbatim": "| 8 | DS10 | TA | ABC | ABC | 1 | ABC | Trt ABC | | If disease progression, go to follow-up epoch. If drug C is dropped, go to element with TAETORD = \"5\". | TREATMENT |", "figure_ref": null, "candidates": [{"md_atom_id": "md_dmDS_ex_a229", "md_file": "knowledge_base/domains/DS/examples.md", "md_atom_type": "TABLE_ROW", "md_parent_section": "§DS.11 [Example 11]", "md_verbatim": "| 8 | DS10 | TA | ABC | ABC | 1 | ABC | Trt ABC | | If disease progression, go to follow-up epoch. If drug C is dropped, go to element with TAETORD = \"5\". | TREATMENT |", "score": 1.0, "match_basis": "verbatim_token+domain_route:DS"}, {"md_atom_id": "md_dmDS_ex_a230", "md_file": "knowledge_base/domains/DS/examples.md", "md_atom_type": "TABLE_ROW", "md_parent_section": "§DS.11 [Example 11]", "md_verbatim": "| 9 | DS10 | TA | ABC | ABC | 2 | ABC | Trt ABC | | If disease progression, go to follow-up epoch. If drug C is dropped, go to element with TAETORD = \"5\". | TREATMENT |", "score": 1.0, "match_basis": "verbatim_token+domain_route:DS"}, {"md_atom_id": "md_dmDS_ex_a231", "md_file": "knowledge_base/domains/DS/examples.md", "md_atom_type": "TABLE_ROW", "md_parent_section": "§DS.11 [Example 11]", "md_verbatim": "| 10 | DS10 | TA | ABC | ABC | 3 | ABC | Trt ABC | | If disease progression, go to follow-up epoch. If drug C is dropped, go to element with TAETORD = \"5\". | TREATMENT |", "score": 1.0, "match_basis": "verbatim_token+domain_route:DS"}, {"md_atom_id": "md_dmDS_ex_a223", "md_file": "knowledge_base/domains/DS/examples.md", "md_atom_type": "TABLE_ROW", "md_parent_section": "§DS.11 [Example 11]", "md_verbatim": "| 2 | DS10 | TA | AB | AB | 1 | AB | Trt AB | | If disease progression, go to follow-up epoch. | TREATMENT |", "score": 0.7796, "match_basis": "verbatim_token+domain_route:DS"}, {"md_atom_id": "md_dmDS_ex_a224", "md_file": "knowledge_base/domains/DS/examples.md", "md_atom_type": "TABLE_ROW", "md_parent_section": "§DS.11 [Example 11]", "md_verbatim": "| 3 | DS10 | TA | AB | AB | 2 | AB | Trt AB | | If disease progression, go to follow-up epoch. | TREATMENT |", "score": 0.7796, "match_basis": "verbatim_token+domain_route:DS"}], "candidate_count": 5, "zero_candidate": false}
{"pdf_atom_id": "ig34_p0166_a0022", "pdf_atom_type": "TABLE_ROW", "pdf_source": "SDTMIG_v3.4", "pdf_page": 166, "pdf_parent_section": "§6.2.4 Disposition (DS)", "pdf_verbatim": "| 9 | DS10 | TA | ABC | ABC | 2 | ABC | Trt ABC | | If disease progression, go to follow-up epoch. If drug C is dropped, go to element with TAETORD = \"6\". | TREATMENT |", "figure_ref": null, "candidates": [{"md_atom_id": "md_dmDS_ex_a229", "md_file": "knowledge_base/domains/DS/examples.md", "md_atom_type": "TABLE_ROW", "md_parent_section": "§DS.11 [Example 11]", "md_verbatim": "| 8 | DS10 | TA | ABC | ABC | 1 | ABC | Trt ABC | | If disease progression, go to follow-up epoch. If drug C is dropped, go to element with TAETORD = \"5\". | TREATMENT |", "score": 1.0, "match_basis": "verbatim_token+domain_route:DS"}, {"md_atom_id": "md_dmDS_ex_a230", "md_file": "knowledge_base/domains/DS/examples.md", "md_atom_type": "TABLE_ROW", "md_parent_section": "§DS.11 [Example 11]", "md_verbatim": "| 9 | DS10 | TA | ABC | ABC | 2 | ABC | Trt ABC | | If disease progression, go to follow-up epoch. If drug C is dropped, go to element with TAETORD = \"5\". | TREATMENT |", "score": 1.0, "match_basis": "verbatim_token+domain_route:DS"}, {"md_atom_id": "md_dmDS_ex_a231", "md_file": "knowledge_base/domains/DS/examples.md", "md_atom_type": "TABLE_ROW", "md_parent_section": "§DS.11 [Example 11]", "md_verbatim": "| 10 | DS10 | TA | ABC | ABC | 3 | ABC | Trt ABC | | If disease progression, go to follow-up epoch. If drug C is dropped, go to element with TAETORD = \"5\". | TREATMENT |", "score": 1.0, "match_basis": "verbatim_token+domain_route:DS"}, {"md_atom_id": "md_dmDS_ex_a223", "md_file": "knowledge_base/domains/DS/examples.md", "md_atom_type": "TABLE_ROW", "md_parent_section": "§DS.11 [Example 11]", "md_verbatim": "| 2 | DS10 | TA | AB | AB | 1 | AB | Trt AB | | If disease progression, go to follow-up epoch. | TREATMENT |", "score": 0.7796, "match_basis": "verbatim_token+domain_route:DS"}, {"md_atom_id": "md_dmDS_ex_a224", "md_file": "knowledge_base/domains/DS/examples.md", "md_atom_type": "TABLE_ROW", "md_parent_section": "§DS.11 [Example 11]", "md_verbatim": "| 3 | DS10 | TA | AB | AB | 2 | AB | Trt AB | | If disease progression, go to follow-up epoch. | TREATMENT |", "score": 0.7796, "match_basis": "verbatim_token+domain_route:DS"}], "candidate_count": 5, "zero_candidate": false}
{"pdf_atom_id": "ig34_p0166_a0023", "pdf_atom_type": "TABLE_ROW", "pdf_source": "SDTMIG_v3.4", "pdf_page": 166, "pdf_parent_section": "§6.2.4 Disposition (DS)", "pdf_verbatim": "| 10 | DS10 | TA | ABC | ABC | 3 | ABC | Trt ABC | | If disease progression, go to follow-up epoch. If drug C is dropped, go to element with TAETORD = \"7\". | TREATMENT |", "figure_ref": null, "candidates": [{"md_atom_id": "md_dmDS_ex_a229", "md_file": "knowledge_base/domains/DS/examples.md", "md_atom_type": "TABLE_ROW", "md_parent_section": "§DS.11 [Example 11]", "md_verbatim": "| 8 | DS10 | TA | ABC | ABC | 1 | ABC | Trt ABC | | If disease progression, go to follow-up epoch. If drug C is dropped, go to element with TAETORD = \"5\". | TREATMENT |", "score": 1.0, "match_basis": "verbatim_token+domain_route:DS"}, {"md_atom_id": "md_dmDS_ex_a230", "md_file": "knowledge_base/domains/DS/examples.md", "md_atom_type": "TABLE_ROW", "md_parent_section": "§DS.11 [Example 11]", "md_verbatim": "| 9 | DS10 | TA | ABC | ABC | 2 | ABC | Trt ABC | | If disease progression, go to follow-up epoch. If drug C is dropped, go to element with TAETORD = \"5\". | TREATMENT |", "score": 1.0, "match_basis": "verbatim_token+domain_route:DS"}, {"md_atom_id": "md_dmDS_ex_a231", "md_file": "knowledge_base/domains/DS/examples.md", "md_atom_type": "TABLE_ROW", "md_parent_section": "§DS.11 [Example 11]", "md_verbatim": "| 10 | DS10 | TA | ABC | ABC | 3 | ABC | Trt ABC | | If disease progression, go to follow-up epoch. If drug C is dropped, go to element with TAETORD = \"5\". | TREATMENT |", "score": 1.0, "match_basis": "verbatim_token+domain_route:DS"}, {"md_atom_id": "md_dmDS_ex_a223", "md_file": "knowledge_base/domains/DS/examples.md", "md_atom_type": "TABLE_ROW", "md_parent_section": "§DS.11 [Example 11]", "md_verbatim": "| 2 | DS10 | TA | AB | AB | 1 | AB | Trt AB | | If disease progression, go to follow-up epoch. | TREATMENT |", "score": 0.7796, "match_basis": "verbatim_token+domain_route:DS"}, {"md_atom_id": "md_dmDS_ex_a224", "md_file": "knowledge_base/domains/DS/examples.md", "md_atom_type": "TABLE_ROW", "md_parent_section": "§DS.11 [Example 11]", "md_verbatim": "| 3 | DS10 | TA | AB | AB | 2 | AB | Trt AB | | If disease progression, go to follow-up epoch. | TREATMENT |", "score": 0.7796, "match_basis": "verbatim_token+domain_route:DS"}], "candidate_count": 5, "zero_candidate": false}
{"pdf_atom_id": "ig34_p0166_a0024", "pdf_atom_type": "TABLE_ROW", "pdf_source": "SDTMIG_v3.4", "pdf_page": 166, "pdf_parent_section": "§6.2.4 Disposition (DS)", "pdf_verbatim": "| 11 | DS10 | TA | ABC | ABC | 4 | ABC | Trt ABC | | Go to follow-up epoch. | TREATMENT |", "figure_ref": null, "candidates": [{"md_atom_id": "md_dmDS_ex_a232", "md_file": "knowledge_base/domains/DS/examples.md", "md_atom_type": "TABLE_ROW", "md_parent_section": "§DS.11 [Example 11]", "md_verbatim": "| 11 | DS10 | TA | ABC | ABC | 4 | ABC | Trt ABC | | Go to follow-up epoch. | TREATMENT |", "score": 1.0, "match_basis": "verbatim_token+domain_route:DS"}, {"md_atom_id": "md_dmDS_ex_a233", "md_file": "knowledge_base/domains/DS/examples.md", "md_atom_type": "TABLE_ROW", "md_parent_section": "§DS.11 [Example 11]", "md_verbatim": "| 12 | DS10 | TA | ABC | ABC | 5 | AB | Trt AB | | | TREATMENT |", "score": 0.7667, "match_basis": "verbatim_token+domain_route:DS"}, {"md_atom_id": "md_dmDS_ex_a234", "md_file": "knowledge_base/domains/DS/examples.md", "md_atom_type": "TABLE_ROW", "md_parent_section": "§DS.11 [Example 11]", "md_verbatim": "| 13 | DS10 | TA | ABC | ABC | 6 | AB | Trt AB | | | TREATMENT |", "score": 0.7667, "match_basis": "verbatim_token+domain_route:DS"}, {"md_atom_id": "md_dmDS_ex_a235", "md_file": "knowledge_base/domains/DS/examples.md", "md_atom_type": "TABLE_ROW", "md_parent_section": "§DS.11 [Example 11]", "md_verbatim": "| 14 | DS10 | TA | ABC | ABC | 7 | AB | Trt AB | | | TREATMENT |", "score": 0.7667, "match_basis": "verbatim_token+domain_route:DS"}, {"md_atom_id": "md_dmDS_ex_a226", "md_file": "knowledge_base/domains/DS/examples.md", "md_atom_type": "TABLE_ROW", "md_parent_section": "§DS.11 [Example 11]", "md_verbatim": "| 5 | DS10 | TA | AB | AB | 4 | AB | Trt AB | | | TREATMENT |", "score": 0.7333, "match_basis": "verbatim_token+domain_route:DS"}], "candidate_count": 5, "zero_candidate": false}
{"pdf_atom_id": "ig34_p0166_a0025", "pdf_atom_type": "TABLE_ROW", "pdf_source": "SDTMIG_v3.4", "pdf_page": 166, "pdf_parent_section": "§6.2.4 Disposition (DS)", "pdf_verbatim": "| 12 | DS10 | TA | ABC | ABC | 5 | AB | Trt AB | | | TREATMENT |", "figure_ref": null, "candidates": [{"md_atom_id": "md_dmDS_ex_a233", "md_file": "knowledge_base/domains/DS/examples.md", "md_atom_type": "TABLE_ROW", "md_parent_section": "§DS.11 [Example 11]", "md_verbatim": "| 12 | DS10 | TA | ABC | ABC | 5 | AB | Trt AB | | | TREATMENT |", "score": 1.0, "match_basis": "verbatim_token+domain_route:DS"}, {"md_atom_id": "md_dmDS_ex_a234", "md_file": "knowledge_base/domains/DS/examples.md", "md_atom_type": "TABLE_ROW", "md_parent_section": "§DS.11 [Example 11]", "md_verbatim": "| 13 | DS10 | TA | ABC | ABC | 6 | AB | Trt AB | | | TREATMENT |", "score": 1.0, "match_basis": "verbatim_token+domain_route:DS"}, {"md_atom_id": "md_dmDS_ex_a235", "md_file": "knowledge_base/domains/DS/examples.md", "md_atom_type": "TABLE_ROW", "md_parent_section": "§DS.11 [Example 11]", "md_verbatim": "| 14 | DS10 | TA | ABC | ABC | 7 | AB | Trt AB | | | TREATMENT |", "score": 1.0, "match_basis": "verbatim_token+domain_route:DS"}, {"md_atom_id": "md_dmDS_ex_a226", "md_file": "knowledge_base/domains/DS/examples.md", "md_atom_type": "TABLE_ROW", "md_parent_section": "§DS.11 [Example 11]", "md_verbatim": "| 5 | DS10 | TA | AB | AB | 4 | AB | Trt AB | | | TREATMENT |", "score": 0.9455, "match_basis": "verbatim_token+domain_route:DS"}, {"md_atom_id": "md_dmDS_ex_a243", "md_file": "knowledge_base/domains/DS/examples.md", "md_atom_type": "TABLE_ROW", "md_parent_section": "§DS.11 [Example 11]", "md_verbatim": "| 2 | DS10 | SE | 101 | 2 | ABC | 2015-02-01 | 2015-03-01 | 1 | | TREATMENT |", "score": 0.8286, "match_basis": "verbatim_token+domain_route:DS"}], "candidate_count": 5, "zero_candidate": false}
{"pdf_atom_id": "ig34_p0166_a0026", "pdf_atom_type": "TABLE_ROW", "pdf_source": "SDTMIG_v3.4", "pdf_page": 166, "pdf_parent_section": "§6.2.4 Disposition (DS)", "pdf_verbatim": "| 13 | DS10 | TA | ABC | ABC | 6 | AB | Trt AB | | | TREATMENT |", "figure_ref": null, "candidates": [{"md_atom_id": "md_dmDS_ex_a233", "md_file": "knowledge_base/domains/DS/examples.md", "md_atom_type": "TABLE_ROW", "md_parent_section": "§DS.11 [Example 11]", "md_verbatim": "| 12 | DS10 | TA | ABC | ABC | 5 | AB | Trt AB | | | TREATMENT |", "score": 1.0, "match_basis": "verbatim_token+domain_route:DS"}, {"md_atom_id": "md_dmDS_ex_a234", "md_file": "knowledge_base/domains/DS/examples.md", "md_atom_type": "TABLE_ROW", "md_parent_section": "§DS.11 [Example 11]", "md_verbatim": "| 13 | DS10 | TA | ABC | ABC | 6 | AB | Trt AB | | | TREATMENT |", "score": 1.0, "match_basis": "verbatim_token+domain_route:DS"}, {"md_atom_id": "md_dmDS_ex_a235", "md_file": "knowledge_base/domains/DS/examples.md", "md_atom_type": "TABLE_ROW", "md_parent_section": "§DS.11 [Example 11]", "md_verbatim": "| 14 | DS10 | TA | ABC | ABC | 7 | AB | Trt AB | | | TREATMENT |", "score": 1.0, "match_basis": "verbatim_token+domain_route:DS"}, {"md_atom_id": "md_dmDS_ex_a226", "md_file": "knowledge_base/domains/DS/examples.md", "md_atom_type": "TABLE_ROW", "md_parent_section": "§DS.11 [Example 11]", "md_verbatim": "| 5 | DS10 | TA | AB | AB | 4 | AB | Trt AB | | | TREATMENT |", "score": 0.9455, "match_basis": "verbatim_token+domain_route:DS"}, {"md_atom_id": "md_dmDS_ex_a243", "md_file": "knowledge_base/domains/DS/examples.md", "md_atom_type": "TABLE_ROW", "md_parent_section": "§DS.11 [Example 11]", "md_verbatim": "| 2 | DS10 | SE | 101 | 2 | ABC | 2015-02-01 | 2015-03-01 | 1 | | TREATMENT |", "score": 0.8286, "match_basis": "verbatim_token+domain_route:DS"}], "candidate_count": 5, "zero_candidate": false}
{"pdf_atom_id": "ig34_p0166_a0027", "pdf_atom_type": "TABLE_ROW", "pdf_source": "SDTMIG_v3.4", "pdf_page": 166, "pdf_parent_section": "§6.2.4 Disposition (DS)", "pdf_verbatim": "| 14 | DS10 | TA | ABC | ABC | 7 | AB | Trt AB | | | TREATMENT |", "figure_ref": null, "candidates": [{"md_atom_id": "md_dmDS_ex_a233", "md_file": "knowledge_base/domains/DS/examples.md", "md_atom_type": "TABLE_ROW", "md_parent_section": "§DS.11 [Example 11]", "md_verbatim": "| 12 | DS10 | TA | ABC | ABC | 5 | AB | Trt AB | | | TREATMENT |", "score": 1.0, "match_basis": "verbatim_token+domain_route:DS"}, {"md_atom_id": "md_dmDS_ex_a234", "md_file": "knowledge_base/domains/DS/examples.md", "md_atom_type": "TABLE_ROW", "md_parent_section": "§DS.11 [Example 11]", "md_verbatim": "| 13 | DS10 | TA | ABC | ABC | 6 | AB | Trt AB | | | TREATMENT |", "score": 1.0, "match_basis": "verbatim_token+domain_route:DS"}, {"md_atom_id": "md_dmDS_ex_a235", "md_file": "knowledge_base/domains/DS/examples.md", "md_atom_type": "TABLE_ROW", "md_parent_section": "§DS.11 [Example 11]", "md_verbatim": "| 14 | DS10 | TA | ABC | ABC | 7 | AB | Trt AB | | | TREATMENT |", "score": 1.0, "match_basis": "verbatim_token+domain_route:DS"}, {"md_atom_id": "md_dmDS_ex_a226", "md_file": "knowledge_base/domains/DS/examples.md", "md_atom_type": "TABLE_ROW", "md_parent_section": "§DS.11 [Example 11]", "md_verbatim": "| 5 | DS10 | TA | AB | AB | 4 | AB | Trt AB | | | TREATMENT |", "score": 0.9455, "match_basis": "verbatim_token+domain_route:DS"}, {"md_atom_id": "md_dmDS_ex_a243", "md_file": "knowledge_base/domains/DS/examples.md", "md_atom_type": "TABLE_ROW", "md_parent_section": "§DS.11 [Example 11]", "md_verbatim": "| 2 | DS10 | SE | 101 | 2 | ABC | 2015-02-01 | 2015-03-01 | 1 | | TREATMENT |", "score": 0.8286, "match_basis": "verbatim_token+domain_route:DS"}], "candidate_count": 5, "zero_candidate": false}
{"pdf_atom_id": "ig34_p0166_a0028", "pdf_atom_type": "TABLE_ROW", "pdf_source": "SDTMIG_v3.4", "pdf_page": 166, "pdf_parent_section": "§6.2.4 Disposition (DS)", "pdf_verbatim": "| 15 | DS10 | TA | ABC | ABC | 8 | FU | Follow-up | | | FOLLOW-UP |", "figure_ref": null, "candidates": [{"md_atom_id": "md_dmDS_ex_a236", "md_file": "knowledge_base/domains/DS/examples.md", "md_atom_type": "TABLE_ROW", "md_parent_section": "§DS.11 [Example 11]", "md_verbatim": "| 15 | DS10 | TA | ABC | ABC | 8 | FU | Follow-up | | | FOLLOW-UP |", "score": 1.0, "match_basis": "verbatim_token+domain_route:DS"}, {"md_atom_id": "md_dmDS_ex_a227", "md_file": "knowledge_base/domains/DS/examples.md", "md_atom_type": "TABLE_ROW", "md_parent_section": "§DS.11 [Example 11]", "md_verbatim": "| 6 | DS10 | TA | AB | AB | 5 | FU | Follow-up | | | FOLLOW-UP |", "score": 0.9143, "match_basis": "verbatim_token+domain_route:DS"}, {"md_atom_id": "md_dmDS_ex_a246", "md_file": "knowledge_base/domains/DS/examples.md", "md_atom_type": "TABLE_ROW", "md_parent_section": "§DS.11 [Example 11]", "md_verbatim": "| 5 | DS10 | SE | 101 | 5 | FU | 2015-04-26 | 2015-09-19 | 8 | | FOLLOW-UP |", "score": 0.76, "match_basis": "verbatim_token+domain_route:DS"}, {"md_atom_id": "md_dmDS_ex_a232", "md_file": "knowledge_base/domains/DS/examples.md", "md_atom_type": "TABLE_ROW", "md_parent_section": "§DS.11 [Example 11]", "md_verbatim": "| 11 | DS10 | TA | ABC | ABC | 4 | ABC | Trt ABC | | Go to follow-up epoch. | TREATMENT |", "score": 0.6333, "match_basis": "verbatim_token+domain_route:DS"}, {"md_atom_id": "md_dmDS_ex_a182", "md_file": "knowledge_base/domains/DS/examples.md", "md_atom_type": "TABLE_ROW", "md_parent_section": "§DS.10 [Example 10]", "md_verbatim": "| 4 | XYZ | SE | XYZ-767-001 | 4 | FU | 2016-04-19 | 2016-04-29 | 4 | FOLLOW-UP |", "score": 0.6, "match_basis": "verbatim_token+domain_route:DS"}], "candidate_count": 5, "zero_candidate": false}
{"pdf_atom_id": "ig34_p0166_a0029", "pdf_atom_type": "SENTENCE", "pdf_source": "SDTMIG_v3.4", "pdf_page": 166, "pdf_parent_section": "§6.2.4 Disposition (DS)", "pdf_verbatim": "This example shows data for a subject who was randomized to treatment ABC.", "figure_ref": null, "candidates": [{"md_atom_id": "md_dmDS_ex_a219", "md_file": "knowledge_base/domains/DS/examples.md", "md_atom_type": "SENTENCE", "md_parent_section": "§DS.11 [Example 11]", "md_verbatim": "This example shows data for a subject who was randomized to treatment ABC. Treatment with drugs A and B was stopped after cycle 2 due to toxicity associated with drug C. The subject died during follow-up.", "score": 0.6769, "match_basis": "verbatim_token+domain_route:DS"}, {"md_atom_id": "md_dmDS_ex_a046", "md_file": "knowledge_base/domains/DS/examples.md", "md_atom_type": "SENTENCE", "md_parent_section": "§DS.3 [Example 3]", "md_verbatim": "**Rows 1, 2:** Subject 789101 completed the treatment and follow-up phases.", "score": 0.5745, "match_basis": "verbatim_token+domain_route:DS"}, {"md_atom_id": "md_dmDS_ex_a006", "md_file": "knowledge_base/domains/DS/examples.md", "md_atom_type": "SENTENCE", "md_parent_section": "§DS.1 [Example 1]", "md_verbatim": "**Rows 3-5:** Show 3 records for a subject who completed 3 stages of the study (\"SCREENING\", \"TREATMENT\", \"FOLLOW-UP\").", "score": 0.5727, "match_basis": "verbatim_token+domain_route:DS"}, {"md_atom_id": "md_dmDS_ex_a158", "md_file": "knowledge_base/domains/DS/examples.md", "md_atom_type": "SENTENCE", "md_parent_section": "§DS.10 [Example 10]", "md_verbatim": "The DM dataset includes the arm to which the subjects were randomized, and the dates of informed consent, start of study treatment, end of study treatment, and end of study participation.", "score": 0.5704, "match_basis": "verbatim_token+domain_route:DS"}, {"md_atom_id": "md_dmDS_ex_a172", "md_file": "knowledge_base/domains/DS/examples.md", "md_atom_type": "SENTENCE", "md_parent_section": "§DS.10 [Example 10]", "md_verbatim": "The SE dataset shows the dates for the elements for each subject.", "score": 0.5625, "match_basis": "verbatim_token+domain_route:DS"}], "candidate_count": 5, "zero_candidate": false}
{"pdf_atom_id": "ig34_p0166_a0030", "pdf_atom_type": "SENTENCE", "pdf_source": "SDTMIG_v3.4", "pdf_page": 166, "pdf_parent_section": "§6.2.4 Disposition (DS)", "pdf_verbatim": "Drug C was dropped after cycle 2 due to toxicity associated with drug C.", "figure_ref": null, "candidates": [{"md_atom_id": "md_dmDS_ex_a219", "md_file": "knowledge_base/domains/DS/examples.md", "md_atom_type": "SENTENCE", "md_parent_section": "§DS.11 [Example 11]", "md_verbatim": "This example shows data for a subject who was randomized to treatment ABC. Treatment with drugs A and B was stopped after cycle 2 due to toxicity associated with drug C. The subject died during follow-up.", "score": 0.6175, "match_basis": "verbatim_token+domain_route:DS"}, {"md_atom_id": "md_dmDS_ex_a250", "md_file": "knowledge_base/domains/DS/examples.md", "md_atom_type": "SENTENCE", "md_parent_section": "§DS.11 [Example 11]", "md_verbatim": "**Row 4:** Shows that drug C was ended during the second cycle (TAETORD = \"2\") of the treatment epoch. The subject did not complete treatment, due to disease progression. The date of disposition of the treatment epoch, DSSTDTC, is the date the subject started the follow-up element. For this study, that was defined as 4 weeks after the start of the last treatment element. This means that although the subject's last dose of treatment was \"2015-04-14\", the end of the treatment period was later, on \"2015-04-26\", when the subject started the follow-up treatment.", "score": 0.4477, "match_basis": "verbatim_token+domain_route:DS"}, {"md_atom_id": "md_dmDS_ex_a210", "md_file": "knowledge_base/domains/DS/examples.md", "md_atom_type": "SENTENCE", "md_parent_section": "§DS.11 [Example 11]", "md_verbatim": "The study in this example had 4 cycles of treatment within the treatment epoch, and each cycle was represented as an element. Although it is not a general requirement that each cycle is represented as a distinct element, doing so was important for this study. The study compared a current standard treatment with drugs A, B, and C. The protocol allowed for drug doses to be reduced under specified criteria. For drug C, these dose modifications could include dropping the drug. When drug C is dropped, the subject may transition to treatment with drugs A and B or to follow-up.", "score": 0.4476, "match_basis": "verbatim_token+domain_route:DS"}, {"md_atom_id": "md_dmDS_ex_a251", "md_file": "knowledge_base/domains/DS/examples.md", "md_atom_type": "SENTENCE", "md_parent_section": "§DS.11 [Example 11]", "md_verbatim": "**Row 5:** Shows that drugs A and B were ended on the same day during the third cycle (TAETORD = \"6\") of the treatment epoch.", "score": 0.4429, "match_basis": "verbatim_token+domain_route:DS"}, {"md_atom_id": "md_dmDS_ex_a239", "md_file": "knowledge_base/domains/DS/examples.md", "md_atom_type": "SENTENCE", "md_parent_section": "§DS.11 [Example 11]", "md_verbatim": "**Row 5:** The subject's fifth element was not \"ABC\" or \"AB\", as would have been expected if they received all 4 cycles of therapy, but \"FU\".", "score": 0.4411, "match_basis": "verbatim_token+domain_route:DS"}], "candidate_count": 5, "zero_candidate": false}
{"pdf_atom_id": "ig34_p0166_a0031", "pdf_atom_type": "SENTENCE", "pdf_source": "SDTMIG_v3.4", "pdf_page": 166, "pdf_parent_section": "§6.2.4 Disposition (DS)", "pdf_verbatim": "Treatment with drugs A and B was stopped after cycle 3 due to disease progression.", "figure_ref": null, "candidates": [{"md_atom_id": "md_dmDS_ex_a219", "md_file": "knowledge_base/domains/DS/examples.md", "md_atom_type": "SENTENCE", "md_parent_section": "§DS.11 [Example 11]", "md_verbatim": "This example shows data for a subject who was randomized to treatment ABC. Treatment with drugs A and B was stopped after cycle 2 due to toxicity associated with drug C. The subject died during follow-up.", "score": 0.5696, "match_basis": "verbatim_token+domain_route:DS"}, {"md_atom_id": "md_dmDS_ex_a250", "md_file": "knowledge_base/domains/DS/examples.md", "md_atom_type": "SENTENCE", "md_parent_section": "§DS.11 [Example 11]", "md_verbatim": "**Row 4:** Shows that drug C was ended during the second cycle (TAETORD = \"2\") of the treatment epoch. The subject did not complete treatment, due to disease progression. The date of disposition of the treatment epoch, DSSTDTC, is the date the subject started the follow-up element. For this study, that was defined as 4 weeks after the start of the last treatment element. This means that although the subject's last dose of treatment was \"2015-04-14\", the end of the treatment period was later, on \"2015-04-26\", when the subject started the follow-up treatment.", "score": 0.5319, "match_basis": "verbatim_token+domain_route:DS"}, {"md_atom_id": "md_dmDS_ex_a251", "md_file": "knowledge_base/domains/DS/examples.md", "md_atom_type": "SENTENCE", "md_parent_section": "§DS.11 [Example 11]", "md_verbatim": "**Row 5:** Shows that drugs A and B were ended on the same day during the third cycle (TAETORD = \"6\") of the treatment epoch.", "score": 0.52, "match_basis": "verbatim_token+domain_route:DS"}, {"md_atom_id": "md_dmDS_ex_a132", "md_file": "knowledge_base/domains/DS/examples.md", "md_atom_type": "SENTENCE", "md_parent_section": "§DS.10 [Example 10]", "md_verbatim": "**Rows 2, 3:** Show the elements for treatment (either \"DRUG1\" or \"DRUG2\"). These appear in the first treatment epoch in the TA dataset.", "score": 0.5043, "match_basis": "verbatim_token+domain_route:DS"}, {"md_atom_id": "md_dmDS_ex_a145", "md_file": "knowledge_base/domains/DS/examples.md", "md_atom_type": "SENTENCE", "md_parent_section": "§DS.10 [Example 10]", "md_verbatim": "**Rows 2, 6:** Represents the planned initial treatment arm of either \"DRUG1\" or \"DRUG2\".", "score": 0.5031, "match_basis": "verbatim_token+domain_route:DS"}], "candidate_count": 5, "zero_candidate": false}
{"pdf_atom_id": "ig34_p0166_a0032", "pdf_atom_type": "SENTENCE", "pdf_source": "SDTMIG_v3.4", "pdf_page": 166, "pdf_parent_section": "§6.2.4 Disposition (DS)", "pdf_verbatim": "The subject died during follow-up.", "figure_ref": null, "candidates": [{"md_atom_id": "md_dmDS_ex_a176", "md_file": "knowledge_base/domains/DS/examples.md", "md_atom_type": "SENTENCE", "md_parent_section": "§DS.10 [Example 10]", "md_verbatim": "**Rows 4, 8:** Represent the subjects' actual follow-up elements.", "score": 0.5714, "match_basis": "verbatim_token+domain_route:DS"}, {"md_atom_id": "md_dmDS_ex_a253", "md_file": "knowledge_base/domains/DS/examples.md", "md_atom_type": "SENTENCE", "md_parent_section": "§DS.11 [Example 11]", "md_verbatim": "**Row 7:** Shows disposition of study participation in the follow-up epoch. The subject died.", "score": 0.5636, "match_basis": "verbatim_token+domain_route:DS"}, {"md_atom_id": "md_dmDS_ex_a046", "md_file": "knowledge_base/domains/DS/examples.md", "md_atom_type": "SENTENCE", "md_parent_section": "§DS.3 [Example 3]", "md_verbatim": "**Rows 1, 2:** Subject 789101 completed the treatment and follow-up phases.", "score": 0.5463, "match_basis": "verbatim_token+domain_route:DS"}, {"md_atom_id": "md_dmDS_ex_a047", "md_file": "knowledge_base/domains/DS/examples.md", "md_atom_type": "SENTENCE", "md_parent_section": "§DS.3 [Example 3]", "md_verbatim": "**Rows 3, 5:** Subject 789102 did not complete the treatment phase but did complete the follow-up phase.", "score": 0.5463, "match_basis": "verbatim_token+domain_route:DS"}, {"md_atom_id": "md_dmDS_ex_a036", "md_file": "knowledge_base/domains/DS/examples.md", "md_atom_type": "SENTENCE", "md_parent_section": "§DS.2 [Example 2]", "md_verbatim": "**Row 1:** Subject 456101 completed the study. EPOCH = \"FOLLOW-UP\", which was the last epoch in the design of this study.", "score": 0.5304, "match_basis": "verbatim_token+domain_route:DS"}], "candidate_count": 5, "zero_candidate": false}
{"pdf_atom_id": "ig34_p0166_a0033", "pdf_atom_type": "SENTENCE", "pdf_source": "SDTMIG_v3.4", "pdf_page": 166, "pdf_parent_section": "§6.2.4 Disposition (DS)", "pdf_verbatim": "The SE dataset records the elements this subject experienced.", "figure_ref": null, "candidates": [{"md_atom_id": "md_dmDS_ex_a237", "md_file": "knowledge_base/domains/DS/examples.md", "md_atom_type": "SENTENCE", "md_parent_section": "§DS.11 [Example 11]", "md_verbatim": "The SE dataset records the elements this subject experienced.", "score": 1.0, "match_basis": "verbatim_token+domain_route:DS"}, {"md_atom_id": "md_dmDS_ex_a172", "md_file": "knowledge_base/domains/DS/examples.md", "md_atom_type": "SENTENCE", "md_parent_section": "§DS.10 [Example 10]", "md_verbatim": "The SE dataset shows the dates for the elements for each subject.", "score": 0.6488, "match_basis": "verbatim_token+domain_route:DS"}, {"md_atom_id": "md_dmDS_ex_a211", "md_file": "knowledge_base/domains/DS/examples.md", "md_atom_type": "SENTENCE", "md_parent_section": "§DS.11 [Example 11]", "md_verbatim": "The TE dataset shows the elements of the trial.", "score": 0.5846, "match_basis": "verbatim_token+domain_route:DS"}, {"md_atom_id": "md_dmDS_ex_a130", "md_file": "knowledge_base/domains/DS/examples.md", "md_atom_type": "SENTENCE", "md_parent_section": "§DS.10 [Example 10]", "md_verbatim": "The elements used in the TA dataset are defined in the TE dataset.", "score": 0.5756, "match_basis": "verbatim_token+domain_route:DS"}, {"md_atom_id": "md_dmDS_ex_a176", "md_file": "knowledge_base/domains/DS/examples.md", "md_atom_type": "SENTENCE", "md_parent_section": "§DS.10 [Example 10]", "md_verbatim": "**Rows 4, 8:** Represent the subjects' actual follow-up elements.", "score": 0.544, "match_basis": "verbatim_token+domain_route:DS"}], "candidate_count": 5, "zero_candidate": false}
{"pdf_atom_id": "ig34_p0166_a0034", "pdf_atom_type": "LIST_ITEM", "pdf_source": "SDTMIG_v3.4", "pdf_page": 166, "pdf_parent_section": "§6.2.4 Disposition (DS)", "pdf_verbatim": "Rows 1-4: The subject participated in the screening epoch and 3 elements of the treatment epoch.", "figure_ref": null, "candidates": [{"md_atom_id": "md_dmDS_ex_a238", "md_file": "knowledge_base/domains/DS/examples.md", "md_atom_type": "SENTENCE", "md_parent_section": "§DS.11 [Example 11]", "md_verbatim": "**Rows 1-4:** The subject participated in the screening epoch and 3 elements of the treatment epoch.", "score": 0.91, "match_basis": "verbatim_token+domain_route:DS"}, {"md_atom_id": "md_dmDS_ex_a037", "md_file": "knowledge_base/domains/DS/examples.md", "md_atom_type": "SENTENCE", "md_parent_section": "§DS.2 [Example 2]", "md_verbatim": "**Rows 2-3:** Subjects 456102 and 456103 discontinued. Both discontinued participation during the treatment epoch.", "score": 0.5725, "match_basis": "verbatim_token+domain_route:DS"}, {"md_atom_id": "md_dmDS_ex_a249", "md_file": "knowledge_base/domains/DS/examples.md", "md_atom_type": "SENTENCE", "md_parent_section": "§DS.11 [Example 11]", "md_verbatim": "**Row 3:** Shows disposition of study participation for screening epoch. The subject completed this epoch.", "score": 0.5631, "match_basis": "verbatim_token+domain_route:DS"}, {"md_atom_id": "md_dmDS_ex_a173", "md_file": "knowledge_base/domains/DS/examples.md", "md_atom_type": "SENTENCE", "md_parent_section": "§DS.10 [Example 10]", "md_verbatim": "**Rows 1, 5:** Represent the subjects' actual screening elements.", "score": 0.5571, "match_basis": "verbatim_token+domain_route:DS"}, {"md_atom_id": "md_dmDS_assn_a005", "md_file": "knowledge_base/domains/DS/assumptions.md", "md_atom_type": "LIST_ITEM", "md_parent_section": "§DS [DS — Assumptions]", "md_verbatim": "   b. An event with DSCAT = \"DISPOSITION EVENT\" describes either disposition of study participation or of a study treatment. It describes whether a subject completed study participation or a study treatment and, if not, the reason they did not complete it. Dispositions may be described for each epoch (e.g., screening, initial treatment, washout, cross-over treatment, follow-up) or for the study as a whole. If disposition events for both study participation and study treatment(s) are to be represented, then DSCAT provides this distinction. For records with DSCAT = \"DISPOSITION EVENT\",", "score": 0.5468, "match_basis": "verbatim_token+domain_route:DS"}], "candidate_count": 5, "zero_candidate": false}
{"pdf_atom_id": "ig34_p0166_a0035", "pdf_atom_type": "LIST_ITEM", "pdf_source": "SDTMIG_v3.4", "pdf_page": 166, "pdf_parent_section": "§6.2.4 Disposition (DS)", "pdf_verbatim": "Row 5: The subject's fifth element was not \"ABC\" or \"AB\", as would have been expected if they recieved all 4 cycles of therapy, but \"FU\".", "figure_ref": null, "candidates": [{"md_atom_id": "md_dmDS_ex_a239", "md_file": "knowledge_base/domains/DS/examples.md", "md_atom_type": "SENTENCE", "md_parent_section": "§DS.11 [Example 11]", "md_verbatim": "**Row 5:** The subject's fifth element was not \"ABC\" or \"AB\", as would have been expected if they received all 4 cycles of therapy, but \"FU\".", "score": 0.8159, "match_basis": "verbatim_token+domain_route:DS"}, {"md_atom_id": "md_dmDS_assn_a009", "md_file": "knowledge_base/domains/DS/assumptions.md", "md_atom_type": "LIST_ITEM", "md_parent_section": "§DS [DS — Assumptions]", "md_verbatim": "   c. DSSCAT may be used when DSCAT = \"PROTOCOL MILESTONE\" or \"OTHER EVENT\", but would be subject to additional CDISC Controlled Terminology.", "score": 0.4848, "match_basis": "verbatim_token+domain_route:DS"}, {"md_atom_id": "md_dmDS_assn_a015", "md_file": "knowledge_base/domains/DS/assumptions.md", "md_atom_type": "LIST_ITEM", "md_parent_section": "§DS [DS — Assumptions]", "md_verbatim": "   b. When DSCAT = \"DISPOSITION EVENT\" DSTERM contains either \"COMPLETED\" or, if the subject did not complete, specific verbatim information about the reason for non-completion.", "score": 0.4736, "match_basis": "verbatim_token+domain_route:DS"}, {"md_atom_id": "md_dmDS_assn_a023", "md_file": "knowledge_base/domains/DS/assumptions.md", "md_atom_type": "LIST_ITEM", "md_parent_section": "§DS [DS — Assumptions]", "md_verbatim": "   a. DSSTDTC is expected and is used for the date/time of the disposition event. Events represented in the DS domain do not have end dates; disposition events do not span an interval, but rather occur at a single date/time (e.g., randomization date, disposition of study participation or study treatment).", "score": 0.4732, "match_basis": "verbatim_token+domain_route:DS"}, {"md_atom_id": "md_dmDS_assn_a005", "md_file": "knowledge_base/domains/DS/assumptions.md", "md_atom_type": "LIST_ITEM", "md_parent_section": "§DS [DS — Assumptions]", "md_verbatim": "   b. An event with DSCAT = \"DISPOSITION EVENT\" describes either disposition of study participation or of a study treatment. It describes whether a subject completed study participation or a study treatment and, if not, the reason they did not complete it. Dispositions may be described for each epoch (e.g., screening, initial treatment, washout, cross-over treatment, follow-up) or for the study as a whole. If disposition events for both study participation and study treatment(s) are to be represented, then DSCAT provides this distinction. For records with DSCAT = \"DISPOSITION EVENT\",", "score": 0.4585, "match_basis": "verbatim_token+domain_route:DS"}], "candidate_count": 5, "zero_candidate": false}
{"pdf_atom_id": "ig34_p0166_a0036", "pdf_atom_type": "CODE_LITERAL", "pdf_source": "SDTMIG_v3.4", "pdf_page": 166, "pdf_parent_section": "§6.2.4 Disposition (DS)", "pdf_verbatim": "se.xpt", "figure_ref": null, "candidates": [{"md_atom_id": "md_dmDS_ex_a011", "md_file": "knowledge_base/domains/DS/examples.md", "md_atom_type": "SENTENCE", "md_parent_section": "§DS.1 [Example 1]", "md_verbatim": "**ds.xpt**", "score": 0.79, "match_basis": "verbatim_token+domain_route:DS"}, {"md_atom_id": "md_dmDS_ex_a038", "md_file": "knowledge_base/domains/DS/examples.md", "md_atom_type": "SENTENCE", "md_parent_section": "§DS.2 [Example 2]", "md_verbatim": "**ds.xpt**", "score": 0.79, "match_basis": "verbatim_token+domain_route:DS"}, {"md_atom_id": "md_dmDS_ex_a049", "md_file": "knowledge_base/domains/DS/examples.md", "md_atom_type": "SENTENCE", "md_parent_section": "§DS.3 [Example 3]", "md_verbatim": "**ds.xpt**", "score": 0.79, "match_basis": "verbatim_token+domain_route:DS"}, {"md_atom_id": "md_dmDS_ex_a059", "md_file": "knowledge_base/domains/DS/examples.md", "md_atom_type": "SENTENCE", "md_parent_section": "§DS.4 [Example 4]", "md_verbatim": "**ds.xpt**", "score": 0.79, "match_basis": "verbatim_token+domain_route:DS"}, {"md_atom_id": "md_dmDS_ex_a063", "md_file": "knowledge_base/domains/DS/examples.md", "md_atom_type": "SENTENCE", "md_parent_section": "§DS.4 [Example 4]", "md_verbatim": "**ae.xpt**", "score": 0.79, "match_basis": "verbatim_token+domain_route:DS"}, {"md_atom_id": "md_dmDS_ex_a077", "md_file": "knowledge_base/domains/DS/examples.md", "md_atom_type": "SENTENCE", "md_parent_section": "§DS.5 [Example 5]", "md_verbatim": "**ds.xpt**", "score": 0.79, "match_basis": "verbatim_token+domain_route:DS"}, {"md_atom_id": "md_dmDS_ex_a089", "md_file": "knowledge_base/domains/DS/examples.md", "md_atom_type": "SENTENCE", "md_parent_section": "§DS.6 [Example 6]", "md_verbatim": "**ds.xpt**", "score": 0.79, "match_basis": "verbatim_token+domain_route:DS"}, {"md_atom_id": "md_dmDS_ex_a098", "md_file": "knowledge_base/domains/DS/examples.md", "md_atom_type": "SENTENCE", "md_parent_section": "§DS.7 [Example 7]", "md_verbatim": "**ds.xpt**", "score": 0.79, "match_basis": "verbatim_token+domain_route:DS"}, {"md_atom_id": "md_dmDS_ex_a108", "md_file": "knowledge_base/domains/DS/examples.md", "md_atom_type": "SENTENCE", "md_parent_section": "§DS.8 [Example 8]", "md_verbatim": "**ds.xpt**", "score": 0.79, "match_basis": "verbatim_token+domain_route:DS"}, {"md_atom_id": "md_dmDS_ex_a121", "md_file": "knowledge_base/domains/DS/examples.md", "md_atom_type": "SENTENCE", "md_parent_section": "§DS.9 [Example 9]", "md_verbatim": "**ds.xpt**", "score": 0.79, "match_basis": "verbatim_token+domain_route:DS"}], "candidate_count": 10, "zero_candidate": false}
{"pdf_atom_id": "ig34_p0166_a0037", "pdf_atom_type": "TABLE_HEADER", "pdf_source": "SDTMIG_v3.4", "pdf_page": 166, "pdf_parent_section": "§6.2.4 Disposition (DS)", "pdf_verbatim": "| Row | STUDYID | DOMAIN | USUBJID | SESEQ | ETCD | SESTDTC | SEENDTC | SEUPDES | TAETORD | EPOCH |", "figure_ref": null, "candidates": [{"md_atom_id": "md_dmDS_ex_a241", "md_file": "knowledge_base/domains/DS/examples.md", "md_atom_type": "TABLE_HEADER", "md_parent_section": "§DS.11 [Example 11]", "md_verbatim": "| Row | STUDYID | DOMAIN | USUBJID | SESEQ | ETCD | SESTDTC | SEENDTC | SEUPDES | TAETORD | EPOCH |\n|-----|---------|--------|---------|-------|------|---------|---------|---------|---------|-------|", "score": 1.0, "match_basis": "verbatim_token+domain_route:DS"}, {"md_atom_id": "md_dmDS_ex_a178", "md_file": "knowledge_base/domains/DS/examples.md", "md_atom_type": "TABLE_HEADER", "md_parent_section": "§DS.10 [Example 10]", "md_verbatim": "| Row | STUDYID | DOMAIN | USUBJID | SDSEQ | ETCD | SESTDTC | SEENDTC | TAETORD | EPOCH |\n|-----|---------|--------|---------|-------|------|---------|---------|---------|-------|", "score": 0.8884, "match_basis": "verbatim_token+domain_route:DS"}, {"md_atom_id": "md_dmDS_ex_a255", "md_file": "knowledge_base/domains/DS/examples.md", "md_atom_type": "TABLE_HEADER", "md_parent_section": "§DS.11 [Example 11]", "md_verbatim": "| Row | STUDYID | DOMAIN | USUBJID | DSSEQ | DSTERM | DSDECOD | DSCAT | DSSCAT | TAETORD | EPOCH | DSSTDTC |\n|-----|---------|--------|---------|-------|--------|---------|-------|--------|---------|-------|---------|", "score": 0.6842, "match_basis": "verbatim_token+domain_route:DS"}, {"md_atom_id": "md_dmDS_ex_a165", "md_file": "knowledge_base/domains/DS/examples.md", "md_atom_type": "TABLE_HEADER", "md_parent_section": "§DS.10 [Example 10]", "md_verbatim": "| Row | STUDYID | DOMAIN | USUBJID | EXSEQ | EXTRT | EXDOSE | EXDOSU | EPOCH | EXSTDTC | EXENDTC |\n|-----|---------|--------|---------|-------|-------|--------|--------|-------|---------|---------|", "score": 0.6667, "match_basis": "verbatim_token+domain_route:DS"}, {"md_atom_id": "md_dmDS_ex_a039", "md_file": "knowledge_base/domains/DS/examples.md", "md_atom_type": "TABLE_HEADER", "md_parent_section": "§DS.2 [Example 2]", "md_verbatim": "| Row | STUDYID | DOMAIN | USUBJID | DSSEQ | DSTERM | DSDECOD | DSCAT | EPOCH | DSSTDTC |\n|-----|---------|--------|---------|-------|--------|---------|-------|-------|---------|", "score": 0.6357, "match_basis": "verbatim_token+domain_route:DS"}], "candidate_count": 5, "zero_candidate": false}
{"pdf_atom_id": "ig34_p0166_a0038", "pdf_atom_type": "TABLE_ROW", "pdf_source": "SDTMIG_v3.4", "pdf_page": 166, "pdf_parent_section": "§6.2.4 Disposition (DS)", "pdf_verbatim": "| 1 | DS10 | SE | 101 | 1 | SCRN | 2015-01-21 | 2015-02-01 | | 0 | SCREENING |", "figure_ref": null, "candidates": [{"md_atom_id": "md_dmDS_ex_a242", "md_file": "knowledge_base/domains/DS/examples.md", "md_atom_type": "TABLE_ROW", "md_parent_section": "§DS.11 [Example 11]", "md_verbatim": "| 1 | DS10 | SE | 101 | 1 | SCRN | 2015-01-21 | 2015-02-01 | 0 | | SCREENING |", "score": 1.0, "match_basis": "verbatim_token+domain_route:DS"}, {"md_atom_id": "md_dmDS_ex_a222", "md_file": "knowledge_base/domains/DS/examples.md", "md_atom_type": "TABLE_ROW", "md_parent_section": "§DS.11 [Example 11]", "md_verbatim": "| 1 | DS10 | TA | AB | AB | 0 | SCRN | Screen | Randomized to AB | | SCREENING |", "score": 0.6857, "match_basis": "verbatim_token+domain_route:DS"}, {"md_atom_id": "md_dmDS_ex_a179", "md_file": "knowledge_base/domains/DS/examples.md", "md_atom_type": "TABLE_ROW", "md_parent_section": "§DS.10 [Example 10]", "md_verbatim": "| 1 | XYZ | SE | XYZ-767-001 | 1 | SCREEN | 2016-02-02 | 2016-02-14 | 1 | SCREENING |", "score": 0.6824, "match_basis": "verbatim_token+domain_route:DS"}, {"md_atom_id": "md_dmDS_ex_a183", "md_file": "knowledge_base/domains/DS/examples.md", "md_atom_type": "TABLE_ROW", "md_parent_section": "§DS.10 [Example 10]", "md_verbatim": "| 5 | XYZ | SE | XYZ-767-002 | 1 | SCREEN | 2016-02-21 | 2016-03-23 | 1 | SCREENING |", "score": 0.6824, "match_basis": "verbatim_token+domain_route:DS"}, {"md_atom_id": "md_dmDS_ex_a228", "md_file": "knowledge_base/domains/DS/examples.md", "md_atom_type": "TABLE_ROW", "md_parent_section": "§DS.11 [Example 11]", "md_verbatim": "| 7 | DS10 | TA | ABC | ABC | 0 | SCRN | Screen | Randomized to ABC | | SCREENING |", "score": 0.6727, "match_basis": "verbatim_token+domain_route:DS"}], "candidate_count": 5, "zero_candidate": false}
{"pdf_atom_id": "ig34_p0166_a0039", "pdf_atom_type": "TABLE_ROW", "pdf_source": "SDTMIG_v3.4", "pdf_page": 166, "pdf_parent_section": "§6.2.4 Disposition (DS)", "pdf_verbatim": "| 2 | DS10 | SE | 101 | 2 | ABC | 2015-02-01 | 2015-03-01 | | 1 | TREATMENT |", "figure_ref": null, "candidates": [{"md_atom_id": "md_dmDS_ex_a243", "md_file": "knowledge_base/domains/DS/examples.md", "md_atom_type": "TABLE_ROW", "md_parent_section": "§DS.11 [Example 11]", "md_verbatim": "| 2 | DS10 | SE | 101 | 2 | ABC | 2015-02-01 | 2015-03-01 | 1 | | TREATMENT |", "score": 1.0, "match_basis": "verbatim_token+domain_route:DS"}, {"md_atom_id": "md_dmDS_ex_a244", "md_file": "knowledge_base/domains/DS/examples.md", "md_atom_type": "TABLE_ROW", "md_parent_section": "§DS.11 [Example 11]", "md_verbatim": "| 3 | DS10 | SE | 101 | 3 | ABC | 2015-03-01 | 2015-03-29 | 2 | | TREATMENT |", "score": 1.0, "match_basis": "verbatim_token+domain_route:DS"}, {"md_atom_id": "md_dmDS_ex_a245", "md_file": "knowledge_base/domains/DS/examples.md", "md_atom_type": "TABLE_ROW", "md_parent_section": "§DS.11 [Example 11]", "md_verbatim": "| 4 | DS10 | SE | 101 | 4 | AB | 2015-03-29 | 2015-04-26 | 6 | | TREATMENT |", "score": 0.9538, "match_basis": "verbatim_token+domain_route:DS"}, {"md_atom_id": "md_dmDS_ex_a233", "md_file": "knowledge_base/domains/DS/examples.md", "md_atom_type": "TABLE_ROW", "md_parent_section": "§DS.11 [Example 11]", "md_verbatim": "| 12 | DS10 | TA | ABC | ABC | 5 | AB | Trt AB | | | TREATMENT |", "score": 0.8286, "match_basis": "verbatim_token+domain_route:DS"}, {"md_atom_id": "md_dmDS_ex_a234", "md_file": "knowledge_base/domains/DS/examples.md", "md_atom_type": "TABLE_ROW", "md_parent_section": "§DS.11 [Example 11]", "md_verbatim": "| 13 | DS10 | TA | ABC | ABC | 6 | AB | Trt AB | | | TREATMENT |", "score": 0.8286, "match_basis": "verbatim_token+domain_route:DS"}], "candidate_count": 5, "zero_candidate": false}
{"pdf_atom_id": "ig34_p0166_a0040", "pdf_atom_type": "TABLE_ROW", "pdf_source": "SDTMIG_v3.4", "pdf_page": 166, "pdf_parent_section": "§6.2.4 Disposition (DS)", "pdf_verbatim": "| 3 | DS10 | SE | 101 | 3 | ABC | 2015-03-01 | 2015-03-29 | | 2 | TREATMENT |", "figure_ref": null, "candidates": [{"md_atom_id": "md_dmDS_ex_a243", "md_file": "knowledge_base/domains/DS/examples.md", "md_atom_type": "TABLE_ROW", "md_parent_section": "§DS.11 [Example 11]", "md_verbatim": "| 2 | DS10 | SE | 101 | 2 | ABC | 2015-02-01 | 2015-03-01 | 1 | | TREATMENT |", "score": 1.0, "match_basis": "verbatim_token+domain_route:DS"}, {"md_atom_id": "md_dmDS_ex_a244", "md_file": "knowledge_base/domains/DS/examples.md", "md_atom_type": "TABLE_ROW", "md_parent_section": "§DS.11 [Example 11]", "md_verbatim": "| 3 | DS10 | SE | 101 | 3 | ABC | 2015-03-01 | 2015-03-29 | 2 | | TREATMENT |", "score": 1.0, "match_basis": "verbatim_token+domain_route:DS"}, {"md_atom_id": "md_dmDS_ex_a245", "md_file": "knowledge_base/domains/DS/examples.md", "md_atom_type": "TABLE_ROW", "md_parent_section": "§DS.11 [Example 11]", "md_verbatim": "| 4 | DS10 | SE | 101 | 4 | AB | 2015-03-29 | 2015-04-26 | 6 | | TREATMENT |", "score": 0.9538, "match_basis": "verbatim_token+domain_route:DS"}, {"md_atom_id": "md_dmDS_ex_a233", "md_file": "knowledge_base/domains/DS/examples.md", "md_atom_type": "TABLE_ROW", "md_parent_section": "§DS.11 [Example 11]", "md_verbatim": "| 12 | DS10 | TA | ABC | ABC | 5 | AB | Trt AB | | | TREATMENT |", "score": 0.8286, "match_basis": "verbatim_token+domain_route:DS"}, {"md_atom_id": "md_dmDS_ex_a234", "md_file": "knowledge_base/domains/DS/examples.md", "md_atom_type": "TABLE_ROW", "md_parent_section": "§DS.11 [Example 11]", "md_verbatim": "| 13 | DS10 | TA | ABC | ABC | 6 | AB | Trt AB | | | TREATMENT |", "score": 0.8286, "match_basis": "verbatim_token+domain_route:DS"}], "candidate_count": 5, "zero_candidate": false}
{"pdf_atom_id": "ig34_p0166_a0041", "pdf_atom_type": "TABLE_ROW", "pdf_source": "SDTMIG_v3.4", "pdf_page": 166, "pdf_parent_section": "§6.2.4 Disposition (DS)", "pdf_verbatim": "| 4 | DS10 | SE | 101 | 4 | AB | 2015-03-29 | 2015-04-26 | | 6 | TREATMENT |", "figure_ref": null, "candidates": [{"md_atom_id": "md_dmDS_ex_a245", "md_file": "knowledge_base/domains/DS/examples.md", "md_atom_type": "TABLE_ROW", "md_parent_section": "§DS.11 [Example 11]", "md_verbatim": "| 4 | DS10 | SE | 101 | 4 | AB | 2015-03-29 | 2015-04-26 | 6 | | TREATMENT |", "score": 1.0, "match_basis": "verbatim_token+domain_route:DS"}, {"md_atom_id": "md_dmDS_ex_a243", "md_file": "knowledge_base/domains/DS/examples.md", "md_atom_type": "TABLE_ROW", "md_parent_section": "§DS.11 [Example 11]", "md_verbatim": "| 2 | DS10 | SE | 101 | 2 | ABC | 2015-02-01 | 2015-03-01 | 1 | | TREATMENT |", "score": 0.9538, "match_basis": "verbatim_token+domain_route:DS"}, {"md_atom_id": "md_dmDS_ex_a244", "md_file": "knowledge_base/domains/DS/examples.md", "md_atom_type": "TABLE_ROW", "md_parent_section": "§DS.11 [Example 11]", "md_verbatim": "| 3 | DS10 | SE | 101 | 3 | ABC | 2015-03-01 | 2015-03-29 | 2 | | TREATMENT |", "score": 0.9538, "match_basis": "verbatim_token+domain_route:DS"}, {"md_atom_id": "md_dmDS_ex_a226", "md_file": "knowledge_base/domains/DS/examples.md", "md_atom_type": "TABLE_ROW", "md_parent_section": "§DS.11 [Example 11]", "md_verbatim": "| 5 | DS10 | TA | AB | AB | 4 | AB | Trt AB | | | TREATMENT |", "score": 0.8154, "match_basis": "verbatim_token+domain_route:DS"}, {"md_atom_id": "md_dmDS_ex_a233", "md_file": "knowledge_base/domains/DS/examples.md", "md_atom_type": "TABLE_ROW", "md_parent_section": "§DS.11 [Example 11]", "md_verbatim": "| 12 | DS10 | TA | ABC | ABC | 5 | AB | Trt AB | | | TREATMENT |", "score": 0.7857, "match_basis": "verbatim_token+domain_route:DS"}], "candidate_count": 5, "zero_candidate": false}
{"pdf_atom_id": "ig34_p0166_a0042", "pdf_atom_type": "TABLE_ROW", "pdf_source": "SDTMIG_v3.4", "pdf_page": 166, "pdf_parent_section": "§6.2.4 Disposition (DS)", "pdf_verbatim": "| 5 | DS10 | SE | 101 | 5 | FU | 2015-04-26 | 2015-09-19 | | 8 | FOLLOW-UP |", "figure_ref": null, "candidates": [{"md_atom_id": "md_dmDS_ex_a246", "md_file": "knowledge_base/domains/DS/examples.md", "md_atom_type": "TABLE_ROW", "md_parent_section": "§DS.11 [Example 11]", "md_verbatim": "| 5 | DS10 | SE | 101 | 5 | FU | 2015-04-26 | 2015-09-19 | 8 | | FOLLOW-UP |", "score": 1.0, "match_basis": "verbatim_token+domain_route:DS"}, {"md_atom_id": "md_dmDS_ex_a227", "md_file": "knowledge_base/domains/DS/examples.md", "md_atom_type": "TABLE_ROW", "md_parent_section": "§DS.11 [Example 11]", "md_verbatim": "| 6 | DS10 | TA | AB | AB | 5 | FU | Follow-up | | | FOLLOW-UP |", "score": 0.8, "match_basis": "verbatim_token+domain_route:DS"}, {"md_atom_id": "md_dmDS_ex_a236", "md_file": "knowledge_base/domains/DS/examples.md", "md_atom_type": "TABLE_ROW", "md_parent_section": "§DS.11 [Example 11]", "md_verbatim": "| 15 | DS10 | TA | ABC | ABC | 8 | FU | Follow-up | | | FOLLOW-UP |", "score": 0.76, "match_basis": "verbatim_token+domain_route:DS"}, {"md_atom_id": "md_dmDS_ex_a182", "md_file": "knowledge_base/domains/DS/examples.md", "md_atom_type": "TABLE_ROW", "md_parent_section": "§DS.10 [Example 10]", "md_verbatim": "| 4 | XYZ | SE | XYZ-767-001 | 4 | FU | 2016-04-19 | 2016-04-29 | 4 | FOLLOW-UP |", "score": 0.6308, "match_basis": "verbatim_token+domain_route:DS"}, {"md_atom_id": "md_dmDS_ex_a186", "md_file": "knowledge_base/domains/DS/examples.md", "md_atom_type": "TABLE_ROW", "md_parent_section": "§DS.10 [Example 10]", "md_verbatim": "| 8 | XYZ | SE | XYZ-767-002 | 4 | FU | 2016-04-24 | 2016-04-29 | 4 | FOLLOW-UP |", "score": 0.6308, "match_basis": "verbatim_token+domain_route:DS"}], "candidate_count": 5, "zero_candidate": false}
{"pdf_atom_id": "ig34_p0167_a0001", "pdf_atom_type": "SENTENCE", "pdf_source": "SDTMIG_v3.4", "pdf_page": 167, "pdf_parent_section": "§6.2.4 Disposition (DS)", "pdf_verbatim": "In this study, disposition of each treatment was collected, and disposition of study participation was collected for each epoch of the trial.", "figure_ref": null, "candidates": [{"md_atom_id": "md_dmDS_ex_a247", "md_file": "knowledge_base/domains/DS/examples.md", "md_atom_type": "SENTENCE", "md_parent_section": "§DS.11 [Example 11]", "md_verbatim": "In this study, disposition of each treatment was collected, and disposition of study participation was collected for each epoch of the trial. The date of disposition for study treatment was defined as the date of the last dose of that treatment.", "score": 0.8742, "match_basis": "verbatim_token+domain_route:DS"}, {"md_atom_id": "md_dmDS_ex_a252", "md_file": "knowledge_base/domains/DS/examples.md", "md_atom_type": "SENTENCE", "md_parent_section": "§DS.11 [Example 11]", "md_verbatim": "**Row 6:** Shows disposition of study participation in the treatment epoch.", "score": 0.7623, "match_basis": "verbatim_token+domain_route:DS"}, {"md_atom_id": "md_dmDS_ex_a076", "md_file": "knowledge_base/domains/DS/examples.md", "md_atom_type": "SENTENCE", "md_parent_section": "§DS.5 [Example 5]", "md_verbatim": "**Rows 3, 5:** Represent the study disposition for each treatment epoch, as indicated by DSSCAT = \"STUDY PARTICIPATION\".", "score": 0.7273, "match_basis": "verbatim_token+domain_route:DS"}, {"md_atom_id": "md_dmDS_ex_a107", "md_file": "knowledge_base/domains/DS/examples.md", "md_atom_type": "SENTENCE", "md_parent_section": "§DS.8 [Example 8]", "md_verbatim": "**Rows 3, 6:** Represent the disposition of study participation for each of the 2 treatment epochs, as indicated by DSSCAT = \"STUDY PARTICIPATION\".", "score": 0.7224, "match_basis": "verbatim_token+domain_route:DS"}, {"md_atom_id": "md_dmDS_ex_a097", "md_file": "knowledge_base/domains/DS/examples.md", "md_atom_type": "SENTENCE", "md_parent_section": "§DS.7 [Example 7]", "md_verbatim": "**Rows 2, 4:** Represent the disposition of study participation continuation for each treatment epoch, as indicated by DSSCAT = \"STUDY PARTICIPATION\".", "score": 0.6959, "match_basis": "verbatim_token+domain_route:DS"}], "candidate_count": 5, "zero_candidate": false}
{"pdf_atom_id": "ig34_p0167_a0002", "pdf_atom_type": "SENTENCE", "pdf_source": "SDTMIG_v3.4", "pdf_page": 167, "pdf_parent_section": "§6.2.4 Disposition (DS)", "pdf_verbatim": "The date of disposition for study treatment was defined as the date of the last dose of that treatment.", "figure_ref": null, "candidates": [{"md_atom_id": "md_dmDS_ex_a247", "md_file": "knowledge_base/domains/DS/examples.md", "md_atom_type": "SENTENCE", "md_parent_section": "§DS.11 [Example 11]", "md_verbatim": "In this study, disposition of each treatment was collected, and disposition of study participation was collected for each epoch of the trial. The date of disposition for study treatment was defined as the date of the last dose of that treatment.", "score": 0.7387, "match_basis": "verbatim_token+domain_route:DS"}, {"md_atom_id": "md_dmDS_ex_a252", "md_file": "knowledge_base/domains/DS/examples.md", "md_atom_type": "SENTENCE", "md_parent_section": "§DS.11 [Example 11]", "md_verbatim": "**Row 6:** Shows disposition of study participation in the treatment epoch.", "score": 0.6353, "match_basis": "verbatim_token+domain_route:DS"}, {"md_atom_id": "md_dmDS_ex_a096", "md_file": "knowledge_base/domains/DS/examples.md", "md_atom_type": "SENTENCE", "md_parent_section": "§DS.7 [Example 7]", "md_verbatim": "**Rows 1, 3:** Represent the disposition of treatment for each treatment epoch, as indicated by DSSCAT = \"STUDY TREATMENT\".", "score": 0.6316, "match_basis": "verbatim_token+domain_route:DS"}, {"md_atom_id": "md_dmDS_ex_a076", "md_file": "knowledge_base/domains/DS/examples.md", "md_atom_type": "SENTENCE", "md_parent_section": "§DS.5 [Example 5]", "md_verbatim": "**Rows 3, 5:** Represent the study disposition for each treatment epoch, as indicated by DSSCAT = \"STUDY PARTICIPATION\".", "score": 0.6, "match_basis": "verbatim_token+domain_route:DS"}, {"md_atom_id": "md_dmDS_ex_a107", "md_file": "knowledge_base/domains/DS/examples.md", "md_atom_type": "SENTENCE", "md_parent_section": "§DS.8 [Example 8]", "md_verbatim": "**Rows 3, 6:** Represent the disposition of study participation for each of the 2 treatment epochs, as indicated by DSSCAT = \"STUDY PARTICIPATION\".", "score": 0.597, "match_basis": "verbatim_token+domain_route:DS"}], "candidate_count": 5, "zero_candidate": false}
{"pdf_atom_id": "ig34_p0167_a0003", "pdf_atom_type": "LIST_ITEM", "pdf_source": "SDTMIG_v3.4", "pdf_page": 167, "pdf_parent_section": "§6.2.4 Disposition (DS)", "pdf_verbatim": "Rows 1-2: Show that informed consent was obtained and randomization occurred during the screening epoch.", "figure_ref": null, "candidates": [{"md_atom_id": "md_dmDS_ex_a248", "md_file": "knowledge_base/domains/DS/examples.md", "md_atom_type": "SENTENCE", "md_parent_section": "§DS.11 [Example 11]", "md_verbatim": "**Rows 1-2:** Show that informed consent was obtained and randomization occurred during the screening epoch.", "score": 0.91, "match_basis": "verbatim_token+domain_route:DS"}, {"md_atom_id": "md_dmDS_ex_a120", "md_file": "knowledge_base/domains/DS/examples.md", "md_atom_type": "SENTENCE", "md_parent_section": "§DS.9 [Example 9]", "md_verbatim": "**Rows 3-5:** Show 3 additional informed consents obtained during the trial.", "score": 0.5685, "match_basis": "verbatim_token+domain_route:DS"}, {"md_atom_id": "md_dmDS_assn_a010", "md_file": "knowledge_base/domains/DS/assumptions.md", "md_atom_type": "LIST_ITEM", "md_parent_section": "§DS [DS — Assumptions]", "md_verbatim": "   d. An event with DSCAT = \"PROTOCOL MILESTONE\" is a protocol-specified, point-in-time event. Common protocol milestones include \"INFORMED CONSENT OBTAINED\" and \"RANDOMIZED.\" DSSCAT may be used for subcategories of protocol milestones.", "score": 0.5211, "match_basis": "verbatim_token+domain_route:DS"}, {"md_atom_id": "md_dmDS_ex_a118", "md_file": "knowledge_base/domains/DS/examples.md", "md_atom_type": "SENTENCE", "md_parent_section": "§DS.9 [Example 9]", "md_verbatim": "**Row 1:** Shows the obtaining of the initial study informed consent.", "score": 0.5195, "match_basis": "verbatim_token+domain_route:DS"}, {"md_atom_id": "md_dmDS_ex_a005", "md_file": "knowledge_base/domains/DS/examples.md", "md_atom_type": "SENTENCE", "md_parent_section": "§DS.1 [Example 1]", "md_verbatim": "**Rows 1, 2, 6, 8, 9, 12, 13, 17, 18:** Show records for protocol milestones. DSTERM and DSDECOD are populated with the same value, the name of the milestone. Note that for randomization events, EPOCH = \"SCREENING\", because randomization occurred before the start of treatment, during the screening epoch.", "score": 0.505, "match_basis": "verbatim_token+domain_route:DS"}], "candidate_count": 5, "zero_candidate": false}
{"pdf_atom_id": "ig34_p0167_a0004", "pdf_atom_type": "LIST_ITEM", "pdf_source": "SDTMIG_v3.4", "pdf_page": 167, "pdf_parent_section": "§6.2.4 Disposition (DS)", "pdf_verbatim": "Row 3: Shows disposition of study participation for the screening epoch. The subject completed this epoch.", "figure_ref": null, "candidates": [{"md_atom_id": "md_dmDS_ex_a249", "md_file": "knowledge_base/domains/DS/examples.md", "md_atom_type": "SENTENCE", "md_parent_section": "§DS.11 [Example 11]", "md_verbatim": "**Row 3:** Shows disposition of study participation for screening epoch. The subject completed this epoch.", "score": 0.91, "match_basis": "verbatim_token+domain_route:DS"}, {"md_atom_id": "md_dmDS_ex_a253", "md_file": "knowledge_base/domains/DS/examples.md", "md_atom_type": "SENTENCE", "md_parent_section": "§DS.11 [Example 11]", "md_verbatim": "**Row 7:** Shows disposition of study participation in the follow-up epoch. The subject died.", "score": 0.6679, "match_basis": "verbatim_token+domain_route:DS"}, {"md_atom_id": "md_dmDS_assn_a005", "md_file": "knowledge_base/domains/DS/assumptions.md", "md_atom_type": "LIST_ITEM", "md_parent_section": "§DS [DS — Assumptions]", "md_verbatim": "   b. An event with DSCAT = \"DISPOSITION EVENT\" describes either disposition of study participation or of a study treatment. It describes whether a subject completed study participation or a study treatment and, if not, the reason they did not complete it. Dispositions may be described for each epoch (e.g., screening, initial treatment, washout, cross-over treatment, follow-up) or for the study as a whole. If disposition events for both study participation and study treatment(s) are to be represented, then DSCAT provides this distinction. For records with DSCAT = \"DISPOSITION EVENT\",", "score": 0.6118, "match_basis": "verbatim_token+domain_route:DS"}, {"md_atom_id": "md_dmDS_ex_a252", "md_file": "knowledge_base/domains/DS/examples.md", "md_atom_type": "SENTENCE", "md_parent_section": "§DS.11 [Example 11]", "md_verbatim": "**Row 6:** Shows disposition of study participation in the treatment epoch.", "score": 0.61, "match_basis": "verbatim_token+domain_route:DS"}, {"md_atom_id": "md_dmDS_ex_a196", "md_file": "knowledge_base/domains/DS/examples.md", "md_atom_type": "TABLE_ROW", "md_parent_section": "§DS.10 [Example 10]", "md_verbatim": "| 2 | XYZ | DS | XYZ-767-001 | 2 | COMPLETED | COMPLETED | DISPOSITION EVENT | STUDY PARTICIPATION | SCREENING | 2016-03-13 |", "score": 0.6059, "match_basis": "verbatim_token+domain_route:DS"}], "candidate_count": 5, "zero_candidate": false}
{"pdf_atom_id": "ig34_p0167_a0005", "pdf_atom_type": "LIST_ITEM", "pdf_source": "SDTMIG_v3.4", "pdf_page": 167, "pdf_parent_section": "§6.2.4 Disposition (DS)", "pdf_verbatim": "Row 4: Shows that drug C was ended during the second cycle (TAETORD = \"2\") of the treatment epoch.", "figure_ref": null, "candidates": [{"md_atom_id": "md_dmDS_ex_a251", "md_file": "knowledge_base/domains/DS/examples.md", "md_atom_type": "SENTENCE", "md_parent_section": "§DS.11 [Example 11]", "md_verbatim": "**Row 5:** Shows that drugs A and B were ended on the same day during the third cycle (TAETORD = \"6\") of the treatment epoch.", "score": 0.7263, "match_basis": "verbatim_token+domain_route:DS"}, {"md_atom_id": "md_dmDS_ex_a175", "md_file": "knowledge_base/domains/DS/examples.md", "md_atom_type": "SENTENCE", "md_parent_section": "§DS.10 [Example 10]", "md_verbatim": "**Rows 3, 7:** Represent the subjects' actual second treatment epochs.", "score": 0.4921, "match_basis": "verbatim_token+domain_route:DS"}, {"md_atom_id": "md_dmDS_ex_a250", "md_file": "knowledge_base/domains/DS/examples.md", "md_atom_type": "SENTENCE", "md_parent_section": "§DS.11 [Example 11]", "md_verbatim": "**Row 4:** Shows that drug C was ended during the second cycle (TAETORD = \"2\") of the treatment epoch. The subject did not complete treatment, due to disease progression. The date of disposition of the treatment epoch, DSSTDTC, is the date the subject started the follow-up element. For this study, that was defined as 4 weeks after the start of the last treatment element. This means that although the subject's last dose of treatment was \"2015-04-14\", the end of the treatment period was later, on \"2015-04-26\", when the subject started the follow-up treatment.", "score": 0.4873, "match_basis": "verbatim_token+domain_route:DS"}, {"md_atom_id": "md_dmDS_assn_a007", "md_file": "knowledge_base/domains/DS/assumptions.md", "md_atom_type": "LIST_ITEM", "md_parent_section": "§DS [DS — Assumptions]", "md_verbatim": "      ii. DSSCAT = \"STUDY TREATMENT\" is used when a study has only a single treatment.", "score": 0.4857, "match_basis": "verbatim_token+domain_route:DS"}, {"md_atom_id": "md_dmDS_ex_a133", "md_file": "knowledge_base/domains/DS/examples.md", "md_atom_type": "SENTENCE", "md_parent_section": "§DS.10 [Example 10]", "md_verbatim": "**Rows 4, 5:** Show the elements for treatment (either \"DG1INDG\" or \"DG2INDG\"). These appear in the second treatment epoch in the TA dataset.", "score": 0.4827, "match_basis": "verbatim_token+domain_route:DS"}], "candidate_count": 5, "zero_candidate": false}
{"pdf_atom_id": "ig34_p0167_a0006", "pdf_atom_type": "LIST_ITEM", "pdf_source": "SDTMIG_v3.4", "pdf_page": 167, "pdf_parent_section": "§6.2.4 Disposition (DS)", "pdf_verbatim": "Row 5: Shows that drugs A and B were ended on the same day during the third cycle (TAETORD = \"6\") of the treatment epoch.", "figure_ref": null, "candidates": [{"md_atom_id": "md_dmDS_ex_a251", "md_file": "knowledge_base/domains/DS/examples.md", "md_atom_type": "SENTENCE", "md_parent_section": "§DS.11 [Example 11]", "md_verbatim": "**Row 5:** Shows that drugs A and B were ended on the same day during the third cycle (TAETORD = \"6\") of the treatment epoch.", "score": 0.91, "match_basis": "verbatim_token+domain_route:DS"}, {"md_atom_id": "md_dmDS_assn_a008", "md_file": "knowledge_base/domains/DS/assumptions.md", "md_atom_type": "LIST_ITEM", "md_parent_section": "§DS [DS — Assumptions]", "md_verbatim": "      iii. If a study has multiple treatments, then DSSCAT should name the individual treatment.", "score": 0.4822, "match_basis": "verbatim_token+domain_route:DS"}, {"md_atom_id": "md_dmDS_assn_a007", "md_file": "knowledge_base/domains/DS/assumptions.md", "md_atom_type": "LIST_ITEM", "md_parent_section": "§DS [DS — Assumptions]", "md_verbatim": "      ii. DSSCAT = \"STUDY TREATMENT\" is used when a study has only a single treatment.", "score": 0.4787, "match_basis": "verbatim_token+domain_route:DS"}, {"md_atom_id": "md_dmDS_assn_a011", "md_file": "knowledge_base/domains/DS/assumptions.md", "md_atom_type": "LIST_ITEM", "md_parent_section": "§DS [DS — Assumptions]", "md_verbatim": "   e. An event with DSCAT = \"OTHER EVENT\" is another important event that occurred during a trial, but was not driven by protocol requirements and was not captured in another Events or Interventions class dataset. \"TREATMENT UNBLINDED\" is an example of an event that would be represented with DSCAT = \"OTHER EVENT\".", "score": 0.4773, "match_basis": "verbatim_token+domain_route:DS"}, {"md_atom_id": "md_dmDS_assn_a020", "md_file": "knowledge_base/domains/DS/assumptions.md", "md_atom_type": "LIST_ITEM", "md_parent_section": "§DS [DS — Assumptions]", "md_verbatim": "      i. If a reason for the event was collected, the reason for the event is in DSTERM and the DSDECOD is a term from sponsor terminology. For example, if treatment was unblinded due to investigator error, this might be represented in a record with DSTERM = \"INVESTIGATOR ERROR\" and DSDECOD = \"TREATMENT UNBLINDED\".", "score": 0.4706, "match_basis": "verbatim_token+domain_route:DS"}], "candidate_count": 5, "zero_candidate": false}
{"pdf_atom_id": "ig34_p0167_a0007", "pdf_atom_type": "LIST_ITEM", "pdf_source": "SDTMIG_v3.4", "pdf_page": 167, "pdf_parent_section": "§6.2.4 Disposition (DS)", "pdf_verbatim": "Row 6: Shows disposition of study participation in the treatment epoch. The subject did not complete treatment, due to disease progression. The date of disposition of the treatment epoch, DSSTDTC, is the date the subject started the follow-up epoch. For this study, that was defined as 4 weeks after the start of the last treatment element. This means that although the subject's last dose of treatment was \"2015-04-14\", the end of the treatment period was later, on \"2015-04-26\", when the subject started the follow-up treatment.", "figure_ref": null, "candidates": [{"md_atom_id": "md_dmDS_ex_a250", "md_file": "knowledge_base/domains/DS/examples.md", "md_atom_type": "SENTENCE", "md_parent_section": "§DS.11 [Example 11]", "md_verbatim": "**Row 4:** Shows that drug C was ended during the second cycle (TAETORD = \"2\") of the treatment epoch. The subject did not complete treatment, due to disease progression. The date of disposition of the treatment epoch, DSSTDTC, is the date the subject started the follow-up element. For this study, that was defined as 4 weeks after the start of the last treatment element. This means that although the subject's last dose of treatment was \"2015-04-14\", the end of the treatment period was later, on \"2015-04-26\", when the subject started the follow-up treatment.", "score": 0.79, "match_basis": "verbatim_token+domain_route:DS"}, {"md_atom_id": "md_dmDS_assn_a005", "md_file": "knowledge_base/domains/DS/assumptions.md", "md_atom_type": "LIST_ITEM", "md_parent_section": "§DS [DS — Assumptions]", "md_verbatim": "   b. An event with DSCAT = \"DISPOSITION EVENT\" describes either disposition of study participation or of a study treatment. It describes whether a subject completed study participation or a study treatment and, if not, the reason they did not complete it. Dispositions may be described for each epoch (e.g., screening, initial treatment, washout, cross-over treatment, follow-up) or for the study as a whole. If disposition events for both study participation and study treatment(s) are to be represented, then DSCAT provides this distinction. For records with DSCAT = \"DISPOSITION EVENT\",", "score": 0.5906, "match_basis": "verbatim_token+domain_route:DS"}, {"md_atom_id": "md_dmDS_assn_a023", "md_file": "knowledge_base/domains/DS/assumptions.md", "md_atom_type": "LIST_ITEM", "md_parent_section": "§DS [DS — Assumptions]", "md_verbatim": "   a. DSSTDTC is expected and is used for the date/time of the disposition event. Events represented in the DS domain do not have end dates; disposition events do not span an interval, but rather occur at a single date/time (e.g., randomization date, disposition of study participation or study treatment).", "score": 0.5536, "match_basis": "verbatim_token+domain_route:DS"}, {"md_atom_id": "md_dmDS_ex_a247", "md_file": "knowledge_base/domains/DS/examples.md", "md_atom_type": "SENTENCE", "md_parent_section": "§DS.11 [Example 11]", "md_verbatim": "In this study, disposition of each treatment was collected, and disposition of study participation was collected for each epoch of the trial. The date of disposition for study treatment was defined as the date of the last dose of that treatment.", "score": 0.55, "match_basis": "verbatim_token+domain_route:DS"}, {"md_atom_id": "md_dmDS_assn_a024", "md_file": "knowledge_base/domains/DS/assumptions.md", "md_atom_type": "LIST_ITEM", "md_parent_section": "§DS [DS — Assumptions]", "md_verbatim": "   b. DSSTDTC documents the date/time that a protocol milestone, disposition event, or other event occurred. For an event with DSCAT = \"DISPOSITION EVENT\" where DSTERM is not \"COMPLETED\", the reason for non-completion may be related to an observation reported in another dataset. DSSTDTC is the date/time that the Epoch was completed and is not necessarily the same as the date/time, start date/time, or end date/time of the observation that led to discontinuation.", "score": 0.5447, "match_basis": "verbatim_token+domain_route:DS"}], "candidate_count": 5, "zero_candidate": false}
{"pdf_atom_id": "ig34_p0167_a0008", "pdf_atom_type": "LIST_ITEM", "pdf_source": "SDTMIG_v3.4", "pdf_page": 167, "pdf_parent_section": "§6.2.4 Disposition (DS)", "pdf_verbatim": "Row 7: Shows disposition of study participation in the follow-up epoch. The subject died.", "figure_ref": null, "candidates": [{"md_atom_id": "md_dmDS_ex_a253", "md_file": "knowledge_base/domains/DS/examples.md", "md_atom_type": "SENTENCE", "md_parent_section": "§DS.11 [Example 11]", "md_verbatim": "**Row 7:** Shows disposition of study participation in the follow-up epoch. The subject died.", "score": 0.91, "match_basis": "verbatim_token+domain_route:DS"}, {"md_atom_id": "md_dmDS_ex_a252", "md_file": "knowledge_base/domains/DS/examples.md", "md_atom_type": "SENTENCE", "md_parent_section": "§DS.11 [Example 11]", "md_verbatim": "**Row 6:** Shows disposition of study participation in the treatment epoch.", "score": 0.6802, "match_basis": "verbatim_token+domain_route:DS"}, {"md_atom_id": "md_dmDS_ex_a249", "md_file": "knowledge_base/domains/DS/examples.md", "md_atom_type": "SENTENCE", "md_parent_section": "§DS.11 [Example 11]", "md_verbatim": "**Row 3:** Shows disposition of study participation for screening epoch. The subject completed this epoch.", "score": 0.6679, "match_basis": "verbatim_token+domain_route:DS"}, {"md_atom_id": "md_dmDS_assn_a006", "md_file": "knowledge_base/domains/DS/assumptions.md", "md_atom_type": "LIST_ITEM", "md_parent_section": "§DS [DS — Assumptions]", "md_verbatim": "      i. DSSCAT = \"STUDY PARTICIPATION\" is used to represent disposition of study participation.", "score": 0.6377, "match_basis": "verbatim_token+domain_route:DS"}, {"md_atom_id": "md_dmDS_ex_a076", "md_file": "knowledge_base/domains/DS/examples.md", "md_atom_type": "SENTENCE", "md_parent_section": "§DS.5 [Example 5]", "md_verbatim": "**Rows 3, 5:** Represent the study disposition for each treatment epoch, as indicated by DSSCAT = \"STUDY PARTICIPATION\".", "score": 0.5555, "match_basis": "verbatim_token+domain_route:DS"}], "candidate_count": 5, "zero_candidate": false}
{"pdf_atom_id": "ig34_p0167_a0009", "pdf_atom_type": "CODE_LITERAL", "pdf_source": "SDTMIG_v3.4", "pdf_page": 167, "pdf_parent_section": "§6.2.4 Disposition (DS)", "pdf_verbatim": "ds.xpt", "figure_ref": null, "candidates": [{"md_atom_id": "md_dmDS_ex_a011", "md_file": "knowledge_base/domains/DS/examples.md", "md_atom_type": "SENTENCE", "md_parent_section": "§DS.1 [Example 1]", "md_verbatim": "**ds.xpt**", "score": 0.79, "match_basis": "verbatim_token+domain_route:DS"}, {"md_atom_id": "md_dmDS_ex_a038", "md_file": "knowledge_base/domains/DS/examples.md", "md_atom_type": "SENTENCE", "md_parent_section": "§DS.2 [Example 2]", "md_verbatim": "**ds.xpt**", "score": 0.79, "match_basis": "verbatim_token+domain_route:DS"}, {"md_atom_id": "md_dmDS_ex_a049", "md_file": "knowledge_base/domains/DS/examples.md", "md_atom_type": "SENTENCE", "md_parent_section": "§DS.3 [Example 3]", "md_verbatim": "**ds.xpt**", "score": 0.79, "match_basis": "verbatim_token+domain_route:DS"}, {"md_atom_id": "md_dmDS_ex_a059", "md_file": "knowledge_base/domains/DS/examples.md", "md_atom_type": "SENTENCE", "md_parent_section": "§DS.4 [Example 4]", "md_verbatim": "**ds.xpt**", "score": 0.79, "match_basis": "verbatim_token+domain_route:DS"}, {"md_atom_id": "md_dmDS_ex_a063", "md_file": "knowledge_base/domains/DS/examples.md", "md_atom_type": "SENTENCE", "md_parent_section": "§DS.4 [Example 4]", "md_verbatim": "**ae.xpt**", "score": 0.79, "match_basis": "verbatim_token+domain_route:DS"}, {"md_atom_id": "md_dmDS_ex_a077", "md_file": "knowledge_base/domains/DS/examples.md", "md_atom_type": "SENTENCE", "md_parent_section": "§DS.5 [Example 5]", "md_verbatim": "**ds.xpt**", "score": 0.79, "match_basis": "verbatim_token+domain_route:DS"}, {"md_atom_id": "md_dmDS_ex_a089", "md_file": "knowledge_base/domains/DS/examples.md", "md_atom_type": "SENTENCE", "md_parent_section": "§DS.6 [Example 6]", "md_verbatim": "**ds.xpt**", "score": 0.79, "match_basis": "verbatim_token+domain_route:DS"}, {"md_atom_id": "md_dmDS_ex_a098", "md_file": "knowledge_base/domains/DS/examples.md", "md_atom_type": "SENTENCE", "md_parent_section": "§DS.7 [Example 7]", "md_verbatim": "**ds.xpt**", "score": 0.79, "match_basis": "verbatim_token+domain_route:DS"}, {"md_atom_id": "md_dmDS_ex_a108", "md_file": "knowledge_base/domains/DS/examples.md", "md_atom_type": "SENTENCE", "md_parent_section": "§DS.8 [Example 8]", "md_verbatim": "**ds.xpt**", "score": 0.79, "match_basis": "verbatim_token+domain_route:DS"}, {"md_atom_id": "md_dmDS_ex_a121", "md_file": "knowledge_base/domains/DS/examples.md", "md_atom_type": "SENTENCE", "md_parent_section": "§DS.9 [Example 9]", "md_verbatim": "**ds.xpt**", "score": 0.79, "match_basis": "verbatim_token+domain_route:DS"}], "candidate_count": 10, "zero_candidate": false}
{"pdf_atom_id": "ig34_p0167_a0010", "pdf_atom_type": "TABLE_HEADER", "pdf_source": "SDTMIG_v3.4", "pdf_page": 167, "pdf_parent_section": "§6.2.4 Disposition (DS)", "pdf_verbatim": "| Row | STUDYID | DOMAIN | USUBJID | DSEQ | DSTERM | DSDECOD | DSCAT | DSSCAT | TAETORD | EPOCH | DSSTDTC |", "figure_ref": null, "candidates": [{"md_atom_id": "md_dmDS_ex_a255", "md_file": "knowledge_base/domains/DS/examples.md", "md_atom_type": "TABLE_HEADER", "md_parent_section": "§DS.11 [Example 11]", "md_verbatim": "| Row | STUDYID | DOMAIN | USUBJID | DSSEQ | DSTERM | DSDECOD | DSCAT | DSSCAT | TAETORD | EPOCH | DSSTDTC |\n|-----|---------|--------|---------|-------|--------|---------|-------|--------|---------|-------|---------|", "score": 0.9727, "match_basis": "verbatim_token+domain_route:DS"}, {"md_atom_id": "md_dmDS_ex_a078", "md_file": "knowledge_base/domains/DS/examples.md", "md_atom_type": "TABLE_HEADER", "md_parent_section": "§DS.5 [Example 5]", "md_verbatim": "| Row | STUDYID | DOMAIN | USUBJID | DSSEQ | DSTERM | DSDECOD | DSCAT | DSSCAT | EPOCH | DSSTDTC |\n|-----|---------|--------|---------|-------|--------|---------|-------|--------|-------|---------|", "score": 0.9045, "match_basis": "verbatim_token+domain_route:DS"}, {"md_atom_id": "md_dmDS_ex_a090", "md_file": "knowledge_base/domains/DS/examples.md", "md_atom_type": "TABLE_HEADER", "md_parent_section": "§DS.6 [Example 6]", "md_verbatim": "| Row | STUDYID | DOMAIN | USUBJID | DSSEQ | DSTERM | DSDECOD | DSCAT | DSSCAT | EPOCH | DSSTDTC |\n|-----|---------|--------|---------|-------|--------|---------|-------|--------|-------|---------|", "score": 0.9045, "match_basis": "verbatim_token+domain_route:DS"}, {"md_atom_id": "md_dmDS_ex_a099", "md_file": "knowledge_base/domains/DS/examples.md", "md_atom_type": "TABLE_HEADER", "md_parent_section": "§DS.7 [Example 7]", "md_verbatim": "| Row | STUDYID | DOMAIN | USUBJID | DSSEQ | DSTERM | DSDECOD | DSCAT | DSSCAT | EPOCH | DSSTDTC |\n|-----|---------|--------|---------|-------|--------|---------|-------|--------|-------|---------|", "score": 0.9045, "match_basis": "verbatim_token+domain_route:DS"}, {"md_atom_id": "md_dmDS_ex_a109", "md_file": "knowledge_base/domains/DS/examples.md", "md_atom_type": "TABLE_HEADER", "md_parent_section": "§DS.8 [Example 8]", "md_verbatim": "| Row | STUDYID | DOMAIN | USUBJID | DSSEQ | DSTERM | DSDECOD | DSCAT | DSSCAT | EPOCH | DSSTDTC |\n|-----|---------|--------|---------|-------|--------|---------|-------|--------|-------|---------|", "score": 0.9045, "match_basis": "verbatim_token+domain_route:DS"}], "candidate_count": 5, "zero_candidate": false}
{"pdf_atom_id": "ig34_p0167_a0011", "pdf_atom_type": "TABLE_ROW", "pdf_source": "SDTMIG_v3.4", "pdf_page": 167, "pdf_parent_section": "§6.2.4 Disposition (DS)", "pdf_verbatim": "| 1 | DS10 | DS | 101 | 1 | INFORMED CONSENT OBTAINED | INFORMED CONSENT OBTAINED | PROTOCOL MILESTONE | | 1 | SCREENING | 2015-01-21 |", "figure_ref": null, "candidates": [{"md_atom_id": "md_dmDS_ex_a256", "md_file": "knowledge_base/domains/DS/examples.md", "md_atom_type": "TABLE_ROW", "md_parent_section": "§DS.11 [Example 11]", "md_verbatim": "| 1 | DS10 | DS | 101 | 1 | INFORMED CONSENT OBTAINED | INFORMED CONSENT OBTAINED | PROTOCOL MILESTONE | | 1 | SCREENING | 2015-01-21 |", "score": 1.0, "match_basis": "verbatim_token+domain_route:DS"}, {"md_atom_id": "md_dmDS_ex_a013", "md_file": "knowledge_base/domains/DS/examples.md", "md_atom_type": "TABLE_ROW", "md_parent_section": "§DS.1 [Example 1]", "md_verbatim": "| 1 | ABC123 | DS | 123101 | 1 | INFORMED CONSENT OBTAINED | INFORMED CONSENT OBTAINED | PROTOCOL MILESTONE | | SCREENING | 2003-09-21 | 2003-09-21 |", "score": 0.856, "match_basis": "verbatim_token+domain_route:DS"}, {"md_atom_id": "md_dmDS_ex_a018", "md_file": "knowledge_base/domains/DS/examples.md", "md_atom_type": "TABLE_ROW", "md_parent_section": "§DS.1 [Example 1]", "md_verbatim": "| 6 | ABC123 | DS | 123102 | 1 | INFORMED CONSENT OBTAINED | INFORMED CONSENT OBTAINED | PROTOCOL MILESTONE | | SCREENING | 2003-11-21 | 2003-11-21 |", "score": 0.8353, "match_basis": "verbatim_token+domain_route:DS"}, {"md_atom_id": "md_dmDS_ex_a020", "md_file": "knowledge_base/domains/DS/examples.md", "md_atom_type": "TABLE_ROW", "md_parent_section": "§DS.1 [Example 1]", "md_verbatim": "| 8 | ABC123 | DS | 123103 | 1 | INFORMED CONSENT OBTAINED | INFORMED CONSENT OBTAINED | PROTOCOL MILESTONE | | SCREENING | 2003-09-15 | 2003-09-15 |", "score": 0.8353, "match_basis": "verbatim_token+domain_route:DS"}, {"md_atom_id": "md_dmDS_ex_a024", "md_file": "knowledge_base/domains/DS/examples.md", "md_atom_type": "TABLE_ROW", "md_parent_section": "§DS.1 [Example 1]", "md_verbatim": "| 12 | ABC123 | DS | 123104 | 1 | INFORMED CONSENT OBTAINED | INFORMED CONSENT OBTAINED | PROTOCOL MILESTONE | | SCREENING | 2003-09-15 | 2003-09-15 |", "score": 0.8353, "match_basis": "verbatim_token+domain_route:DS"}], "candidate_count": 5, "zero_candidate": false}
{"pdf_atom_id": "ig34_p0167_a0012", "pdf_atom_type": "TABLE_ROW", "pdf_source": "SDTMIG_v3.4", "pdf_page": 167, "pdf_parent_section": "§6.2.4 Disposition (DS)", "pdf_verbatim": "| 2 | DS10 | DS | 101 | 2 | RANDOMIZED | RANDOMIZED | PROTOCOL MILESTONE | | 1 | SCREENING | 2015-02-01 |", "figure_ref": null, "candidates": [{"md_atom_id": "md_dmDS_ex_a257", "md_file": "knowledge_base/domains/DS/examples.md", "md_atom_type": "TABLE_ROW", "md_parent_section": "§DS.11 [Example 11]", "md_verbatim": "| 2 | DS10 | DS | 101 | 2 | RANDOMIZED | RANDOMIZED | PROTOCOL MILESTONE | | 1 | SCREENING | 2015-02-01 |", "score": 1.0, "match_basis": "verbatim_token+domain_route:DS"}, {"md_atom_id": "md_dmDS_ex_a124", "md_file": "knowledge_base/domains/DS/examples.md", "md_atom_type": "TABLE_ROW", "md_parent_section": "§DS.9 [Example 9]", "md_verbatim": "| 2 | XXX | DS | XXX-767-001 | 2 | RANDOMIZED | RANDOMIZED | PROTOCOL MILESTONE | SCREENING | 2016-02-26 |", "score": 0.8703, "match_basis": "verbatim_token+domain_route:DS"}, {"md_atom_id": "md_dmDS_ex_a195", "md_file": "knowledge_base/domains/DS/examples.md", "md_atom_type": "TABLE_ROW", "md_parent_section": "§DS.10 [Example 10]", "md_verbatim": "| 1 | XYZ | DS | XYZ-767-001 | 1 | RANDOMIZED | RANDOMIZED | PROTOCOL MILESTONE | | SCREENING | 2016-02-13 |", "score": 0.8703, "match_basis": "verbatim_token+domain_route:DS"}, {"md_atom_id": "md_dmDS_ex_a202", "md_file": "knowledge_base/domains/DS/examples.md", "md_atom_type": "TABLE_ROW", "md_parent_section": "§DS.10 [Example 10]", "md_verbatim": "| 8 | XYZ | DS | XYZ-767-002 | 1 | RANDOMIZED | RANDOMIZED | PROTOCOL MILESTONE | | SCREENING | 2016-02-20 |", "score": 0.8703, "match_basis": "verbatim_token+domain_route:DS"}, {"md_atom_id": "md_dmDS_ex_a014", "md_file": "knowledge_base/domains/DS/examples.md", "md_atom_type": "TABLE_ROW", "md_parent_section": "§DS.1 [Example 1]", "md_verbatim": "| 2 | ABC123 | DS | 123101 | 2 | RANDOMIZED | RANDOMIZED | PROTOCOL MILESTONE | | SCREENING | 2003-09-30 | 2003-09-30 |", "score": 0.8244, "match_basis": "verbatim_token+domain_route:DS"}], "candidate_count": 5, "zero_candidate": false}
{"pdf_atom_id": "ig34_p0167_a0013", "pdf_atom_type": "TABLE_ROW", "pdf_source": "SDTMIG_v3.4", "pdf_page": 167, "pdf_parent_section": "§6.2.4 Disposition (DS)", "pdf_verbatim": "| 3 | DS10 | DS | 101 | 3 | COMPLETED | COMPLETED | DISPOSITION EVENT | STUDY PARTICIPATION | 1 | SCREENING | 2015-02-01 |", "figure_ref": null, "candidates": [{"md_atom_id": "md_dmDS_ex_a258", "md_file": "knowledge_base/domains/DS/examples.md", "md_atom_type": "TABLE_ROW", "md_parent_section": "§DS.11 [Example 11]", "md_verbatim": "| 3 | DS10 | DS | 101 | 3 | COMPLETED | COMPLETED | DISPOSITION EVENT | STUDY PARTICIPATION | 1 | SCREENING | 2015-02-01 |", "score": 1.0, "match_basis": "verbatim_token+domain_route:DS"}, {"md_atom_id": "md_dmDS_ex_a196", "md_file": "knowledge_base/domains/DS/examples.md", "md_atom_type": "TABLE_ROW", "md_parent_section": "§DS.10 [Example 10]", "md_verbatim": "| 2 | XYZ | DS | XYZ-767-001 | 2 | COMPLETED | COMPLETED | DISPOSITION EVENT | STUDY PARTICIPATION | SCREENING | 2016-03-13 |", "score": 0.8979, "match_basis": "verbatim_token+domain_route:DS"}, {"md_atom_id": "md_dmDS_ex_a203", "md_file": "knowledge_base/domains/DS/examples.md", "md_atom_type": "TABLE_ROW", "md_parent_section": "§DS.10 [Example 10]", "md_verbatim": "| 9 | XYZ | DS | XYZ-767-002 | 2 | COMPLETED | COMPLETED | DISPOSITION EVENT | STUDY PARTICIPATION | SCREENING | 2016-03-23 |", "score": 0.8979, "match_basis": "verbatim_token+domain_route:DS"}, {"md_atom_id": "md_dmDS_ex_a015", "md_file": "knowledge_base/domains/DS/examples.md", "md_atom_type": "TABLE_ROW", "md_parent_section": "§DS.1 [Example 1]", "md_verbatim": "| 3 | ABC123 | DS | 123101 | 3 | COMPLETED | COMPLETED | DISPOSITION EVENT | STUDY PARTICIPATION | SCREENING | 2003-09-30 | 2003-09-29 |", "score": 0.8588, "match_basis": "verbatim_token+domain_route:DS"}, {"md_atom_id": "md_dmDS_ex_a022", "md_file": "knowledge_base/domains/DS/examples.md", "md_atom_type": "TABLE_ROW", "md_parent_section": "§DS.1 [Example 1]", "md_verbatim": "| 10 | ABC123 | DS | 123103 | 3 | COMPLETED | COMPLETED | DISPOSITION EVENT | STUDY PARTICIPATION | SCREENING | 2003-09-30 | 2003-09-30 |", "score": 0.8385, "match_basis": "verbatim_token+domain_route:DS"}], "candidate_count": 5, "zero_candidate": false}
{"pdf_atom_id": "ig34_p0167_a0014", "pdf_atom_type": "TABLE_ROW", "pdf_source": "SDTMIG_v3.4", "pdf_page": 167, "pdf_parent_section": "§6.2.4 Disposition (DS)", "pdf_verbatim": "| 4 | DS10 | DS | 101 | 4 | Toxicity | ADVERSE EVENT | DISPOSITION EVENT | DRUG C | 2 | TREATMENT | 2015-03-06 |", "figure_ref": null, "candidates": [{"md_atom_id": "md_dmDS_ex_a259", "md_file": "knowledge_base/domains/DS/examples.md", "md_atom_type": "TABLE_ROW", "md_parent_section": "§DS.11 [Example 11]", "md_verbatim": "| 4 | DS10 | DS | 101 | 4 | Toxicity | ADVERSE EVENT | DISPOSITION EVENT | DRUG C | 2 | TREATMENT | 2015-03-06 |", "score": 1.0, "match_basis": "verbatim_token+domain_route:DS"}, {"md_atom_id": "md_dmDS_ex_a102", "md_file": "knowledge_base/domains/DS/examples.md", "md_atom_type": "TABLE_ROW", "md_parent_section": "§DS.7 [Example 7]", "md_verbatim": "| 3 | XXX | DS | XXX-767-001 | 3 | SKIN RASH | ADVERSE EVENT | DISPOSITION EVENT | STUDY TREATMENT | TREATMENT 2 | 2016-03-14 |", "score": 0.7064, "match_basis": "verbatim_token+domain_route:DS"}, {"md_atom_id": "md_dmDS_ex_a260", "md_file": "knowledge_base/domains/DS/examples.md", "md_atom_type": "TABLE_ROW", "md_parent_section": "§DS.11 [Example 11]", "md_verbatim": "| 5 | DS10 | DS | 101 | 5 | Disease progression | PROGRESSIVE DISEASE | DISPOSITION EVENT | DRUGS A & B | 6 | TREATMENT | 2015-04-14 |", "score": 0.6941, "match_basis": "verbatim_token+domain_route:DS"}, {"md_atom_id": "md_dmDS_ex_a053", "md_file": "knowledge_base/domains/DS/examples.md", "md_atom_type": "TABLE_ROW", "md_parent_section": "§DS.3 [Example 3]", "md_verbatim": "| 3 | ABC789 | DS | 789102 | 1 | SKIN RASH | ADVERSE EVENT | DISPOSITION EVENT | TREATMENT | 2004-09-30 |", "score": 0.6816, "match_basis": "verbatim_token+domain_route:DS"}, {"md_atom_id": "md_dmDS_ex_a103", "md_file": "knowledge_base/domains/DS/examples.md", "md_atom_type": "TABLE_ROW", "md_parent_section": "§DS.7 [Example 7]", "md_verbatim": "| 4 | XXX | DS | XXX-767-001 | 4 | SKIN RASH | ADVERSE EVENT | DISPOSITION EVENT | STUDY PARTICIPATION | TREATMENT 2 | 2016-03-14 |", "score": 0.6727, "match_basis": "verbatim_token+domain_route:DS"}], "candidate_count": 5, "zero_candidate": false}
{"pdf_atom_id": "ig34_p0167_a0015", "pdf_atom_type": "TABLE_ROW", "pdf_source": "SDTMIG_v3.4", "pdf_page": 167, "pdf_parent_section": "§6.2.4 Disposition (DS)", "pdf_verbatim": "| 5 | DS10 | DS | 101 | 5 | Disease progression | PROGRESSIVE DISEASE | DISPOSITION EVENT | DRUGS A & B | 6 | TREATMENT | 2015-04-14 |", "figure_ref": null, "candidates": [{"md_atom_id": "md_dmDS_ex_a260", "md_file": "knowledge_base/domains/DS/examples.md", "md_atom_type": "TABLE_ROW", "md_parent_section": "§DS.11 [Example 11]", "md_verbatim": "| 5 | DS10 | DS | 101 | 5 | Disease progression | PROGRESSIVE DISEASE | DISPOSITION EVENT | DRUGS A & B | 6 | TREATMENT | 2015-04-14 |", "score": 1.0, "match_basis": "verbatim_token+domain_route:DS"}, {"md_atom_id": "md_dmDS_ex_a261", "md_file": "knowledge_base/domains/DS/examples.md", "md_atom_type": "TABLE_ROW", "md_parent_section": "§DS.11 [Example 11]", "md_verbatim": "| 6 | DS10 | DS | 101 | 6 | Disease progression | PROGRESSIVE DISEASE | DISPOSITION EVENT | STUDY PARTICIPATION | 6 | TREATMENT | 2015-04-26 |", "score": 0.8269, "match_basis": "verbatim_token+domain_route:DS"}, {"md_atom_id": "md_dmDS_ex_a259", "md_file": "knowledge_base/domains/DS/examples.md", "md_atom_type": "TABLE_ROW", "md_parent_section": "§DS.11 [Example 11]", "md_verbatim": "| 4 | DS10 | DS | 101 | 4 | Toxicity | ADVERSE EVENT | DISPOSITION EVENT | DRUG C | 2 | TREATMENT | 2015-03-06 |", "score": 0.6941, "match_basis": "verbatim_token+domain_route:DS"}, {"md_atom_id": "md_dmDS_ex_a223", "md_file": "knowledge_base/domains/DS/examples.md", "md_atom_type": "TABLE_ROW", "md_parent_section": "§DS.11 [Example 11]", "md_verbatim": "| 2 | DS10 | TA | AB | AB | 1 | AB | Trt AB | | If disease progression, go to follow-up epoch. | TREATMENT |", "score": 0.6875, "match_basis": "verbatim_token+domain_route:DS"}, {"md_atom_id": "md_dmDS_ex_a224", "md_file": "knowledge_base/domains/DS/examples.md", "md_atom_type": "TABLE_ROW", "md_parent_section": "§DS.11 [Example 11]", "md_verbatim": "| 3 | DS10 | TA | AB | AB | 2 | AB | Trt AB | | If disease progression, go to follow-up epoch. | TREATMENT |", "score": 0.6875, "match_basis": "verbatim_token+domain_route:DS"}], "candidate_count": 5, "zero_candidate": false}
{"pdf_atom_id": "ig34_p0167_a0016", "pdf_atom_type": "TABLE_ROW", "pdf_source": "SDTMIG_v3.4", "pdf_page": 167, "pdf_parent_section": "§6.2.4 Disposition (DS)", "pdf_verbatim": "| 6 | DS10 | DS | 101 | 6 | Disease progression | PROGRESSIVE DISEASE | DISPOSITION EVENT | STUDY PARTICIPATION | 6 | TREATMENT | 2015-04-26 |", "figure_ref": null, "candidates": [{"md_atom_id": "md_dmDS_ex_a261", "md_file": "knowledge_base/domains/DS/examples.md", "md_atom_type": "TABLE_ROW", "md_parent_section": "§DS.11 [Example 11]", "md_verbatim": "| 6 | DS10 | DS | 101 | 6 | Disease progression | PROGRESSIVE DISEASE | DISPOSITION EVENT | STUDY PARTICIPATION | 6 | TREATMENT | 2015-04-26 |", "score": 1.0, "match_basis": "verbatim_token+domain_route:DS"}, {"md_atom_id": "md_dmDS_ex_a260", "md_file": "knowledge_base/domains/DS/examples.md", "md_atom_type": "TABLE_ROW", "md_parent_section": "§DS.11 [Example 11]", "md_verbatim": "| 5 | DS10 | DS | 101 | 5 | Disease progression | PROGRESSIVE DISEASE | DISPOSITION EVENT | DRUGS A & B | 6 | TREATMENT | 2015-04-14 |", "score": 0.8269, "match_basis": "verbatim_token+domain_route:DS"}, {"md_atom_id": "md_dmDS_ex_a081", "md_file": "knowledge_base/domains/DS/examples.md", "md_atom_type": "TABLE_ROW", "md_parent_section": "§DS.5 [Example 5]", "md_verbatim": "| 3 | XXX | DS | XXX-767-001 | 3 | COMPLETED | COMPLETED | DISPOSITION EVENT | STUDY PARTICIPATION | TREATMENT 1 | 2016-02-25 |", "score": 0.71, "match_basis": "verbatim_token+domain_route:DS"}, {"md_atom_id": "md_dmDS_ex_a083", "md_file": "knowledge_base/domains/DS/examples.md", "md_atom_type": "TABLE_ROW", "md_parent_section": "§DS.5 [Example 5]", "md_verbatim": "| 5 | XXX | DS | XXX-767-001 | 5 | COMPLETED | COMPLETED | DISPOSITION EVENT | STUDY PARTICIPATION | TREATMENT 2 | 2016-03-24 |", "score": 0.71, "match_basis": "verbatim_token+domain_route:DS"}, {"md_atom_id": "md_dmDS_ex_a093", "md_file": "knowledge_base/domains/DS/examples.md", "md_atom_type": "TABLE_ROW", "md_parent_section": "§DS.6 [Example 6]", "md_verbatim": "| 3 | XXX | DS | XXX-767-001 | 3 | COMPLETED | COMPLETED | DISPOSITION EVENT | STUDY PARTICIPATION | TREATMENT 2 | 2016-03-24 |", "score": 0.71, "match_basis": "verbatim_token+domain_route:DS"}], "candidate_count": 5, "zero_candidate": false}
{"pdf_atom_id": "ig34_p0167_a0017", "pdf_atom_type": "TABLE_ROW", "pdf_source": "SDTMIG_v3.4", "pdf_page": 167, "pdf_parent_section": "§6.2.4 Disposition (DS)", "pdf_verbatim": "| 7 | DS10 | DS | 101 | 7 | Death due to cancer | DEATH | DISPOSITION EVENT | STUDY PARTICIPATION | 8 | FOLLOW-UP | 2015-09-19 |", "figure_ref": null, "candidates": [{"md_atom_id": "md_dmDS_ex_a262", "md_file": "knowledge_base/domains/DS/examples.md", "md_atom_type": "TABLE_ROW", "md_parent_section": "§DS.11 [Example 11]", "md_verbatim": "| 7 | DS10 | DS | 101 | 7 | Death due to cancer | DEATH | DISPOSITION EVENT | STUDY PARTICIPATION | 8 | FOLLOW-UP | 2015-09-19 |", "score": 1.0, "match_basis": "verbatim_token+domain_route:DS"}, {"md_atom_id": "md_dmDS_ex_a201", "md_file": "knowledge_base/domains/DS/examples.md", "md_atom_type": "TABLE_ROW", "md_parent_section": "§DS.10 [Example 10]", "md_verbatim": "| 7 | XYZ | DS | XYZ-767-001 | 7 | COMPLETED | COMPLETED | DISPOSITION EVENT | STUDY PARTICIPATION | FOLLOW-UP | 2016-04-24 |", "score": 0.7346, "match_basis": "verbatim_token+domain_route:DS"}, {"md_atom_id": "md_dmDS_ex_a208", "md_file": "knowledge_base/domains/DS/examples.md", "md_atom_type": "TABLE_ROW", "md_parent_section": "§DS.10 [Example 10]", "md_verbatim": "| 14 | XYZ | DS | XYZ-767-002 | 7 | COMPLETED | COMPLETED | DISPOSITION EVENT | STUDY PARTICIPATION | FOLLOW-UP | 2016-04-29 |", "score": 0.7346, "match_basis": "verbatim_token+domain_route:DS"}, {"md_atom_id": "md_dmDS_ex_a258", "md_file": "knowledge_base/domains/DS/examples.md", "md_atom_type": "TABLE_ROW", "md_parent_section": "§DS.11 [Example 11]", "md_verbatim": "| 3 | DS10 | DS | 101 | 3 | COMPLETED | COMPLETED | DISPOSITION EVENT | STUDY PARTICIPATION | 1 | SCREENING | 2015-02-01 |", "score": 0.7164, "match_basis": "verbatim_token+domain_route:DS"}, {"md_atom_id": "md_dmDS_ex_a017", "md_file": "knowledge_base/domains/DS/examples.md", "md_atom_type": "TABLE_ROW", "md_parent_section": "§DS.1 [Example 1]", "md_verbatim": "| 5 | ABC123 | DS | 123101 | 5 | COMPLETED | COMPLETED | DISPOSITION EVENT | STUDY PARTICIPATION | FOLLOW-UP | 2003-11-15 | 2003-11-21 |", "score": 0.7107, "match_basis": "verbatim_token+domain_route:DS"}], "candidate_count": 5, "zero_candidate": false}
{"pdf_atom_id": "ig34_p0167_a0018", "pdf_atom_type": "HEADING", "pdf_source": "SDTMIG_v3.4", "pdf_page": 167, "pdf_parent_section": "§6.2 [MODELS FOR EVENTS DOMAINS]", "pdf_verbatim": "6.2.5 Healthcare Encounters (HO)", "figure_ref": null, "candidates": [{"md_atom_id": "md_varindex_a654", "md_file": "knowledge_base/VARIABLE_INDEX.md", "md_atom_type": "HEADING", "md_parent_section": "§ 二、领域专属变量（仅 1 个域，共 1499 个），按域分组", "md_verbatim": "### HO — Healthcare Encounters (Events)", "score": 0.78, "match_basis": "verbatim_token+global_search"}, {"md_atom_id": "md_ch04_a605", "md_file": "knowledge_base/chapters/ch04_general_assumptions.md", "md_atom_type": "HEADING", "md_parent_section": "§4.4 [Actual and Relative Time Assumptions]", "md_verbatim": "### 4.4.5 Clinical Encounters and Visits", "score": 0.4778, "match_basis": "verbatim_token+global_search"}, {"md_atom_id": "md_ch04_a1008", "md_file": "knowledge_base/chapters/ch04_general_assumptions.md", "md_atom_type": "HEADING", "md_parent_section": "§4.5 [Other Assumptions]", "md_verbatim": "### 4.5.8 Accounting for Long-term Follow-up", "score": 0.3828, "match_basis": "verbatim_token+global_search"}, {"md_atom_id": "md_varindex_a921", "md_file": "knowledge_base/VARIABLE_INDEX.md", "md_atom_type": "HEADING", "md_parent_section": "§ 二、领域专属变量（仅 1 个域，共 1499 个），按域分组", "md_verbatim": "### ML — Meal Data (Interventions)", "score": 0.3643, "match_basis": "verbatim_token+global_search"}, {"md_atom_id": "md_varindex_a346", "md_file": "knowledge_base/VARIABLE_INDEX.md", "md_atom_type": "HEADING", "md_parent_section": "§ 二、领域专属变量（仅 1 个域，共 1499 个），按域分组", "md_verbatim": "### DA — Product Accountability (Findings)", "score": 0.35, "match_basis": "verbatim_token+global_search"}], "candidate_count": 5, "zero_candidate": false}
{"pdf_atom_id": "ig34_p0167_a0019", "pdf_atom_type": "HEADING", "pdf_source": "SDTMIG_v3.4", "pdf_page": 167, "pdf_parent_section": "§6.2.5 Healthcare Encounters (HO)", "pdf_verbatim": "HO – Description/Overview", "figure_ref": null, "candidates": [{"md_atom_id": "md_dmHO_assn_a001", "md_file": "knowledge_base/domains/HO/assumptions.md", "md_atom_type": "HEADING", "md_parent_section": "§HO [HO — Assumptions]", "md_verbatim": "# HO — Assumptions", "score": 0.4857, "match_basis": "verbatim_token+domain_route:HO"}, {"md_atom_id": "md_dmHO_ex_a001", "md_file": "knowledge_base/domains/HO/examples.md", "md_atom_type": "HEADING", "md_parent_section": "§HO [HO — Examples]", "md_verbatim": "# HO — Examples", "score": 0.4, "match_basis": "verbatim_token+domain_route:HO"}, {"md_atom_id": "md_dmHO_ex_a002", "md_file": "knowledge_base/domains/HO/examples.md", "md_atom_type": "HEADING", "md_parent_section": "§HO [HO — Examples]", "md_verbatim": "## Example 1", "score": 0.4, "match_basis": "verbatim_token+domain_route:HO"}, {"md_atom_id": "md_dmHO_ex_a036", "md_file": "knowledge_base/domains/HO/examples.md", "md_atom_type": "HEADING", "md_parent_section": "§HO [HO — Examples]", "md_verbatim": "## Example 2", "score": 0.4, "match_basis": "verbatim_token+domain_route:HO"}], "candidate_count": 4, "zero_candidate": false}
