{"pdf_atom_id": "ig34_p0030_a002", "pdf_atom_type": "CODE_LITERAL", "pdf_source": "SDTMIG_v3.4", "pdf_page": 30, "pdf_parent_section": "§4.2.6 [Grouping Variables and Categorization]", "pdf_verbatim": "STUDYID\nDOMAIN\n    --CAT\n  --SCAT\n    USUBJID\n        --GRPID\n        --LNKID\n        --LNKGRP", "figure_ref": null, "candidates": [{"md_atom_id": "md_ch04_a220", "md_file": "knowledge_base/chapters/ch04_general_assumptions.md", "md_atom_type": "CODE_LITERAL", "md_parent_section": "§4.2.6 [Grouping Variables and Categorization]", "md_verbatim": "```\nSTUDYID\n  DOMAIN\n    --CAT\n    --SCAT\n      USUBJID\n        --GRPID\n        --LNKID\n        --LNKGRP\n```", "score": 0.69, "match_basis": "verbatim_token+chapter_route:ch04"}, {"md_atom_id": "md_ch04_a939", "md_file": "knowledge_base/chapters/ch04_general_assumptions.md", "md_atom_type": "TABLE_HEADER", "md_parent_section": "§4.5.3.2 [Text Strings Greater than 200 Characters in Other Variables]", "md_verbatim": "| Row | STUDYID | DOMAIN | USUBJID | PRSEQ | PRTRT |\n|-----|---------|--------|---------|-------|-------|", "score": 0.361, "match_basis": "verbatim_token+chapter_route:ch04"}, {"md_atom_id": "md_ch04_a920", "md_file": "knowledge_base/chapters/ch04_general_assumptions.md", "md_atom_type": "TABLE_HEADER", "md_parent_section": "§4.5.3.2 [Text Strings Greater than 200 Characters in Other Variables]", "md_verbatim": "| Row | STUDYID | DOMAIN | USUBJID | MHSEQ | MHTERM |\n|-----|---------|--------|---------|-------|--------|", "score": 0.3525, "match_basis": "verbatim_token+chapter_route:ch04"}, {"md_atom_id": "md_ch04_a208", "md_file": "knowledge_base/chapters/ch04_general_assumptions.md", "md_atom_type": "TABLE_HEADER", "md_parent_section": "§4.2.3 [Use of \"Subject\" and USUBJID]", "md_verbatim": "| Row | STUDYID | DOMAIN | USUBJID | SUBJID | SITEID | INVNAM |\n|-----|---------|--------|---------|--------|--------|--------|", "score": 0.3445, "match_basis": "verbatim_token+chapter_route:ch04"}, {"md_atom_id": "md_ch04_a211", "md_file": "knowledge_base/chapters/ch04_general_assumptions.md", "md_atom_type": "TABLE_HEADER", "md_parent_section": "§4.2.3 [Use of \"Subject\" and USUBJID]", "md_verbatim": "| Row | STUDYID | DOMAIN | USUBJID | SUBJID | SITEID | INVNAM |\n|-----|---------|--------|---------|--------|--------|--------|", "score": 0.3445, "match_basis": "verbatim_token+chapter_route:ch04"}], "candidate_count": 5, "zero_candidate": false}
{"pdf_atom_id": "ig34_p0030_a003", "pdf_atom_type": "HEADING", "pdf_source": "SDTMIG_v3.4", "pdf_page": 30, "pdf_parent_section": "§4.2.6 [Grouping Variables and Categorization]", "pdf_verbatim": "How Grouping Variables Group Data", "figure_ref": null, "candidates": [{"md_atom_id": "md_ch04_a221", "md_file": "knowledge_base/chapters/ch04_general_assumptions.md", "md_atom_type": "HEADING", "md_parent_section": "§4.2.6 [Grouping Variables and Categorization]", "md_verbatim": "#### How Grouping Variables Group Data", "score": 0.9, "match_basis": "verbatim_token+chapter_route:ch04"}, {"md_atom_id": "md_ch04_a219", "md_file": "knowledge_base/chapters/ch04_general_assumptions.md", "md_atom_type": "HEADING", "md_parent_section": "§4.2.6 [Grouping Variables and Categorization]", "md_verbatim": "#### Hierarchy of Grouping Variables", "score": 0.6391, "match_basis": "verbatim_token+chapter_route:ch04"}, {"md_atom_id": "md_ch04_a217", "md_file": "knowledge_base/chapters/ch04_general_assumptions.md", "md_atom_type": "HEADING", "md_parent_section": "§4.2 [General Variable Assumptions]", "md_verbatim": "### 4.2.6 Grouping Variables and Categorization", "score": 0.569, "match_basis": "verbatim_token+chapter_route:ch04"}, {"md_atom_id": "md_ch04_a244", "md_file": "knowledge_base/chapters/ch04_general_assumptions.md", "md_atom_type": "HEADING", "md_parent_section": "§4.2.6 [Grouping Variables and Categorization]", "md_verbatim": "#### Differences Between Grouping Variables", "score": 0.56, "match_basis": "verbatim_token+chapter_route:ch04"}, {"md_atom_id": "md_ch04_a124", "md_file": "knowledge_base/chapters/ch04_general_assumptions.md", "md_atom_type": "HEADING", "md_parent_section": "§4.1.8.1 [Origin Metadata for Variables]", "md_verbatim": "#### 4.1.8.1 Origin Metadata for Variables", "score": 0.516, "match_basis": "verbatim_token+chapter_route:ch04"}], "candidate_count": 5, "zero_candidate": false}
{"pdf_atom_id": "ig34_p0030_a004", "pdf_atom_type": "SENTENCE", "pdf_source": "SDTMIG_v3.4", "pdf_page": 30, "pdf_parent_section": "§4.2.6 [Grouping Variables and Categorization]", "pdf_verbatim": "For the subject", "figure_ref": null, "candidates": [{"md_atom_id": "md_ch04_a222", "md_file": "knowledge_base/chapters/ch04_general_assumptions.md", "md_atom_type": "NOTE", "md_parent_section": "§4.2.6 [Grouping Variables and Categorization]", "md_verbatim": "**For the subject:**", "score": 0.81, "match_basis": "verbatim_token+chapter_route:ch04"}, {"md_atom_id": "md_ch04_a1017", "md_file": "knowledge_base/chapters/ch04_general_assumptions.md", "md_atom_type": "SENTENCE", "md_parent_section": "§4.5.8 [Accounting for Long-term Follow-up]", "md_verbatim": "The contacts continue until the subject dies.", "score": 0.4714, "match_basis": "verbatim_token+chapter_route:ch04"}, {"md_atom_id": "md_ch04_a298", "md_file": "knowledge_base/chapters/ch04_general_assumptions.md", "md_atom_type": "SENTENCE", "md_parent_section": "§4.2.7.2 [\"Specify\" Values for Result Qualifier Variables]", "md_verbatim": "For example, consider a CRF where the sponsor requests the subject's eye color:", "score": 0.4167, "match_basis": "verbatim_token+chapter_route:ch04"}, {"md_atom_id": "md_ch04_a223", "md_file": "knowledge_base/chapters/ch04_general_assumptions.md", "md_atom_type": "SENTENCE", "md_parent_section": "§4.2.6 [Grouping Variables and Categorization]", "md_verbatim": "All records with the same USUBJID value are a group of records that describe that subject.", "score": 0.4029, "match_basis": "verbatim_token+chapter_route:ch04"}, {"md_atom_id": "md_ch04_a177", "md_file": "knowledge_base/chapters/ch04_general_assumptions.md", "md_atom_type": "SENTENCE", "md_parent_section": "§4.2.1 [Variable-Naming Conventions]", "md_verbatim": "Values of other \"CD\" variables are **not** subject to the same restrictions as --TESTCD:", "score": 0.3973, "match_basis": "verbatim_token+chapter_route:ch04"}], "candidate_count": 5, "zero_candidate": false}
{"pdf_atom_id": "ig34_p0030_a005", "pdf_atom_type": "LIST_ITEM", "pdf_source": "SDTMIG_v3.4", "pdf_page": 30, "pdf_parent_section": "§4.2.6 [Grouping Variables and Categorization]", "pdf_verbatim": "All records with the same USUBJID value are a group of records that describe that subject.", "figure_ref": null, "candidates": [{"md_atom_id": "md_ch04_a223", "md_file": "knowledge_base/chapters/ch04_general_assumptions.md", "md_atom_type": "SENTENCE", "md_parent_section": "§4.2.6 [Grouping Variables and Categorization]", "md_verbatim": "All records with the same USUBJID value are a group of records that describe that subject.", "score": 0.81, "match_basis": "verbatim_token+chapter_route:ch04"}, {"md_atom_id": "md_ch04_a226", "md_file": "knowledge_base/chapters/ch04_general_assumptions.md", "md_atom_type": "LIST_ITEM", "md_parent_section": "§4.2.6 [Grouping Variables and Categorization]", "md_verbatim": "2. All records with the same DOMAIN value are a group of records that describe that domain.", "score": 0.7105, "match_basis": "verbatim_token+chapter_route:ch04"}, {"md_atom_id": "md_ch04_a225", "md_file": "knowledge_base/chapters/ch04_general_assumptions.md", "md_atom_type": "LIST_ITEM", "md_parent_section": "§4.2.6 [Grouping Variables and Categorization]", "md_verbatim": "1. All records with the same STUDYID value are a group of records that describe that study.", "score": 0.7, "match_basis": "verbatim_token+chapter_route:ch04"}, {"md_atom_id": "md_ch04_a237", "md_file": "knowledge_base/chapters/ch04_general_assumptions.md", "md_atom_type": "SENTENCE", "md_parent_section": "§4.2.6 [Grouping Variables and Categorization]", "md_verbatim": "All records in the same domain with the same --GRPID value are a group of records within USUBJID.", "score": 0.5309, "match_basis": "verbatim_token+chapter_route:ch04"}, {"md_atom_id": "md_ch04_a235", "md_file": "knowledge_base/chapters/ch04_general_assumptions.md", "md_atom_type": "NOTE", "md_parent_section": "§4.2.6 [Grouping Variables and Categorization]", "md_verbatim": "**Within subjects (records with the same USUBJID values):**", "score": 0.4816, "match_basis": "verbatim_token+chapter_route:ch04"}], "candidate_count": 5, "zero_candidate": false}
{"pdf_atom_id": "ig34_p0030_a006", "pdf_atom_type": "SENTENCE", "pdf_source": "SDTMIG_v3.4", "pdf_page": 30, "pdf_parent_section": "§4.2.6 [Grouping Variables and Categorization]", "pdf_verbatim": "Across subjects (records with different USUBJID values)", "figure_ref": null, "candidates": [{"md_atom_id": "md_ch04_a224", "md_file": "knowledge_base/chapters/ch04_general_assumptions.md", "md_atom_type": "NOTE", "md_parent_section": "§4.2.6 [Grouping Variables and Categorization]", "md_verbatim": "**Across subjects (records with different USUBJID values):**", "score": 0.81, "match_basis": "verbatim_token+chapter_route:ch04"}, {"md_atom_id": "md_ch04_a235", "md_file": "knowledge_base/chapters/ch04_general_assumptions.md", "md_atom_type": "NOTE", "md_parent_section": "§4.2.6 [Grouping Variables and Categorization]", "md_verbatim": "**Within subjects (records with the same USUBJID values):**", "score": 0.5433, "match_basis": "verbatim_token+chapter_route:ch04"}, {"md_atom_id": "md_ch04_a223", "md_file": "knowledge_base/chapters/ch04_general_assumptions.md", "md_atom_type": "SENTENCE", "md_parent_section": "§4.2.6 [Grouping Variables and Categorization]", "md_verbatim": "All records with the same USUBJID value are a group of records that describe that subject.", "score": 0.5298, "match_basis": "verbatim_token+chapter_route:ch04"}, {"md_atom_id": "md_ch04_a236", "md_file": "knowledge_base/chapters/ch04_general_assumptions.md", "md_atom_type": "SENTENCE", "md_parent_section": "§4.2.6 [Grouping Variables and Categorization]", "md_verbatim": "--GRPID values further group (subset) records within USUBJID.", "score": 0.5043, "match_basis": "verbatim_token+chapter_route:ch04"}, {"md_atom_id": "md_ch04_a237", "md_file": "knowledge_base/chapters/ch04_general_assumptions.md", "md_atom_type": "SENTENCE", "md_parent_section": "§4.2.6 [Grouping Variables and Categorization]", "md_verbatim": "All records in the same domain with the same --GRPID value are a group of records within USUBJID.", "score": 0.4875, "match_basis": "verbatim_token+chapter_route:ch04"}], "candidate_count": 5, "zero_candidate": false}
{"pdf_atom_id": "ig34_p0030_a007", "pdf_atom_type": "LIST_ITEM", "pdf_source": "SDTMIG_v3.4", "pdf_page": 30, "pdf_parent_section": "§4.2.6 [Grouping Variables and Categorization]", "pdf_verbatim": "All records with the same STUDYID value are a group of records that describe that study.", "figure_ref": null, "candidates": [{"md_atom_id": "md_ch04_a225", "md_file": "knowledge_base/chapters/ch04_general_assumptions.md", "md_atom_type": "LIST_ITEM", "md_parent_section": "§4.2.6 [Grouping Variables and Categorization]", "md_verbatim": "1. All records with the same STUDYID value are a group of records that describe that study.", "score": 0.9, "match_basis": "verbatim_token+chapter_route:ch04"}, {"md_atom_id": "md_ch04_a226", "md_file": "knowledge_base/chapters/ch04_general_assumptions.md", "md_atom_type": "LIST_ITEM", "md_parent_section": "§4.2.6 [Grouping Variables and Categorization]", "md_verbatim": "2. All records with the same DOMAIN value are a group of records that describe that domain.", "score": 0.7457, "match_basis": "verbatim_token+chapter_route:ch04"}, {"md_atom_id": "md_ch04_a223", "md_file": "knowledge_base/chapters/ch04_general_assumptions.md", "md_atom_type": "SENTENCE", "md_parent_section": "§4.2.6 [Grouping Variables and Categorization]", "md_verbatim": "All records with the same USUBJID value are a group of records that describe that subject.", "score": 0.61, "match_basis": "verbatim_token+chapter_route:ch04"}, {"md_atom_id": "md_ch04_a237", "md_file": "knowledge_base/chapters/ch04_general_assumptions.md", "md_atom_type": "SENTENCE", "md_parent_section": "§4.2.6 [Grouping Variables and Categorization]", "md_verbatim": "All records in the same domain with the same --GRPID value are a group of records within USUBJID.", "score": 0.45, "match_basis": "verbatim_token+chapter_route:ch04"}, {"md_atom_id": "md_ch04_a812", "md_file": "knowledge_base/chapters/ch04_general_assumptions.md", "md_atom_type": "LIST_ITEM", "md_parent_section": "§4.4.11 [Disease Milestones and Disease Milestone Timing Variables]", "md_verbatim": "- RELREC indicates that there is a relationship between records or datasets, but not the nature of the relationship; records with the same MIDS value are related to the same disease milestone", "score": 0.4157, "match_basis": "verbatim_token+chapter_route:ch04"}], "candidate_count": 5, "zero_candidate": false}
{"pdf_atom_id": "ig34_p0030_a008", "pdf_atom_type": "LIST_ITEM", "pdf_source": "SDTMIG_v3.4", "pdf_page": 30, "pdf_parent_section": "§4.2.6 [Grouping Variables and Categorization]", "pdf_verbatim": "All records with the same DOMAIN value are a group of records that describe that domain.", "figure_ref": null, "candidates": [{"md_atom_id": "md_ch04_a226", "md_file": "knowledge_base/chapters/ch04_general_assumptions.md", "md_atom_type": "LIST_ITEM", "md_parent_section": "§4.2.6 [Grouping Variables and Categorization]", "md_verbatim": "2. All records with the same DOMAIN value are a group of records that describe that domain.", "score": 0.9, "match_basis": "verbatim_token+chapter_route:ch04"}, {"md_atom_id": "md_ch04_a225", "md_file": "knowledge_base/chapters/ch04_general_assumptions.md", "md_atom_type": "LIST_ITEM", "md_parent_section": "§4.2.6 [Grouping Variables and Categorization]", "md_verbatim": "1. All records with the same STUDYID value are a group of records that describe that study.", "score": 0.7457, "match_basis": "verbatim_token+chapter_route:ch04"}, {"md_atom_id": "md_ch04_a223", "md_file": "knowledge_base/chapters/ch04_general_assumptions.md", "md_atom_type": "SENTENCE", "md_parent_section": "§4.2.6 [Grouping Variables and Categorization]", "md_verbatim": "All records with the same USUBJID value are a group of records that describe that subject.", "score": 0.6205, "match_basis": "verbatim_token+chapter_route:ch04"}, {"md_atom_id": "md_ch04_a237", "md_file": "knowledge_base/chapters/ch04_general_assumptions.md", "md_atom_type": "SENTENCE", "md_parent_section": "§4.2.6 [Grouping Variables and Categorization]", "md_verbatim": "All records in the same domain with the same --GRPID value are a group of records within USUBJID.", "score": 0.54, "match_basis": "verbatim_token+chapter_route:ch04"}, {"md_atom_id": "md_ch04_a242", "md_file": "knowledge_base/chapters/ch04_general_assumptions.md", "md_atom_type": "LIST_ITEM", "md_parent_section": "§4.2.6 [Grouping Variables and Categorization]", "md_verbatim": "- --LNKID is a grouping identifier used to identify a record in one domain that is related to records in another domain, often forming a one-to-many relationship.", "score": 0.4233, "match_basis": "verbatim_token+chapter_route:ch04"}], "candidate_count": 5, "zero_candidate": false}
{"pdf_atom_id": "ig34_p0030_a009", "pdf_atom_type": "LIST_ITEM", "pdf_source": "SDTMIG_v3.4", "pdf_page": 30, "pdf_parent_section": "§4.2.6 [Grouping Variables and Categorization]", "pdf_verbatim": "--CAT (Category) and --SCAT (Sub-category) values further subset groups within the domain. Generally, --CAT/--SCAT values have meaning within a particular domain. However, it is possible to use the same values for --CAT/--SCAT in related domains (e.g., MH and AE). When values are used across domains, the meanings should be the same. Examples of where --CAT/--SCAT may have meaning across domains/datasets include:", "figure_ref": null, "candidates": [{"md_atom_id": "md_ch04_a227", "md_file": "knowledge_base/chapters/ch04_general_assumptions.md", "md_atom_type": "LIST_ITEM", "md_parent_section": "§4.2.6 [Grouping Variables and Categorization]", "md_verbatim": "3. --CAT (Category) and --SCAT (Sub-category) values further subset groups within the domain. Generally, --CAT/--SCAT values have meaning within a particular domain. However, it is possible to use the same values for --CAT/--SCAT in related domains (e.g., MH and AE). When values are used across domains, the meanings should be the same. Examples of where --CAT/--SCAT may have meaning across domains/datasets include:", "score": 0.9, "match_basis": "verbatim_token+chapter_route:ch04"}, {"md_atom_id": "md_ch04_a057", "md_file": "knowledge_base/chapters/ch04_general_assumptions.md", "md_atom_type": "LIST_ITEM", "md_parent_section": "§4.1.7 [Splitting Domains]", "md_verbatim": "4. When relationship datasets (e.g., SUPPxx, FAxx, CO, RELREC) relate back to split parent domains, IDVAR would generally be --SEQ. When IDVAR is a value other than --SEQ (e.g., --GRPID, --REFID, --SPID), care should be used to ensure that the parent records across the split datasets have unique values for the variable specified in IDVAR, so that related children records do not accidentally join back to incorrect parent records.", "score": 0.454, "match_basis": "verbatim_token+chapter_route:ch04"}, {"md_atom_id": "md_ch04_a228", "md_file": "knowledge_base/chapters/ch04_general_assumptions.md", "md_atom_type": "LIST_ITEM", "md_parent_section": "§4.2.6 [Grouping Variables and Categorization]", "md_verbatim": "   a. Cases where different domains in the same general observation class contain similar conceptual information. Adverse Events (AE), Medical History (MH), and Clinical Events (CE), for example, are conceptually the same data, the only differences being when the event started relative to the study start and whether the event is considered a regulatory-reportable adverse event in the study. Neurotoxicities collected in oncology trials both as separate Medical History CRFs (MH domain) and Adverse Event CRFs (AE domain) could both identify/collect \"Paresthesia of the left arm\". In both domains, the --CAT variable could have the value of \"NEUROTOXICITY\".", "score": 0.4277, "match_basis": "verbatim_token+chapter_route:ch04"}, {"md_atom_id": "md_ch04_a056", "md_file": "knowledge_base/chapters/ch04_general_assumptions.md", "md_atom_type": "LIST_ITEM", "md_parent_section": "§4.1.7 [Splitting Domains]", "md_verbatim": "3. --SEQ must be unique within USUBJID for all records across all the split datasets. If there are 1000 records for a USUBJID across the separate datasets, all 1000 records need unique values for --SEQ.", "score": 0.4227, "match_basis": "verbatim_token+chapter_route:ch04"}, {"md_atom_id": "md_ch04_a229", "md_file": "knowledge_base/chapters/ch04_general_assumptions.md", "md_atom_type": "LIST_ITEM", "md_parent_section": "§4.2.6 [Grouping Variables and Categorization]", "md_verbatim": "   b. Cases where multiple datasets are necessary to capture data about the same topic. Following the oncology example, the existence and start and stop date of paresthesia of the left arm may be reported as an adverse event (AE domain), whereas the severity of the event is captured at multiple visits and recorded as Findings About (FA dataset). In both cases the --CAT variable could have a value of \"NEUROTOXICITY\".", "score": 0.4166, "match_basis": "verbatim_token+chapter_route:ch04"}], "candidate_count": 5, "zero_candidate": false}
{"pdf_atom_id": "ig34_p0030_a010", "pdf_atom_type": "LIST_ITEM", "pdf_source": "SDTMIG_v3.4", "pdf_page": 30, "pdf_parent_section": "§4.2.6 [Grouping Variables and Categorization]", "pdf_verbatim": "Cases where different domains in the same general observation class contain similar conceptual information. Adverse Events (AE), Medical History (MH), and Clinical Events (CE), for example, are conceptually the same data, the only differences being when the event started relative to the study start and whether the event is considered a regulatory-reportable adverse event in the study. Neurotoxicities collected in oncology trials both as separate Medical History CRFs (MH domain) and Adverse Event CRFs (AE domain) could both identify/collect \"Paresthesia of the left arm\". In both domains, the --CAT variable could have the value of \"NEUROTOXICITY\".", "figure_ref": null, "candidates": [{"md_atom_id": "md_ch04_a228", "md_file": "knowledge_base/chapters/ch04_general_assumptions.md", "md_atom_type": "LIST_ITEM", "md_parent_section": "§4.2.6 [Grouping Variables and Categorization]", "md_verbatim": "   a. Cases where different domains in the same general observation class contain similar conceptual information. Adverse Events (AE), Medical History (MH), and Clinical Events (CE), for example, are conceptually the same data, the only differences being when the event started relative to the study start and whether the event is considered a regulatory-reportable adverse event in the study. Neurotoxicities collected in oncology trials both as separate Medical History CRFs (MH domain) and Adverse Event CRFs (AE domain) could both identify/collect \"Paresthesia of the left arm\". In both domains, the --CAT variable could have the value of \"NEUROTOXICITY\".", "score": 0.9, "match_basis": "verbatim_token+chapter_route:ch04"}, {"md_atom_id": "md_ch04_a229", "md_file": "knowledge_base/chapters/ch04_general_assumptions.md", "md_atom_type": "LIST_ITEM", "md_parent_section": "§4.2.6 [Grouping Variables and Categorization]", "md_verbatim": "   b. Cases where multiple datasets are necessary to capture data about the same topic. Following the oncology example, the existence and start and stop date of paresthesia of the left arm may be reported as an adverse event (AE domain), whereas the severity of the event is captured at multiple visits and recorded as Findings About (FA dataset). In both cases the --CAT variable could have a value of \"NEUROTOXICITY\".", "score": 0.5223, "match_basis": "verbatim_token+chapter_route:ch04"}, {"md_atom_id": "md_ch04_a1024", "md_file": "knowledge_base/chapters/ch04_general_assumptions.md", "md_atom_type": "LIST_ITEM", "md_parent_section": "§4.5.8 [Accounting for Long-term Follow-up]", "md_verbatim": "3. The disposition of the subject at the time of the final follow-up contact should be stored in DS. Note that overall study conclusion is the point where any contact with the subject ceases, which in this example is also the conclusion of long-term follow-up. The disposition of the subject at the conclusion of the 2-month clinical treatment phase would be stored in DS as the conclusion to that epoch. Long-term follow-up would be represented as a separate epoch. Therefore, in this example the subject could have 3 disposition records in DS, with both the follow-up epoch disposition and the overall study conclusion disposition being collected at the final telephone contact. See Section 6.2.4, Disposition, for detailed assumptions and examples.", "score": 0.4392, "match_basis": "verbatim_token+chapter_route:ch04"}, {"md_atom_id": "md_ch04_a227", "md_file": "knowledge_base/chapters/ch04_general_assumptions.md", "md_atom_type": "LIST_ITEM", "md_parent_section": "§4.2.6 [Grouping Variables and Categorization]", "md_verbatim": "3. --CAT (Category) and --SCAT (Sub-category) values further subset groups within the domain. Generally, --CAT/--SCAT values have meaning within a particular domain. However, it is possible to use the same values for --CAT/--SCAT in related domains (e.g., MH and AE). When values are used across domains, the meanings should be the same. Examples of where --CAT/--SCAT may have meaning across domains/datasets include:", "score": 0.4277, "match_basis": "verbatim_token+chapter_route:ch04"}, {"md_atom_id": "md_ch04_a915", "md_file": "knowledge_base/chapters/ch04_general_assumptions.md", "md_atom_type": "LIST_ITEM", "md_parent_section": "§4.5.3.2 [Text Strings Greater than 200 Characters in Other Variables]", "md_verbatim": "  - In cases where the standard domain variable name is already 8 characters in length, sponsors should **replace the last character with a digit** when creating values for QNAM; for example, for Other Action Taken in Adverse Events (AEACNOTH), values for QNAM for the SUPPAE records would have the values AEACNOT1, AEACNOT2, and so on", "score": 0.4228, "match_basis": "verbatim_token+chapter_route:ch04"}], "candidate_count": 5, "zero_candidate": false}
{"pdf_atom_id": "ig34_p0030_a011", "pdf_atom_type": "LIST_ITEM", "pdf_source": "SDTMIG_v3.4", "pdf_page": 30, "pdf_parent_section": "§4.2.6 [Grouping Variables and Categorization]", "pdf_verbatim": "Cases where multiple datasets are necessary to capture data about the same topic. Following the oncology example, the existence and start and stop date of paresthesia of the left arm may be reported as an adverse event (AE domain), whereas the severity of the event is captured at multiple visits and recorded as Findings About (FA dataset). In both cases the --CAT variable could have a value of \"NEUROTOXICITY\".", "figure_ref": null, "candidates": [{"md_atom_id": "md_ch04_a229", "md_file": "knowledge_base/chapters/ch04_general_assumptions.md", "md_atom_type": "LIST_ITEM", "md_parent_section": "§4.2.6 [Grouping Variables and Categorization]", "md_verbatim": "   b. Cases where multiple datasets are necessary to capture data about the same topic. Following the oncology example, the existence and start and stop date of paresthesia of the left arm may be reported as an adverse event (AE domain), whereas the severity of the event is captured at multiple visits and recorded as Findings About (FA dataset). In both cases the --CAT variable could have a value of \"NEUROTOXICITY\".", "score": 0.9, "match_basis": "verbatim_token+chapter_route:ch04"}, {"md_atom_id": "md_ch04_a228", "md_file": "knowledge_base/chapters/ch04_general_assumptions.md", "md_atom_type": "LIST_ITEM", "md_parent_section": "§4.2.6 [Grouping Variables and Categorization]", "md_verbatim": "   a. Cases where different domains in the same general observation class contain similar conceptual information. Adverse Events (AE), Medical History (MH), and Clinical Events (CE), for example, are conceptually the same data, the only differences being when the event started relative to the study start and whether the event is considered a regulatory-reportable adverse event in the study. Neurotoxicities collected in oncology trials both as separate Medical History CRFs (MH domain) and Adverse Event CRFs (AE domain) could both identify/collect \"Paresthesia of the left arm\". In both domains, the --CAT variable could have the value of \"NEUROTOXICITY\".", "score": 0.5223, "match_basis": "verbatim_token+chapter_route:ch04"}, {"md_atom_id": "md_ch04_a230", "md_file": "knowledge_base/chapters/ch04_general_assumptions.md", "md_atom_type": "LIST_ITEM", "md_parent_section": "§4.2.6 [Grouping Variables and Categorization]", "md_verbatim": "   c. Cases where multiple domains are necessary to capture data that were collected together and have an implicit relationship, perhaps identified in the Related Records (RELREC) special-purpose dataset. Stress-test data collection may capture the following:", "score": 0.4731, "match_basis": "verbatim_token+chapter_route:ch04"}, {"md_atom_id": "md_ch04_a915", "md_file": "knowledge_base/chapters/ch04_general_assumptions.md", "md_atom_type": "LIST_ITEM", "md_parent_section": "§4.5.3.2 [Text Strings Greater than 200 Characters in Other Variables]", "md_verbatim": "  - In cases where the standard domain variable name is already 8 characters in length, sponsors should **replace the last character with a digit** when creating values for QNAM; for example, for Other Action Taken in Adverse Events (AEACNOTH), values for QNAM for the SUPPAE records would have the values AEACNOT1, AEACNOT2, and so on", "score": 0.4346, "match_basis": "verbatim_token+chapter_route:ch04"}, {"md_atom_id": "md_ch04_a227", "md_file": "knowledge_base/chapters/ch04_general_assumptions.md", "md_atom_type": "LIST_ITEM", "md_parent_section": "§4.2.6 [Grouping Variables and Categorization]", "md_verbatim": "3. --CAT (Category) and --SCAT (Sub-category) values further subset groups within the domain. Generally, --CAT/--SCAT values have meaning within a particular domain. However, it is possible to use the same values for --CAT/--SCAT in related domains (e.g., MH and AE). When values are used across domains, the meanings should be the same. Examples of where --CAT/--SCAT may have meaning across domains/datasets include:", "score": 0.4166, "match_basis": "verbatim_token+chapter_route:ch04"}], "candidate_count": 5, "zero_candidate": false}
{"pdf_atom_id": "ig34_p0030_a012", "pdf_atom_type": "LIST_ITEM", "pdf_source": "SDTMIG_v3.4", "pdf_page": 30, "pdf_parent_section": "§4.2.6 [Grouping Variables and Categorization]", "pdf_verbatim": "Cases where multiple domains are necessary to capture data that were collected together and have an implicit relationship, perhaps identified in the Related Records (RELREC) special-purpose dataset.", "figure_ref": null, "candidates": [{"md_atom_id": "md_ch04_a230", "md_file": "knowledge_base/chapters/ch04_general_assumptions.md", "md_atom_type": "LIST_ITEM", "md_parent_section": "§4.2.6 [Grouping Variables and Categorization]", "md_verbatim": "   c. Cases where multiple domains are necessary to capture data that were collected together and have an implicit relationship, perhaps identified in the Related Records (RELREC) special-purpose dataset. Stress-test data collection may capture the following:", "score": 0.8304, "match_basis": "verbatim_token+chapter_route:ch04"}, {"md_atom_id": "md_ch04_a057", "md_file": "knowledge_base/chapters/ch04_general_assumptions.md", "md_atom_type": "LIST_ITEM", "md_parent_section": "§4.1.7 [Splitting Domains]", "md_verbatim": "4. When relationship datasets (e.g., SUPPxx, FAxx, CO, RELREC) relate back to split parent domains, IDVAR would generally be --SEQ. When IDVAR is a value other than --SEQ (e.g., --GRPID, --REFID, --SPID), care should be used to ensure that the parent records across the split datasets have unique values for the variable specified in IDVAR, so that related children records do not accidentally join back to incorrect parent records.", "score": 0.4633, "match_basis": "verbatim_token+chapter_route:ch04"}, {"md_atom_id": "md_ch04_a242", "md_file": "knowledge_base/chapters/ch04_general_assumptions.md", "md_atom_type": "LIST_ITEM", "md_parent_section": "§4.2.6 [Grouping Variables and Categorization]", "md_verbatim": "- --LNKID is a grouping identifier used to identify a record in one domain that is related to records in another domain, often forming a one-to-many relationship.", "score": 0.4536, "match_basis": "verbatim_token+chapter_route:ch04"}, {"md_atom_id": "md_ch04_a243", "md_file": "knowledge_base/chapters/ch04_general_assumptions.md", "md_atom_type": "LIST_ITEM", "md_parent_section": "§4.2.6 [Grouping Variables and Categorization]", "md_verbatim": "- --LNKGRP is a grouping identifier used to identify a group of records in one domain that is related to a record in another domain, often forming a many-to-one relationship.", "score": 0.4524, "match_basis": "verbatim_token+chapter_route:ch04"}, {"md_atom_id": "md_ch04_a229", "md_file": "knowledge_base/chapters/ch04_general_assumptions.md", "md_atom_type": "LIST_ITEM", "md_parent_section": "§4.2.6 [Grouping Variables and Categorization]", "md_verbatim": "   b. Cases where multiple datasets are necessary to capture data about the same topic. Following the oncology example, the existence and start and stop date of paresthesia of the left arm may be reported as an adverse event (AE domain), whereas the severity of the event is captured at multiple visits and recorded as Findings About (FA dataset). In both cases the --CAT variable could have a value of \"NEUROTOXICITY\".", "score": 0.4492, "match_basis": "verbatim_token+chapter_route:ch04"}], "candidate_count": 5, "zero_candidate": false}
{"pdf_atom_id": "ig34_p0030_a013", "pdf_atom_type": "SENTENCE", "pdf_source": "SDTMIG_v3.4", "pdf_page": 30, "pdf_parent_section": "§4.2.6 [Grouping Variables and Categorization]", "pdf_verbatim": "Stress-test data collection may capture the following:", "figure_ref": null, "candidates": [{"md_atom_id": "md_ch04_a1019", "md_file": "knowledge_base/chapters/ch04_general_assumptions.md", "md_atom_type": "SENTENCE", "md_parent_section": "§4.5.8 [Accounting for Long-term Follow-up]", "md_verbatim": "The answers to certain questions may trigger other data collection.", "score": 0.456, "match_basis": "verbatim_token+chapter_route:ch04"}, {"md_atom_id": "md_ch04_a946", "md_file": "knowledge_base/chapters/ch04_general_assumptions.md", "md_atom_type": "SENTENCE", "md_parent_section": "§4.5.3.2 [Text Strings Greater than 200 Characters in Other Variables]", "md_verbatim": "The following domains have specialized conventions: CO (Section 5.1), IE (Section 6.3.4), TS (Section 7.4.2), and TI (Section 7.4.1).", "score": 0.4333, "match_basis": "verbatim_token+chapter_route:ch04"}, {"md_atom_id": "md_ch04_a234", "md_file": "knowledge_base/chapters/ch04_general_assumptions.md", "md_atom_type": "SENTENCE", "md_parent_section": "§4.2.6 [Grouping Variables and Categorization]", "md_verbatim": "      In such cases, the data collected during the stress tests recorded in 3 separate domains may all have --CAT/--SCAT values (STRESS TEST) that identify that data were collected during the stress test.", "score": 0.4263, "match_basis": "verbatim_token+chapter_route:ch04"}, {"md_atom_id": "md_ch04_a697", "md_file": "knowledge_base/chapters/ch04_general_assumptions.md", "md_atom_type": "SENTENCE", "md_parent_section": "§4.4.9 [Use of Dates as Result Variables]", "md_verbatim": "Consider the following cases:", "score": 0.4263, "match_basis": "verbatim_token+chapter_route:ch04"}, {"md_atom_id": "md_ch04_a682", "md_file": "knowledge_base/chapters/ch04_general_assumptions.md", "md_atom_type": "SENTENCE", "md_parent_section": "§4.4.8 [Date and Time Reported in a Domain Based on Findings]", "md_verbatim": "For any domain based on the Findings general observation class (e.g., lab tests based on a specimen), the collection date is likely to be tied to when the source of the finding was captured, not necessarily when the data were recorded.", "score": 0.4224, "match_basis": "verbatim_token+chapter_route:ch04"}], "candidate_count": 5, "zero_candidate": false}
{"pdf_atom_id": "ig34_p0030_a014", "pdf_atom_type": "LIST_ITEM", "pdf_source": "SDTMIG_v3.4", "pdf_page": 30, "pdf_parent_section": "§4.2.6 [Grouping Variables and Categorization]", "pdf_verbatim": "Information about the occurrence, start, stop, and duration of the test (in the Procedures (PR) domain)", "figure_ref": null, "candidates": [{"md_atom_id": "md_ch04_a231", "md_file": "knowledge_base/chapters/ch04_general_assumptions.md", "md_atom_type": "LIST_ITEM", "md_parent_section": "§4.2.6 [Grouping Variables and Categorization]", "md_verbatim": "      - Information about the occurrence, start, stop, and duration of the test (in the Procedures (PR) domain)", "score": 0.9, "match_basis": "verbatim_token+chapter_route:ch04"}, {"md_atom_id": "md_ch04_a799", "md_file": "knowledge_base/chapters/ch04_general_assumptions.md", "md_atom_type": "LIST_ITEM", "md_parent_section": "§4.4.11 [Disease Milestones and Disease Milestone Timing Variables]", "md_verbatim": "  - RELMIDS would be \"DURING\" for questions about things that may have occurred while an event or intervention disease milestone was in progress", "score": 0.4032, "match_basis": "verbatim_token+chapter_route:ch04"}, {"md_atom_id": "md_ch04_a489", "md_file": "knowledge_base/chapters/ch04_general_assumptions.md", "md_atom_type": "LIST_ITEM", "md_parent_section": "§4.4.1 [Formats for Date/Time Variables]", "md_verbatim": "- [T] = (time designator) indicates time information follows", "score": 0.3937, "match_basis": "verbatim_token+chapter_route:ch04"}, {"md_atom_id": "md_ch04_a232", "md_file": "knowledge_base/chapters/ch04_general_assumptions.md", "md_atom_type": "LIST_ITEM", "md_parent_section": "§4.2.6 [Grouping Variables and Categorization]", "md_verbatim": "      - Vital Signs recorded during the stress test (VS domain)", "score": 0.3885, "match_basis": "verbatim_token+chapter_route:ch04"}, {"md_atom_id": "md_ch04_a187", "md_file": "knowledge_base/chapters/ch04_general_assumptions.md", "md_atom_type": "LIST_ITEM", "md_parent_section": "§4.2.1.2 [--TRT Conventions (Interventions)]", "md_verbatim": "- Contains the verbatim name of the treatment, drug, procedure, or therapy", "score": 0.3882, "match_basis": "verbatim_token+chapter_route:ch04"}], "candidate_count": 5, "zero_candidate": false}
{"pdf_atom_id": "ig34_p0030_a015", "pdf_atom_type": "LIST_ITEM", "pdf_source": "SDTMIG_v3.4", "pdf_page": 30, "pdf_parent_section": "§4.2.6 [Grouping Variables and Categorization]", "pdf_verbatim": "Vital Signs recorded during the stress test (VS domain)", "figure_ref": null, "candidates": [{"md_atom_id": "md_ch04_a232", "md_file": "knowledge_base/chapters/ch04_general_assumptions.md", "md_atom_type": "LIST_ITEM", "md_parent_section": "§4.2.6 [Grouping Variables and Categorization]", "md_verbatim": "      - Vital Signs recorded during the stress test (VS domain)", "score": 0.9, "match_basis": "verbatim_token+chapter_route:ch04"}, {"md_atom_id": "md_ch04_a233", "md_file": "knowledge_base/chapters/ch04_general_assumptions.md", "md_atom_type": "LIST_ITEM", "md_parent_section": "§4.2.6 [Grouping Variables and Categorization]", "md_verbatim": "      - Treatments (e.g., oxygen) administered during the stress test (in an Interventions domain)", "score": 0.4579, "match_basis": "verbatim_token+chapter_route:ch04"}, {"md_atom_id": "md_ch04_a226", "md_file": "knowledge_base/chapters/ch04_general_assumptions.md", "md_atom_type": "LIST_ITEM", "md_parent_section": "§4.2.6 [Grouping Variables and Categorization]", "md_verbatim": "2. All records with the same DOMAIN value are a group of records that describe that domain.", "score": 0.4125, "match_basis": "verbatim_token+chapter_route:ch04"}, {"md_atom_id": "md_ch04_a882", "md_file": "knowledge_base/chapters/ch04_general_assumptions.md", "md_atom_type": "LIST_ITEM", "md_parent_section": "§4.5.1.3 [Examples of Original and Standard Units and Test Not Done]", "md_verbatim": "- **Row 7:** At visit 2, there were no Vital Signs results, as indicated by VSTESTCD = \"VSALL\" and VSSTAT = \"NOT DONE\".", "score": 0.4, "match_basis": "verbatim_token+chapter_route:ch04"}, {"md_atom_id": "md_ch04_a1022", "md_file": "knowledge_base/chapters/ch04_general_assumptions.md", "md_atom_type": "LIST_ITEM", "md_parent_section": "§4.5.8 [Accounting for Long-term Follow-up]", "md_verbatim": "1. Concomitant medications reported during the contact should be stored in the CM domain.", "score": 0.3968, "match_basis": "verbatim_token+chapter_route:ch04"}], "candidate_count": 5, "zero_candidate": false}
{"pdf_atom_id": "ig34_p0030_a016", "pdf_atom_type": "LIST_ITEM", "pdf_source": "SDTMIG_v3.4", "pdf_page": 30, "pdf_parent_section": "§4.2.6 [Grouping Variables and Categorization]", "pdf_verbatim": "Treatments (e.g., oxygen) administered during the stress test (in an Interventions domain)", "figure_ref": null, "candidates": [{"md_atom_id": "md_ch04_a233", "md_file": "knowledge_base/chapters/ch04_general_assumptions.md", "md_atom_type": "LIST_ITEM", "md_parent_section": "§4.2.6 [Grouping Variables and Categorization]", "md_verbatim": "      - Treatments (e.g., oxygen) administered during the stress test (in an Interventions domain)", "score": 0.9, "match_basis": "verbatim_token+chapter_route:ch04"}, {"md_atom_id": "md_ch04_a232", "md_file": "knowledge_base/chapters/ch04_general_assumptions.md", "md_atom_type": "LIST_ITEM", "md_parent_section": "§4.2.6 [Grouping Variables and Categorization]", "md_verbatim": "      - Vital Signs recorded during the stress test (VS domain)", "score": 0.4579, "match_basis": "verbatim_token+chapter_route:ch04"}, {"md_atom_id": "md_ch04_a799", "md_file": "knowledge_base/chapters/ch04_general_assumptions.md", "md_atom_type": "LIST_ITEM", "md_parent_section": "§4.4.11 [Disease Milestones and Disease Milestone Timing Variables]", "md_verbatim": "  - RELMIDS would be \"DURING\" for questions about things that may have occurred while an event or intervention disease milestone was in progress", "score": 0.4239, "match_basis": "verbatim_token+chapter_route:ch04"}, {"md_atom_id": "md_ch04_a1022", "md_file": "knowledge_base/chapters/ch04_general_assumptions.md", "md_atom_type": "LIST_ITEM", "md_parent_section": "§4.5.8 [Accounting for Long-term Follow-up]", "md_verbatim": "1. Concomitant medications reported during the contact should be stored in the CM domain.", "score": 0.4013, "match_basis": "verbatim_token+chapter_route:ch04"}, {"md_atom_id": "md_ch04_a503", "md_file": "knowledge_base/chapters/ch04_general_assumptions.md", "md_atom_type": "LIST_ITEM", "md_parent_section": "§4.4.1 [Formats for Date/Time Variables]", "md_verbatim": "- ISO 8601 represents dates as a text string using the notation YYYY-MM-DD.", "score": 0.3923, "match_basis": "verbatim_token+chapter_route:ch04"}], "candidate_count": 5, "zero_candidate": false}
{"pdf_atom_id": "ig34_p0030_a017", "pdf_atom_type": "SENTENCE", "pdf_source": "SDTMIG_v3.4", "pdf_page": 30, "pdf_parent_section": "§4.2.6 [Grouping Variables and Categorization]", "pdf_verbatim": "In such cases, the data collected during the stress tests recorded in 3 separate domains may all have --CAT/--SCAT values (STRESS TEST) that identify that data were collected during the stress test.", "figure_ref": null, "candidates": [{"md_atom_id": "md_ch04_a234", "md_file": "knowledge_base/chapters/ch04_general_assumptions.md", "md_atom_type": "SENTENCE", "md_parent_section": "§4.2.6 [Grouping Variables and Categorization]", "md_verbatim": "      In such cases, the data collected during the stress tests recorded in 3 separate domains may all have --CAT/--SCAT values (STRESS TEST) that identify that data were collected during the stress test.", "score": 0.9, "match_basis": "verbatim_token+chapter_route:ch04"}, {"md_atom_id": "md_ch04_a240", "md_file": "knowledge_base/chapters/ch04_general_assumptions.md", "md_atom_type": "SENTENCE", "md_parent_section": "§4.2.6 [Grouping Variables and Categorization]", "md_verbatim": "--LNKID and --LNKGRP express values that are used to link records in separate domains.", "score": 0.4747, "match_basis": "verbatim_token+chapter_route:ch04"}, {"md_atom_id": "md_ch04_a133", "md_file": "knowledge_base/chapters/ch04_general_assumptions.md", "md_atom_type": "SENTENCE", "md_parent_section": "§4.1.8.2 [Origin Metadata for Records]", "md_verbatim": "For example, some records in a Findings dataset such as Questionnaires (QS) contain values collected from the CRF; other records may contain derived values, such as a total score.", "score": 0.4458, "match_basis": "verbatim_token+chapter_route:ch04"}, {"md_atom_id": "md_ch04_a434", "md_file": "knowledge_base/chapters/ch04_general_assumptions.md", "md_atom_type": "SENTENCE", "md_parent_section": "§4.3.3 [Controlled Terminology Values]", "md_verbatim": "When a domain or dataset specification includes a codelist for a variable, not every value in that codelist may have been part of planned data collection; only values that were part of planned data collection should be included in the Define-XML document.", "score": 0.4344, "match_basis": "verbatim_token+chapter_route:ch04"}, {"md_atom_id": "md_ch04_a682", "md_file": "knowledge_base/chapters/ch04_general_assumptions.md", "md_atom_type": "SENTENCE", "md_parent_section": "§4.4.8 [Date and Time Reported in a Domain Based on Findings]", "md_verbatim": "For any domain based on the Findings general observation class (e.g., lab tests based on a specimen), the collection date is likely to be tied to when the source of the finding was captured, not necessarily when the data were recorded.", "score": 0.4296, "match_basis": "verbatim_token+chapter_route:ch04"}], "candidate_count": 5, "zero_candidate": false}
{"pdf_atom_id": "ig34_p0030_a018", "pdf_atom_type": "SENTENCE", "pdf_source": "SDTMIG_v3.4", "pdf_page": 30, "pdf_parent_section": "§4.2.6 [Grouping Variables and Categorization]", "pdf_verbatim": "Within subjects (records with the same USUBJID values)", "figure_ref": null, "candidates": [{"md_atom_id": "md_ch04_a235", "md_file": "knowledge_base/chapters/ch04_general_assumptions.md", "md_atom_type": "NOTE", "md_parent_section": "§4.2.6 [Grouping Variables and Categorization]", "md_verbatim": "**Within subjects (records with the same USUBJID values):**", "score": 0.81, "match_basis": "verbatim_token+chapter_route:ch04"}, {"md_atom_id": "md_ch04_a223", "md_file": "knowledge_base/chapters/ch04_general_assumptions.md", "md_atom_type": "SENTENCE", "md_parent_section": "§4.2.6 [Grouping Variables and Categorization]", "md_verbatim": "All records with the same USUBJID value are a group of records that describe that subject.", "score": 0.6316, "match_basis": "verbatim_token+chapter_route:ch04"}, {"md_atom_id": "md_ch04_a237", "md_file": "knowledge_base/chapters/ch04_general_assumptions.md", "md_atom_type": "SENTENCE", "md_parent_section": "§4.2.6 [Grouping Variables and Categorization]", "md_verbatim": "All records in the same domain with the same --GRPID value are a group of records within USUBJID.", "score": 0.6243, "match_basis": "verbatim_token+chapter_route:ch04"}, {"md_atom_id": "md_ch04_a236", "md_file": "knowledge_base/chapters/ch04_general_assumptions.md", "md_atom_type": "SENTENCE", "md_parent_section": "§4.2.6 [Grouping Variables and Categorization]", "md_verbatim": "--GRPID values further group (subset) records within USUBJID.", "score": 0.6, "match_basis": "verbatim_token+chapter_route:ch04"}, {"md_atom_id": "md_ch04_a224", "md_file": "knowledge_base/chapters/ch04_general_assumptions.md", "md_atom_type": "NOTE", "md_parent_section": "§4.2.6 [Grouping Variables and Categorization]", "md_verbatim": "**Across subjects (records with different USUBJID values):**", "score": 0.5433, "match_basis": "verbatim_token+chapter_route:ch04"}], "candidate_count": 5, "zero_candidate": false}
{"pdf_atom_id": "ig34_p0030_a019", "pdf_atom_type": "LIST_ITEM", "pdf_source": "SDTMIG_v3.4", "pdf_page": 30, "pdf_parent_section": "§4.2.6 [Grouping Variables and Categorization]", "pdf_verbatim": "--GRPID values further group (subset) records within USUBJID. All records in the same domain with the same --GRPID value are a group of records within USUBJID. Unlike --CAT and --SCAT, --GRPID values are not intended to have any meaning across subjects and are usually assigned during or after data collection.", "figure_ref": null, "candidates": [{"md_atom_id": "md_ch04_a238", "md_file": "knowledge_base/chapters/ch04_general_assumptions.md", "md_atom_type": "SENTENCE", "md_parent_section": "§4.2.6 [Grouping Variables and Categorization]", "md_verbatim": "Unlike --CAT and --SCAT, --GRPID values are not intended to have any meaning across subjects and are usually assigned during or after data collection.", "score": 0.6313, "match_basis": "verbatim_token+chapter_route:ch04"}, {"md_atom_id": "md_ch04_a249", "md_file": "knowledge_base/chapters/ch04_general_assumptions.md", "md_atom_type": "LIST_ITEM", "md_parent_section": "§4.2.6 [Grouping Variables and Categorization]", "md_verbatim": "4. --GRPID is usually assigned during or after data collection at the discretion of the sponsor.", "score": 0.4829, "match_basis": "verbatim_token+chapter_route:ch04"}, {"md_atom_id": "md_ch04_a227", "md_file": "knowledge_base/chapters/ch04_general_assumptions.md", "md_atom_type": "LIST_ITEM", "md_parent_section": "§4.2.6 [Grouping Variables and Categorization]", "md_verbatim": "3. --CAT (Category) and --SCAT (Sub-category) values further subset groups within the domain. Generally, --CAT/--SCAT values have meaning within a particular domain. However, it is possible to use the same values for --CAT/--SCAT in related domains (e.g., MH and AE). When values are used across domains, the meanings should be the same. Examples of where --CAT/--SCAT may have meaning across domains/datasets include:", "score": 0.4804, "match_basis": "verbatim_token+chapter_route:ch04"}, {"md_atom_id": "md_ch04_a056", "md_file": "knowledge_base/chapters/ch04_general_assumptions.md", "md_atom_type": "LIST_ITEM", "md_parent_section": "§4.1.7 [Splitting Domains]", "md_verbatim": "3. --SEQ must be unique within USUBJID for all records across all the split datasets. If there are 1000 records for a USUBJID across the separate datasets, all 1000 records need unique values for --SEQ.", "score": 0.4462, "match_basis": "verbatim_token+chapter_route:ch04"}, {"md_atom_id": "md_ch04_a247", "md_file": "knowledge_base/chapters/ch04_general_assumptions.md", "md_atom_type": "LIST_ITEM", "md_parent_section": "§4.2.6 [Grouping Variables and Categorization]", "md_verbatim": "2. --CAT/--SCAT values group data across subjects.", "score": 0.434, "match_basis": "verbatim_token+chapter_route:ch04"}], "candidate_count": 5, "zero_candidate": false}
{"pdf_atom_id": "ig34_p0031_a001", "pdf_atom_type": "SENTENCE", "pdf_source": "SDTMIG_v3.4", "pdf_page": 31, "pdf_parent_section": "§4.2.6 Grouping Variables", "pdf_verbatim": "Although --SPID and --REFID are Identifier variables, they may sometimes be used as grouping variables and may also have meaning across domains.", "figure_ref": null, "candidates": [{"md_atom_id": "md_ch04_a239", "md_file": "knowledge_base/chapters/ch04_general_assumptions.md", "md_atom_type": "SENTENCE", "md_parent_section": "§4.2.6 [Grouping Variables and Categorization]", "md_verbatim": "Although --SPID and --REFID are Identifier variables, they may sometimes be used as grouping variables and may also have meaning across domains.", "score": 0.9, "match_basis": "verbatim_token+chapter_route:ch04"}, {"md_atom_id": "md_ch04_a195", "md_file": "knowledge_base/chapters/ch04_general_assumptions.md", "md_atom_type": "SENTENCE", "md_parent_section": "§4.2.2 [Two-character Domain Identifier]", "md_verbatim": "The following variables are exceptions to the philosophy that all variable names are prefixed with the domain identifier:", "score": 0.4562, "match_basis": "verbatim_token+chapter_route:ch04"}, {"md_atom_id": "md_ch04_a200", "md_file": "knowledge_base/chapters/ch04_general_assumptions.md", "md_atom_type": "SENTENCE", "md_parent_section": "§4.2.2 [Two-character Domain Identifier]", "md_verbatim": "Required identifiers are not prefixed because they are usually used as keys when merging/joining observations. The --SEQ and the optional Identifiers --GRPID and --REFID are prefixed because they may be used as keys when relating observations across domains.", "score": 0.4552, "match_basis": "verbatim_token+chapter_route:ch04"}, {"md_atom_id": "md_ch04_a193", "md_file": "knowledge_base/chapters/ch04_general_assumptions.md", "md_atom_type": "SENTENCE", "md_parent_section": "§4.2.2 [Two-character Domain Identifier]", "md_verbatim": "In order to minimize the risk of difficulty when merging/joining domains for reporting purposes, the 2-character domain identifier is used as a prefix in most variable names.", "score": 0.4397, "match_basis": "verbatim_token+chapter_route:ch04"}, {"md_atom_id": "md_ch04_a037", "md_file": "knowledge_base/chapters/ch04_general_assumptions.md", "md_atom_type": "SENTENCE", "md_parent_section": "§4.1.5 [SDTM Core Designations]", "md_verbatim": "Although domain specification tables list only some of the identifier, timing, and general observation class variables listed in the SDTM, all are permissible unless specifically restricted in this implementation guide (see Section 2.7, SDTM Variables Not Allowed in the SDTMIG) or by specific domain assumptions.", "score": 0.4297, "match_basis": "verbatim_token+chapter_route:ch04"}], "candidate_count": 5, "zero_candidate": false}
{"pdf_atom_id": "ig34_p0031_a002", "pdf_atom_type": "SENTENCE", "pdf_source": "SDTMIG_v3.4", "pdf_page": 31, "pdf_parent_section": "§4.2.6 Grouping Variables", "pdf_verbatim": "--LNKID and --LNKGRP express values that are used to link records in separate domains.", "figure_ref": null, "candidates": [{"md_atom_id": "md_ch04_a240", "md_file": "knowledge_base/chapters/ch04_general_assumptions.md", "md_atom_type": "SENTENCE", "md_parent_section": "§4.2.6 [Grouping Variables and Categorization]", "md_verbatim": "--LNKID and --LNKGRP express values that are used to link records in separate domains.", "score": 0.9, "match_basis": "verbatim_token+chapter_route:ch04"}, {"md_atom_id": "md_ch04_a234", "md_file": "knowledge_base/chapters/ch04_general_assumptions.md", "md_atom_type": "SENTENCE", "md_parent_section": "§4.2.6 [Grouping Variables and Categorization]", "md_verbatim": "      In such cases, the data collected during the stress tests recorded in 3 separate domains may all have --CAT/--SCAT values (STRESS TEST) that identify that data were collected during the stress test.", "score": 0.4747, "match_basis": "verbatim_token+chapter_route:ch04"}, {"md_atom_id": "md_ch04_a237", "md_file": "knowledge_base/chapters/ch04_general_assumptions.md", "md_atom_type": "SENTENCE", "md_parent_section": "§4.2.6 [Grouping Variables and Categorization]", "md_verbatim": "All records in the same domain with the same --GRPID value are a group of records within USUBJID.", "score": 0.4474, "match_basis": "verbatim_token+chapter_route:ch04"}, {"md_atom_id": "md_ch04_a971", "md_file": "knowledge_base/chapters/ch04_general_assumptions.md", "md_atom_type": "SENTENCE", "md_parent_section": "§4.5.5 [Clinical Significance for Findings Observation Class Data]", "md_verbatim": "Separate from clinical significance are results of \"NORMAL\" or \"ABNORMAL\", or lab values that are out of normal range.", "score": 0.4286, "match_basis": "verbatim_token+chapter_route:ch04"}, {"md_atom_id": "md_ch04_a223", "md_file": "knowledge_base/chapters/ch04_general_assumptions.md", "md_atom_type": "SENTENCE", "md_parent_section": "§4.2.6 [Grouping Variables and Categorization]", "md_verbatim": "All records with the same USUBJID value are a group of records that describe that subject.", "score": 0.4065, "match_basis": "verbatim_token+chapter_route:ch04"}], "candidate_count": 5, "zero_candidate": false}
{"pdf_atom_id": "ig34_p0031_a003", "pdf_atom_type": "SENTENCE", "pdf_source": "SDTMIG_v3.4", "pdf_page": 31, "pdf_parent_section": "§4.2.6 Grouping Variables", "pdf_verbatim": "As such, these variables are often used in IDVAR in a RELREC relationship when there is a dataset-to-dataset relationship.", "figure_ref": null, "candidates": [{"md_atom_id": "md_ch04_a241", "md_file": "knowledge_base/chapters/ch04_general_assumptions.md", "md_atom_type": "SENTENCE", "md_parent_section": "§4.2.6 [Grouping Variables and Categorization]", "md_verbatim": "As such, these variables are often used in IDVAR in a RELREC relationship when there is a dataset-to-dataset relationship.", "score": 0.9, "match_basis": "verbatim_token+chapter_route:ch04"}, {"md_atom_id": "md_ch04_a015", "md_file": "knowledge_base/chapters/ch04_general_assumptions.md", "md_atom_type": "SENTENCE", "md_parent_section": "§4.1.3 [Additional Timing Variables]", "md_verbatim": "Timing variables cannot be added to SUPPQUAL datasets or to RELREC (described in Section 8, Representing Relationships and Data).", "score": 0.495, "match_basis": "verbatim_token+chapter_route:ch04"}, {"md_atom_id": "md_ch04_a789", "md_file": "knowledge_base/chapters/ch04_general_assumptions.md", "md_atom_type": "SENTENCE", "md_parent_section": "§4.4.11 [Disease Milestones and Disease Milestone Timing Variables]", "md_verbatim": "For an observation triggered by the occurrence of a disease milestone, the relationship of the observation to the disease milestone can be represented using the disease milestone timing variables MIDS, RELMIDS, and MIDSDTC:", "score": 0.4313, "match_basis": "verbatim_token+chapter_route:ch04"}, {"md_atom_id": "md_ch04_a703", "md_file": "knowledge_base/chapters/ch04_general_assumptions.md", "md_atom_type": "SENTENCE", "md_parent_section": "§4.4.9 [Use of Dates as Result Variables]", "md_verbatim": "Remember, in most cases, these dates should be timing variables associated with a record in an Intervention or Events dataset.", "score": 0.4286, "match_basis": "verbatim_token+chapter_route:ch04"}, {"md_atom_id": "md_ch04_a694", "md_file": "knowledge_base/chapters/ch04_general_assumptions.md", "md_atom_type": "SENTENCE", "md_parent_section": "§4.4.9 [Use of Dates as Result Variables]", "md_verbatim": "Dates are generally used only as timing variables to describe the timing of an event, intervention, or collection activity, but there may be occasions when it may be preferable to model a date as a result (--ORRES) in a Findings dataset.", "score": 0.4266, "match_basis": "verbatim_token+chapter_route:ch04"}], "candidate_count": 5, "zero_candidate": false}
{"pdf_atom_id": "ig34_p0031_a004", "pdf_atom_type": "LIST_ITEM", "pdf_source": "SDTMIG_v3.4", "pdf_page": 31, "pdf_parent_section": "§4.2.6 Grouping Variables", "pdf_verbatim": "--LNKID is a grouping identifier used to identify a record in one domain that is related to records in another domain, often forming a one-to-many relationship.", "figure_ref": null, "candidates": [{"md_atom_id": "md_ch04_a242", "md_file": "knowledge_base/chapters/ch04_general_assumptions.md", "md_atom_type": "LIST_ITEM", "md_parent_section": "§4.2.6 [Grouping Variables and Categorization]", "md_verbatim": "- --LNKID is a grouping identifier used to identify a record in one domain that is related to records in another domain, often forming a one-to-many relationship.", "score": 0.9, "match_basis": "verbatim_token+chapter_route:ch04"}, {"md_atom_id": "md_ch04_a243", "md_file": "knowledge_base/chapters/ch04_general_assumptions.md", "md_atom_type": "LIST_ITEM", "md_parent_section": "§4.2.6 [Grouping Variables and Categorization]", "md_verbatim": "- --LNKGRP is a grouping identifier used to identify a group of records in one domain that is related to a record in another domain, often forming a many-to-one relationship.", "score": 0.8508, "match_basis": "verbatim_token+chapter_route:ch04"}, {"md_atom_id": "md_ch04_a230", "md_file": "knowledge_base/chapters/ch04_general_assumptions.md", "md_atom_type": "LIST_ITEM", "md_parent_section": "§4.2.6 [Grouping Variables and Categorization]", "md_verbatim": "   c. Cases where multiple domains are necessary to capture data that were collected together and have an implicit relationship, perhaps identified in the Related Records (RELREC) special-purpose dataset. Stress-test data collection may capture the following:", "score": 0.4445, "match_basis": "verbatim_token+chapter_route:ch04"}, {"md_atom_id": "md_ch04_a057", "md_file": "knowledge_base/chapters/ch04_general_assumptions.md", "md_atom_type": "LIST_ITEM", "md_parent_section": "§4.1.7 [Splitting Domains]", "md_verbatim": "4. When relationship datasets (e.g., SUPPxx, FAxx, CO, RELREC) relate back to split parent domains, IDVAR would generally be --SEQ. When IDVAR is a value other than --SEQ (e.g., --GRPID, --REFID, --SPID), care should be used to ensure that the parent records across the split datasets have unique values for the variable specified in IDVAR, so that related children records do not accidentally join back to incorrect parent records.", "score": 0.4373, "match_basis": "verbatim_token+chapter_route:ch04"}, {"md_atom_id": "md_ch04_a812", "md_file": "knowledge_base/chapters/ch04_general_assumptions.md", "md_atom_type": "LIST_ITEM", "md_parent_section": "§4.4.11 [Disease Milestones and Disease Milestone Timing Variables]", "md_verbatim": "- RELREC indicates that there is a relationship between records or datasets, but not the nature of the relationship; records with the same MIDS value are related to the same disease milestone", "score": 0.434, "match_basis": "verbatim_token+chapter_route:ch04"}], "candidate_count": 5, "zero_candidate": false}
{"pdf_atom_id": "ig34_p0031_a005", "pdf_atom_type": "LIST_ITEM", "pdf_source": "SDTMIG_v3.4", "pdf_page": 31, "pdf_parent_section": "§4.2.6 Grouping Variables", "pdf_verbatim": "--LNKGRP is a grouping identifier used to identify a group of records in one domain that is related to a record in another domain, often forming a many-to-one relationship.", "figure_ref": null, "candidates": [{"md_atom_id": "md_ch04_a243", "md_file": "knowledge_base/chapters/ch04_general_assumptions.md", "md_atom_type": "LIST_ITEM", "md_parent_section": "§4.2.6 [Grouping Variables and Categorization]", "md_verbatim": "- --LNKGRP is a grouping identifier used to identify a group of records in one domain that is related to a record in another domain, often forming a many-to-one relationship.", "score": 0.9, "match_basis": "verbatim_token+chapter_route:ch04"}, {"md_atom_id": "md_ch04_a242", "md_file": "knowledge_base/chapters/ch04_general_assumptions.md", "md_atom_type": "LIST_ITEM", "md_parent_section": "§4.2.6 [Grouping Variables and Categorization]", "md_verbatim": "- --LNKID is a grouping identifier used to identify a record in one domain that is related to records in another domain, often forming a one-to-many relationship.", "score": 0.8508, "match_basis": "verbatim_token+chapter_route:ch04"}, {"md_atom_id": "md_ch04_a230", "md_file": "knowledge_base/chapters/ch04_general_assumptions.md", "md_atom_type": "LIST_ITEM", "md_parent_section": "§4.2.6 [Grouping Variables and Categorization]", "md_verbatim": "   c. Cases where multiple domains are necessary to capture data that were collected together and have an implicit relationship, perhaps identified in the Related Records (RELREC) special-purpose dataset. Stress-test data collection may capture the following:", "score": 0.4435, "match_basis": "verbatim_token+chapter_route:ch04"}, {"md_atom_id": "md_ch04_a057", "md_file": "knowledge_base/chapters/ch04_general_assumptions.md", "md_atom_type": "LIST_ITEM", "md_parent_section": "§4.1.7 [Splitting Domains]", "md_verbatim": "4. When relationship datasets (e.g., SUPPxx, FAxx, CO, RELREC) relate back to split parent domains, IDVAR would generally be --SEQ. When IDVAR is a value other than --SEQ (e.g., --GRPID, --REFID, --SPID), care should be used to ensure that the parent records across the split datasets have unique values for the variable specified in IDVAR, so that related children records do not accidentally join back to incorrect parent records.", "score": 0.4412, "match_basis": "verbatim_token+chapter_route:ch04"}, {"md_atom_id": "md_ch04_a812", "md_file": "knowledge_base/chapters/ch04_general_assumptions.md", "md_atom_type": "LIST_ITEM", "md_parent_section": "§4.4.11 [Disease Milestones and Disease Milestone Timing Variables]", "md_verbatim": "- RELREC indicates that there is a relationship between records or datasets, but not the nature of the relationship; records with the same MIDS value are related to the same disease milestone", "score": 0.4327, "match_basis": "verbatim_token+chapter_route:ch04"}], "candidate_count": 5, "zero_candidate": false}
{"pdf_atom_id": "ig34_p0031_a006", "pdf_atom_type": "HEADING", "pdf_source": "SDTMIG_v3.4", "pdf_page": 31, "pdf_parent_section": "§4.2.6 Grouping Variables", "pdf_verbatim": "Differences Between Grouping Variables", "figure_ref": null, "candidates": [{"md_atom_id": "md_ch04_a244", "md_file": "knowledge_base/chapters/ch04_general_assumptions.md", "md_atom_type": "HEADING", "md_parent_section": "§4.2.6 [Grouping Variables and Categorization]", "md_verbatim": "#### Differences Between Grouping Variables", "score": 0.9, "match_basis": "verbatim_token+chapter_route:ch04"}, {"md_atom_id": "md_ch04_a221", "md_file": "knowledge_base/chapters/ch04_general_assumptions.md", "md_atom_type": "HEADING", "md_parent_section": "§4.2.6 [Grouping Variables and Categorization]", "md_verbatim": "#### How Grouping Variables Group Data", "score": 0.56, "match_basis": "verbatim_token+chapter_route:ch04"}, {"md_atom_id": "md_ch04_a219", "md_file": "knowledge_base/chapters/ch04_general_assumptions.md", "md_atom_type": "HEADING", "md_parent_section": "§4.2.6 [Grouping Variables and Categorization]", "md_verbatim": "#### Hierarchy of Grouping Variables", "score": 0.5294, "match_basis": "verbatim_token+chapter_route:ch04"}, {"md_atom_id": "md_ch04_a217", "md_file": "knowledge_base/chapters/ch04_general_assumptions.md", "md_atom_type": "HEADING", "md_parent_section": "§4.2 [General Variable Assumptions]", "md_verbatim": "### 4.2.6 Grouping Variables and Categorization", "score": 0.495, "match_basis": "verbatim_token+chapter_route:ch04"}, {"md_atom_id": "md_ch04_a027", "md_file": "knowledge_base/chapters/ch04_general_assumptions.md", "md_atom_type": "HEADING", "md_parent_section": "§4.1 [General Domain Assumptions]", "md_verbatim": "### 4.1.4 Order of the Variables", "score": 0.4355, "match_basis": "verbatim_token+chapter_route:ch04"}], "candidate_count": 5, "zero_candidate": false}
{"pdf_atom_id": "ig34_p0031_a007", "pdf_atom_type": "SENTENCE", "pdf_source": "SDTMIG_v3.4", "pdf_page": 31, "pdf_parent_section": "§4.2.6 Grouping Variables", "pdf_verbatim": "The primary distinctions between --CAT/--SCAT and --GRPID are:", "figure_ref": null, "candidates": [{"md_atom_id": "md_ch04_a245", "md_file": "knowledge_base/chapters/ch04_general_assumptions.md", "md_atom_type": "SENTENCE", "md_parent_section": "§4.2.6 [Grouping Variables and Categorization]", "md_verbatim": "The primary distinctions between --CAT/--SCAT and --GRPID are:", "score": 0.9, "match_basis": "verbatim_token+chapter_route:ch04"}, {"md_atom_id": "md_ch04_a637", "md_file": "knowledge_base/chapters/ch04_general_assumptions.md", "md_atom_type": "SENTENCE", "md_parent_section": "§4.4.7 [Use of Relative Timing Variables]", "md_verbatim": "**Caution on mixing collected and derived values:** Sponsors are cautioned that deriving --STRF and --ENRF for analysis or reporting purposes even when dates are collected may blur the distinction between collected and derived values within the domain.", "score": 0.4059, "match_basis": "verbatim_token+chapter_route:ch04"}, {"md_atom_id": "md_ch04_a333", "md_file": "knowledge_base/chapters/ch04_general_assumptions.md", "md_atom_type": "SENTENCE", "md_parent_section": "§4.2.7.3 [\"Specify\" Values for Topic Variables]", "md_verbatim": "--TERM should be populated with the description of the event found in the specified text and --PRESP could be used to distinguish between prespecified and free-text responses.", "score": 0.4024, "match_basis": "verbatim_token+chapter_route:ch04"}, {"md_atom_id": "md_ch04_a959", "md_file": "knowledge_base/chapters/ch04_general_assumptions.md", "md_atom_type": "SENTENCE", "md_parent_section": "§4.5.4 [Evaluators in the Interventions and Events Observation Classes]", "md_verbatim": "The evaluations of the adverse event by the primary investigator were represented in the standard AE dataset.", "score": 0.393, "match_basis": "verbatim_token+chapter_route:ch04"}, {"md_atom_id": "md_ch04_a319", "md_file": "knowledge_base/chapters/ch04_general_assumptions.md", "md_atom_type": "SENTENCE", "md_parent_section": "§4.2.7.3 [\"Specify\" Values for Topic Variables]", "md_verbatim": "If the sponsor wishes to distinguish between the prespecified list of treatments and those recorded in \"Other, Specify,\" the --PRESP variable could be used.", "score": 0.3878, "match_basis": "verbatim_token+chapter_route:ch04"}], "candidate_count": 5, "zero_candidate": false}
{"pdf_atom_id": "ig34_p0031_a008", "pdf_atom_type": "LIST_ITEM", "pdf_source": "SDTMIG_v3.4", "pdf_page": 31, "pdf_parent_section": "§4.2.6 Grouping Variables", "pdf_verbatim": "--CAT/--SCAT are known (identified) about the data before it is collected.", "figure_ref": null, "candidates": [{"md_atom_id": "md_ch04_a246", "md_file": "knowledge_base/chapters/ch04_general_assumptions.md", "md_atom_type": "LIST_ITEM", "md_parent_section": "§4.2.6 [Grouping Variables and Categorization]", "md_verbatim": "1. --CAT/--SCAT are known (identified) about the data before it is collected.", "score": 0.9, "match_basis": "verbatim_token+chapter_route:ch04"}, {"md_atom_id": "md_ch04_a841", "md_file": "knowledge_base/chapters/ch04_general_assumptions.md", "md_atom_type": "LIST_ITEM", "md_parent_section": "§4.5.1.3 [Examples of Original and Standard Units and Test Not Done]", "md_verbatim": "- **Row 7:** A result was derived from multiple results, so LBDRVFL = \"Y\". Note that the original collected data are not shown in this example.", "score": 0.3986, "match_basis": "verbatim_token+chapter_route:ch04"}, {"md_atom_id": "md_ch04_a230", "md_file": "knowledge_base/chapters/ch04_general_assumptions.md", "md_atom_type": "LIST_ITEM", "md_parent_section": "§4.2.6 [Grouping Variables and Categorization]", "md_verbatim": "   c. Cases where multiple domains are necessary to capture data that were collected together and have an implicit relationship, perhaps identified in the Related Records (RELREC) special-purpose dataset. Stress-test data collection may capture the following:", "score": 0.3919, "match_basis": "verbatim_token+chapter_route:ch04"}, {"md_atom_id": "md_ch04_a819", "md_file": "knowledge_base/chapters/ch04_general_assumptions.md", "md_atom_type": "LIST_ITEM", "md_parent_section": "§4.5.1 [Original and Standardized Results]", "md_verbatim": "- --ORRES: always the originally collected/reported value", "score": 0.3889, "match_basis": "verbatim_token+chapter_route:ch04"}, {"md_atom_id": "md_ch04_a685", "md_file": "knowledge_base/chapters/ch04_general_assumptions.md", "md_atom_type": "LIST_ITEM", "md_parent_section": "§4.4.8 [Date and Time Reported in a Domain Based on Findings]", "md_verbatim": "- For **single-point blood collections or spot urine collections**: use **LBDTC** for the date/time of collection", "score": 0.3842, "match_basis": "verbatim_token+chapter_route:ch04"}], "candidate_count": 5, "zero_candidate": false}
{"pdf_atom_id": "ig34_p0031_a009", "pdf_atom_type": "LIST_ITEM", "pdf_source": "SDTMIG_v3.4", "pdf_page": 31, "pdf_parent_section": "§4.2.6 Grouping Variables", "pdf_verbatim": "--CAT/--SCAT values group data across subjects.", "figure_ref": null, "candidates": [{"md_atom_id": "md_ch04_a247", "md_file": "knowledge_base/chapters/ch04_general_assumptions.md", "md_atom_type": "LIST_ITEM", "md_parent_section": "§4.2.6 [Grouping Variables and Categorization]", "md_verbatim": "2. --CAT/--SCAT values group data across subjects.", "score": 0.9, "match_basis": "verbatim_token+chapter_route:ch04"}, {"md_atom_id": "md_ch04_a250", "md_file": "knowledge_base/chapters/ch04_general_assumptions.md", "md_atom_type": "LIST_ITEM", "md_parent_section": "§4.2.6 [Grouping Variables and Categorization]", "md_verbatim": "5. --GRPID groups data only within a subject.", "score": 0.4935, "match_basis": "verbatim_token+chapter_route:ch04"}, {"md_atom_id": "md_ch04_a056", "md_file": "knowledge_base/chapters/ch04_general_assumptions.md", "md_atom_type": "LIST_ITEM", "md_parent_section": "§4.1.7 [Splitting Domains]", "md_verbatim": "3. --SEQ must be unique within USUBJID for all records across all the split datasets. If there are 1000 records for a USUBJID across the separate datasets, all 1000 records need unique values for --SEQ.", "score": 0.4143, "match_basis": "verbatim_token+chapter_route:ch04"}, {"md_atom_id": "md_ch04_a679", "md_file": "knowledge_base/chapters/ch04_general_assumptions.md", "md_atom_type": "LIST_ITEM", "md_parent_section": "§4.4.7 [Use of Relative Timing Variables]", "md_verbatim": "- AEENTPT = final subject contact date (e.g., \"2006-11-02\")", "score": 0.3973, "match_basis": "verbatim_token+chapter_route:ch04"}, {"md_atom_id": "md_ch04_a251", "md_file": "knowledge_base/chapters/ch04_general_assumptions.md", "md_atom_type": "LIST_ITEM", "md_parent_section": "§4.2.6 [Grouping Variables and Categorization]", "md_verbatim": "6. --GRPID values are sponsor-defined, and will not be subject to controlled terminology.", "score": 0.3964, "match_basis": "verbatim_token+chapter_route:ch04"}], "candidate_count": 5, "zero_candidate": false}
{"pdf_atom_id": "ig34_p0031_a010", "pdf_atom_type": "LIST_ITEM", "pdf_source": "SDTMIG_v3.4", "pdf_page": 31, "pdf_parent_section": "§4.2.6 Grouping Variables", "pdf_verbatim": "--CAT/--SCAT may have some controlled terminology.", "figure_ref": null, "candidates": [{"md_atom_id": "md_ch04_a248", "md_file": "knowledge_base/chapters/ch04_general_assumptions.md", "md_atom_type": "LIST_ITEM", "md_parent_section": "§4.2.6 [Grouping Variables and Categorization]", "md_verbatim": "3. --CAT/--SCAT may have some controlled terminology.", "score": 0.9, "match_basis": "verbatim_token+chapter_route:ch04"}, {"md_atom_id": "md_ch04_a995", "md_file": "knowledge_base/chapters/ch04_general_assumptions.md", "md_atom_type": "SENTENCE", "md_parent_section": "§4.5.7 [Presence or Absence of Prespecified Interventions and Events]", "md_verbatim": "It has controlled terminology of \"Y\" and \"N\" (for \"Yes\" and \"No\").", "score": 0.5743, "match_basis": "verbatim_token+chapter_route:ch04"}, {"md_atom_id": "md_ch04_a185", "md_file": "knowledge_base/chapters/ch04_general_assumptions.md", "md_atom_type": "LIST_ITEM", "md_parent_section": "§4.2.1.1 [--TEST and --TESTCD Conventions (Findings)]", "md_verbatim": "- Both are subject to controlled terminology where available", "score": 0.5429, "match_basis": "verbatim_token+chapter_route:ch04"}, {"md_atom_id": "md_ch04_a991", "md_file": "knowledge_base/chapters/ch04_general_assumptions.md", "md_atom_type": "SENTENCE", "md_parent_section": "§4.5.7 [Presence or Absence of Prespecified Interventions and Events]", "md_verbatim": "It has controlled terminology of \"Y\" (for \"Yes\") or a null value.", "score": 0.5287, "match_basis": "verbatim_token+chapter_route:ch04"}, {"md_atom_id": "md_ch04_a416", "md_file": "knowledge_base/chapters/ch04_general_assumptions.md", "md_atom_type": "LIST_ITEM", "md_parent_section": "§4.2.9 [Variable Lengths]", "md_verbatim": "    - The length for variables that use controlled terminology can be set to the length of the longest term.", "score": 0.517, "match_basis": "verbatim_token+chapter_route:ch04"}], "candidate_count": 5, "zero_candidate": false}
{"pdf_atom_id": "ig34_p0031_a011", "pdf_atom_type": "LIST_ITEM", "pdf_source": "SDTMIG_v3.4", "pdf_page": 31, "pdf_parent_section": "§4.2.6 Grouping Variables", "pdf_verbatim": "--GRPID is usually assigned during or after data collection at the discretion of the sponsor.", "figure_ref": null, "candidates": [{"md_atom_id": "md_ch04_a249", "md_file": "knowledge_base/chapters/ch04_general_assumptions.md", "md_atom_type": "LIST_ITEM", "md_parent_section": "§4.2.6 [Grouping Variables and Categorization]", "md_verbatim": "4. --GRPID is usually assigned during or after data collection at the discretion of the sponsor.", "score": 0.9, "match_basis": "verbatim_token+chapter_route:ch04"}, {"md_atom_id": "md_ch04_a238", "md_file": "knowledge_base/chapters/ch04_general_assumptions.md", "md_atom_type": "SENTENCE", "md_parent_section": "§4.2.6 [Grouping Variables and Categorization]", "md_verbatim": "Unlike --CAT and --SCAT, --GRPID values are not intended to have any meaning across subjects and are usually assigned during or after data collection.", "score": 0.4485, "match_basis": "verbatim_token+chapter_route:ch04"}, {"md_atom_id": "md_ch04_a685", "md_file": "knowledge_base/chapters/ch04_general_assumptions.md", "md_atom_type": "LIST_ITEM", "md_parent_section": "§4.4.8 [Date and Time Reported in a Domain Based on Findings]", "md_verbatim": "- For **single-point blood collections or spot urine collections**: use **LBDTC** for the date/time of collection", "score": 0.4452, "match_basis": "verbatim_token+chapter_route:ch04"}, {"md_atom_id": "md_ch04_a686", "md_file": "knowledge_base/chapters/ch04_general_assumptions.md", "md_atom_type": "LIST_ITEM", "md_parent_section": "§4.4.8 [Date and Time Reported in a Domain Based on Findings]", "md_verbatim": "- For **timed lab collections** (e.g., 24-hour urine collections): use **LBDTC** for the start date/time of the collection and **LBENDTC** for the end date/time of the collection", "score": 0.4219, "match_basis": "verbatim_token+chapter_route:ch04"}, {"md_atom_id": "md_ch04_a251", "md_file": "knowledge_base/chapters/ch04_general_assumptions.md", "md_atom_type": "LIST_ITEM", "md_parent_section": "§4.2.6 [Grouping Variables and Categorization]", "md_verbatim": "6. --GRPID values are sponsor-defined, and will not be subject to controlled terminology.", "score": 0.4054, "match_basis": "verbatim_token+chapter_route:ch04"}], "candidate_count": 5, "zero_candidate": false}
{"pdf_atom_id": "ig34_p0031_a012", "pdf_atom_type": "LIST_ITEM", "pdf_source": "SDTMIG_v3.4", "pdf_page": 31, "pdf_parent_section": "§4.2.6 Grouping Variables", "pdf_verbatim": "--GRPID groups data only within a subject.", "figure_ref": null, "candidates": [{"md_atom_id": "md_ch04_a250", "md_file": "knowledge_base/chapters/ch04_general_assumptions.md", "md_atom_type": "LIST_ITEM", "md_parent_section": "§4.2.6 [Grouping Variables and Categorization]", "md_verbatim": "5. --GRPID groups data only within a subject.", "score": 0.9, "match_basis": "verbatim_token+chapter_route:ch04"}, {"md_atom_id": "md_ch04_a247", "md_file": "knowledge_base/chapters/ch04_general_assumptions.md", "md_atom_type": "LIST_ITEM", "md_parent_section": "§4.2.6 [Grouping Variables and Categorization]", "md_verbatim": "2. --CAT/--SCAT values group data across subjects.", "score": 0.4935, "match_basis": "verbatim_token+chapter_route:ch04"}, {"md_atom_id": "md_ch04_a679", "md_file": "knowledge_base/chapters/ch04_general_assumptions.md", "md_atom_type": "LIST_ITEM", "md_parent_section": "§4.4.7 [Use of Relative Timing Variables]", "md_verbatim": "- AEENTPT = final subject contact date (e.g., \"2006-11-02\")", "score": 0.4, "match_basis": "verbatim_token+chapter_route:ch04"}, {"md_atom_id": "md_ch04_a626", "md_file": "knowledge_base/chapters/ch04_general_assumptions.md", "md_atom_type": "LIST_ITEM", "md_parent_section": "§4.4.6 [Representing Additional Study Days]", "md_verbatim": "- The reference date/time may use Subject Elements (SE) dataset element start date/time", "score": 0.3933, "match_basis": "verbatim_token+chapter_route:ch04"}, {"md_atom_id": "md_ch04_a236", "md_file": "knowledge_base/chapters/ch04_general_assumptions.md", "md_atom_type": "SENTENCE", "md_parent_section": "§4.2.6 [Grouping Variables and Categorization]", "md_verbatim": "--GRPID values further group (subset) records within USUBJID.", "score": 0.39, "match_basis": "verbatim_token+chapter_route:ch04"}], "candidate_count": 5, "zero_candidate": false}
{"pdf_atom_id": "ig34_p0031_a013", "pdf_atom_type": "LIST_ITEM", "pdf_source": "SDTMIG_v3.4", "pdf_page": 31, "pdf_parent_section": "§4.2.6 Grouping Variables", "pdf_verbatim": "--GRPID values are sponsor-defined, and will not be subject to controlled terminology.", "figure_ref": null, "candidates": [{"md_atom_id": "md_ch04_a251", "md_file": "knowledge_base/chapters/ch04_general_assumptions.md", "md_atom_type": "LIST_ITEM", "md_parent_section": "§4.2.6 [Grouping Variables and Categorization]", "md_verbatim": "6. --GRPID values are sponsor-defined, and will not be subject to controlled terminology.", "score": 0.9, "match_basis": "verbatim_token+chapter_route:ch04"}, {"md_atom_id": "md_ch04_a313", "md_file": "knowledge_base/chapters/ch04_general_assumptions.md", "md_atom_type": "LIST_ITEM", "md_parent_section": "§4.2.7.2 [\"Specify\" Values for Result Qualifier Variables]", "md_verbatim": "3. If the sponsor does not require that controlled terminology be maintained, the verbatim value will be copied to --STRESC.", "score": 0.5466, "match_basis": "verbatim_token+chapter_route:ch04"}, {"md_atom_id": "md_ch04_a185", "md_file": "knowledge_base/chapters/ch04_general_assumptions.md", "md_atom_type": "LIST_ITEM", "md_parent_section": "§4.2.1.1 [--TEST and --TESTCD Conventions (Findings)]", "md_verbatim": "- Both are subject to controlled terminology where available", "score": 0.5464, "match_basis": "verbatim_token+chapter_route:ch04"}, {"md_atom_id": "md_ch04_a248", "md_file": "knowledge_base/chapters/ch04_general_assumptions.md", "md_atom_type": "LIST_ITEM", "md_parent_section": "§4.2.6 [Grouping Variables and Categorization]", "md_verbatim": "3. --CAT/--SCAT may have some controlled terminology.", "score": 0.5, "match_basis": "verbatim_token+chapter_route:ch04"}, {"md_atom_id": "md_ch04_a294", "md_file": "knowledge_base/chapters/ch04_general_assumptions.md", "md_atom_type": "LIST_ITEM", "md_parent_section": "§4.2.7.1 [\"Specify\" Values for Non-Result Qualifier Variables]", "md_verbatim": "3. If the sponsor does not require that controlled terminology be maintained and wishes for all responses to be stored in a single variable, then CMINDC will be used and SUPPCM is not required.", "score": 0.4806, "match_basis": "verbatim_token+chapter_route:ch04"}], "candidate_count": 5, "zero_candidate": false}
{"pdf_atom_id": "ig34_p0031_a014", "pdf_atom_type": "SENTENCE", "pdf_source": "SDTMIG_v3.4", "pdf_page": 31, "pdf_parent_section": "§4.2.6 Grouping Variables", "pdf_verbatim": "Therefore, data that would be the same across subjects is usually more appropriate in --CAT/--SCAT, and data that would vary across subjects is usually more appropriate in --GRPID.", "figure_ref": null, "candidates": [{"md_atom_id": "md_ch04_a252", "md_file": "knowledge_base/chapters/ch04_general_assumptions.md", "md_atom_type": "SENTENCE", "md_parent_section": "§4.2.6 [Grouping Variables and Categorization]", "md_verbatim": "Therefore, data that would be the same across subjects is usually more appropriate in --CAT/--SCAT, and data that would vary across subjects is usually more appropriate in --GRPID.", "score": 0.9, "match_basis": "verbatim_token+chapter_route:ch04"}, {"md_atom_id": "md_ch04_a254", "md_file": "knowledge_base/chapters/ch04_general_assumptions.md", "md_atom_type": "SENTENCE", "md_parent_section": "§4.2.6 [Grouping Variables and Categorization]", "md_verbatim": "Groups of medications recorded on a Serious Adverse Event (SAE) form as treatments for the SAE would more appropriately use --GRPID because groupings are likely to differ across subjects.", "score": 0.4667, "match_basis": "verbatim_token+chapter_route:ch04"}, {"md_atom_id": "md_ch04_a253", "md_file": "knowledge_base/chapters/ch04_general_assumptions.md", "md_atom_type": "SENTENCE", "md_parent_section": "§4.2.6 [Grouping Variables and Categorization]", "md_verbatim": "For example, a concomitant medication administered as part of a known combination therapy for all subjects (e.g., \"Mayo Clinic Regimen\") would more appropriately use --CAT/--SCAT to identify the medication as part of that regimen.", "score": 0.4568, "match_basis": "verbatim_token+chapter_route:ch04"}, {"md_atom_id": "md_ch04_a238", "md_file": "knowledge_base/chapters/ch04_general_assumptions.md", "md_atom_type": "SENTENCE", "md_parent_section": "§4.2.6 [Grouping Variables and Categorization]", "md_verbatim": "Unlike --CAT and --SCAT, --GRPID values are not intended to have any meaning across subjects and are usually assigned during or after data collection.", "score": 0.45, "match_basis": "verbatim_token+chapter_route:ch04"}, {"md_atom_id": "md_ch04_a544", "md_file": "knowledge_base/chapters/ch04_general_assumptions.md", "md_atom_type": "SENTENCE", "md_parent_section": "§4.4.2 [Date/Time Precision]", "md_verbatim": "Because most data are collected as part of a visit, when only a time appears on a CRF, it is expected that the date of the visit would usually be used as the date of collection.", "score": 0.4116, "match_basis": "verbatim_token+chapter_route:ch04"}], "candidate_count": 5, "zero_candidate": false}
{"pdf_atom_id": "ig34_p0031_a015", "pdf_atom_type": "SENTENCE", "pdf_source": "SDTMIG_v3.4", "pdf_page": 31, "pdf_parent_section": "§4.2.6 Grouping Variables", "pdf_verbatim": "For example, a concomitant medication administered as part of a known combination therapy for all subjects (e.g., \"Mayo Clinic Regimen\") would more appropriately use --CAT/--SCAT to identify the medication as part of that regimen.", "figure_ref": null, "candidates": [{"md_atom_id": "md_ch04_a253", "md_file": "knowledge_base/chapters/ch04_general_assumptions.md", "md_atom_type": "SENTENCE", "md_parent_section": "§4.2.6 [Grouping Variables and Categorization]", "md_verbatim": "For example, a concomitant medication administered as part of a known combination therapy for all subjects (e.g., \"Mayo Clinic Regimen\") would more appropriately use --CAT/--SCAT to identify the medication as part of that regimen.", "score": 0.9, "match_basis": "verbatim_token+chapter_route:ch04"}, {"md_atom_id": "md_ch04_a635", "md_file": "knowledge_base/chapters/ch04_general_assumptions.md", "md_atom_type": "SENTENCE", "md_parent_section": "§4.4.7 [Use of Relative Timing Variables]", "md_verbatim": "As an example, a CRF checkbox that identifies concomitant medication use that began prior to the study reference period would translate into CMSTRF = \"BEFORE\", if selected.", "score": 0.4752, "match_basis": "verbatim_token+chapter_route:ch04"}, {"md_atom_id": "md_ch04_a252", "md_file": "knowledge_base/chapters/ch04_general_assumptions.md", "md_atom_type": "SENTENCE", "md_parent_section": "§4.2.6 [Grouping Variables and Categorization]", "md_verbatim": "Therefore, data that would be the same across subjects is usually more appropriate in --CAT/--SCAT, and data that would vary across subjects is usually more appropriate in --GRPID.", "score": 0.4568, "match_basis": "verbatim_token+chapter_route:ch04"}, {"md_atom_id": "md_ch04_a277", "md_file": "knowledge_base/chapters/ch04_general_assumptions.md", "md_atom_type": "SENTENCE", "md_parent_section": "§4.2.7.1 [\"Specify\" Values for Non-Result Qualifier Variables]", "md_verbatim": "For example, consider a CRF that collects the indication for an analgesic concomitant medication (CMINDC) using a list of prespecified values and an \"Other, specify\" field:", "score": 0.4489, "match_basis": "verbatim_token+chapter_route:ch04"}, {"md_atom_id": "md_ch04_a636", "md_file": "knowledge_base/chapters/ch04_general_assumptions.md", "md_atom_type": "SENTENCE", "md_parent_section": "§4.4.7 [Use of Relative Timing Variables]", "md_verbatim": "Note that in this example, the information collected is with respect to the start of the concomitant medication use only, and therefore the collected data corresponds to variable CMSTRF, not CMENRF.", "score": 0.4457, "match_basis": "verbatim_token+chapter_route:ch04"}], "candidate_count": 5, "zero_candidate": false}
{"pdf_atom_id": "ig34_p0031_a016", "pdf_atom_type": "SENTENCE", "pdf_source": "SDTMIG_v3.4", "pdf_page": 31, "pdf_parent_section": "§4.2.6 Grouping Variables", "pdf_verbatim": "Groups of medications recorded on a Serious Adverse Event (SAE) form as treatments for the SAE would more appropriately use --GRPID because groupings are likely to differ across subjects.", "figure_ref": null, "candidates": [{"md_atom_id": "md_ch04_a254", "md_file": "knowledge_base/chapters/ch04_general_assumptions.md", "md_atom_type": "SENTENCE", "md_parent_section": "§4.2.6 [Grouping Variables and Categorization]", "md_verbatim": "Groups of medications recorded on a Serious Adverse Event (SAE) form as treatments for the SAE would more appropriately use --GRPID because groupings are likely to differ across subjects.", "score": 0.9, "match_basis": "verbatim_token+chapter_route:ch04"}, {"md_atom_id": "md_ch04_a252", "md_file": "knowledge_base/chapters/ch04_general_assumptions.md", "md_atom_type": "SENTENCE", "md_parent_section": "§4.2.6 [Grouping Variables and Categorization]", "md_verbatim": "Therefore, data that would be the same across subjects is usually more appropriate in --CAT/--SCAT, and data that would vary across subjects is usually more appropriate in --GRPID.", "score": 0.4667, "match_basis": "verbatim_token+chapter_route:ch04"}, {"md_atom_id": "md_ch04_a253", "md_file": "knowledge_base/chapters/ch04_general_assumptions.md", "md_atom_type": "SENTENCE", "md_parent_section": "§4.2.6 [Grouping Variables and Categorization]", "md_verbatim": "For example, a concomitant medication administered as part of a known combination therapy for all subjects (e.g., \"Mayo Clinic Regimen\") would more appropriately use --CAT/--SCAT to identify the medication as part of that regimen.", "score": 0.4448, "match_basis": "verbatim_token+chapter_route:ch04"}, {"md_atom_id": "md_ch04_a988", "md_file": "knowledge_base/chapters/ch04_general_assumptions.md", "md_atom_type": "SENTENCE", "md_parent_section": "§4.5.7 [Presence or Absence of Prespecified Interventions and Events]", "md_verbatim": "Interventions (e.g., concomitant medications) and events (e.g., medical history) can generally be collected in 2 different ways, by recording either verbatim free text or the responses to a prespecified list of treatments or terms.", "score": 0.417, "match_basis": "verbatim_token+chapter_route:ch04"}, {"md_atom_id": "md_ch04_a024", "md_file": "knowledge_base/chapters/ch04_general_assumptions.md", "md_atom_type": "SENTENCE", "md_parent_section": "§4.1.3.1 [EPOCH Variable Guidance]", "md_verbatim": "Because EPOCH is a study-design construct, it is not applicable to interventions or events that started before the subject's participation in a study, nor to findings performed before participation in a study.", "score": 0.4133, "match_basis": "verbatim_token+chapter_route:ch04"}], "candidate_count": 5, "zero_candidate": false}
{"pdf_atom_id": "ig34_p0031_a017", "pdf_atom_type": "SENTENCE", "pdf_source": "SDTMIG_v3.4", "pdf_page": 31, "pdf_parent_section": "§4.2.6 Grouping Variables", "pdf_verbatim": "In domains based on the Findings general observation class, the --RESCAT variable can be used to categorize results after the fact.", "figure_ref": null, "candidates": [{"md_atom_id": "md_ch04_a255", "md_file": "knowledge_base/chapters/ch04_general_assumptions.md", "md_atom_type": "SENTENCE", "md_parent_section": "§4.2.6 [Grouping Variables and Categorization]", "md_verbatim": "In domains based on the Findings general observation class, the --RESCAT variable can be used to categorize results after the fact.", "score": 0.9, "match_basis": "verbatim_token+chapter_route:ch04"}, {"md_atom_id": "md_ch04_a476", "md_file": "knowledge_base/chapters/ch04_general_assumptions.md", "md_atom_type": "SENTENCE", "md_parent_section": "§4.4 [Actual and Relative Time Assumptions]", "md_verbatim": "In general, all domains based on the 3 general observation classes should have at least 1 timing variable.", "score": 0.564, "match_basis": "verbatim_token+chapter_route:ch04"}, {"md_atom_id": "md_ch04_a606", "md_file": "knowledge_base/chapters/ch04_general_assumptions.md", "md_atom_type": "SENTENCE", "md_parent_section": "§4.4.5 [Clinical Encounters and Visits]", "md_verbatim": "All domains based on the 3 general observation classes should have at least 1 timing variable.", "score": 0.564, "match_basis": "verbatim_token+chapter_route:ch04"}, {"md_atom_id": "md_ch04_a013", "md_file": "knowledge_base/chapters/ch04_general_assumptions.md", "md_atom_type": "SENTENCE", "md_parent_section": "§4.1.3 [Additional Timing Variables]", "md_verbatim": "Additional Timing variables can be added as needed to a standard domain model based on the 3 general observation classes, except for the cases specified in Assumption 4.4.8, Date and Time Reported in a Domain Based on Findings.", "score": 0.5089, "match_basis": "verbatim_token+chapter_route:ch04"}, {"md_atom_id": "md_ch04_a976", "md_file": "knowledge_base/chapters/ch04_general_assumptions.md", "md_atom_type": "SENTENCE", "md_parent_section": "§4.5.6 [Supplemental Reason Variables]", "md_verbatim": "The SDTM general observation classes include the --REASND variable to submit the reason a response is not present (a result in a findings class or an --OCCUR value in an events or interventions variable).", "score": 0.5059, "match_basis": "verbatim_token+chapter_route:ch04"}], "candidate_count": 5, "zero_candidate": false}
{"pdf_atom_id": "ig34_p0031_a018", "pdf_atom_type": "SENTENCE", "pdf_source": "SDTMIG_v3.4", "pdf_page": 31, "pdf_parent_section": "§4.2.6 Grouping Variables", "pdf_verbatim": "--CAT and --SCAT by contrast, are generally defined by the sponsor or used by the investigator at the point of collection, not after assessing the value of Findings results.", "figure_ref": null, "candidates": [{"md_atom_id": "md_ch04_a256", "md_file": "knowledge_base/chapters/ch04_general_assumptions.md", "md_atom_type": "SENTENCE", "md_parent_section": "§4.2.6 [Grouping Variables and Categorization]", "md_verbatim": "--CAT and --SCAT by contrast, are generally defined by the sponsor or used by the investigator at the point of collection, not after assessing the value of Findings results.", "score": 0.9, "match_basis": "verbatim_token+chapter_route:ch04"}, {"md_atom_id": "md_ch04_a255", "md_file": "knowledge_base/chapters/ch04_general_assumptions.md", "md_atom_type": "SENTENCE", "md_parent_section": "§4.2.6 [Grouping Variables and Categorization]", "md_verbatim": "In domains based on the Findings general observation class, the --RESCAT variable can be used to categorize results after the fact.", "score": 0.4514, "match_basis": "verbatim_token+chapter_route:ch04"}, {"md_atom_id": "md_ch04_a687", "md_file": "knowledge_base/chapters/ch04_general_assumptions.md", "md_atom_type": "SENTENCE", "md_parent_section": "§4.4.8 [Date and Time Reported in a Domain Based on Findings]", "md_verbatim": "This approach allows the single-point and interval collections to use the same date/time variables consistently across all datasets for the Findings general observation class.", "score": 0.45, "match_basis": "verbatim_token+chapter_route:ch04"}, {"md_atom_id": "md_ch04_a976", "md_file": "knowledge_base/chapters/ch04_general_assumptions.md", "md_atom_type": "SENTENCE", "md_parent_section": "§4.5.6 [Supplemental Reason Variables]", "md_verbatim": "The SDTM general observation classes include the --REASND variable to submit the reason a response is not present (a result in a findings class or an --OCCUR value in an events or interventions variable).", "score": 0.4488, "match_basis": "verbatim_token+chapter_route:ch04"}, {"md_atom_id": "md_ch04_a694", "md_file": "knowledge_base/chapters/ch04_general_assumptions.md", "md_atom_type": "SENTENCE", "md_parent_section": "§4.4.9 [Use of Dates as Result Variables]", "md_verbatim": "Dates are generally used only as timing variables to describe the timing of an event, intervention, or collection activity, but there may be occasions when it may be preferable to model a date as a result (--ORRES) in a Findings dataset.", "score": 0.4455, "match_basis": "verbatim_token+chapter_route:ch04"}], "candidate_count": 5, "zero_candidate": false}
{"pdf_atom_id": "ig34_p0031_a019", "pdf_atom_type": "HEADING", "pdf_source": "SDTMIG_v3.4", "pdf_page": 31, "pdf_parent_section": "§4.2.7 Submitting Free Text from the CRF", "pdf_verbatim": "4.2.7 Submitting Free Text from the CRF", "figure_ref": null, "candidates": [{"md_atom_id": "md_ch04_a257", "md_file": "knowledge_base/chapters/ch04_general_assumptions.md", "md_atom_type": "HEADING", "md_parent_section": "§4.2 [General Variable Assumptions]", "md_verbatim": "### 4.2.7 Submitting Free Text from the CRF", "score": 0.9, "match_basis": "verbatim_token+chapter_route:ch04"}, {"md_atom_id": "md_ch04_a213", "md_file": "knowledge_base/chapters/ch04_general_assumptions.md", "md_atom_type": "HEADING", "md_parent_section": "§4.2 [General Variable Assumptions]", "md_verbatim": "### 4.2.4 Text Case in Submitted Data", "score": 0.4909, "match_basis": "verbatim_token+chapter_route:ch04"}, {"md_atom_id": "md_ch04_a049", "md_file": "knowledge_base/chapters/ch04_general_assumptions.md", "md_atom_type": "HEADING", "md_parent_section": "§4.1 [General Domain Assumptions]", "md_verbatim": "### 4.1.7 Splitting Domains", "score": 0.4, "match_basis": "verbatim_token+chapter_route:ch04"}, {"md_atom_id": "md_ch04_a069", "md_file": "knowledge_base/chapters/ch04_general_assumptions.md", "md_atom_type": "HEADING", "md_parent_section": "§4.1.7 [Splitting Domains]", "md_verbatim": "#### 4.1.7.1 Example of Splitting Questionnaires", "score": 0.3667, "match_basis": "verbatim_token+chapter_route:ch04"}, {"md_atom_id": "md_ch04_a903", "md_file": "knowledge_base/chapters/ch04_general_assumptions.md", "md_atom_type": "HEADING", "md_parent_section": "§4.5.3 [Text Strings that Exceed the Maximum Length for General Observation-class Domain Variables]", "md_verbatim": "#### 4.5.3.2 Text Strings Greater than 200 Characters in Other Variables", "score": 0.3545, "match_basis": "verbatim_token+chapter_route:ch04"}], "candidate_count": 5, "zero_candidate": false}
{"pdf_atom_id": "ig34_p0031_a020", "pdf_atom_type": "SENTENCE", "pdf_source": "SDTMIG_v3.4", "pdf_page": 31, "pdf_parent_section": "§4.2.7 Submitting Free Text from the CRF", "pdf_verbatim": "Sponsors often collect free-text data on a CRF to supplement a standard field.", "figure_ref": null, "candidates": [{"md_atom_id": "md_ch04_a258", "md_file": "knowledge_base/chapters/ch04_general_assumptions.md", "md_atom_type": "SENTENCE", "md_parent_section": "§4.2.7 [Submitting Free Text from the CRF]", "md_verbatim": "Sponsors often collect free-text data on a CRF to supplement a standard field.", "score": 0.9, "match_basis": "verbatim_token+chapter_route:ch04"}, {"md_atom_id": "md_ch04_a262", "md_file": "knowledge_base/chapters/ch04_general_assumptions.md", "md_atom_type": "SENTENCE", "md_parent_section": "§4.2.7.1 [\"Specify\" Values for Non-Result Qualifier Variables]", "md_verbatim": "When free-text information is collected to supplement a standard non-result qualifier field, the free-text value should be placed in the SUPP-- dataset described in Section 8.4, Relating Non-standard Variable Values to a Parent Domain.", "score": 0.46, "match_basis": "verbatim_token+chapter_route:ch04"}, {"md_atom_id": "md_ch04_a955", "md_file": "knowledge_base/chapters/ch04_general_assumptions.md", "md_atom_type": "SENTENCE", "md_parent_section": "§4.5.4 [Evaluators in the Interventions and Events Observation Classes]", "md_verbatim": "For observations that have primary and secondary evaluations of specific qualifier variables, sponsors should put data from the primary evaluation into the standard domain dataset and data from the secondary evaluation into the Supplemental Qualifier datasets (SUPP--).", "score": 0.4327, "match_basis": "verbatim_token+chapter_route:ch04"}, {"md_atom_id": "md_ch04_a507", "md_file": "knowledge_base/chapters/ch04_general_assumptions.md", "md_atom_type": "SENTENCE", "md_parent_section": "§4.4.1 [Formats for Date/Time Variables]", "md_verbatim": "Implementation of the ISO 8601 standard means that date/time variables are character/text data types.", "score": 0.42, "match_basis": "verbatim_token+chapter_route:ch04"}, {"md_atom_id": "md_ch04_a907", "md_file": "knowledge_base/chapters/ch04_general_assumptions.md", "md_atom_type": "SENTENCE", "md_parent_section": "§4.5.3.2 [Text Strings Greater than 200 Characters in Other Variables]", "md_verbatim": "For general observation-class variables and supplemental qualifiers (i.e., non-standard variables, NSVs), the conventions are as follows:", "score": 0.4186, "match_basis": "verbatim_token+chapter_route:ch04"}], "candidate_count": 5, "zero_candidate": false}
{"pdf_atom_id": "ig34_p0031_a021", "pdf_atom_type": "SENTENCE", "pdf_source": "SDTMIG_v3.4", "pdf_page": 31, "pdf_parent_section": "§4.2.7 Submitting Free Text from the CRF", "pdf_verbatim": "This often occurs as part of a list of choices accompanied by \"Other, specify.\"", "figure_ref": null, "candidates": [{"md_atom_id": "md_ch04_a259", "md_file": "knowledge_base/chapters/ch04_general_assumptions.md", "md_atom_type": "SENTENCE", "md_parent_section": "§4.2.7 [Submitting Free Text from the CRF]", "md_verbatim": "This often occurs as part of a list of choices accompanied by \"Other, specify.\"", "score": 0.9, "match_basis": "verbatim_token+chapter_route:ch04"}, {"md_atom_id": "md_ch04_a318", "md_file": "knowledge_base/chapters/ch04_general_assumptions.md", "md_atom_type": "SENTENCE", "md_parent_section": "§4.2.7.3 [\"Specify\" Values for Topic Variables]", "md_verbatim": "If a list of specific treatments is provided along with \"Other, Specify\", --TRT should be populated with the name of the treatment found in the specified text.", "score": 0.3868, "match_basis": "verbatim_token+chapter_route:ch04"}, {"md_atom_id": "md_ch04_a994", "md_file": "knowledge_base/chapters/ch04_general_assumptions.md", "md_atom_type": "SENTENCE", "md_parent_section": "§4.5.7 [Presence or Absence of Prespecified Interventions and Events]", "md_verbatim": "The --OCCUR variable is used to indicate whether a prespecified intervention or event occurred or did not occur.", "score": 0.3822, "match_basis": "verbatim_token+chapter_route:ch04"}, {"md_atom_id": "md_ch04_a285", "md_file": "knowledge_base/chapters/ch04_general_assumptions.md", "md_atom_type": "SENTENCE", "md_parent_section": "§4.2.7.1 [\"Specify\" Values for Non-Result Qualifier Variables]", "md_verbatim": "An investigator has selected \"OTHER\" and specified \"Broken arm\".", "score": 0.38, "match_basis": "verbatim_token+chapter_route:ch04"}, {"md_atom_id": "md_ch04_a305", "md_file": "knowledge_base/chapters/ch04_general_assumptions.md", "md_atom_type": "SENTENCE", "md_parent_section": "§4.2.7.2 [\"Specify\" Values for Result Qualifier Variables]", "md_verbatim": "An investigator has selected \"OTHER\" and specified \"BLUEISH GRAY\".", "score": 0.3774, "match_basis": "verbatim_token+chapter_route:ch04"}], "candidate_count": 5, "zero_candidate": false}
{"pdf_atom_id": "ig34_p0031_a022", "pdf_atom_type": "SENTENCE", "pdf_source": "SDTMIG_v3.4", "pdf_page": 31, "pdf_parent_section": "§4.2.7 Submitting Free Text from the CRF", "pdf_verbatim": "The manner in which these data are submitted will vary based on their role.", "figure_ref": null, "candidates": [{"md_atom_id": "md_ch04_a260", "md_file": "knowledge_base/chapters/ch04_general_assumptions.md", "md_atom_type": "SENTENCE", "md_parent_section": "§4.2.7 [Submitting Free Text from the CRF]", "md_verbatim": "The manner in which these data are submitted will vary based on their role.", "score": 0.9, "match_basis": "verbatim_token+chapter_route:ch04"}, {"md_atom_id": "md_ch04_a428", "md_file": "knowledge_base/chapters/ch04_general_assumptions.md", "md_atom_type": "SENTENCE", "md_parent_section": "§4.3.2 [Controlled Terminology Text Case]", "md_verbatim": "See Section 4.2.4, Text Case in Submitted Data.", "score": 0.45, "match_basis": "verbatim_token+chapter_route:ch04"}, {"md_atom_id": "md_ch04_a297", "md_file": "knowledge_base/chapters/ch04_general_assumptions.md", "md_atom_type": "SENTENCE", "md_parent_section": "§4.2.7.2 [\"Specify\" Values for Result Qualifier Variables]", "md_verbatim": "When the CRF includes a list of values for a result field that includes \"Other\" and the \"Other\" is supplemented with a \"Specify\" free-text field, then the manner in which the free-text \"Specify\" value is submitted will vary based on the sponsor's coding practice and analysis requirements.", "score": 0.4234, "match_basis": "verbatim_token+chapter_route:ch04"}, {"md_atom_id": "md_ch04_a276", "md_file": "knowledge_base/chapters/ch04_general_assumptions.md", "md_atom_type": "SENTENCE", "md_parent_section": "§4.2.7.1 [\"Specify\" Values for Non-Result Qualifier Variables]", "md_verbatim": "When the CRF includes a list of values for a qualifier field that includes \"Other\" and the \"Other\" is supplemented with a \"Specify\" free-text field, then the manner in which the free-text \"Specify\" value is submitted will vary based on the sponsor's coding practice and analysis requirements.", "score": 0.4211, "match_basis": "verbatim_token+chapter_route:ch04"}, {"md_atom_id": "md_ch04_a431", "md_file": "knowledge_base/chapters/ch04_general_assumptions.md", "md_atom_type": "SENTENCE", "md_parent_section": "§4.3.3 [Controlled Terminology Values]", "md_verbatim": "All values in the permissible value set for the study should be included, whether or not they are represented in submitted data.", "score": 0.3986, "match_basis": "verbatim_token+chapter_route:ch04"}], "candidate_count": 5, "zero_candidate": false}
{"pdf_atom_id": "ig34_p0031_a023", "pdf_atom_type": "HEADING", "pdf_source": "SDTMIG_v3.4", "pdf_page": 31, "pdf_parent_section": "§4.2.7.1 \"Specify\" Values for Non-result Qualifier Variables", "pdf_verbatim": "4.2.7.1  \"Specify\" Values for Non-result Qualifier Variables", "figure_ref": null, "candidates": [{"md_atom_id": "md_ch04_a261", "md_file": "knowledge_base/chapters/ch04_general_assumptions.md", "md_atom_type": "HEADING", "md_parent_section": "§4.2.7 [Submitting Free Text from the CRF]", "md_verbatim": "#### 4.2.7.1 \"Specify\" Values for Non-Result Qualifier Variables", "score": 0.9, "match_basis": "verbatim_token+chapter_route:ch04"}, {"md_atom_id": "md_ch04_a296", "md_file": "knowledge_base/chapters/ch04_general_assumptions.md", "md_atom_type": "HEADING", "md_parent_section": "§4.2.7 [Submitting Free Text from the CRF]", "md_verbatim": "#### 4.2.7.2 \"Specify\" Values for Result Qualifier Variables", "score": 0.8793, "match_basis": "verbatim_token+chapter_route:ch04"}, {"md_atom_id": "md_ch04_a359", "md_file": "knowledge_base/chapters/ch04_general_assumptions.md", "md_atom_type": "HEADING", "md_parent_section": "§4.2.8 [Multiple Values for a Variable]", "md_verbatim": "#### 4.2.8.3 Multiple Values for a Non-result Qualifier Variable", "score": 0.7059, "match_basis": "verbatim_token+chapter_route:ch04"}, {"md_atom_id": "md_ch04_a316", "md_file": "knowledge_base/chapters/ch04_general_assumptions.md", "md_atom_type": "HEADING", "md_parent_section": "§4.2.7 [Submitting Free Text from the CRF]", "md_verbatim": "#### 4.2.7.3 \"Specify\" Values for Topic Variables", "score": 0.6187, "match_basis": "verbatim_token+chapter_route:ch04"}, {"md_atom_id": "md_ch04_a352", "md_file": "knowledge_base/chapters/ch04_general_assumptions.md", "md_atom_type": "HEADING", "md_parent_section": "§4.2.8 [Multiple Values for a Variable]", "md_verbatim": "#### 4.2.8.2 Multiple Values for a Findings Result Variable", "score": 0.525, "match_basis": "verbatim_token+chapter_route:ch04"}], "candidate_count": 5, "zero_candidate": false}
{"pdf_atom_id": "ig34_p0031_a024", "pdf_atom_type": "SENTENCE", "pdf_source": "SDTMIG_v3.4", "pdf_page": 31, "pdf_parent_section": "§4.2.7.1 \"Specify\" Values for Non-result Qualifier Variables", "pdf_verbatim": "When free-text information is collected to supplement a standard non-result qualifier field, the free-text value should be placed in the SUPP-- dataset described in Section 8.4, Relating Non-standard Variable Values to a Parent Domain.", "figure_ref": null, "candidates": [{"md_atom_id": "md_ch04_a262", "md_file": "knowledge_base/chapters/ch04_general_assumptions.md", "md_atom_type": "SENTENCE", "md_parent_section": "§4.2.7.1 [\"Specify\" Values for Non-Result Qualifier Variables]", "md_verbatim": "When free-text information is collected to supplement a standard non-result qualifier field, the free-text value should be placed in the SUPP-- dataset described in Section 8.4, Relating Non-standard Variable Values to a Parent Domain.", "score": 0.9, "match_basis": "verbatim_token+chapter_route:ch04"}, {"md_atom_id": "md_ch04_a145", "md_file": "knowledge_base/chapters/ch04_general_assumptions.md", "md_atom_type": "SENTENCE", "md_parent_section": "§4.1.9 [Assigning Natural Keys in the Metadata]", "md_verbatim": "In certain instances a Supplemental Qualifier variable (i.e., a QNAM value; see Section 8.4, Relating Non-standard Variable Values to a Parent Domain) might also contribute to the natural key of a record, and therefore needs to be referenced as part of the natural key for a domain.", "score": 0.5266, "match_basis": "verbatim_token+chapter_route:ch04"}, {"md_atom_id": "md_ch04_a961", "md_file": "knowledge_base/chapters/ch04_general_assumptions.md", "md_atom_type": "SENTENCE", "md_parent_section": "§4.5.4 [Evaluators in the Interventions and Events Observation Classes]", "md_verbatim": "See Section 8.4, Relating Non-standard Variable Values to a Parent Domain.", "score": 0.525, "match_basis": "verbatim_token+chapter_route:ch04"}, {"md_atom_id": "md_ch04_a955", "md_file": "knowledge_base/chapters/ch04_general_assumptions.md", "md_atom_type": "SENTENCE", "md_parent_section": "§4.5.4 [Evaluators in the Interventions and Events Observation Classes]", "md_verbatim": "For observations that have primary and secondary evaluations of specific qualifier variables, sponsors should put data from the primary evaluation into the standard domain dataset and data from the secondary evaluation into the Supplemental Qualifier datasets (SUPP--).", "score": 0.5118, "match_basis": "verbatim_token+chapter_route:ch04"}, {"md_atom_id": "md_ch04_a954", "md_file": "knowledge_base/chapters/ch04_general_assumptions.md", "md_atom_type": "SENTENCE", "md_parent_section": "§4.5.4 [Evaluators in the Interventions and Events Observation Classes]", "md_verbatim": "The QEVAL variable can be used to describe the evaluator for any data item in a SUPP-- dataset (see Section 8.4.1, Supplemental Qualifiers -- SUPP-- Datasets), but is not required when the data are objective.", "score": 0.5112, "match_basis": "verbatim_token+chapter_route:ch04"}], "candidate_count": 5, "zero_candidate": false}
{"pdf_atom_id": "ig34_p0031_a025", "pdf_atom_type": "SENTENCE", "pdf_source": "SDTMIG_v3.4", "pdf_page": 31, "pdf_parent_section": "§4.2.7.1 \"Specify\" Values for Non-result Qualifier Variables", "pdf_verbatim": "When applicable, controlled terminology should be used for SUPP-- field names (QNAM) and their associated labels (QLABEL; see Section 8.4, Relating Non-standard Variable Values to a Parent Domain, and Appendix C1, Supplemental Qualifiers Name Codes).", "figure_ref": null, "candidates": [{"md_atom_id": "md_ch04_a263", "md_file": "knowledge_base/chapters/ch04_general_assumptions.md", "md_atom_type": "SENTENCE", "md_parent_section": "§4.2.7.1 [\"Specify\" Values for Non-Result Qualifier Variables]", "md_verbatim": "When applicable, controlled terminology should be used for SUPP-- field names (QNAM) and their associated labels (QLABEL; see Section 8.4 and Appendix C1, Supplemental Qualifiers Name Codes).", "score": 0.7591, "match_basis": "verbatim_token+chapter_route:ch04"}, {"md_atom_id": "md_ch04_a262", "md_file": "knowledge_base/chapters/ch04_general_assumptions.md", "md_atom_type": "SENTENCE", "md_parent_section": "§4.2.7.1 [\"Specify\" Values for Non-Result Qualifier Variables]", "md_verbatim": "When free-text information is collected to supplement a standard non-result qualifier field, the free-text value should be placed in the SUPP-- dataset described in Section 8.4, Relating Non-standard Variable Values to a Parent Domain.", "score": 0.563, "match_basis": "verbatim_token+chapter_route:ch04"}, {"md_atom_id": "md_ch04_a145", "md_file": "knowledge_base/chapters/ch04_general_assumptions.md", "md_atom_type": "SENTENCE", "md_parent_section": "§4.1.9 [Assigning Natural Keys in the Metadata]", "md_verbatim": "In certain instances a Supplemental Qualifier variable (i.e., a QNAM value; see Section 8.4, Relating Non-standard Variable Values to a Parent Domain) might also contribute to the natural key of a record, and therefore needs to be referenced as part of the natural key for a domain.", "score": 0.5293, "match_basis": "verbatim_token+chapter_route:ch04"}, {"md_atom_id": "md_ch04_a365", "md_file": "knowledge_base/chapters/ch04_general_assumptions.md", "md_atom_type": "SENTENCE", "md_parent_section": "§4.2.8.3 [Multiple Values for a Non-result Qualifier Variable]", "md_verbatim": "The values stored in QVAL should be consistent with the controlled terminology associated with the standard variable.", "score": 0.5203, "match_basis": "verbatim_token+chapter_route:ch04"}, {"md_atom_id": "md_ch04_a961", "md_file": "knowledge_base/chapters/ch04_general_assumptions.md", "md_atom_type": "SENTENCE", "md_parent_section": "§4.5.4 [Evaluators in the Interventions and Events Observation Classes]", "md_verbatim": "See Section 8.4, Relating Non-standard Variable Values to a Parent Domain.", "score": 0.493, "match_basis": "verbatim_token+chapter_route:ch04"}], "candidate_count": 5, "zero_candidate": false}
{"pdf_atom_id": "ig34_p0031_a026", "pdf_atom_type": "SENTENCE", "pdf_source": "SDTMIG_v3.4", "pdf_page": 31, "pdf_parent_section": "§4.2.7.1 \"Specify\" Values for Non-result Qualifier Variables", "pdf_verbatim": "For example, when a description of \"Other Medically Important Serious Adverse Event\" category is collected on a CRF, the free-text description should be stored in the SUPPAE dataset.", "figure_ref": null, "candidates": [{"md_atom_id": "md_ch04_a264", "md_file": "knowledge_base/chapters/ch04_general_assumptions.md", "md_atom_type": "SENTENCE", "md_parent_section": "§4.2.7.1 [\"Specify\" Values for Non-Result Qualifier Variables]", "md_verbatim": "For example, when a description of \"Other Medically Important Serious Adverse Event\" category is collected on a CRF, the free-text description should be stored in the SUPPAE dataset.", "score": 0.9, "match_basis": "verbatim_token+chapter_route:ch04"}, {"md_atom_id": "md_ch04_a272", "md_file": "knowledge_base/chapters/ch04_general_assumptions.md", "md_atom_type": "SENTENCE", "md_parent_section": "§4.2.7.1 [\"Specify\" Values for Non-Result Qualifier Variables]", "md_verbatim": "The free-text description should be stored in the SUPPEX dataset.", "score": 0.5071, "match_basis": "verbatim_token+chapter_route:ch04"}, {"md_atom_id": "md_ch04_a267", "md_file": "knowledge_base/chapters/ch04_general_assumptions.md", "md_atom_type": "SENTENCE", "md_parent_section": "§4.2.7.1 [\"Specify\" Values for Non-Result Qualifier Variables]", "md_verbatim": "Another example is a CRF that collects reason for dose adjustment with additional free-text description:", "score": 0.4611, "match_basis": "verbatim_token+chapter_route:ch04"}, {"md_atom_id": "md_ch04_a262", "md_file": "knowledge_base/chapters/ch04_general_assumptions.md", "md_atom_type": "SENTENCE", "md_parent_section": "§4.2.7.1 [\"Specify\" Values for Non-Result Qualifier Variables]", "md_verbatim": "When free-text information is collected to supplement a standard non-result qualifier field, the free-text value should be placed in the SUPP-- dataset described in Section 8.4, Relating Non-standard Variable Values to a Parent Domain.", "score": 0.4479, "match_basis": "verbatim_token+chapter_route:ch04"}, {"md_atom_id": "md_ch04_a127", "md_file": "knowledge_base/chapters/ch04_general_assumptions.md", "md_atom_type": "SENTENCE", "md_parent_section": "§4.1.8.1 [Origin Metadata for Variables]", "md_verbatim": "For example, data could be collected (on the CRF, from a vendor, or from a device), derived, or assigned; CRF data should be traceable to an annotated CRF and derived data should be traceable to some derivation algorithm.", "score": 0.4286, "match_basis": "verbatim_token+chapter_route:ch04"}], "candidate_count": 5, "zero_candidate": false}
{"pdf_atom_id": "ig34_p0031_a027", "pdf_atom_type": "LIST_ITEM", "pdf_source": "SDTMIG_v3.4", "pdf_page": 31, "pdf_parent_section": "§4.2.7.1 \"Specify\" Values for Non-result Qualifier Variables", "pdf_verbatim": "AESMIE = \"Y\"", "figure_ref": null, "candidates": [{"md_atom_id": "md_ch04_a265", "md_file": "knowledge_base/chapters/ch04_general_assumptions.md", "md_atom_type": "LIST_ITEM", "md_parent_section": "§4.2.7.1 [\"Specify\" Values for Non-Result Qualifier Variables]", "md_verbatim": "- AESMIE = \"Y\"", "score": 0.9, "match_basis": "verbatim_token+chapter_route:ch04"}, {"md_atom_id": "md_ch04_a676", "md_file": "knowledge_base/chapters/ch04_general_assumptions.md", "md_atom_type": "LIST_ITEM", "md_parent_section": "§4.4.7 [Use of Relative Timing Variables]", "md_verbatim": "- AESTDTC = start date (e.g., \"2006-10-01\")", "score": 0.34, "match_basis": "verbatim_token+chapter_route:ch04"}, {"md_atom_id": "md_ch04_a266", "md_file": "knowledge_base/chapters/ch04_general_assumptions.md", "md_atom_type": "LIST_ITEM", "md_parent_section": "§4.2.7.1 [\"Specify\" Values for Non-Result Qualifier Variables]", "md_verbatim": "- SUPPAE QNAM = \"AESOSP\", QLABEL = \"Other Medically Important SAE\", QVAL = \"HIGH RISK FOR ADDITIONAL THROMBOSIS\"", "score": 0.3103, "match_basis": "verbatim_token+chapter_route:ch04"}, {"md_atom_id": "md_ch04_a038", "md_file": "knowledge_base/chapters/ch04_general_assumptions.md", "md_atom_type": "LIST_ITEM", "md_parent_section": "§4.1.5 [SDTM Core Designations]", "md_verbatim": "- Domain assumptions that say a Permissible variable is \"generally not used\" do not prohibit use of the variable.", "score": 0.3, "match_basis": "verbatim_token+chapter_route:ch04"}, {"md_atom_id": "md_ch04_a039", "md_file": "knowledge_base/chapters/ch04_general_assumptions.md", "md_atom_type": "LIST_ITEM", "md_parent_section": "§4.1.5 [SDTM Core Designations]", "md_verbatim": "- If a study includes a data item that would be represented in a Permissible variable, then that variable must be included in the SDTM dataset, even if null. Indicate no data were available for that variable in the Define-XML document.", "score": 0.3, "match_basis": "verbatim_token+chapter_route:ch04"}, {"md_atom_id": "md_ch04_a040", "md_file": "knowledge_base/chapters/ch04_general_assumptions.md", "md_atom_type": "LIST_ITEM", "md_parent_section": "§4.1.5 [SDTM Core Designations]", "md_verbatim": "- If a study did not include a data item that would be represented in a Permissible variable, then that variable should not be included in the SDTM dataset and should not be declared in the Define-XML document.", "score": 0.3, "match_basis": "verbatim_token+chapter_route:ch04"}, {"md_atom_id": "md_ch04_a051", "md_file": "knowledge_base/chapters/ch04_general_assumptions.md", "md_atom_type": "LIST_ITEM", "md_parent_section": "§4.1.7 [Splitting Domains]", "md_verbatim": "- A domain based on a general observation class may be split according to values in --CAT. When a domain is split on --CAT, --CAT must not be null.", "score": 0.3, "match_basis": "verbatim_token+chapter_route:ch04"}, {"md_atom_id": "md_ch04_a052", "md_file": "knowledge_base/chapters/ch04_general_assumptions.md", "md_atom_type": "LIST_ITEM", "md_parent_section": "§4.1.7 [Splitting Domains]", "md_verbatim": "- A Findings About (FA) domain (see Section 6.4.4, Findings About Events or Interventions) may alternatively be split based on the domain of the value in --OBJ. For example, FACM would store findings about Concomitant/Prior Medications (CM) records. See Section 6.4.2, Naming Findings About Domains, for more details.", "score": 0.3, "match_basis": "verbatim_token+chapter_route:ch04"}, {"md_atom_id": "md_ch04_a054", "md_file": "knowledge_base/chapters/ch04_general_assumptions.md", "md_atom_type": "LIST_ITEM", "md_parent_section": "§4.1.7 [Splitting Domains]", "md_verbatim": "1. The value of DOMAIN must be consistent across the separate datasets as it would have been if they had not been split (e.g., QS, FA).", "score": 0.3, "match_basis": "verbatim_token+chapter_route:ch04"}, {"md_atom_id": "md_ch04_a055", "md_file": "knowledge_base/chapters/ch04_general_assumptions.md", "md_atom_type": "LIST_ITEM", "md_parent_section": "§4.1.7 [Splitting Domains]", "md_verbatim": "2. All variables that require a domain prefix (e.g., --TESTCD, --LOC) must use the value of DOMAIN as the prefix value (e.g., QS, FA).", "score": 0.3, "match_basis": "verbatim_token+chapter_route:ch04"}], "candidate_count": 10, "zero_candidate": false}
{"pdf_atom_id": "ig34_p0031_a028", "pdf_atom_type": "CODE_LITERAL", "pdf_source": "SDTMIG_v3.4", "pdf_page": 31, "pdf_parent_section": "§4.2.7.1 \"Specify\" Values for Non-result Qualifier Variables", "pdf_verbatim": "AESMIE = \"Y\"", "figure_ref": null, "candidates": [{"md_atom_id": "md_ch04_a265", "md_file": "knowledge_base/chapters/ch04_general_assumptions.md", "md_atom_type": "LIST_ITEM", "md_parent_section": "§4.2.7.1 [\"Specify\" Values for Non-Result Qualifier Variables]", "md_verbatim": "- AESMIE = \"Y\"", "score": 0.69, "match_basis": "verbatim_token+chapter_route:ch04"}, {"md_atom_id": "md_ch04_a676", "md_file": "knowledge_base/chapters/ch04_general_assumptions.md", "md_atom_type": "LIST_ITEM", "md_parent_section": "§4.4.7 [Use of Relative Timing Variables]", "md_verbatim": "- AESTDTC = start date (e.g., \"2006-10-01\")", "score": 0.13, "match_basis": "verbatim_token+chapter_route:ch04"}, {"md_atom_id": "md_ch04_a212", "md_file": "knowledge_base/chapters/ch04_general_assumptions.md", "md_atom_type": "TABLE_ROW", "md_parent_section": "§4.2.3 [Use of \"Subject\" and USUBJID]", "md_verbatim": "| 1 | ACME14 | DM | ACME01-05-001 | 017 | 14 | Mary Smith |", "score": 0.1275, "match_basis": "verbatim_token+chapter_route:ch04"}, {"md_atom_id": "md_ch04_a930", "md_file": "knowledge_base/chapters/ch04_general_assumptions.md", "md_atom_type": "TABLE_HEADER", "md_parent_section": "§4.5.3.2 [Text Strings Greater than 200 Characters in Other Variables]", "md_verbatim": "| Row | STUDYID | DOMAIN | USUBJID | AESEQ | AETERM | AEACNOTH |\n|-----|---------|--------|---------|-------|--------|----------|", "score": 0.1094, "match_basis": "verbatim_token+chapter_route:ch04"}, {"md_atom_id": "md_ch04_a934", "md_file": "knowledge_base/chapters/ch04_general_assumptions.md", "md_atom_type": "TABLE_ROW", "md_parent_section": "§4.5.3.2 [Text Strings Greater than 200 Characters in Other Variables]", "md_verbatim": "| 1 | 12345 | AE | 99-123 | AESEQ | 4 | AEACNOT1 | Other Action Taken | remaining characters of text | CRF |", "score": 0.1043, "match_basis": "verbatim_token+chapter_route:ch04"}, {"md_atom_id": "md_ch04_a965", "md_file": "knowledge_base/chapters/ch04_general_assumptions.md", "md_atom_type": "TABLE_ROW", "md_parent_section": "§4.5.4 [Evaluators in the Interventions and Events Observation Classes]", "md_verbatim": "| 1 | 12345 | AE | 99-123 | AESEQ | 3 | AESEV1 | Severity/ Intensity | MILD | CRF | ADJUDICATION COMMITTEE |", "score": 0.1043, "match_basis": "verbatim_token+chapter_route:ch04"}, {"md_atom_id": "md_ch04_a966", "md_file": "knowledge_base/chapters/ch04_general_assumptions.md", "md_atom_type": "TABLE_ROW", "md_parent_section": "§4.5.4 [Evaluators in the Interventions and Events Observation Classes]", "md_verbatim": "| 2 | 12345 | AE | 99-123 | AESEQ | 3 | AEREL1 | Causality | POSSIBLY RELATED | CRF | ADJUDICATION COMMITTEE |", "score": 0.1025, "match_basis": "verbatim_token+chapter_route:ch04"}, {"md_atom_id": "md_ch04_a266", "md_file": "knowledge_base/chapters/ch04_general_assumptions.md", "md_atom_type": "LIST_ITEM", "md_parent_section": "§4.2.7.1 [\"Specify\" Values for Non-Result Qualifier Variables]", "md_verbatim": "- SUPPAE QNAM = \"AESOSP\", QLABEL = \"Other Medically Important SAE\", QVAL = \"HIGH RISK FOR ADDITIONAL THROMBOSIS\"", "score": 0.1003, "match_basis": "verbatim_token+chapter_route:ch04"}, {"md_atom_id": "md_ch04_a967", "md_file": "knowledge_base/chapters/ch04_general_assumptions.md", "md_atom_type": "TABLE_ROW", "md_parent_section": "§4.5.4 [Evaluators in the Interventions and Events Observation Classes]", "md_verbatim": "| 3 | 12345 | AE | 99-123 | AESEQ | 3 | AERELNS1 | Relationship to Non-study Treatment | Possibly related to aspirin use | CRF | ADJUDICATION COMMITTEE |", "score": 0.0994, "match_basis": "verbatim_token+chapter_route:ch04"}, {"md_atom_id": "md_ch04_a001", "md_file": "knowledge_base/chapters/ch04_general_assumptions.md", "md_atom_type": "HEADING", "md_parent_section": "§4 [Assumptions for Domain Models]", "md_verbatim": "# SDTMIG v3.4 — Chapter 4: Assumptions for Domain Models", "score": 0.09, "match_basis": "verbatim_token+chapter_route:ch04"}], "candidate_count": 10, "zero_candidate": false}
{"pdf_atom_id": "ig34_p0031_a029", "pdf_atom_type": "LIST_ITEM", "pdf_source": "SDTMIG_v3.4", "pdf_page": 31, "pdf_parent_section": "§4.2.7.1 \"Specify\" Values for Non-result Qualifier Variables", "pdf_verbatim": "SUPPAE QNAM = \"AESOSP\", QLABEL = \"Other Medically Important SAE\", QVAL = \"HIGH RISK FOR ADDITIONAL THROMBOSIS\"", "figure_ref": null, "candidates": [{"md_atom_id": "md_ch04_a266", "md_file": "knowledge_base/chapters/ch04_general_assumptions.md", "md_atom_type": "LIST_ITEM", "md_parent_section": "§4.2.7.1 [\"Specify\" Values for Non-Result Qualifier Variables]", "md_verbatim": "- SUPPAE QNAM = \"AESOSP\", QLABEL = \"Other Medically Important SAE\", QVAL = \"HIGH RISK FOR ADDITIONAL THROMBOSIS\"", "score": 0.9, "match_basis": "verbatim_token+chapter_route:ch04"}, {"md_atom_id": "md_ch04_a289", "md_file": "knowledge_base/chapters/ch04_general_assumptions.md", "md_atom_type": "LIST_ITEM", "md_parent_section": "§4.2.7.1 [\"Specify\" Values for Non-Result Qualifier Variables]", "md_verbatim": "   - SUPPCM QNAM = \"CMINDOTH\", QLABEL = \"Other Indication\", QVAL = \"BROKEN ARM\"", "score": 0.4457, "match_basis": "verbatim_token+chapter_route:ch04"}, {"md_atom_id": "md_ch04_a292", "md_file": "knowledge_base/chapters/ch04_general_assumptions.md", "md_atom_type": "LIST_ITEM", "md_parent_section": "§4.2.7.1 [\"Specify\" Values for Non-Result Qualifier Variables]", "md_verbatim": "   - SUPPCM QNAM = \"CMINDOTH\", QLABEL = \"Other Indication\", QVAL = \"BROKEN ARM\"", "score": 0.4457, "match_basis": "verbatim_token+chapter_route:ch04"}, {"md_atom_id": "md_ch04_a914", "md_file": "knowledge_base/chapters/ch04_general_assumptions.md", "md_atom_type": "LIST_ITEM", "md_parent_section": "§4.5.3.2 [Text Strings Greater than 200 Characters in Other Variables]", "md_verbatim": "  - This is conceptually different from when there are multiple values for a non-result qualifier variable and values are individually stored in SUPP-- (in that case, both QNAM and QLABEL must be uniquely named per Section 4.2.8.3, Multiple Values for a Non-result Qualifier Variable)", "score": 0.387, "match_basis": "verbatim_token+chapter_route:ch04"}, {"md_atom_id": "md_ch04_a450", "md_file": "knowledge_base/chapters/ch04_general_assumptions.md", "md_atom_type": "LIST_ITEM", "md_parent_section": "§4.3.5 [Storing Controlled Terminology for Synonym Qualifier Variables (MedDRA and WHODrug)]", "md_verbatim": "- For concomitant medications, supplemental qualifiers may be used to represent additional coding dictionary information (e.g., a drug's ATC codes from the WHO Drug Dictionary); see Section 8.4, Relating Non-standard Variable Values to a Parent Domain", "score": 0.3863, "match_basis": "verbatim_token+chapter_route:ch04"}], "candidate_count": 5, "zero_candidate": false}
{"pdf_atom_id": "ig34_p0031_a030", "pdf_atom_type": "CODE_LITERAL", "pdf_source": "SDTMIG_v3.4", "pdf_page": 31, "pdf_parent_section": "§4.2.7.1 \"Specify\" Values for Non-result Qualifier Variables", "pdf_verbatim": "SUPPAE QNAM = \"AESOSP\", QLABEL = \"Other Medically Important SAE\", QVAL = \"HIGH RISK FOR ADDITIONAL THROMBOSIS\"", "figure_ref": null, "candidates": [{"md_atom_id": "md_ch04_a266", "md_file": "knowledge_base/chapters/ch04_general_assumptions.md", "md_atom_type": "LIST_ITEM", "md_parent_section": "§4.2.7.1 [\"Specify\" Values for Non-Result Qualifier Variables]", "md_verbatim": "- SUPPAE QNAM = \"AESOSP\", QLABEL = \"Other Medically Important SAE\", QVAL = \"HIGH RISK FOR ADDITIONAL THROMBOSIS\"", "score": 0.69, "match_basis": "verbatim_token+chapter_route:ch04"}, {"md_atom_id": "md_ch04_a289", "md_file": "knowledge_base/chapters/ch04_general_assumptions.md", "md_atom_type": "LIST_ITEM", "md_parent_section": "§4.2.7.1 [\"Specify\" Values for Non-Result Qualifier Variables]", "md_verbatim": "   - SUPPCM QNAM = \"CMINDOTH\", QLABEL = \"Other Indication\", QVAL = \"BROKEN ARM\"", "score": 0.2357, "match_basis": "verbatim_token+chapter_route:ch04"}, {"md_atom_id": "md_ch04_a292", "md_file": "knowledge_base/chapters/ch04_general_assumptions.md", "md_atom_type": "LIST_ITEM", "md_parent_section": "§4.2.7.1 [\"Specify\" Values for Non-Result Qualifier Variables]", "md_verbatim": "   - SUPPCM QNAM = \"CMINDOTH\", QLABEL = \"Other Indication\", QVAL = \"BROKEN ARM\"", "score": 0.2357, "match_basis": "verbatim_token+chapter_route:ch04"}, {"md_atom_id": "md_ch04_a264", "md_file": "knowledge_base/chapters/ch04_general_assumptions.md", "md_atom_type": "SENTENCE", "md_parent_section": "§4.2.7.1 [\"Specify\" Values for Non-Result Qualifier Variables]", "md_verbatim": "For example, when a description of \"Other Medically Important Serious Adverse Event\" category is collected on a CRF, the free-text description should be stored in the SUPPAE dataset.", "score": 0.2174, "match_basis": "verbatim_token+chapter_route:ch04"}, {"md_atom_id": "md_ch04_a372", "md_file": "knowledge_base/chapters/ch04_general_assumptions.md", "md_atom_type": "TABLE_HEADER", "md_parent_section": "§4.2.8.3 [Multiple Values for a Non-result Qualifier Variable]", "md_verbatim": "| QNAM | QLABEL | QVAL |\n|------|--------|------|", "score": 0.1773, "match_basis": "verbatim_token+chapter_route:ch04"}], "candidate_count": 5, "zero_candidate": false}
{"pdf_atom_id": "ig34_p0032_a001", "pdf_atom_type": "SENTENCE", "pdf_source": "SDTMIG_v3.4", "pdf_page": 32, "pdf_parent_section": "§4.2.7.1 \"Specify\" Values for Non-result Qualifier Variables", "pdf_verbatim": "Another example is a CRF that collects reason for dose adjustment with additional free-text description:", "figure_ref": null, "candidates": [{"md_atom_id": "md_ch04_a267", "md_file": "knowledge_base/chapters/ch04_general_assumptions.md", "md_atom_type": "SENTENCE", "md_parent_section": "§4.2.7.1 [\"Specify\" Values for Non-Result Qualifier Variables]", "md_verbatim": "Another example is a CRF that collects reason for dose adjustment with additional free-text description:", "score": 0.9, "match_basis": "verbatim_token+chapter_route:ch04"}, {"md_atom_id": "md_ch04_a264", "md_file": "knowledge_base/chapters/ch04_general_assumptions.md", "md_atom_type": "SENTENCE", "md_parent_section": "§4.2.7.1 [\"Specify\" Values for Non-Result Qualifier Variables]", "md_verbatim": "For example, when a description of \"Other Medically Important Serious Adverse Event\" category is collected on a CRF, the free-text description should be stored in the SUPPAE dataset.", "score": 0.4611, "match_basis": "verbatim_token+chapter_route:ch04"}, {"md_atom_id": "md_ch04_a721", "md_file": "knowledge_base/chapters/ch04_general_assumptions.md", "md_atom_type": "SENTENCE", "md_parent_section": "§4.4.10 [Representing Time Points]", "md_verbatim": "**Example: LB timed urine collections (pre-dose, 0-12 hours, 12-24 hours post-dose)**", "score": 0.4217, "match_basis": "verbatim_token+chapter_route:ch04"}, {"md_atom_id": "md_ch04_a338", "md_file": "knowledge_base/chapters/ch04_general_assumptions.md", "md_atom_type": "SENTENCE", "md_parent_section": "§4.2.7.3 [\"Specify\" Values for Topic Variables]", "md_verbatim": "For example, a lab CRF collected values for hemoglobin, hematocrit, and \"Other, specify\".", "score": 0.4171, "match_basis": "verbatim_token+chapter_route:ch04"}, {"md_atom_id": "md_ch04_a272", "md_file": "knowledge_base/chapters/ch04_general_assumptions.md", "md_atom_type": "SENTENCE", "md_parent_section": "§4.2.7.1 [\"Specify\" Values for Non-Result Qualifier Variables]", "md_verbatim": "The free-text description should be stored in the SUPPEX dataset.", "score": 0.4167, "match_basis": "verbatim_token+chapter_route:ch04"}], "candidate_count": 5, "zero_candidate": false}
{"pdf_atom_id": "ig34_p0032_a002", "pdf_atom_type": "TABLE_HEADER", "pdf_source": "SDTMIG_v3.4", "pdf_page": 32, "pdf_parent_section": "§4.2.7.1 \"Specify\" Values for Non-result Qualifier Variables", "pdf_verbatim": "Reason for Dose Adjustment (EXADJ) | Describe", "figure_ref": null, "candidates": [{"md_atom_id": "md_ch04_a268", "md_file": "knowledge_base/chapters/ch04_general_assumptions.md", "md_atom_type": "TABLE_HEADER", "md_parent_section": "§4.2.7.1 [\"Specify\" Values for Non-Result Qualifier Variables]", "md_verbatim": "| Reason for Dose Adjustment (EXADJ) | Describe |\n|------------------------------------|----------|", "score": 0.9, "match_basis": "verbatim_token+chapter_route:ch04"}, {"md_atom_id": "md_ch04_a711", "md_file": "knowledge_base/chapters/ch04_general_assumptions.md", "md_atom_type": "TABLE_ROW", "md_parent_section": "§4.4.10 [Representing Time Points]", "md_verbatim": "| --TPTREF | Time Point Reference description (e.g., \"DOSE 1 OF TREATMENT A\") |", "score": 0.3733, "match_basis": "verbatim_token+chapter_route:ch04"}, {"md_atom_id": "md_ch04_a271", "md_file": "knowledge_base/chapters/ch04_general_assumptions.md", "md_atom_type": "TABLE_ROW", "md_parent_section": "§4.2.7.1 [\"Specify\" Values for Non-Result Qualifier Variables]", "md_verbatim": "| [ ] Non-medical Reason             |          |", "score": 0.3228, "match_basis": "verbatim_token+chapter_route:ch04"}, {"md_atom_id": "md_ch04_a1034", "md_file": "knowledge_base/chapters/ch04_general_assumptions.md", "md_atom_type": "TABLE_HEADER", "md_parent_section": "§4.5.9 [Baseline Values]", "md_verbatim": "| Variable | Structure Where It Is Defined | Requirement in That Structure | Definition | Intended Use |\n|----------|-------------------------------|-------------------------------|------------|--------------|", "score": 0.3185, "match_basis": "verbatim_token+chapter_route:ch04"}, {"md_atom_id": "md_ch04_a707", "md_file": "knowledge_base/chapters/ch04_general_assumptions.md", "md_atom_type": "TABLE_HEADER", "md_parent_section": "§4.4.10 [Representing Time Points]", "md_verbatim": "| Variable | Purpose |\n|----------|---------|", "score": 0.3182, "match_basis": "verbatim_token+chapter_route:ch04"}], "candidate_count": 5, "zero_candidate": false}
{"pdf_atom_id": "ig34_p0032_a003", "pdf_atom_type": "TABLE_ROW", "pdf_source": "SDTMIG_v3.4", "pdf_page": 32, "pdf_parent_section": "§4.2.7.1 \"Specify\" Values for Non-result Qualifier Variables", "pdf_verbatim": "Adverse Event", "figure_ref": null, "candidates": [{"md_atom_id": "md_ch04_a269", "md_file": "knowledge_base/chapters/ch04_general_assumptions.md", "md_atom_type": "TABLE_ROW", "md_parent_section": "§4.2.7.1 [\"Specify\" Values for Non-Result Qualifier Variables]", "md_verbatim": "| [ ] Adverse Event                  |          |", "score": 0.9, "match_basis": "verbatim_token+chapter_route:ch04"}, {"md_atom_id": "md_ch04_a672", "md_file": "knowledge_base/chapters/ch04_general_assumptions.md", "md_atom_type": "SENTENCE", "md_parent_section": "§4.4.7 [Use of Relative Timing Variables]", "md_verbatim": "**Example 3: Adverse Events**", "score": 0.4629, "match_basis": "verbatim_token+chapter_route:ch04"}, {"md_atom_id": "md_ch04_a1003", "md_file": "knowledge_base/chapters/ch04_general_assumptions.md", "md_atom_type": "TABLE_ROW", "md_parent_section": "§4.5.7 [Presence or Absence of Prespecified Interventions and Events]", "md_verbatim": "| Prespecified event did not occur | Y | N | |", "score": 0.3783, "match_basis": "verbatim_token+chapter_route:ch04"}, {"md_atom_id": "md_ch04_a1002", "md_file": "knowledge_base/chapters/ch04_general_assumptions.md", "md_atom_type": "TABLE_ROW", "md_parent_section": "§4.5.7 [Presence or Absence of Prespecified Interventions and Events]", "md_verbatim": "| Prespecified event occurred | Y | Y | |", "score": 0.375, "match_basis": "verbatim_token+chapter_route:ch04"}, {"md_atom_id": "md_ch04_a1004", "md_file": "knowledge_base/chapters/ch04_general_assumptions.md", "md_atom_type": "TABLE_ROW", "md_parent_section": "§4.5.7 [Presence or Absence of Prespecified Interventions and Events]", "md_verbatim": "| Prespecified event has no response | Y | | NOT DONE |", "score": 0.3692, "match_basis": "verbatim_token+chapter_route:ch04"}], "candidate_count": 5, "zero_candidate": false}
{"pdf_atom_id": "ig34_p0032_a004", "pdf_atom_type": "TABLE_ROW", "pdf_source": "SDTMIG_v3.4", "pdf_page": 32, "pdf_parent_section": "§4.2.7.1 \"Specify\" Values for Non-result Qualifier Variables", "pdf_verbatim": "Insufficient Response", "figure_ref": null, "candidates": [{"md_atom_id": "md_ch04_a270", "md_file": "knowledge_base/chapters/ch04_general_assumptions.md", "md_atom_type": "TABLE_ROW", "md_parent_section": "§4.2.7.1 [\"Specify\" Values for Non-Result Qualifier Variables]", "md_verbatim": "| [ ] Insufficient Response          |          |", "score": 0.9, "match_basis": "verbatim_token+chapter_route:ch04"}, {"md_atom_id": "md_ch04_a1004", "md_file": "knowledge_base/chapters/ch04_general_assumptions.md", "md_atom_type": "TABLE_ROW", "md_parent_section": "§4.5.7 [Presence or Absence of Prespecified Interventions and Events]", "md_verbatim": "| Prespecified event has no response | Y | | NOT DONE |", "score": 0.44, "match_basis": "verbatim_token+chapter_route:ch04"}, {"md_atom_id": "md_ch04_a1003", "md_file": "knowledge_base/chapters/ch04_general_assumptions.md", "md_atom_type": "TABLE_ROW", "md_parent_section": "§4.5.7 [Presence or Absence of Prespecified Interventions and Events]", "md_verbatim": "| Prespecified event did not occur | Y | N | |", "score": 0.3581, "match_basis": "verbatim_token+chapter_route:ch04"}, {"md_atom_id": "md_ch04_a1002", "md_file": "knowledge_base/chapters/ch04_general_assumptions.md", "md_atom_type": "TABLE_ROW", "md_parent_section": "§4.5.7 [Presence or Absence of Prespecified Interventions and Events]", "md_verbatim": "| Prespecified event occurred | Y | Y | |", "score": 0.3562, "match_basis": "verbatim_token+chapter_route:ch04"}, {"md_atom_id": "md_ch04_a1001", "md_file": "knowledge_base/chapters/ch04_general_assumptions.md", "md_atom_type": "TABLE_ROW", "md_parent_section": "§4.5.7 [Presence or Absence of Prespecified Interventions and Events]", "md_verbatim": "| Spontaneously reported event occurred | | | |", "score": 0.3462, "match_basis": "verbatim_token+chapter_route:ch04"}], "candidate_count": 5, "zero_candidate": false}
{"pdf_atom_id": "ig34_p0032_a005", "pdf_atom_type": "TABLE_ROW", "pdf_source": "SDTMIG_v3.4", "pdf_page": 32, "pdf_parent_section": "§4.2.7.1 \"Specify\" Values for Non-result Qualifier Variables", "pdf_verbatim": "Non-medical Reason", "figure_ref": null, "candidates": [{"md_atom_id": "md_ch04_a271", "md_file": "knowledge_base/chapters/ch04_general_assumptions.md", "md_atom_type": "TABLE_ROW", "md_parent_section": "§4.2.7.1 [\"Specify\" Values for Non-Result Qualifier Variables]", "md_verbatim": "| [ ] Non-medical Reason             |          |", "score": 0.9, "match_basis": "verbatim_token+chapter_route:ch04"}, {"md_atom_id": "md_ch04_a273", "md_file": "knowledge_base/chapters/ch04_general_assumptions.md", "md_atom_type": "LIST_ITEM", "md_parent_section": "§4.2.7.1 [\"Specify\" Values for Non-Result Qualifier Variables]", "md_verbatim": "- EXADJ = \"NONMEDICAL REASON\"", "score": 0.52, "match_basis": "verbatim_token+chapter_route:ch04"}, {"md_atom_id": "md_ch04_a986", "md_file": "knowledge_base/chapters/ch04_general_assumptions.md", "md_atom_type": "TABLE_ROW", "md_parent_section": "§4.5.6 [Supplemental Reason Variables]", "md_verbatim": "| 1 | 12345 | HO | 99-123 | HOSEQ | 3 | HOREAS | Reason | REHABILITATION | CRF |", "score": 0.3774, "match_basis": "verbatim_token+chapter_route:ch04"}, {"md_atom_id": "md_ch04_a925", "md_file": "knowledge_base/chapters/ch04_general_assumptions.md", "md_atom_type": "TABLE_ROW", "md_parent_section": "§4.5.3.2 [Text Strings Greater than 200 Characters in Other Variables]", "md_verbatim": "| 2 | 12345 | MH | 99-123 | MHSEQ | 6 | MHTERM2 | Reported Term for the Medical History | last 100 or more chars of text | CRF |", "score": 0.3667, "match_basis": "verbatim_token+chapter_route:ch04"}, {"md_atom_id": "md_ch04_a944", "md_file": "knowledge_base/chapters/ch04_general_assumptions.md", "md_atom_type": "TABLE_ROW", "md_parent_section": "§4.5.3.2 [Text Strings Greater than 200 Characters in Other Variables]", "md_verbatim": "| 2 | 12345 | PR | 99-123 | PRSEQ | 4 | PRREAS1 | Reason | remaining characters of text | CRF |", "score": 0.3649, "match_basis": "verbatim_token+chapter_route:ch04"}], "candidate_count": 5, "zero_candidate": false}
{"pdf_atom_id": "ig34_p0032_a006", "pdf_atom_type": "SENTENCE", "pdf_source": "SDTMIG_v3.4", "pdf_page": 32, "pdf_parent_section": "§4.2.7.1 \"Specify\" Values for Non-result Qualifier Variables", "pdf_verbatim": "The free-text description should be stored in the SUPPEX dataset.", "figure_ref": null, "candidates": [{"md_atom_id": "md_ch04_a272", "md_file": "knowledge_base/chapters/ch04_general_assumptions.md", "md_atom_type": "SENTENCE", "md_parent_section": "§4.2.7.1 [\"Specify\" Values for Non-Result Qualifier Variables]", "md_verbatim": "The free-text description should be stored in the SUPPEX dataset.", "score": 0.9, "match_basis": "verbatim_token+chapter_route:ch04"}, {"md_atom_id": "md_ch04_a264", "md_file": "knowledge_base/chapters/ch04_general_assumptions.md", "md_atom_type": "SENTENCE", "md_parent_section": "§4.2.7.1 [\"Specify\" Values for Non-Result Qualifier Variables]", "md_verbatim": "For example, when a description of \"Other Medically Important Serious Adverse Event\" category is collected on a CRF, the free-text description should be stored in the SUPPAE dataset.", "score": 0.5071, "match_basis": "verbatim_token+chapter_route:ch04"}, {"md_atom_id": "md_ch04_a336", "md_file": "knowledge_base/chapters/ch04_general_assumptions.md", "md_atom_type": "SENTENCE", "md_parent_section": "§4.2.7.3 [\"Specify\" Values for Topic Variables]", "md_verbatim": "--TESTCD and --TEST should be populated with the code and description of the test found in the specified text.", "score": 0.4684, "match_basis": "verbatim_token+chapter_route:ch04"}, {"md_atom_id": "md_ch04_a333", "md_file": "knowledge_base/chapters/ch04_general_assumptions.md", "md_atom_type": "SENTENCE", "md_parent_section": "§4.2.7.3 [\"Specify\" Values for Topic Variables]", "md_verbatim": "--TERM should be populated with the description of the event found in the specified text and --PRESP could be used to distinguish between prespecified and free-text responses.", "score": 0.4333, "match_basis": "verbatim_token+chapter_route:ch04"}, {"md_atom_id": "md_ch04_a262", "md_file": "knowledge_base/chapters/ch04_general_assumptions.md", "md_atom_type": "SENTENCE", "md_parent_section": "§4.2.7.1 [\"Specify\" Values for Non-Result Qualifier Variables]", "md_verbatim": "When free-text information is collected to supplement a standard non-result qualifier field, the free-text value should be placed in the SUPP-- dataset described in Section 8.4, Relating Non-standard Variable Values to a Parent Domain.", "score": 0.4269, "match_basis": "verbatim_token+chapter_route:ch04"}], "candidate_count": 5, "zero_candidate": false}
{"pdf_atom_id": "ig34_p0032_a007", "pdf_atom_type": "LIST_ITEM", "pdf_source": "SDTMIG_v3.4", "pdf_page": 32, "pdf_parent_section": "§4.2.7.1 \"Specify\" Values for Non-result Qualifier Variables", "pdf_verbatim": "EXADJ = \"NONMEDICAL REASON\"", "figure_ref": null, "candidates": [{"md_atom_id": "md_ch04_a273", "md_file": "knowledge_base/chapters/ch04_general_assumptions.md", "md_atom_type": "LIST_ITEM", "md_parent_section": "§4.2.7.1 [\"Specify\" Values for Non-Result Qualifier Variables]", "md_verbatim": "- EXADJ = \"NONMEDICAL REASON\"", "score": 0.9, "match_basis": "verbatim_token+chapter_route:ch04"}, {"md_atom_id": "md_ch04_a271", "md_file": "knowledge_base/chapters/ch04_general_assumptions.md", "md_atom_type": "TABLE_ROW", "md_parent_section": "§4.2.7.1 [\"Specify\" Values for Non-Result Qualifier Variables]", "md_verbatim": "| [ ] Non-medical Reason             |          |", "score": 0.55, "match_basis": "verbatim_token+chapter_route:ch04"}, {"md_atom_id": "md_ch04_a651", "md_file": "knowledge_base/chapters/ch04_general_assumptions.md", "md_atom_type": "LIST_ITEM", "md_parent_section": "§4.4.7 [Use of Relative Timing Variables]", "md_verbatim": "- **Medical History (--STRTPT/--ENRTPT):** --STRTPT = \"BEFORE\", --STTPT = \"INFORMED CONSENT\"", "score": 0.3732, "match_basis": "verbatim_token+chapter_route:ch04"}, {"md_atom_id": "md_ch04_a654", "md_file": "knowledge_base/chapters/ch04_general_assumptions.md", "md_atom_type": "SENTENCE", "md_parent_section": "§4.4.7 [Use of Relative Timing Variables]", "md_verbatim": "**Example 1: Medical History**", "score": 0.36, "match_basis": "verbatim_token+chapter_route:ch04"}, {"md_atom_id": "md_ch04_a652", "md_file": "knowledge_base/chapters/ch04_general_assumptions.md", "md_atom_type": "LIST_ITEM", "md_parent_section": "§4.4.7 [Use of Relative Timing Variables]", "md_verbatim": "- **Concomitant Medications (--STRF/--ENRF):** --STRF = \"BEFORE\", --ENRF = \"DURING\"", "score": 0.3585, "match_basis": "verbatim_token+chapter_route:ch04"}], "candidate_count": 5, "zero_candidate": false}
{"pdf_atom_id": "ig34_p0032_a008", "pdf_atom_type": "CODE_LITERAL", "pdf_source": "SDTMIG_v3.4", "pdf_page": 32, "pdf_parent_section": "§4.2.7.1 \"Specify\" Values for Non-result Qualifier Variables", "pdf_verbatim": "EXADJ = \"NONMEDICAL REASON\"", "figure_ref": null, "candidates": [{"md_atom_id": "md_ch04_a273", "md_file": "knowledge_base/chapters/ch04_general_assumptions.md", "md_atom_type": "LIST_ITEM", "md_parent_section": "§4.2.7.1 [\"Specify\" Values for Non-Result Qualifier Variables]", "md_verbatim": "- EXADJ = \"NONMEDICAL REASON\"", "score": 0.69, "match_basis": "verbatim_token+chapter_route:ch04"}, {"md_atom_id": "md_ch04_a271", "md_file": "knowledge_base/chapters/ch04_general_assumptions.md", "md_atom_type": "TABLE_ROW", "md_parent_section": "§4.2.7.1 [\"Specify\" Values for Non-Result Qualifier Variables]", "md_verbatim": "| [ ] Non-medical Reason             |          |", "score": 0.49, "match_basis": "verbatim_token+chapter_route:ch04"}, {"md_atom_id": "md_ch04_a654", "md_file": "knowledge_base/chapters/ch04_general_assumptions.md", "md_atom_type": "SENTENCE", "md_parent_section": "§4.4.7 [Use of Relative Timing Variables]", "md_verbatim": "**Example 1: Medical History**", "score": 0.24, "match_basis": "verbatim_token+chapter_route:ch04"}, {"md_atom_id": "md_ch04_a268", "md_file": "knowledge_base/chapters/ch04_general_assumptions.md", "md_atom_type": "TABLE_HEADER", "md_parent_section": "§4.2.7.1 [\"Specify\" Values for Non-Result Qualifier Variables]", "md_verbatim": "| Reason for Dose Adjustment (EXADJ) | Describe |\n|------------------------------------|----------|", "score": 0.2255, "match_basis": "verbatim_token+chapter_route:ch04"}, {"md_atom_id": "md_ch04_a663", "md_file": "knowledge_base/chapters/ch04_general_assumptions.md", "md_atom_type": "SENTENCE", "md_parent_section": "§4.4.7 [Use of Relative Timing Variables]", "md_verbatim": "**Example 2: Prior and Concomitant Medications**", "score": 0.1711, "match_basis": "verbatim_token+chapter_route:ch04"}], "candidate_count": 5, "zero_candidate": false}
{"pdf_atom_id": "ig34_p0032_a009", "pdf_atom_type": "LIST_ITEM", "pdf_source": "SDTMIG_v3.4", "pdf_page": 32, "pdf_parent_section": "§4.2.7.1 \"Specify\" Values for Non-result Qualifier Variables", "pdf_verbatim": "SUPPEX QNAM = \"EXADJDSC\", QLABEL = \"Reason For Dose Adjustment Description\", QVAL = \"PATIENT MISUNDERSTOOD INSTRUCTIONS\"", "figure_ref": null, "candidates": [{"md_atom_id": "md_ch04_a274", "md_file": "knowledge_base/chapters/ch04_general_assumptions.md", "md_atom_type": "LIST_ITEM", "md_parent_section": "§4.2.7.1 [\"Specify\" Values for Non-Result Qualifier Variables]", "md_verbatim": "- SUPPEX QNAM = \"EXADJDSC\", QLABEL = \"Reason For Dose Adjustment Description\", QVAL = \"PATIENT MISUNDERSTOOD INSTRUCTIONS\"", "score": 0.9, "match_basis": "verbatim_token+chapter_route:ch04"}, {"md_atom_id": "md_ch04_a289", "md_file": "knowledge_base/chapters/ch04_general_assumptions.md", "md_atom_type": "LIST_ITEM", "md_parent_section": "§4.2.7.1 [\"Specify\" Values for Non-Result Qualifier Variables]", "md_verbatim": "   - SUPPCM QNAM = \"CMINDOTH\", QLABEL = \"Other Indication\", QVAL = \"BROKEN ARM\"", "score": 0.394, "match_basis": "verbatim_token+chapter_route:ch04"}, {"md_atom_id": "md_ch04_a292", "md_file": "knowledge_base/chapters/ch04_general_assumptions.md", "md_atom_type": "LIST_ITEM", "md_parent_section": "§4.2.7.1 [\"Specify\" Values for Non-Result Qualifier Variables]", "md_verbatim": "   - SUPPCM QNAM = \"CMINDOTH\", QLABEL = \"Other Indication\", QVAL = \"BROKEN ARM\"", "score": 0.394, "match_basis": "verbatim_token+chapter_route:ch04"}, {"md_atom_id": "md_ch04_a913", "md_file": "knowledge_base/chapters/ch04_general_assumptions.md", "md_atom_type": "LIST_ITEM", "md_parent_section": "§4.5.3.2 [Text Strings Greater than 200 Characters in Other Variables]", "md_verbatim": "  - The reason a digit integer or suffix is not appended to the label is because the long text string represents a single value for a variable; the physical representation (SAS V5 transport file format) does not change the concept described by the label", "score": 0.3816, "match_basis": "verbatim_token+chapter_route:ch04"}, {"md_atom_id": "md_ch04_a446", "md_file": "knowledge_base/chapters/ch04_general_assumptions.md", "md_atom_type": "LIST_ITEM", "md_parent_section": "§4.3.5 [Storing Controlled Terminology for Synonym Qualifier Variables (MedDRA and WHODrug)]", "md_verbatim": "  - For example, **--LLT** should be used to represent the Lowest Level Term text description and **--LLTCD** should be used to represent the Lowest Level Term code value", "score": 0.378, "match_basis": "verbatim_token+chapter_route:ch04"}], "candidate_count": 5, "zero_candidate": false}
{"pdf_atom_id": "ig34_p0032_a010", "pdf_atom_type": "CODE_LITERAL", "pdf_source": "SDTMIG_v3.4", "pdf_page": 32, "pdf_parent_section": "§4.2.7.1 \"Specify\" Values for Non-result Qualifier Variables", "pdf_verbatim": "SUPPEX QNAM = \"EXADJDSC\", QLABEL = \"Reason For Dose Adjustment Description\", QVAL = \"PATIENT MISUNDERSTOOD INSTRUCTIONS\"", "figure_ref": null, "candidates": [{"md_atom_id": "md_ch04_a274", "md_file": "knowledge_base/chapters/ch04_general_assumptions.md", "md_atom_type": "LIST_ITEM", "md_parent_section": "§4.2.7.1 [\"Specify\" Values for Non-Result Qualifier Variables]", "md_verbatim": "- SUPPEX QNAM = \"EXADJDSC\", QLABEL = \"Reason For Dose Adjustment Description\", QVAL = \"PATIENT MISUNDERSTOOD INSTRUCTIONS\"", "score": 0.69, "match_basis": "verbatim_token+chapter_route:ch04"}, {"md_atom_id": "md_ch04_a268", "md_file": "knowledge_base/chapters/ch04_general_assumptions.md", "md_atom_type": "TABLE_HEADER", "md_parent_section": "§4.2.7.1 [\"Specify\" Values for Non-Result Qualifier Variables]", "md_verbatim": "| Reason for Dose Adjustment (EXADJ) | Describe |\n|------------------------------------|----------|", "score": 0.2809, "match_basis": "verbatim_token+chapter_route:ch04"}, {"md_atom_id": "md_ch04_a267", "md_file": "knowledge_base/chapters/ch04_general_assumptions.md", "md_atom_type": "SENTENCE", "md_parent_section": "§4.2.7.1 [\"Specify\" Values for Non-Result Qualifier Variables]", "md_verbatim": "Another example is a CRF that collects reason for dose adjustment with additional free-text description:", "score": 0.2496, "match_basis": "verbatim_token+chapter_route:ch04"}, {"md_atom_id": "md_ch04_a711", "md_file": "knowledge_base/chapters/ch04_general_assumptions.md", "md_atom_type": "TABLE_ROW", "md_parent_section": "§4.4.10 [Representing Time Points]", "md_verbatim": "| --TPTREF | Time Point Reference description (e.g., \"DOSE 1 OF TREATMENT A\") |", "score": 0.2011, "match_basis": "verbatim_token+chapter_route:ch04"}, {"md_atom_id": "md_ch04_a272", "md_file": "knowledge_base/chapters/ch04_general_assumptions.md", "md_atom_type": "SENTENCE", "md_parent_section": "§4.2.7.1 [\"Specify\" Values for Non-Result Qualifier Variables]", "md_verbatim": "The free-text description should be stored in the SUPPEX dataset.", "score": 0.1937, "match_basis": "verbatim_token+chapter_route:ch04"}], "candidate_count": 5, "zero_candidate": false}
{"pdf_atom_id": "ig34_p0032_a011", "pdf_atom_type": "NOTE", "pdf_source": "SDTMIG_v3.4", "pdf_page": 32, "pdf_parent_section": "§4.2.7.1 \"Specify\" Values for Non-result Qualifier Variables", "pdf_verbatim": "Note that QNAM references the \"parent\" variable name with the addition of \"DSC\". Likewise, the label is a modification of the parent variable label.", "figure_ref": null, "candidates": [{"md_atom_id": "md_ch04_a275", "md_file": "knowledge_base/chapters/ch04_general_assumptions.md", "md_atom_type": "NOTE", "md_parent_section": "§4.2.7.1 [\"Specify\" Values for Non-Result Qualifier Variables]", "md_verbatim": "> **Note:** QNAM references the \"parent\" variable name with the addition of \"DSC\". Likewise, the label is a modification of the parent variable label.", "score": 0.8765, "match_basis": "verbatim_token+chapter_route:ch04"}, {"md_atom_id": "md_ch04_a649", "md_file": "knowledge_base/chapters/ch04_general_assumptions.md", "md_atom_type": "NOTE", "md_parent_section": "§4.4.7 [Use of Relative Timing Variables]", "md_verbatim": "**Note:** \"DURING\" and \"DURING/AFTER\" are in the STENRF codelist but describe timing relative to an interval of time rather than a point in time, so are **not allowable for use with --STRTPT and --ENRTPT** variables.", "score": 0.3771, "match_basis": "verbatim_token+chapter_route:ch04"}, {"md_atom_id": "md_ch04_a473", "md_file": "knowledge_base/chapters/ch04_general_assumptions.md", "md_atom_type": "NOTE", "md_parent_section": "§4.3.7 [Use of \"Yes\" and \"No\" Values]", "md_verbatim": "> **Note:** Permissible values for variables with controlled terms of \"Y\" or \"N\" may be extended to include \"U\" or \"NA\" if it is the sponsor's practice to explicitly collect or derive values indicating \"Unknown\" or \"Not Applicable\" for that variable.", "score": 0.3762, "match_basis": "verbatim_token+chapter_route:ch04"}, {"md_atom_id": "md_ch04_a068", "md_file": "knowledge_base/chapters/ch04_general_assumptions.md", "md_atom_type": "NOTE", "md_parent_section": "§4.1.7 [Splitting Domains]", "md_verbatim": "> **Note:** Submission of split SDTM domains may be subject to additional dataset-splitting conventions as defined by regulators via technical specifications and/or as negotiated with regulatory reviewers.", "score": 0.3733, "match_basis": "verbatim_token+chapter_route:ch04"}, {"md_atom_id": "md_ch04_a692", "md_file": "knowledge_base/chapters/ch04_general_assumptions.md", "md_atom_type": "NOTE", "md_parent_section": "§4.4.8 [Date and Time Reported in a Domain Based on Findings]", "md_verbatim": "**Note:** --STDTC should not be used in the Findings general observation class and is therefore blank in this table.", "score": 0.3659, "match_basis": "verbatim_token+chapter_route:ch04"}], "candidate_count": 5, "zero_candidate": false}
{"pdf_atom_id": "ig34_p0032_a012", "pdf_atom_type": "SENTENCE", "pdf_source": "SDTMIG_v3.4", "pdf_page": 32, "pdf_parent_section": "§4.2.7.1 \"Specify\" Values for Non-result Qualifier Variables", "pdf_verbatim": "When the CRF includes a list of values for a qualifier field that includes \"Other\" and the \"Other\" is supplemented with a \"Specify\" free-text field, then the manner in which the free-text \"Specify\" value is submitted will vary based on the sponsor's coding practice and analysis requirements.", "figure_ref": null, "candidates": [{"md_atom_id": "md_ch04_a276", "md_file": "knowledge_base/chapters/ch04_general_assumptions.md", "md_atom_type": "SENTENCE", "md_parent_section": "§4.2.7.1 [\"Specify\" Values for Non-Result Qualifier Variables]", "md_verbatim": "When the CRF includes a list of values for a qualifier field that includes \"Other\" and the \"Other\" is supplemented with a \"Specify\" free-text field, then the manner in which the free-text \"Specify\" value is submitted will vary based on the sponsor's coding practice and analysis requirements.", "score": 0.9, "match_basis": "verbatim_token+chapter_route:ch04"}, {"md_atom_id": "md_ch04_a297", "md_file": "knowledge_base/chapters/ch04_general_assumptions.md", "md_atom_type": "SENTENCE", "md_parent_section": "§4.2.7.2 [\"Specify\" Values for Result Qualifier Variables]", "md_verbatim": "When the CRF includes a list of values for a result field that includes \"Other\" and the \"Other\" is supplemented with a \"Specify\" free-text field, then the manner in which the free-text \"Specify\" value is submitted will vary based on the sponsor's coding practice and analysis requirements.", "score": 0.8423, "match_basis": "verbatim_token+chapter_route:ch04"}, {"md_atom_id": "md_ch04_a293", "md_file": "knowledge_base/chapters/ch04_general_assumptions.md", "md_atom_type": "SENTENCE", "md_parent_section": "§4.2.7.1 [\"Specify\" Values for Non-Result Qualifier Variables]", "md_verbatim": "   Note that the sponsor might choose a different value for CMINDC (e.g., \"BONE FRACTURE\") depending on the sponsor's coding practice and analysis requirements.", "score": 0.48, "match_basis": "verbatim_token+chapter_route:ch04"}, {"md_atom_id": "md_ch04_a440", "md_file": "knowledge_base/chapters/ch04_general_assumptions.md", "md_atom_type": "SENTENCE", "md_parent_section": "§4.3.4 [Use of Controlled Terminology and Arbitrary Number Codes]", "md_verbatim": "Numeric code values may be submitted as Supplemental Qualifiers if necessary.", "score": 0.4448, "match_basis": "verbatim_token+chapter_route:ch04"}, {"md_atom_id": "md_ch04_a262", "md_file": "knowledge_base/chapters/ch04_general_assumptions.md", "md_atom_type": "SENTENCE", "md_parent_section": "§4.2.7.1 [\"Specify\" Values for Non-Result Qualifier Variables]", "md_verbatim": "When free-text information is collected to supplement a standard non-result qualifier field, the free-text value should be placed in the SUPP-- dataset described in Section 8.4, Relating Non-standard Variable Values to a Parent Domain.", "score": 0.4358, "match_basis": "verbatim_token+chapter_route:ch04"}], "candidate_count": 5, "zero_candidate": false}
{"pdf_atom_id": "ig34_p0032_a013", "pdf_atom_type": "SENTENCE", "pdf_source": "SDTMIG_v3.4", "pdf_page": 32, "pdf_parent_section": "§4.2.7.1 \"Specify\" Values for Non-result Qualifier Variables", "pdf_verbatim": "For example, consider a CRF that collects the indication for an analgesic concomitant medication (CMINDC) using a list of prespecified values and an \"Other, specify\" field :", "figure_ref": null, "candidates": [{"md_atom_id": "md_ch04_a277", "md_file": "knowledge_base/chapters/ch04_general_assumptions.md", "md_atom_type": "SENTENCE", "md_parent_section": "§4.2.7.1 [\"Specify\" Values for Non-Result Qualifier Variables]", "md_verbatim": "For example, consider a CRF that collects the indication for an analgesic concomitant medication (CMINDC) using a list of prespecified values and an \"Other, specify\" field:", "score": 0.9, "match_basis": "verbatim_token+chapter_route:ch04"}, {"md_atom_id": "md_ch04_a663", "md_file": "knowledge_base/chapters/ch04_general_assumptions.md", "md_atom_type": "SENTENCE", "md_parent_section": "§4.4.7 [Use of Relative Timing Variables]", "md_verbatim": "**Example 2: Prior and Concomitant Medications**", "score": 0.4846, "match_basis": "verbatim_token+chapter_route:ch04"}, {"md_atom_id": "md_ch04_a636", "md_file": "knowledge_base/chapters/ch04_general_assumptions.md", "md_atom_type": "SENTENCE", "md_parent_section": "§4.4.7 [Use of Relative Timing Variables]", "md_verbatim": "Note that in this example, the information collected is with respect to the start of the concomitant medication use only, and therefore the collected data corresponds to variable CMSTRF, not CMENRF.", "score": 0.4835, "match_basis": "verbatim_token+chapter_route:ch04"}, {"md_atom_id": "md_ch04_a988", "md_file": "knowledge_base/chapters/ch04_general_assumptions.md", "md_atom_type": "SENTENCE", "md_parent_section": "§4.5.7 [Presence or Absence of Prespecified Interventions and Events]", "md_verbatim": "Interventions (e.g., concomitant medications) and events (e.g., medical history) can generally be collected in 2 different ways, by recording either verbatim free text or the responses to a prespecified list of treatments or terms.", "score": 0.4708, "match_basis": "verbatim_token+chapter_route:ch04"}, {"md_atom_id": "md_ch04_a338", "md_file": "knowledge_base/chapters/ch04_general_assumptions.md", "md_atom_type": "SENTENCE", "md_parent_section": "§4.2.7.3 [\"Specify\" Values for Topic Variables]", "md_verbatim": "For example, a lab CRF collected values for hemoglobin, hematocrit, and \"Other, specify\".", "score": 0.4613, "match_basis": "verbatim_token+chapter_route:ch04"}], "candidate_count": 5, "zero_candidate": false}
{"pdf_atom_id": "ig34_p0032_a014", "pdf_atom_type": "TABLE_HEADER", "pdf_source": "SDTMIG_v3.4", "pdf_page": 32, "pdf_parent_section": "§4.2.7.1 \"Specify\" Values for Non-result Qualifier Variables", "pdf_verbatim": "Indication for analgesic | Post-operative pain / Headache / Menstrual pain / Myalgia / Toothache / Other, specify: ___________", "figure_ref": null, "candidates": [{"md_atom_id": "md_ch04_a278", "md_file": "knowledge_base/chapters/ch04_general_assumptions.md", "md_atom_type": "TABLE_HEADER", "md_parent_section": "§4.2.7.1 [\"Specify\" Values for Non-Result Qualifier Variables]", "md_verbatim": "| Indication for analgesic | Options                        |\n|--------------------------|--------------------------------|", "score": 0.4655, "match_basis": "verbatim_token+chapter_route:ch04"}, {"md_atom_id": "md_ch04_a321", "md_file": "knowledge_base/chapters/ch04_general_assumptions.md", "md_atom_type": "TABLE_HEADER", "md_parent_section": "§4.2.7.3 [\"Specify\" Values for Topic Variables]", "md_verbatim": "| Indicate which of the following concomitant medications was used to treat the subject's headaches: | Options                       |\n|----------------------------------------------------------------------------------------------------|-------------------------------|", "score": 0.3978, "match_basis": "verbatim_token+chapter_route:ch04"}, {"md_atom_id": "md_ch04_a279", "md_file": "knowledge_base/chapters/ch04_general_assumptions.md", "md_atom_type": "TABLE_ROW", "md_parent_section": "§4.2.7.1 [\"Specify\" Values for Non-Result Qualifier Variables]", "md_verbatim": "|                          | [ ] Post-operative pain        |", "score": 0.36, "match_basis": "verbatim_token+chapter_route:ch04"}, {"md_atom_id": "md_ch04_a1034", "md_file": "knowledge_base/chapters/ch04_general_assumptions.md", "md_atom_type": "TABLE_HEADER", "md_parent_section": "§4.5.9 [Baseline Values]", "md_verbatim": "| Variable | Structure Where It Is Defined | Requirement in That Structure | Definition | Intended Use |\n|----------|-------------------------------|-------------------------------|------------|--------------|", "score": 0.3457, "match_basis": "verbatim_token+chapter_route:ch04"}, {"md_atom_id": "md_ch04_a579", "md_file": "knowledge_base/chapters/ch04_general_assumptions.md", "md_atom_type": "TABLE_HEADER", "md_parent_section": "§4.4.3.1 [Intervals of Time and Use of Duration]", "md_verbatim": "| Duration as originally recorded | ISO 8601 Duration |\n|---------------------------------|-------------------|", "score": 0.3411, "match_basis": "verbatim_token+chapter_route:ch04"}], "candidate_count": 5, "zero_candidate": false}
{"pdf_atom_id": "ig34_p0032_a015", "pdf_atom_type": "SENTENCE", "pdf_source": "SDTMIG_v3.4", "pdf_page": 32, "pdf_parent_section": "§4.2.7.1 \"Specify\" Values for Non-result Qualifier Variables", "pdf_verbatim": "An investigator has selected \"OTHER\" and specified \"Broken arm\".", "figure_ref": null, "candidates": [{"md_atom_id": "md_ch04_a285", "md_file": "knowledge_base/chapters/ch04_general_assumptions.md", "md_atom_type": "SENTENCE", "md_parent_section": "§4.2.7.1 [\"Specify\" Values for Non-Result Qualifier Variables]", "md_verbatim": "An investigator has selected \"OTHER\" and specified \"Broken arm\".", "score": 0.9, "match_basis": "verbatim_token+chapter_route:ch04"}, {"md_atom_id": "md_ch04_a305", "md_file": "knowledge_base/chapters/ch04_general_assumptions.md", "md_atom_type": "SENTENCE", "md_parent_section": "§4.2.7.2 [\"Specify\" Values for Result Qualifier Variables]", "md_verbatim": "An investigator has selected \"OTHER\" and specified \"BLUEISH GRAY\".", "score": 0.72, "match_basis": "verbatim_token+chapter_route:ch04"}, {"md_atom_id": "md_ch04_a339", "md_file": "knowledge_base/chapters/ch04_general_assumptions.md", "md_atom_type": "SENTENCE", "md_parent_section": "§4.2.7.3 [\"Specify\" Values for Topic Variables]", "md_verbatim": "The value the investigator wrote for \"Other, specify\" was \"Prothrombin time\" with an associated result and units.", "score": 0.4701, "match_basis": "verbatim_token+chapter_route:ch04"}, {"md_atom_id": "md_ch04_a998", "md_file": "knowledge_base/chapters/ch04_general_assumptions.md", "md_atom_type": "SENTENCE", "md_parent_section": "§4.5.7 [Presence or Absence of Prespecified Interventions and Events]", "md_verbatim": "The --STAT and --REASND variables can be used to provide information about prespecified interventions and events for which there is no response (e.g., investigator forgot to ask).", "score": 0.4319, "match_basis": "verbatim_token+chapter_route:ch04"}, {"md_atom_id": "md_ch04_a338", "md_file": "knowledge_base/chapters/ch04_general_assumptions.md", "md_atom_type": "SENTENCE", "md_parent_section": "§4.2.7.3 [\"Specify\" Values for Topic Variables]", "md_verbatim": "For example, a lab CRF collected values for hemoglobin, hematocrit, and \"Other, specify\".", "score": 0.4238, "match_basis": "verbatim_token+chapter_route:ch04"}], "candidate_count": 5, "zero_candidate": false}
{"pdf_atom_id": "ig34_p0032_a016", "pdf_atom_type": "SENTENCE", "pdf_source": "SDTMIG_v3.4", "pdf_page": 32, "pdf_parent_section": "§4.2.7.1 \"Specify\" Values for Non-result Qualifier Variables", "pdf_verbatim": "Several options are available for submission of this data:", "figure_ref": null, "candidates": [{"md_atom_id": "md_ch04_a286", "md_file": "knowledge_base/chapters/ch04_general_assumptions.md", "md_atom_type": "SENTENCE", "md_parent_section": "§4.2.7.1 [\"Specify\" Values for Non-Result Qualifier Variables]", "md_verbatim": "Several options are available for submission of this data:", "score": 0.9, "match_basis": "verbatim_token+chapter_route:ch04"}, {"md_atom_id": "md_ch04_a306", "md_file": "knowledge_base/chapters/ch04_general_assumptions.md", "md_atom_type": "SENTENCE", "md_parent_section": "§4.2.7.2 [\"Specify\" Values for Result Qualifier Variables]", "md_verbatim": "As in the preceding discussion for non-result qualifier values, the sponsor has several options for submission:", "score": 0.4688, "match_basis": "verbatim_token+chapter_route:ch04"}, {"md_atom_id": "md_ch04_a428", "md_file": "knowledge_base/chapters/ch04_general_assumptions.md", "md_atom_type": "SENTENCE", "md_parent_section": "§4.3.2 [Controlled Terminology Text Case]", "md_verbatim": "See Section 4.2.4, Text Case in Submitted Data.", "score": 0.4, "match_basis": "verbatim_token+chapter_route:ch04"}, {"md_atom_id": "md_ch04_a555", "md_file": "knowledge_base/chapters/ch04_general_assumptions.md", "md_atom_type": "SENTENCE", "md_parent_section": "§4.4.3.1 [Intervals of Time and Use of Duration]", "md_verbatim": "If both --STDTC and --ENDTC are collected, durations can be calculated by the difference in these 2 values, and need not be in the submission dataset.", "score": 0.4, "match_basis": "verbatim_token+chapter_route:ch04"}, {"md_atom_id": "md_ch04_a980", "md_file": "knowledge_base/chapters/ch04_general_assumptions.md", "md_atom_type": "SENTENCE", "md_parent_section": "§4.5.6 [Supplemental Reason Variables]", "md_verbatim": "For the Findings general observation class, --REASPF is available to represent the reason a test was performed.", "score": 0.4, "match_basis": "verbatim_token+chapter_route:ch04"}], "candidate_count": 5, "zero_candidate": false}
{"pdf_atom_id": "ig34_p0032_a017", "pdf_atom_type": "LIST_ITEM", "pdf_source": "SDTMIG_v3.4", "pdf_page": 32, "pdf_parent_section": "§4.2.7.1 \"Specify\" Values for Non-result Qualifier Variables", "pdf_verbatim": "If the sponsor wishes to maintain controlled terminology for the CMINDC field and limit the terminology to the 5 prespecified choices, then the free text is placed in SUPPCM.", "figure_ref": null, "candidates": [{"md_atom_id": "md_ch04_a287", "md_file": "knowledge_base/chapters/ch04_general_assumptions.md", "md_atom_type": "LIST_ITEM", "md_parent_section": "§4.2.7.1 [\"Specify\" Values for Non-Result Qualifier Variables]", "md_verbatim": "1. If the sponsor wishes to maintain controlled terminology for the CMINDC field and limit the terminology to the 5 prespecified choices, then the free text is placed in SUPPCM.", "score": 0.9, "match_basis": "verbatim_token+chapter_route:ch04"}, {"md_atom_id": "md_ch04_a307", "md_file": "knowledge_base/chapters/ch04_general_assumptions.md", "md_atom_type": "LIST_ITEM", "md_parent_section": "§4.2.7.2 [\"Specify\" Values for Result Qualifier Variables]", "md_verbatim": "1. If the sponsor wishes to maintain controlled terminology in the standard result field and limit the terminology to the 5 prespecified choices, then the free text is placed in --ORRES and the controlled terminology in --STRESC.", "score": 0.7482, "match_basis": "verbatim_token+chapter_route:ch04"}, {"md_atom_id": "md_ch04_a290", "md_file": "knowledge_base/chapters/ch04_general_assumptions.md", "md_atom_type": "LIST_ITEM", "md_parent_section": "§4.2.7.1 [\"Specify\" Values for Non-Result Qualifier Variables]", "md_verbatim": "2. If the sponsor wishes to maintain controlled terminology for CMINDC but will expand the terminology based on values seen in the \"Other, specify\" field, then the value of CMINDC will reflect the sponsor's coding decision and SUPPCM could be used to store the verbatim text.", "score": 0.5661, "match_basis": "verbatim_token+chapter_route:ch04"}, {"md_atom_id": "md_ch04_a310", "md_file": "knowledge_base/chapters/ch04_general_assumptions.md", "md_atom_type": "LIST_ITEM", "md_parent_section": "§4.2.7.2 [\"Specify\" Values for Result Qualifier Variables]", "md_verbatim": "2. If the sponsor wishes to maintain controlled terminology in the standard result field, but will expand the terminology based on values seen in the \"Other, specify\" field, then the free text is placed in --ORRES and the value of --STRESC will reflect the sponsor's coding decision.", "score": 0.5609, "match_basis": "verbatim_token+chapter_route:ch04"}, {"md_atom_id": "md_ch04_a294", "md_file": "knowledge_base/chapters/ch04_general_assumptions.md", "md_atom_type": "LIST_ITEM", "md_parent_section": "§4.2.7.1 [\"Specify\" Values for Non-Result Qualifier Variables]", "md_verbatim": "3. If the sponsor does not require that controlled terminology be maintained and wishes for all responses to be stored in a single variable, then CMINDC will be used and SUPPCM is not required.", "score": 0.5563, "match_basis": "verbatim_token+chapter_route:ch04"}], "candidate_count": 5, "zero_candidate": false}
{"pdf_atom_id": "ig34_p0032_a018", "pdf_atom_type": "TABLE_HEADER", "pdf_source": "SDTMIG_v3.4", "pdf_page": 32, "pdf_parent_section": "§4.2.7.1 \"Specify\" Values for Non-result Qualifier Variables", "pdf_verbatim": "CMINDC | OTHER", "figure_ref": null, "candidates": [{"md_atom_id": "md_ch04_a288", "md_file": "knowledge_base/chapters/ch04_general_assumptions.md", "md_atom_type": "LIST_ITEM", "md_parent_section": "§4.2.7.1 [\"Specify\" Values for Non-Result Qualifier Variables]", "md_verbatim": "   - CMINDC = \"OTHER\"", "score": 0.69, "match_basis": "verbatim_token+chapter_route:ch04"}, {"md_atom_id": "md_ch04_a284", "md_file": "knowledge_base/chapters/ch04_general_assumptions.md", "md_atom_type": "TABLE_ROW", "md_parent_section": "§4.2.7.1 [\"Specify\" Values for Non-Result Qualifier Variables]", "md_verbatim": "|                          | [ ] Other, specify: _________  |", "score": 0.39, "match_basis": "verbatim_token+chapter_route:ch04"}, {"md_atom_id": "md_ch04_a304", "md_file": "knowledge_base/chapters/ch04_general_assumptions.md", "md_atom_type": "TABLE_ROW", "md_parent_section": "§4.2.7.2 [\"Specify\" Values for Result Qualifier Variables]", "md_verbatim": "|           | [ ] Other, specify: _________ |", "score": 0.39, "match_basis": "verbatim_token+chapter_route:ch04"}, {"md_atom_id": "md_ch04_a326", "md_file": "knowledge_base/chapters/ch04_general_assumptions.md", "md_atom_type": "TABLE_ROW", "md_parent_section": "§4.2.7.3 [\"Specify\" Values for Topic Variables]", "md_verbatim": "|                                                                                                    | [ ] Other, specify: _________ |", "score": 0.39, "match_basis": "verbatim_token+chapter_route:ch04"}, {"md_atom_id": "md_ch04_a309", "md_file": "knowledge_base/chapters/ch04_general_assumptions.md", "md_atom_type": "TABLE_ROW", "md_parent_section": "§4.2.7.2 [\"Specify\" Values for Result Qualifier Variables]", "md_verbatim": "   | Eye Color | BLUEISH GRAY | OTHER    |", "score": 0.34, "match_basis": "verbatim_token+chapter_route:ch04"}], "candidate_count": 5, "zero_candidate": false}
{"pdf_atom_id": "ig34_p0032_a019", "pdf_atom_type": "TABLE_HEADER", "pdf_source": "SDTMIG_v3.4", "pdf_page": 32, "pdf_parent_section": "§4.2.7.1 \"Specify\" Values for Non-result Qualifier Variables", "pdf_verbatim": "QNAM | QLABEL | QVAL", "figure_ref": null, "candidates": [{"md_atom_id": "md_ch04_a372", "md_file": "knowledge_base/chapters/ch04_general_assumptions.md", "md_atom_type": "TABLE_HEADER", "md_parent_section": "§4.2.8.3 [Multiple Values for a Non-result Qualifier Variable]", "md_verbatim": "| QNAM | QLABEL | QVAL |\n|------|--------|------|", "score": 0.9, "match_basis": "verbatim_token+chapter_route:ch04"}, {"md_atom_id": "md_ch04_a382", "md_file": "knowledge_base/chapters/ch04_general_assumptions.md", "md_atom_type": "TABLE_HEADER", "md_parent_section": "§4.2.8.3 [Multiple Values for a Non-result Qualifier Variable]", "md_verbatim": "| QNAM | QLABEL | QVAL |\n|------|--------|------|", "score": 0.9, "match_basis": "verbatim_token+chapter_route:ch04"}, {"md_atom_id": "md_ch04_a395", "md_file": "knowledge_base/chapters/ch04_general_assumptions.md", "md_atom_type": "TABLE_HEADER", "md_parent_section": "§4.2.8.3 [Multiple Values for a Non-result Qualifier Variable]", "md_verbatim": "| QNAM | QLABEL | QVAL |\n|------|--------|------|", "score": 0.9, "match_basis": "verbatim_token+chapter_route:ch04"}, {"md_atom_id": "md_ch04_a923", "md_file": "knowledge_base/chapters/ch04_general_assumptions.md", "md_atom_type": "TABLE_HEADER", "md_parent_section": "§4.5.3.2 [Text Strings Greater than 200 Characters in Other Variables]", "md_verbatim": "| Row | STUDYID | RDOMAIN | USUBJID | IDVAR | IDVARVAL | QNAM | QLABEL | QVAL | QORIG |\n|-----|---------|---------|---------|-------|----------|------|--------|------|-------|", "score": 0.45, "match_basis": "verbatim_token+chapter_route:ch04"}, {"md_atom_id": "md_ch04_a933", "md_file": "knowledge_base/chapters/ch04_general_assumptions.md", "md_atom_type": "TABLE_HEADER", "md_parent_section": "§4.5.3.2 [Text Strings Greater than 200 Characters in Other Variables]", "md_verbatim": "| Row | STUDYID | RDOMAIN | USUBJID | IDVAR | IDVARVAL | QNAM | QLABEL | QVAL | QORIG |\n|-----|---------|---------|---------|-------|----------|------|--------|------|-------|", "score": 0.45, "match_basis": "verbatim_token+chapter_route:ch04"}], "candidate_count": 5, "zero_candidate": false}
{"pdf_atom_id": "ig34_p0032_a020", "pdf_atom_type": "TABLE_ROW", "pdf_source": "SDTMIG_v3.4", "pdf_page": 32, "pdf_parent_section": "§4.2.7.1 \"Specify\" Values for Non-result Qualifier Variables", "pdf_verbatim": "CMINDOTH | Other Indication | BROKEN ARM", "figure_ref": null, "candidates": [{"md_atom_id": "md_ch04_a289", "md_file": "knowledge_base/chapters/ch04_general_assumptions.md", "md_atom_type": "LIST_ITEM", "md_parent_section": "§4.2.7.1 [\"Specify\" Values for Non-Result Qualifier Variables]", "md_verbatim": "   - SUPPCM QNAM = \"CMINDOTH\", QLABEL = \"Other Indication\", QVAL = \"BROKEN ARM\"", "score": 0.495, "match_basis": "verbatim_token+chapter_route:ch04"}, {"md_atom_id": "md_ch04_a292", "md_file": "knowledge_base/chapters/ch04_general_assumptions.md", "md_atom_type": "LIST_ITEM", "md_parent_section": "§4.2.7.1 [\"Specify\" Values for Non-Result Qualifier Variables]", "md_verbatim": "   - SUPPCM QNAM = \"CMINDOTH\", QLABEL = \"Other Indication\", QVAL = \"BROKEN ARM\"", "score": 0.495, "match_basis": "verbatim_token+chapter_route:ch04"}, {"md_atom_id": "md_ch04_a373", "md_file": "knowledge_base/chapters/ch04_general_assumptions.md", "md_atom_type": "TABLE_ROW", "md_parent_section": "§4.2.8.3 [Multiple Values for a Non-result Qualifier Variable]", "md_verbatim": "| AELOC1 | Location of the Reaction 1 | FACE |", "score": 0.3968, "match_basis": "verbatim_token+chapter_route:ch04"}, {"md_atom_id": "md_ch04_a374", "md_file": "knowledge_base/chapters/ch04_general_assumptions.md", "md_atom_type": "TABLE_ROW", "md_parent_section": "§4.2.8.3 [Multiple Values for a Non-result Qualifier Variable]", "md_verbatim": "| AELOC2 | Location of the Reaction 2 | NECK |", "score": 0.3968, "match_basis": "verbatim_token+chapter_route:ch04"}, {"md_atom_id": "md_ch04_a278", "md_file": "knowledge_base/chapters/ch04_general_assumptions.md", "md_atom_type": "TABLE_HEADER", "md_parent_section": "§4.2.7.1 [\"Specify\" Values for Non-Result Qualifier Variables]", "md_verbatim": "| Indication for analgesic | Options                        |\n|--------------------------|--------------------------------|", "score": 0.3948, "match_basis": "verbatim_token+chapter_route:ch04"}], "candidate_count": 5, "zero_candidate": false}
{"pdf_atom_id": "ig34_p0032_a021", "pdf_atom_type": "LIST_ITEM", "pdf_source": "SDTMIG_v3.4", "pdf_page": 32, "pdf_parent_section": "§4.2.7.1 \"Specify\" Values for Non-result Qualifier Variables", "pdf_verbatim": "If the sponsor wishes to maintain controlled terminology for CMINDC but will expand the terminology based on values seen in the \"Other, specify\" field, then the value of CMINDC will reflect the sponsor's coding decision and SUPPCM could be used to store the verbatim text.", "figure_ref": null, "candidates": [{"md_atom_id": "md_ch04_a290", "md_file": "knowledge_base/chapters/ch04_general_assumptions.md", "md_atom_type": "LIST_ITEM", "md_parent_section": "§4.2.7.1 [\"Specify\" Values for Non-Result Qualifier Variables]", "md_verbatim": "2. If the sponsor wishes to maintain controlled terminology for CMINDC but will expand the terminology based on values seen in the \"Other, specify\" field, then the value of CMINDC will reflect the sponsor's coding decision and SUPPCM could be used to store the verbatim text.", "score": 0.9, "match_basis": "verbatim_token+chapter_route:ch04"}, {"md_atom_id": "md_ch04_a310", "md_file": "knowledge_base/chapters/ch04_general_assumptions.md", "md_atom_type": "LIST_ITEM", "md_parent_section": "§4.2.7.2 [\"Specify\" Values for Result Qualifier Variables]", "md_verbatim": "2. If the sponsor wishes to maintain controlled terminology in the standard result field, but will expand the terminology based on values seen in the \"Other, specify\" field, then the free text is placed in --ORRES and the value of --STRESC will reflect the sponsor's coding decision.", "score": 0.6879, "match_basis": "verbatim_token+chapter_route:ch04"}, {"md_atom_id": "md_ch04_a287", "md_file": "knowledge_base/chapters/ch04_general_assumptions.md", "md_atom_type": "LIST_ITEM", "md_parent_section": "§4.2.7.1 [\"Specify\" Values for Non-Result Qualifier Variables]", "md_verbatim": "1. If the sponsor wishes to maintain controlled terminology for the CMINDC field and limit the terminology to the 5 prespecified choices, then the free text is placed in SUPPCM.", "score": 0.5661, "match_basis": "verbatim_token+chapter_route:ch04"}, {"md_atom_id": "md_ch04_a294", "md_file": "knowledge_base/chapters/ch04_general_assumptions.md", "md_atom_type": "LIST_ITEM", "md_parent_section": "§4.2.7.1 [\"Specify\" Values for Non-Result Qualifier Variables]", "md_verbatim": "3. If the sponsor does not require that controlled terminology be maintained and wishes for all responses to be stored in a single variable, then CMINDC will be used and SUPPCM is not required.", "score": 0.5439, "match_basis": "verbatim_token+chapter_route:ch04"}, {"md_atom_id": "md_ch04_a313", "md_file": "knowledge_base/chapters/ch04_general_assumptions.md", "md_atom_type": "LIST_ITEM", "md_parent_section": "§4.2.7.2 [\"Specify\" Values for Result Qualifier Variables]", "md_verbatim": "3. If the sponsor does not require that controlled terminology be maintained, the verbatim value will be copied to --STRESC.", "score": 0.5017, "match_basis": "verbatim_token+chapter_route:ch04"}], "candidate_count": 5, "zero_candidate": false}
{"pdf_atom_id": "ig34_p0032_a022", "pdf_atom_type": "TABLE_HEADER", "pdf_source": "SDTMIG_v3.4", "pdf_page": 32, "pdf_parent_section": "§4.2.7.1 \"Specify\" Values for Non-result Qualifier Variables", "pdf_verbatim": "CMINDC | FRACTURE", "figure_ref": null, "candidates": [{"md_atom_id": "md_ch04_a291", "md_file": "knowledge_base/chapters/ch04_general_assumptions.md", "md_atom_type": "LIST_ITEM", "md_parent_section": "§4.2.7.1 [\"Specify\" Values for Non-Result Qualifier Variables]", "md_verbatim": "   - CMINDC = \"FRACTURE\"", "score": 0.69, "match_basis": "verbatim_token+chapter_route:ch04"}, {"md_atom_id": "md_ch04_a1034", "md_file": "knowledge_base/chapters/ch04_general_assumptions.md", "md_atom_type": "TABLE_HEADER", "md_parent_section": "§4.5.9 [Baseline Values]", "md_verbatim": "| Variable | Structure Where It Is Defined | Requirement in That Structure | Definition | Intended Use |\n|----------|-------------------------------|-------------------------------|------------|--------------|", "score": 0.3353, "match_basis": "verbatim_token+chapter_route:ch04"}, {"md_atom_id": "md_ch04_a278", "md_file": "knowledge_base/chapters/ch04_general_assumptions.md", "md_atom_type": "TABLE_HEADER", "md_parent_section": "§4.2.7.1 [\"Specify\" Values for Non-Result Qualifier Variables]", "md_verbatim": "| Indication for analgesic | Options                        |\n|--------------------------|--------------------------------|", "score": 0.3214, "match_basis": "verbatim_token+chapter_route:ch04"}, {"md_atom_id": "md_ch04_a321", "md_file": "knowledge_base/chapters/ch04_general_assumptions.md", "md_atom_type": "TABLE_HEADER", "md_parent_section": "§4.2.7.3 [\"Specify\" Values for Topic Variables]", "md_verbatim": "| Indicate which of the following concomitant medications was used to treat the subject's headaches: | Options                       |\n|----------------------------------------------------------------------------------------------------|-------------------------------|", "score": 0.3098, "match_basis": "verbatim_token+chapter_route:ch04"}, {"md_atom_id": "md_ch04_a033", "md_file": "knowledge_base/chapters/ch04_general_assumptions.md", "md_atom_type": "TABLE_HEADER", "md_parent_section": "§4.1.5 [SDTM Core Designations]", "md_verbatim": "| Core Value | Meaning | Rule |\n|------------|---------|------|", "score": 0.3, "match_basis": "verbatim_token+chapter_route:ch04"}], "candidate_count": 5, "zero_candidate": false}
{"pdf_atom_id": "ig34_p0032_a023", "pdf_atom_type": "TABLE_HEADER", "pdf_source": "SDTMIG_v3.4", "pdf_page": 32, "pdf_parent_section": "§4.2.7.1 \"Specify\" Values for Non-result Qualifier Variables", "pdf_verbatim": "QNAM | QLABEL | QVAL", "figure_ref": null, "candidates": [{"md_atom_id": "md_ch04_a372", "md_file": "knowledge_base/chapters/ch04_general_assumptions.md", "md_atom_type": "TABLE_HEADER", "md_parent_section": "§4.2.8.3 [Multiple Values for a Non-result Qualifier Variable]", "md_verbatim": "| QNAM | QLABEL | QVAL |\n|------|--------|------|", "score": 0.9, "match_basis": "verbatim_token+chapter_route:ch04"}, {"md_atom_id": "md_ch04_a382", "md_file": "knowledge_base/chapters/ch04_general_assumptions.md", "md_atom_type": "TABLE_HEADER", "md_parent_section": "§4.2.8.3 [Multiple Values for a Non-result Qualifier Variable]", "md_verbatim": "| QNAM | QLABEL | QVAL |\n|------|--------|------|", "score": 0.9, "match_basis": "verbatim_token+chapter_route:ch04"}, {"md_atom_id": "md_ch04_a395", "md_file": "knowledge_base/chapters/ch04_general_assumptions.md", "md_atom_type": "TABLE_HEADER", "md_parent_section": "§4.2.8.3 [Multiple Values for a Non-result Qualifier Variable]", "md_verbatim": "| QNAM | QLABEL | QVAL |\n|------|--------|------|", "score": 0.9, "match_basis": "verbatim_token+chapter_route:ch04"}, {"md_atom_id": "md_ch04_a923", "md_file": "knowledge_base/chapters/ch04_general_assumptions.md", "md_atom_type": "TABLE_HEADER", "md_parent_section": "§4.5.3.2 [Text Strings Greater than 200 Characters in Other Variables]", "md_verbatim": "| Row | STUDYID | RDOMAIN | USUBJID | IDVAR | IDVARVAL | QNAM | QLABEL | QVAL | QORIG |\n|-----|---------|---------|---------|-------|----------|------|--------|------|-------|", "score": 0.45, "match_basis": "verbatim_token+chapter_route:ch04"}, {"md_atom_id": "md_ch04_a933", "md_file": "knowledge_base/chapters/ch04_general_assumptions.md", "md_atom_type": "TABLE_HEADER", "md_parent_section": "§4.5.3.2 [Text Strings Greater than 200 Characters in Other Variables]", "md_verbatim": "| Row | STUDYID | RDOMAIN | USUBJID | IDVAR | IDVARVAL | QNAM | QLABEL | QVAL | QORIG |\n|-----|---------|---------|---------|-------|----------|------|--------|------|-------|", "score": 0.45, "match_basis": "verbatim_token+chapter_route:ch04"}], "candidate_count": 5, "zero_candidate": false}
{"pdf_atom_id": "ig34_p0032_a024", "pdf_atom_type": "TABLE_ROW", "pdf_source": "SDTMIG_v3.4", "pdf_page": 32, "pdf_parent_section": "§4.2.7.1 \"Specify\" Values for Non-result Qualifier Variables", "pdf_verbatim": "CMINDOTH | Other Indication | BROKEN ARM", "figure_ref": null, "candidates": [{"md_atom_id": "md_ch04_a289", "md_file": "knowledge_base/chapters/ch04_general_assumptions.md", "md_atom_type": "LIST_ITEM", "md_parent_section": "§4.2.7.1 [\"Specify\" Values for Non-Result Qualifier Variables]", "md_verbatim": "   - SUPPCM QNAM = \"CMINDOTH\", QLABEL = \"Other Indication\", QVAL = \"BROKEN ARM\"", "score": 0.495, "match_basis": "verbatim_token+chapter_route:ch04"}, {"md_atom_id": "md_ch04_a292", "md_file": "knowledge_base/chapters/ch04_general_assumptions.md", "md_atom_type": "LIST_ITEM", "md_parent_section": "§4.2.7.1 [\"Specify\" Values for Non-Result Qualifier Variables]", "md_verbatim": "   - SUPPCM QNAM = \"CMINDOTH\", QLABEL = \"Other Indication\", QVAL = \"BROKEN ARM\"", "score": 0.495, "match_basis": "verbatim_token+chapter_route:ch04"}, {"md_atom_id": "md_ch04_a373", "md_file": "knowledge_base/chapters/ch04_general_assumptions.md", "md_atom_type": "TABLE_ROW", "md_parent_section": "§4.2.8.3 [Multiple Values for a Non-result Qualifier Variable]", "md_verbatim": "| AELOC1 | Location of the Reaction 1 | FACE |", "score": 0.3968, "match_basis": "verbatim_token+chapter_route:ch04"}, {"md_atom_id": "md_ch04_a374", "md_file": "knowledge_base/chapters/ch04_general_assumptions.md", "md_atom_type": "TABLE_ROW", "md_parent_section": "§4.2.8.3 [Multiple Values for a Non-result Qualifier Variable]", "md_verbatim": "| AELOC2 | Location of the Reaction 2 | NECK |", "score": 0.3968, "match_basis": "verbatim_token+chapter_route:ch04"}, {"md_atom_id": "md_ch04_a278", "md_file": "knowledge_base/chapters/ch04_general_assumptions.md", "md_atom_type": "TABLE_HEADER", "md_parent_section": "§4.2.7.1 [\"Specify\" Values for Non-Result Qualifier Variables]", "md_verbatim": "| Indication for analgesic | Options                        |\n|--------------------------|--------------------------------|", "score": 0.3948, "match_basis": "verbatim_token+chapter_route:ch04"}], "candidate_count": 5, "zero_candidate": false}
{"pdf_atom_id": "ig34_p0032_a025", "pdf_atom_type": "SENTENCE", "pdf_source": "SDTMIG_v3.4", "pdf_page": 32, "pdf_parent_section": "§4.2.7.1 \"Specify\" Values for Non-result Qualifier Variables", "pdf_verbatim": "Note that the sponsor might choose a different value for CMINDC (e.g., \"BONE FRACTURE\") depending on the sponsor's coding practice and analysis requirements.", "figure_ref": null, "candidates": [{"md_atom_id": "md_ch04_a293", "md_file": "knowledge_base/chapters/ch04_general_assumptions.md", "md_atom_type": "SENTENCE", "md_parent_section": "§4.2.7.1 [\"Specify\" Values for Non-Result Qualifier Variables]", "md_verbatim": "   Note that the sponsor might choose a different value for CMINDC (e.g., \"BONE FRACTURE\") depending on the sponsor's coding practice and analysis requirements.", "score": 0.9, "match_basis": "verbatim_token+chapter_route:ch04"}, {"md_atom_id": "md_ch04_a297", "md_file": "knowledge_base/chapters/ch04_general_assumptions.md", "md_atom_type": "SENTENCE", "md_parent_section": "§4.2.7.2 [\"Specify\" Values for Result Qualifier Variables]", "md_verbatim": "When the CRF includes a list of values for a result field that includes \"Other\" and the \"Other\" is supplemented with a \"Specify\" free-text field, then the manner in which the free-text \"Specify\" value is submitted will vary based on the sponsor's coding practice and analysis requirements.", "score": 0.4828, "match_basis": "verbatim_token+chapter_route:ch04"}, {"md_atom_id": "md_ch04_a276", "md_file": "knowledge_base/chapters/ch04_general_assumptions.md", "md_atom_type": "SENTENCE", "md_parent_section": "§4.2.7.1 [\"Specify\" Values for Non-Result Qualifier Variables]", "md_verbatim": "When the CRF includes a list of values for a qualifier field that includes \"Other\" and the \"Other\" is supplemented with a \"Specify\" free-text field, then the manner in which the free-text \"Specify\" value is submitted will vary based on the sponsor's coding practice and analysis requirements.", "score": 0.48, "match_basis": "verbatim_token+chapter_route:ch04"}, {"md_atom_id": "md_ch04_a150", "md_file": "knowledge_base/chapters/ch04_general_assumptions.md", "md_atom_type": "SENTENCE", "md_parent_section": "§4.1.9 [Assigning Natural Keys in the Metadata]", "md_verbatim": "In this example, sponsor B might have collected data that used different imaging methods, using imaging devices with different makes and models, and using different hand positions.", "score": 0.4, "match_basis": "verbatim_token+chapter_route:ch04"}, {"md_atom_id": "md_ch04_a637", "md_file": "knowledge_base/chapters/ch04_general_assumptions.md", "md_atom_type": "SENTENCE", "md_parent_section": "§4.4.7 [Use of Relative Timing Variables]", "md_verbatim": "**Caution on mixing collected and derived values:** Sponsors are cautioned that deriving --STRF and --ENRF for analysis or reporting purposes even when dates are collected may blur the distinction between collected and derived values within the domain.", "score": 0.4, "match_basis": "verbatim_token+chapter_route:ch04"}], "candidate_count": 5, "zero_candidate": false}
{"pdf_atom_id": "ig34_p0032_a026", "pdf_atom_type": "LIST_ITEM", "pdf_source": "SDTMIG_v3.4", "pdf_page": 32, "pdf_parent_section": "§4.2.7.1 \"Specify\" Values for Non-result Qualifier Variables", "pdf_verbatim": "If the sponsor does not require that controlled terminology be maintained and wishes for all responses to be stored in a single variable, then CMINDC will be used and SUPPCM is not required.", "figure_ref": null, "candidates": [{"md_atom_id": "md_ch04_a294", "md_file": "knowledge_base/chapters/ch04_general_assumptions.md", "md_atom_type": "LIST_ITEM", "md_parent_section": "§4.2.7.1 [\"Specify\" Values for Non-Result Qualifier Variables]", "md_verbatim": "3. If the sponsor does not require that controlled terminology be maintained and wishes for all responses to be stored in a single variable, then CMINDC will be used and SUPPCM is not required.", "score": 0.9, "match_basis": "verbatim_token+chapter_route:ch04"}, {"md_atom_id": "md_ch04_a313", "md_file": "knowledge_base/chapters/ch04_general_assumptions.md", "md_atom_type": "LIST_ITEM", "md_parent_section": "§4.2.7.2 [\"Specify\" Values for Result Qualifier Variables]", "md_verbatim": "3. If the sponsor does not require that controlled terminology be maintained, the verbatim value will be copied to --STRESC.", "score": 0.5774, "match_basis": "verbatim_token+chapter_route:ch04"}, {"md_atom_id": "md_ch04_a287", "md_file": "knowledge_base/chapters/ch04_general_assumptions.md", "md_atom_type": "LIST_ITEM", "md_parent_section": "§4.2.7.1 [\"Specify\" Values for Non-Result Qualifier Variables]", "md_verbatim": "1. If the sponsor wishes to maintain controlled terminology for the CMINDC field and limit the terminology to the 5 prespecified choices, then the free text is placed in SUPPCM.", "score": 0.5563, "match_basis": "verbatim_token+chapter_route:ch04"}, {"md_atom_id": "md_ch04_a290", "md_file": "knowledge_base/chapters/ch04_general_assumptions.md", "md_atom_type": "LIST_ITEM", "md_parent_section": "§4.2.7.1 [\"Specify\" Values for Non-Result Qualifier Variables]", "md_verbatim": "2. If the sponsor wishes to maintain controlled terminology for CMINDC but will expand the terminology based on values seen in the \"Other, specify\" field, then the value of CMINDC will reflect the sponsor's coding decision and SUPPCM could be used to store the verbatim text.", "score": 0.5439, "match_basis": "verbatim_token+chapter_route:ch04"}, {"md_atom_id": "md_ch04_a416", "md_file": "knowledge_base/chapters/ch04_general_assumptions.md", "md_atom_type": "LIST_ITEM", "md_parent_section": "§4.2.9 [Variable Lengths]", "md_verbatim": "    - The length for variables that use controlled terminology can be set to the length of the longest term.", "score": 0.4888, "match_basis": "verbatim_token+chapter_route:ch04"}], "candidate_count": 5, "zero_candidate": false}
{"pdf_atom_id": "ig34_p0032_a027", "pdf_atom_type": "TABLE_HEADER", "pdf_source": "SDTMIG_v3.4", "pdf_page": 32, "pdf_parent_section": "§4.2.7.1 \"Specify\" Values for Non-result Qualifier Variables", "pdf_verbatim": "CMINDC | BROKEN ARM", "figure_ref": null, "candidates": [{"md_atom_id": "md_ch04_a295", "md_file": "knowledge_base/chapters/ch04_general_assumptions.md", "md_atom_type": "LIST_ITEM", "md_parent_section": "§4.2.7.1 [\"Specify\" Values for Non-Result Qualifier Variables]", "md_verbatim": "   - CMINDC = \"BROKEN ARM\"", "score": 0.69, "match_basis": "verbatim_token+chapter_route:ch04"}, {"md_atom_id": "md_ch04_a278", "md_file": "knowledge_base/chapters/ch04_general_assumptions.md", "md_atom_type": "TABLE_HEADER", "md_parent_section": "§4.2.7.1 [\"Specify\" Values for Non-Result Qualifier Variables]", "md_verbatim": "| Indication for analgesic | Options                        |\n|--------------------------|--------------------------------|", "score": 0.3222, "match_basis": "verbatim_token+chapter_route:ch04"}, {"md_atom_id": "md_ch04_a321", "md_file": "knowledge_base/chapters/ch04_general_assumptions.md", "md_atom_type": "TABLE_HEADER", "md_parent_section": "§4.2.7.3 [\"Specify\" Values for Topic Variables]", "md_verbatim": "| Indicate which of the following concomitant medications was used to treat the subject's headaches: | Options                       |\n|----------------------------------------------------------------------------------------------------|-------------------------------|", "score": 0.31, "match_basis": "verbatim_token+chapter_route:ch04"}, {"md_atom_id": "md_ch04_a033", "md_file": "knowledge_base/chapters/ch04_general_assumptions.md", "md_atom_type": "TABLE_HEADER", "md_parent_section": "§4.1.5 [SDTM Core Designations]", "md_verbatim": "| Core Value | Meaning | Rule |\n|------------|---------|------|", "score": 0.3, "match_basis": "verbatim_token+chapter_route:ch04"}, {"md_atom_id": "md_ch04_a063", "md_file": "knowledge_base/chapters/ch04_general_assumptions.md", "md_atom_type": "TABLE_HEADER", "md_parent_section": "§4.1.7 [Splitting Domains]", "md_verbatim": "| Row | STUDYID | RDOMAIN | USUBJID | IDVAR | IDVARVAL | RELTYPE | RELID |\n|-----|---------|---------|---------|-------|----------|---------|-------|", "score": 0.3, "match_basis": "verbatim_token+chapter_route:ch04"}], "candidate_count": 5, "zero_candidate": false}
{"pdf_atom_id": "ig34_p0033_a001", "pdf_atom_type": "HEADING", "pdf_source": "SDTMIG_v3.4", "pdf_page": 33, "pdf_parent_section": "§4.2.7.2 \"Specify\" Values for Result Qualifier Variables", "pdf_verbatim": "4.2.7.2  \"Specify\" Values for Result Qualifier Variables", "figure_ref": null, "candidates": [{"md_atom_id": "md_ch04_a296", "md_file": "knowledge_base/chapters/ch04_general_assumptions.md", "md_atom_type": "HEADING", "md_parent_section": "§4.2.7 [Submitting Free Text from the CRF]", "md_verbatim": "#### 4.2.7.2 \"Specify\" Values for Result Qualifier Variables", "score": 0.9, "match_basis": "verbatim_token+chapter_route:ch04"}, {"md_atom_id": "md_ch04_a261", "md_file": "knowledge_base/chapters/ch04_general_assumptions.md", "md_atom_type": "HEADING", "md_parent_section": "§4.2.7 [Submitting Free Text from the CRF]", "md_verbatim": "#### 4.2.7.1 \"Specify\" Values for Non-Result Qualifier Variables", "score": 0.8793, "match_basis": "verbatim_token+chapter_route:ch04"}, {"md_atom_id": "md_ch04_a359", "md_file": "knowledge_base/chapters/ch04_general_assumptions.md", "md_atom_type": "HEADING", "md_parent_section": "§4.2.8 [Multiple Values for a Variable]", "md_verbatim": "#### 4.2.8.3 Multiple Values for a Non-result Qualifier Variable", "score": 0.6882, "match_basis": "verbatim_token+chapter_route:ch04"}, {"md_atom_id": "md_ch04_a316", "md_file": "knowledge_base/chapters/ch04_general_assumptions.md", "md_atom_type": "HEADING", "md_parent_section": "§4.2.7 [Submitting Free Text from the CRF]", "md_verbatim": "#### 4.2.7.3 \"Specify\" Values for Topic Variables", "score": 0.629, "match_basis": "verbatim_token+chapter_route:ch04"}, {"md_atom_id": "md_ch04_a352", "md_file": "knowledge_base/chapters/ch04_general_assumptions.md", "md_atom_type": "HEADING", "md_parent_section": "§4.2.8 [Multiple Values for a Variable]", "md_verbatim": "#### 4.2.8.2 Multiple Values for a Findings Result Variable", "score": 0.5308, "match_basis": "verbatim_token+chapter_route:ch04"}], "candidate_count": 5, "zero_candidate": false}
