{"atom_id":"md_ch04_a001","verdict":"PASS","evidence":"Source L1 = '# SDTMIG v3.4 — Chapter 4: Assumptions for Domain Models' — byte-exact match with atom verbatim","reasoning":"HEADING h1 line 1 with heading_level=1 sibling_index=1 valid","severity":null,"interpretation_note":null}
{"atom_id":"md_ch04_a042","verdict":"PASS","evidence":"Source L53 first sentence 'SDTM datasets are normally named to be consistent with the domain code; for example, the Demographics dataset (DM) is named dm.xpt.' is byte-exact substring of full L53 (multi-sentence line)","reasoning":"Sub-line SENTENCE per §R-C1: byte-exact substring of source line, sibling atoms cover other sentences","severity":null,"interpretation_note":"§R-C1 sub-line PASS — verbatim is byte-exact substring of multi-sentence L53"}
{"atom_id":"md_ch04_a060","verdict":"PASS","evidence":"Source L72 = '7. Supplemental Qualifier datasets for split domains would also be split. The nomenclature would include the additional 1 to 2 characters used to identify the split dataset (e.g., SUPPQS36, SUPPFACM). The value of RDOMAIN in the SUPP-- datasets would be the 2-character domain code (e.g., QS, FA).' — byte-exact match","reasoning":"LIST_ITEM with bullet prefix '7. ' preserved + full multi-sentence content (§C-7 compliant)","severity":null,"interpretation_note":null}
{"atom_id":"md_ch04_a104","verdict":"PASS","evidence":"Source L134 = '| Row | STUDYID | RDOMAIN | USUBJID | IDVAR | IDVARVAL | QNAM | QLABEL | QVAL | QORIG | QEVAL |' — byte-exact match","reasoning":"TABLE_HEADER first line of suppqscg.xpt header (single-line span = 0; schema allows ≤1)","severity":null,"interpretation_note":"single-line TABLE_HEADER span=0 is legal (≤1 per §C-5)"}
{"atom_id":"md_ch04_a160","verdict":"PASS","evidence":"Source L197 = '- Phalangeal joint position (which finger, which joint)' — byte-exact match","reasoning":"LIST_ITEM with bullet '- ' prefix preserved (§C-7 compliant)","severity":null,"interpretation_note":null}
{"atom_id":"md_ch04_a200","verdict":"PASS","evidence":"Source L264 = 'Required identifiers are not prefixed because they are usually used as keys when merging/joining observations. The --SEQ and the optional Identifiers --GRPID and --REFID are prefixed because they may be used as keys when relating observations across domains.' — byte-exact match","reasoning":"Full-line SENTENCE (could be split into 2 sub-sentences but writer chose full-line; both legal per §R-C1)","severity":null,"interpretation_note":null}
{"atom_id":"md_model02_a001","verdict":"PASS","evidence":"Source L1 = '# SDTM v2.0 — Chapter 3.1: The General Observation Classes' — byte-exact match","reasoning":"HEADING h1 line 1 valid with heading_level=1","severity":null,"interpretation_note":null}
{"atom_id":"md_model02_a015","verdict":"PASS","evidence":"Source L19-20: '| # | Variable | Label | Type | Role | Key Notes |' + '|---|----------|-------|------|------|-----------|' — byte-exact 2-line match; line_end - line_start = 1","reasoning":"TABLE_HEADER 2-line span (col-name + separator) per §C-5","severity":null,"interpretation_note":null}
{"atom_id":"md_model02_a059","verdict":"PASS","evidence":"Source L30 = '| 10 | --STAT | Completion Status | Char | Record Qualifier | \"NOT DONE\" or null |' — contains literal '\"NOT DONE\"' (with quotes) byte-exact","reasoning":"CODE_LITERAL hard rule: codelist values like '\"NOT DONE\"' are CODE_LITERAL even when nested inside TABLE_ROW. Atom appears AFTER its containing TABLE_ROW in stream — non-monotonic line_start is BY DESIGN per schema notes.code_literal_hard_rule","severity":null,"interpretation_note":"CODE_LITERAL nested-after-TABLE_ROW pattern is schema-legal (notes.code_literal_hard_rule v1.2 H1' fix); explains observed model02 monotonicity break"}
{"atom_id":"md_model02_a129","verdict":"PASS","evidence":"Source L142 = '**Topic Variables:**' — byte-exact match","reasoning":"NOTE for bold-prefix caption (§C-6 compliant: bold ≠ HEADING)","severity":null,"interpretation_note":null}
{"atom_id":"md_model02_a166","verdict":"PASS","evidence":"Source L197 = '| 2 | DOMAIN | Domain Abbreviation | Char | Identifier | Two-character abbreviation for the domain |' — byte-exact match","reasoning":"TABLE_ROW single-line atom","severity":null,"interpretation_note":null}
{"atom_id":"md_model02_a216","verdict":"PASS","evidence":"Source L259 = '### Time Point Variables' — byte-exact match","reasoning":"HEADING h3 valid with heading_level=3","severity":null,"interpretation_note":null}
{"atom_id":"md_model05_a001","verdict":"PASS","evidence":"Source L1 = '# SDTM v2.0 — Chapter 5: Study-level Data' — byte-exact match","reasoning":"HEADING h1 valid","severity":null,"interpretation_note":null}
{"atom_id":"md_model05_a010","verdict":"PASS","evidence":"Source L17 = '- Planned sequences of reproductive stages (Section 5.1.3, Trial Repro Stages and Trial Repro Paths)' — byte-exact match","reasoning":"LIST_ITEM with bullet '- ' prefix preserved (§C-7 compliant)","severity":null,"interpretation_note":null}
{"atom_id":"md_model05_a031","verdict":"PASS","evidence":"Source L45 = 'Describes each planned arm in a trial. An arm is an ordered sequence of elements; the same element may occur more than once in a given arm. This dataset allows for rules for branching and transitions.' — atom verbatim 'An arm is an ordered sequence of elements; the same element may occur more than once in a given arm.' is byte-exact substring (sentence #2 of 3)","reasoning":"Sub-line SENTENCE per §R-C1; siblings a030+a032 cover sentences #1+#3","severity":null,"interpretation_note":"§R-C1 sub-line PASS — byte-exact substring; multi-atom on same line_start=line_end legal per Hook R22"}
{"atom_id":"md_model05_a149","verdict":"PASS","evidence":"Source L209-210: '| # | Variable | Label | Type | Role |' + '|---|----------|-------|------|------|' — byte-exact 2-line match","reasoning":"TABLE_HEADER 2-line span per §C-5","severity":null,"interpretation_note":null}
{"atom_id":"md_model05_a170","verdict":"PASS","evidence":"Source L238-252: complete mermaid block (```mermaid through ```), 15 lines including blank line between nodes and edges. Atom verbatim is byte-exact preservation of the entire block","reasoning":"FIGURE atom with figure_ref='md_model05_DI_concept_map' present (schema allOf conditional satisfied)","severity":null,"interpretation_note":"FIGURE compliant — figure_ref present (contrast with md_model01_a013 violation)"}
{"atom_id":"md_model03_a004","verdict":"PASS","evidence":"Source L7 = 'In addition to the 3 general observation classes, a submission will generally include a set of other special-purpose datasets of specific standardized structures to represent additional important information. A Demographics special-purpose domain is included with human and animal studies. Other special-purpose domains may be included.' — atom verbatim is sentence #1 (byte-exact substring through 'represent additional important information.')","reasoning":"Sub-line SENTENCE per §R-C1; siblings a005+a006 cover sentences #2+#3","severity":null,"interpretation_note":"§R-C1 sub-line PASS — byte-exact substring of multi-sentence L7"}
{"atom_id":"md_model03_a014","verdict":"PASS","evidence":"Source L17-18: '| # | Variable | Label | Type | Role | Notes |' + '|---|----------|-------|------|------|-------|' — byte-exact 2-line match","reasoning":"TABLE_HEADER 2-line span per §C-5","severity":null,"interpretation_note":null}
{"atom_id":"md_model03_a107","verdict":"PASS","evidence":"Source L125 = '**Note:** Not for use with human clinical trials.' — byte-exact match","reasoning":"NOTE for bold-prefix caption (§C-6 compliant)","severity":null,"interpretation_note":null}
{"atom_id":"md_model03_a149","verdict":"PASS","evidence":"Source L177 = '### Variables (10 variables)' — byte-exact match","reasoning":"HEADING h3 valid","severity":null,"interpretation_note":"Verbatim duplicates md_model03_a111 (also '### Variables (10 variables)') — both legal as separate ### subsection markers in different parent_sections"}
{"atom_id":"md_model06_a001","verdict":"PASS","evidence":"Source L1 = '# SDTM v2.0 — Chapter 6: Datasets for Representing Relationships' — byte-exact match","reasoning":"HEADING h1 valid","severity":null,"interpretation_note":null}
{"atom_id":"md_model06_a029","verdict":"FAIL_LINE_RANGE","evidence":"Atom claims line_start=43 line_end=43 with verbatim '### RELTYPE Combinations'. Source L42 = '### RELTYPE Combinations' (verified via Read offset=41 returns L41 blank, L42 heading, L43 blank, L44 table). Verbatim NOT substring of claimed L43 (which is empty). Off-by-one error","reasoning":"FAIL_LINE_RANGE: heading content is at line 42 but atom records line_start=43. Verbatim itself is correct.","severity":"LOW","interpretation_note":"Isolated single-atom off-by-one (1/14 HEADING in model06; 1/109 HEADING in 1102 atoms = 0.9%). Confirmed by batch_01 scientist's flag. No systematic pattern."}
{"atom_id":"md_model06_a079","verdict":"PASS","evidence":"Source L124 = '| 3 | USUBJID | Unique Subject Identifier | Char | Identifier |' — byte-exact match","reasoning":"TABLE_ROW single-line","severity":null,"interpretation_note":null}
{"atom_id":"md_dmCM_ex_a001","verdict":"PASS","evidence":"Source L1 = '# CM — Examples' — byte-exact match","reasoning":"HEADING h1 valid","severity":null,"interpretation_note":null}
{"atom_id":"md_dmCM_ex_a042","verdict":"PASS","evidence":"Source L53 = '**cm.xpt**' — byte-exact match","reasoning":"NOTE for bold dataset-label caption (§C-6 compliant: cm.xpt bold caption is NOTE not HEADING)","severity":null,"interpretation_note":"Verbatim duplicates 4 other NOTE atoms in same file (a010/a025/a052/a070); legal pattern as repeated dataset-label captions across multiple examples"}
{"atom_id":"md_model01_a001","verdict":"PASS","evidence":"Source L1 = '# SDTM v2.0 — Chapter 2: Model Concepts and Terms' — byte-exact match","reasoning":"HEADING h1 valid","severity":null,"interpretation_note":null}
{"atom_id":"md_model01_a013","verdict":"FAIL_SCHEMA","evidence":"FIGURE atom L13-39 (mermaid concept map). Verbatim correctly preserves complete mermaid block including ```mermaid fences, classDef, all edges. HOWEVER schema allOf conditional 'if atom_type=FIGURE then required figure_ref' is VIOLATED: figure_ref=null","reasoning":"Schema violation — FIGURE atom missing required figure_ref field per atom_schema.json v1.2 allOf clause","severity":"HIGH","interpretation_note":"This atom from prompt v1.8 (pre-C-1 codification). Compare md_model05_a170/a184 which are v1.9 and have correct figure_ref. Suggests v1.8→v1.9 mid-cycle prompt upgrade left this older atom non-compliant."}
{"atom_id":"md_model04_a005","verdict":"PASS","evidence":"Source L7 = 'Associated persons are individuals other than study subjects who can be associated with a study, a particular study subject, or a device used in the study. The structures of SDTM datasets that represent data about associated persons are based on the structures for data about study subjects, either general observation class structures or special-purpose domain structures. AP domains are created using SDTM variables, with the application of specific AP rules:' — atom verbatim 'The structures of SDTM datasets that represent data about associated persons are based on the structures for data about study subjects, either general observation class structures or special-purpose domain structures.' is byte-exact substring (sentence #2)","reasoning":"Sub-line SENTENCE per §R-C1: byte-exact substring of multi-sentence L7","severity":null,"interpretation_note":"§R-C1 sub-line PASS"}
{"atom_id":"md_dmCM_assn_a002","verdict":"PASS","evidence":"Source L3 = '1. The structure of the CM domain is 1 record per medication intervention episode...' (multi-sentence list item) — atom verbatim is byte-exact match including '1. ' prefix and all ~7 sentences through 'meet the sponsor's evaluation requirements.'","reasoning":"LIST_ITEM with full prefix + full multi-sentence content per §C-7","severity":null,"interpretation_note":null}
