{"atom_id": "md_model01_a001", "atom_type_in_data": "HEADING", "verdict": "PASS", "discrepancy": "L1 heading, verbatim exact match, parent_section §2 [CONCEPTS AND TERMS] matches N27 convention", "source_file": "model/01_concepts_and_terms.md", "verified_against_lines": [1, 1]}
{"atom_id": "md_model04_a006", "atom_type_in_data": "HEADING", "verdict": "PARTIAL", "discrepancy": "F-P2P-002: parent_section '§4.1 [OVERVIEW]' used for unnumbered '## Overview' in model/04. §4.1 is interpolated (no number in source). Internally consistent across file but convention is non-canonical per N27. Verbatim exact match.", "source_file": "model/04_associated_persons.md", "verified_against_lines": [9, 9]}
{"atom_id": "md_ch04_a027", "atom_type_in_data": "HEADING", "verdict": "PASS", "discrepancy": "Verbatim exact match, parent_section §4.1 [General Domain Assumptions] correct L2 active heading", "source_file": "chapters/ch04_general_assumptions.md", "verified_against_lines": [33, 33]}
{"atom_id": "md_ch04_a116", "atom_type_in_data": "HEADING", "verdict": "FAIL_ATOM_TYPE", "discrepancy": "**Bold text** is not a markdown heading (no # prefix). atom_type=HEADING with heading_level=4 is wrong. Should be SENTENCE or NOTE (table caption). heading_level=4 is fabricated. Likely systematic: all 'Dataset — file.xpt' bold labels in ch04 similarly mistyped as HEADING.", "source_file": "chapters/ch04_general_assumptions.md", "verified_against_lines": [132, 132]}
{"atom_id": "md_dmCM_ex_a002", "atom_type_in_data": "HEADING", "verdict": "PASS", "discrepancy": "Verbatim '## Example 1' matches source. parent_section §CM [CM — Examples] is consistent domain-code convention for unnumbered L1.", "source_file": "domains/CM/examples.md", "verified_against_lines": [3, 3]}
{"atom_id": "md_model01_a003", "atom_type_in_data": "SENTENCE", "verdict": "PASS", "discrepancy": "Verbatim is first sentence of line 7 paragraph (substring OK). parent_section §2.1 [VARIABLES] matches active L2 heading.", "source_file": "model/01_concepts_and_terms.md", "verified_against_lines": [7, 7]}
{"atom_id": "md_model01_a040", "atom_type_in_data": "SENTENCE", "verdict": "PASS", "discrepancy": "Verbatim is first sentence of line 71 paragraph (substring OK). §2.1 [VARIABLES] is correct active L2 parent at line 71.", "source_file": "model/01_concepts_and_terms.md", "verified_against_lines": [71, 71]}
{"atom_id": "md_ch04_a002", "atom_type_in_data": "SENTENCE", "verdict": "PARTIAL", "discrepancy": "Verbatim exact match. parent_section '§4 [General Assumptions for Domain Models]' has 'General' added vs actual L1 title 'Assumptions for Domain Models'. Title text doesn't match source heading exactly (word 'General' prepended). Minor parent_section title drift.", "source_file": "chapters/ch04_general_assumptions.md", "verified_against_lines": [3, 3]}
{"atom_id": "md_ch04_a030", "atom_type_in_data": "SENTENCE", "verdict": "PASS", "discrepancy": "Verbatim is a valid sentence from line 35 paragraph. parent_section §4.1.4 [Order of the Variables] exact match to source heading.", "source_file": "chapters/ch04_general_assumptions.md", "verified_against_lines": [35, 35]}
{"atom_id": "md_ch04_a071", "atom_type_in_data": "SENTENCE", "verdict": "PASS", "discrepancy": "Verbatim 'The value of RDOMAIN...' is the 3rd sentence within list item 7 at line 72. Substring match OK for SENTENCE atoms.", "source_file": "chapters/ch04_general_assumptions.md", "verified_against_lines": [72, 72]}
{"atom_id": "md_ch04_a158", "atom_type_in_data": "SENTENCE", "verdict": "PASS", "discrepancy": "Verbatim is first sentence of line 185 paragraph (substring OK). parent_section §4.1.9 exact match.", "source_file": "chapters/ch04_general_assumptions.md", "verified_against_lines": [185, 185]}
{"atom_id": "md_dmCM_ex_a004", "atom_type_in_data": "SENTENCE", "verdict": "PARTIAL", "discrepancy": "F-P2P-003: parent_section '§CM.0 [Example 1]' uses 0-indexed numbering for unnumbered '## Example 1' heading. '0' is non-standard section number per N27 (not a CDISC section number). Internally consistent within file but convention is questionable. Verbatim exact substring match OK.", "source_file": "domains/CM/examples.md", "verified_against_lines": [5, 5]}
{"atom_id": "md_dmCM_ex_a043", "atom_type_in_data": "SENTENCE", "verdict": "PASS", "discrepancy": "Verbatim is 2nd sentence from line 51 label-paragraph (substring OK). parent_section §CM.2 [Example 3] consistent with 0-indexed CM examples convention (Example 3 → .2).", "source_file": "domains/CM/examples.md", "verified_against_lines": [51, 51]}
{"atom_id": "md_model01_a026", "atom_type_in_data": "LIST_ITEM", "verdict": "PASS", "discrepancy": "Verbatim exact match. Numbered list item correct.", "source_file": "model/01_concepts_and_terms.md", "verified_against_lines": [51, 51]}
{"atom_id": "md_model04_a009", "atom_type_in_data": "LIST_ITEM", "verdict": "PARTIAL", "discrepancy": "Verbatim exact match. parent_section §4.1 [OVERVIEW] carries F-P2P-002 convention issue (unnumbered ## Overview section).", "source_file": "model/04_associated_persons.md", "verified_against_lines": [15, 15]}
{"atom_id": "md_ch04_a052", "atom_type_in_data": "LIST_ITEM", "verdict": "FAIL_VERBATIM", "discrepancy": "Verbatim drops '- ' bullet prefix AND truncates after first sentence, missing 'When a domain is split on --CAT, --CAT must not be null.' (second sentence of same bullet). Also line_end=62 is wrong (bullet item ends at line 61; line 62 is a different list item). Two defects: incomplete verbatim + wrong line range.", "source_file": "chapters/ch04_general_assumptions.md", "verified_against_lines": [61, 62]}
{"atom_id": "md_ch04_a078", "atom_type_in_data": "LIST_ITEM", "verdict": "FAIL_VERBATIM", "discrepancy": "Verbatim drops '10. ' prefix AND truncates after first sentence, missing 'For additional examples, see the Metadata Submission Guideline (MSG) for SDTMIG (...).' Systematic pattern: multi-sentence list items have verbatim truncated to first sentence only.", "source_file": "chapters/ch04_general_assumptions.md", "verified_against_lines": [83, 83]}
{"atom_id": "md_dmCM_assn_a004", "atom_type_in_data": "LIST_ITEM", "verdict": "PASS", "discrepancy": "Verbatim exact match to full line 6 content (multi-sentence sub-item, all sentences included). parent_section §CM [ASSUMPTIONS] correct.", "source_file": "domains/CM/assumptions.md", "verified_against_lines": [6, 6]}
{"atom_id": "md_model01_a034", "atom_type_in_data": "TABLE_ROW", "verdict": "PASS", "discrepancy": "Verbatim exact match to source TABLE_ROW.", "source_file": "model/01_concepts_and_terms.md", "verified_against_lines": [63, 63]}
{"atom_id": "md_model04_a023", "atom_type_in_data": "TABLE_ROW", "verdict": "PASS", "discrepancy": "Verbatim matches source line 35 TABLE_ROW content.", "source_file": "model/04_associated_persons.md", "verified_against_lines": [35, 35]}
{"atom_id": "md_ch04_a100", "atom_type_in_data": "TABLE_ROW", "verdict": "PASS", "discrepancy": "Verbatim matches source TABLE_ROW line 111. parent_section §4.1.7.1 correct.", "source_file": "chapters/ch04_general_assumptions.md", "verified_against_lines": [111, 111]}
{"atom_id": "md_ch04_a125", "atom_type_in_data": "TABLE_ROW", "verdict": "PASS", "discrepancy": "Verbatim exact match TABLE_ROW line 146.", "source_file": "chapters/ch04_general_assumptions.md", "verified_against_lines": [146, 146]}
{"atom_id": "md_dmCM_ex_a023", "atom_type_in_data": "TABLE_ROW", "verdict": "PASS", "discrepancy": "Verbatim exact match TABLE_ROW line 28. parent_section §CM.0 [Example 1] consistent with CM examples convention.", "source_file": "domains/CM/examples.md", "verified_against_lines": [28, 28]}
{"atom_id": "md_model01_a033", "atom_type_in_data": "TABLE_HEADER", "verdict": "PASS", "discrepancy": "Verbatim exact match TABLE_HEADER line 61.", "source_file": "model/01_concepts_and_terms.md", "verified_against_lines": [61, 61]}
{"atom_id": "md_ch04_a086", "atom_type_in_data": "TABLE_HEADER", "verdict": "FAIL_LINE_RANGE", "discrepancy": "line_end=102 wrong (should be 94). Verbatim correctly contains only header+separator (2 lines). But line range 93-102 overlaps with TABLE_ROW atoms a087-a094 (lines 95-102). Downstream line-based lookup will have collision. Verbatim content itself is correct.", "source_file": "chapters/ch04_general_assumptions.md", "verified_against_lines": [93, 102]}
{"atom_id": "md_ch04_a133", "atom_type_in_data": "TABLE_HEADER", "verdict": "FAIL_LINE_RANGE", "discrepancy": "line_end=159 wrong (should be 157). Verbatim correctly contains header+separator (lines 156-157). Range overlaps with TABLE_ROW a134 (line 158) and a135 (line 159). Systematic pattern: TABLE_HEADER atoms have line_end set to include 2 subsequent data rows.", "source_file": "chapters/ch04_general_assumptions.md", "verified_against_lines": [156, 159]}
{"atom_id": "md_model01_a013", "atom_type_in_data": "NOTE", "verdict": "PASS", "discrepancy": "NOTE verbatim exact match. blockquote syntax preserved.", "source_file": "model/01_concepts_and_terms.md", "verified_against_lines": [41, 41]}
{"atom_id": "md_ch04_a154", "atom_type_in_data": "CODE_LITERAL", "verdict": "PARTIAL", "discrepancy": "Verbatim exact match. atom_type=CODE_LITERAL is borderline - 'STUDYID, USUBJID, VISITNUM, MKTESTCD' is a natural key list, which could be SENTENCE per schema notes (CODE_LITERAL is explicitly for dataset filenames and codelist literals). Defensible but ambiguous classification.", "source_file": "chapters/ch04_general_assumptions.md", "verified_against_lines": [179, 179]}
{"atom_id": "md_model01_a012", "atom_type_in_data": "FIGURE", "verdict": "PASS", "discrepancy": "FIGURE verbatim matches full mermaid block lines 13-39. figure_ref=null is schema-compliant for MD atoms (md_atom schema has no FIGURE→figure_ref allOf constraint, unlike pdf_atom). parent_section §2.1 [VARIABLES] correct.", "source_file": "model/01_concepts_and_terms.md", "verified_against_lines": [13, 39]}
{"atom_id": "md_ch04_a044", "atom_type_in_data": "CROSS_REF", "verdict": "PARTIAL", "discrepancy": "CROSS_REF verbatim matches source substring on line 53. parent_section §4.1.6 correct. Missing 'cross_refs' field (other atoms include it; it's optional per schema). Consistent with Writer B pattern (same subagent).", "source_file": "chapters/ch04_general_assumptions.md", "verified_against_lines": [53, 53]}
