{"md_atom_id": "md_dmNV_ex_a045", "file": "knowledge_base/domains/NV/examples.md", "atom_type": "SENTENCE", "parent_section": "\u00a7NV.2 [Example 2]", "verbatim": "**Rows 1-4:** Show the VEP measurements for the right eye.", "assigned_reverse_verdict": "SOURCED", "detail": null}
{"md_atom_id": "md_dmHO_ex_a024", "file": "knowledge_base/domains/HO/examples.md", "atom_type": "SENTENCE", "parent_section": "\u00a7HO.1 [Example 1]", "verbatim": "**Row 2:** For the second encounter recorded for subject ABC123101, the reason for admission to a nursing home was for rehabilitation.", "assigned_reverse_verdict": "SOURCED", "detail": null}
{"md_atom_id": "md_dmAE_ex_a054", "file": "knowledge_base/domains/AE/examples.md", "atom_type": "SENTENCE", "parent_section": "\u00a7AE.4 [Example 4]", "verbatim": "**Rows 5-6:** Show AEGRPID used to group records related to a single event of \"DIARRHEA\".", "assigned_reverse_verdict": "SOURCED", "detail": null}
{"md_atom_id": "md_ch04_a959", "file": "knowledge_base/chapters/ch04_general_assumptions.md", "atom_type": "SENTENCE", "parent_section": "\u00a74.5.4 [Evaluators in the Interventions and Events Observation Classes]", "verbatim": "The evaluations of the adverse event by the primary investigator were represented in the standard AE dataset.", "assigned_reverse_verdict": "SOURCED", "detail": null}
{"md_atom_id": "md_dmMK_ex_a010", "file": "knowledge_base/domains/MK/examples.md", "atom_type": "SENTENCE", "parent_section": "\u00a7MK.1 [Example 1]", "verbatim": "Each joint location is specified in MKLOC with laterality (\"RIGHT\" or \"LEFT\") in MKLAT.", "assigned_reverse_verdict": "SOURCED", "detail": null}
{"md_atom_id": "md_dmRELSUB_ex_a006", "file": "knowledge_base/domains/RELSUB/examples.md", "atom_type": "SENTENCE", "parent_section": "\u00a7RELSUB.1 [Example 1]", "verbatim": "**Rows 2-3:** Subjects are the children.", "assigned_reverse_verdict": "SOURCED", "detail": null}
{"md_atom_id": "md_ch08_a034", "file": "knowledge_base/chapters/ch08_relationships.md", "atom_type": "SENTENCE", "parent_section": "\u00a78.1.1 [--GRPID Example]", "verbatim": "**Rows 1-3:** Show 3 medications taken by subject 1234. CMGRPID=\"COMBO THPY 1\" has been used to group these medications.", "assigned_reverse_verdict": "SOURCED", "detail": null}
{"md_atom_id": "md_dmAG_ex_a050", "file": "knowledge_base/domains/AG/examples.md", "atom_type": "SENTENCE", "parent_section": "\u00a7AG.2 [Example 2]", "verbatim": "**relrec.xpt**", "assigned_reverse_verdict": "SOURCED", "detail": null}
{"md_atom_id": "md_dmSM_ex_a005", "file": "knowledge_base/domains/SM/examples.md", "atom_type": "SENTENCE", "parent_section": "\u00a7SM.1 [Example 1]", "verbatim": "**Rows 2-3:** Show that subject 001 had 2 hypoglycemic events. In this case, only start date/times have been collected. Because these date/times include full dates, SMSTDY has been populated in each case.", "assigned_reverse_verdict": "SOURCED", "detail": null}
{"md_atom_id": "md_dmRELREC_ex_a016", "file": "knowledge_base/domains/RELREC/examples.md", "atom_type": "SENTENCE", "parent_section": "\u00a7RELREC.1.2 [Example 2]", "verbatim": "Example 2 is the same scenario as Example 1. In this case, however, the way the data were collected indicated that the concomitant medications and laboratory findings were all in a single relationship to each other and the adverse event.", "assigned_reverse_verdict": "SOURCED", "detail": null}
{"md_atom_id": "md_dmLB_ex_a011", "file": "knowledge_base/domains/LB/examples.md", "atom_type": "SENTENCE", "parent_section": "\u00a7LB.1 [Example 1]", "verbatim": "**Rows 12-13:** Show a suggested use of the LBSCAT variable. LBSCAT could be used to further classify types of tests within a laboratory panel (e.g., \"DIFFERENTIAL\"). The LYMLE result was evaluated by the investigator and determined to be not clinically significant.", "assigned_reverse_verdict": "SOURCED", "detail": null}
{"md_atom_id": "md_dmCV_ex_a003", "file": "knowledge_base/domains/CV/examples.md", "atom_type": "SENTENCE", "parent_section": "\u00a7CV.1 [Example 1]", "verbatim": "This example shows various findings related to the aortic artery, along with evaluation for the presence or absence of abdominal aortic aneurysms. The suprarenal, infrarenal, and thoracic sections of the aorta were examined for aneurysms. This level of anatomical location detail can be found in CVLOC. The records in rows 1 to 3 are related assessments regarding an aneurysm in the thoracic aorta and are grouped together using the CVGRPID variable.", "assigned_reverse_verdict": "SOURCED", "detail": null}
{"md_atom_id": "md_ch04_a338", "file": "knowledge_base/chapters/ch04_general_assumptions.md", "atom_type": "SENTENCE", "parent_section": "\u00a74.2.7.3 [\"Specify\" Values for Topic Variables]", "verbatim": "For example, a lab CRF collected values for hemoglobin, hematocrit, and \"Other, specify\".", "assigned_reverse_verdict": "SOURCED", "detail": null}
{"md_atom_id": "md_ch04_a511", "file": "knowledge_base/chapters/ch04_general_assumptions.md", "atom_type": "SENTENCE", "parent_section": "\u00a74.4.2 [Date/Time Precision]", "verbatim": "According to ISO 8601, precision (also referred to as \"completeness\" or \"representations with reduced accuracy\") can be inferred from the presence or absence of components in the date and/or time values.", "assigned_reverse_verdict": "SOURCED", "detail": null}
{"md_atom_id": "md_dmLB_ex_a029", "file": "knowledge_base/domains/LB/examples.md", "atom_type": "SENTENCE", "parent_section": "\u00a7LB.3 [Example 3]", "verbatim": "**Row 1:** Shows a pregnancy test with an original result of \"-\" (negative sign) standardized to the text value \"NEGATIVE\" in LBSTRESC.", "assigned_reverse_verdict": "SOURCED", "detail": null}
{"md_atom_id": "md_dmMB_ex_a009", "file": "knowledge_base/domains/MB/examples.md", "atom_type": "SENTENCE", "parent_section": "\u00a7MB.1 [Example 1]", "verbatim": "Because an identified organism is the subject of the test, the NHOID variable is populated with \"ENTEROCOCCUS FAECALIS\".", "assigned_reverse_verdict": "SOURCED", "detail": null}
{"md_atom_id": "md_dmRELREC_ex_a006", "file": "knowledge_base/domains/RELREC/examples.md", "atom_type": "SENTENCE", "parent_section": "\u00a7RELREC.1.1 [Example 1]", "verbatim": "**Rows 4-6:** Show the representation of a relationship between the same AE record and 2 laboratory findings records.", "assigned_reverse_verdict": "SOURCED", "detail": null}
{"md_atom_id": "md_dmSM_ex_a007", "file": "knowledge_base/domains/SM/examples.md", "atom_type": "SENTENCE", "parent_section": "\u00a7SM.1 [Example 1]", "verbatim": "**sm.xpt**", "assigned_reverse_verdict": "SOURCED", "detail": null}
{"md_atom_id": "md_dmMB_ex_a031", "file": "knowledge_base/domains/MB/examples.md", "atom_type": "SENTENCE", "parent_section": "\u00a7MB.2 [Example 2]", "verbatim": "Specimen collection was represented in the Biospecimen Events (BE) domain.", "assigned_reverse_verdict": "SOURCED", "detail": null}
{"md_atom_id": "md_dmIS_ex_a111", "file": "knowledge_base/domains/IS/examples.md", "atom_type": "SENTENCE", "parent_section": "\u00a7IS.8 [Example 8]", "verbatim": "NHOID, defined by the Non-host Organism Identifiers (OI) domain, should be used to map microorganisms that have been either experimentally determined in the course of a study or are previously known (e.g., lab strains used as reference in the study). In other words, NHOID is used when the study subject is the microorganism, and when the microorganism is present in the testing sample. In vaccine efficacy studies, a subject's post-immunization sera is often incubated with a microbial strain of interest, where the functional capacities of the vaccine-induced antibodies are measured through whether the antibodies can effectively stop (from infection), neutralize, and kill the study microorganism of interest, in vitro. Examples of such tests include microneutralization, hemagglutination inhibition, and opsonophagocytic-killing assays. These are tests that measure the direct effect of the antimicrobial antibodies on the microorganism; therefore, said microorganism is the study subject and should be mapped to NHOID.", "assigned_reverse_verdict": "SOURCED", "detail": null}
{"md_atom_id": "md_ch10_a178", "file": "knowledge_base/chapters/ch10_appendices.md", "atom_type": "TABLE_ROW", "parent_section": "\u00a710.E [Revision History]", "verbatim": "| **Section 3. Submitting Data in a Standard Format** | | |", "assigned_reverse_verdict": "SOURCED", "detail": null}
{"md_atom_id": "md_dmMB_ex_a060", "file": "knowledge_base/domains/MB/examples.md", "atom_type": "TABLE_ROW", "parent_section": "\u00a7MB.2 [Example 2]", "verbatim": "| 6 | ABC | MB | ABC-001-001 | 6 | SP01 | MCORGIDN | Microbial Organism Identification | | KLEBSIELLA PNEUMONIAE | Nom | KLEBSIELLA PNEUMONIAE | LUNG | | MICROBIAL CULTURE, SOLID | 1 | VISIT 1 | 2005-06-19T08:00 |", "assigned_reverse_verdict": "SOURCED", "detail": null}
{"md_atom_id": "md_dmOI_ex_a015", "file": "knowledge_base/domains/OI/examples.md", "atom_type": "TABLE_ROW", "parent_section": "\u00a7OI.1 [Example 1]", "verbatim": "| 6 | STUDY123 | OI | HIV1MB | 2 | TYPE | Type | 1 |", "assigned_reverse_verdict": "SOURCED", "detail": null}
{"md_atom_id": "md_dmRS_ex_a041", "file": "knowledge_base/domains/RS/examples.md", "atom_type": "TABLE_ROW", "parent_section": "\u00a7RS.1.3 [Example 3]", "verbatim": "| 3 | ABC | RS | 66666 | 3 | PR2 | BESTRESP | Best Response | UNSPECIFIED | MINIMAL RESPONSE | | MINIMAL RESPONSE | | | INVESTIGATOR | 10 | SCREEN | | | | | BEFORE | SCREEN |", "assigned_reverse_verdict": "SOURCED", "detail": null}
{"md_atom_id": "md_dmDM_ex_a151", "file": "knowledge_base/domains/DM/examples.md", "atom_type": "TABLE_ROW", "parent_section": "\u00a7DM.6 [Example 6]", "verbatim": "| RACE07 | 9 | (same) | Race | (same) | Text | RACE | | (RACE) | UNKNOWN | | | checkbox | |", "assigned_reverse_verdict": "SOURCED", "detail": null}
{"md_atom_id": "md_ch10_a031", "file": "knowledge_base/chapters/ch10_appendices.md", "atom_type": "TABLE_ROW", "parent_section": "\u00a710.B [Glossary and Abbreviations]", "verbatim": "| ICH E9 | ICH guidelines on Statistical Principles for Clinical Trials |", "assigned_reverse_verdict": "SOURCED", "detail": null}
{"md_atom_id": "md_dmRE_ex_a019", "file": "knowledge_base/domains/RE/examples.md", "atom_type": "TABLE_ROW", "parent_section": "\u00a7RE.1 [Example 1]", "verbatim": "| 2 | XYZ | DI | DEF999 | 1 | DEVTYPE | Device Type | PEAK FLOW METER |", "assigned_reverse_verdict": "SOURCED", "detail": null}
{"md_atom_id": "md_dmNV_ex_a011", "file": "knowledge_base/domains/NV/examples.md", "atom_type": "TABLE_ROW", "parent_section": "\u00a7NV.1 [Example 1]", "verbatim": "| 2 | ABC123 | NV | AD01-101 | 22 | 2 | 1236 | 03 | SUVR | Standard Uptake Value Ratio | 1.17 | RATIO | 1.17 | 1.17 | RATIO | CINGULATE CORTEX | POSTERIOR | PET/CT SCAN | 1 | 2012-05-22 |", "assigned_reverse_verdict": "SOURCED", "detail": null}
{"md_atom_id": "md_dmTS_ex_a040", "file": "knowledge_base/domains/TS/examples.md", "atom_type": "TABLE_ROW", "parent_section": "\u00a7TS.1 [Example 1]", "verbatim": "| 35 | XYZ | TS | 3 | | FCNTRY | Planned Country of Investigational Sites | MEX | | | ISO 3166-1 Alpha-3 | |", "assigned_reverse_verdict": "SOURCED", "detail": null}
{"md_atom_id": "md_dmMB_ex_a045", "file": "knowledge_base/domains/MB/examples.md", "atom_type": "TABLE_ROW", "parent_section": "\u00a7MB.2 [Example 2]", "verbatim": "| 4 | ABC | BE | ABC-01-101 | BEREFID | SP01 | BECLMETH | Specimen Collection Method | EXPECTORATION | CRF |", "assigned_reverse_verdict": "SOURCED", "detail": null}
{"md_atom_id": "md_ch03_a045", "file": "knowledge_base/chapters/ch03_submitting_data.md", "atom_type": "TABLE_ROW", "parent_section": "\u00a73.2.1 [Dataset-level Metadata]", "verbatim": "| CP | Cell Phenotype Findings | Findings | One record per test per specimen per timepoint per visit per subject | Tabulation | STUDYID, USUBJID, CPTESTCD, CPSPEC, VISITNUM, CPTPTREF, CPTPTNUM | cp.xpt |", "assigned_reverse_verdict": "SOURCED", "detail": null}
{"md_atom_id": "md_dmCV_ex_a008", "file": "knowledge_base/domains/CV/examples.md", "atom_type": "TABLE_ROW", "parent_section": "\u00a7CV.1 [Example 1]", "verbatim": "| 3 | ABC123 | CV | 002-2004 | 3 | 2 | STANFADC | Stanford AoD Classification | CLASS A | CLASS A | THORACIC AORTA | TRANSTHORACIC ECHOCARDIOGRAPHY | 2 | BASELINE | 2015-06-09T14:20 |", "assigned_reverse_verdict": "SOURCED", "detail": null}
{"md_atom_id": "md_dmEG_ex_a058", "file": "knowledge_base/domains/EG/examples.md", "atom_type": "TABLE_ROW", "parent_section": "\u00a7EG.3 [Example 3]", "verbatim": "| 19 | STUDY01 | EG | 2324-P0001 | 19 | ... | QRSAG | QRS Duration, Aggregate | INTERVAL | SUPINE | 103 | msec | 103 | 103 | msec | 12 LEAD STANDARD | LEAD II | | 2 | VISIT 2 | 2014-03-22T11:01:31 | 2 HR | ... | 2 |", "assigned_reverse_verdict": "SOURCED", "detail": null}
{"md_atom_id": "md_ch10_a232", "file": "knowledge_base/chapters/ch10_appendices.md", "atom_type": "TABLE_ROW", "parent_section": "\u00a710.E [Revision History]", "verbatim": "| 8 | Representing Relationships and Data | Section 8.8 (Related Specimens) added due to BE, BS, and RELSPEC being copied in from SDTMIG-PGx, originally published 2015-05-26, to be deprecated with the publication of SDTMIG v3.4 |", "assigned_reverse_verdict": "SOURCED", "detail": null}
{"md_atom_id": "md_dmQS_ex_a017", "file": "knowledge_base/domains/QS/examples.md", "atom_type": "TABLE_ROW", "parent_section": "\u00a7QS.1 [Example 1]", "verbatim": "| 10 | CDISC01 | QS | CDISC01.100014 | 10 | SWLS0105 | SWLS01-Live Life Over Change | SWLS | Strongly disagree | 1 | 1 | Y | 1 | 2003-04-15 | 1 |", "assigned_reverse_verdict": "SOURCED", "detail": null}
{"md_atom_id": "md_dmRS_ex_a054", "file": "knowledge_base/domains/RS/examples.md", "atom_type": "TABLE_ROW", "parent_section": "\u00a7RS.2.1 [Example 1]", "verbatim": "| 4 | STUDYX | RS | P0001 | 4 | GCS0104 | GCS01-Total Score | GCS NINDS VERSION | 5 | 5 | 5 | Y | 1 | 2012-11-16 |", "assigned_reverse_verdict": "SOURCED", "detail": null}
{"md_atom_id": "md_ch02_a109", "file": "knowledge_base/chapters/ch02_fundamentals.md", "atom_type": "TABLE_ROW", "parent_section": "\u00a72.7 [SDTM Variables Not Allowed in the SDTMIG]", "verbatim": "| --RSTMOD | Interventions, Findings |", "assigned_reverse_verdict": "SOURCED", "detail": null}
{"md_atom_id": "md_dmTS_ex_a024", "file": "knowledge_base/domains/TS/examples.md", "atom_type": "TABLE_ROW", "parent_section": "\u00a7TS.1 [Example 1]", "verbatim": "| 19 | XYZ | TS | 1 | | OBJPRIM | Trial Primary Objective | Reduction in the 3-month seizure frequency from baseline | | | | |", "assigned_reverse_verdict": "SOURCED", "detail": null}
{"md_atom_id": "md_dmGF_ex_a095", "file": "knowledge_base/domains/GF/examples.md", "atom_type": "TABLE_ROW", "parent_section": "\u00a7GF.5 [Example 5]", "verbatim": "| 1 | INFLU122 | GF | INF01-01 | 1 | INFLU0101.1 | INFLUENZA A H3N2 | GF-MS-01 | SNV | Single Nucleotide Variation | PREDICTED AMINO ACID CHANGE | R292R | R292R | NA | 292 | U43427 | RNA | | 1 | BASELINE | 2020-06-11 |", "assigned_reverse_verdict": "SOURCED", "detail": null}
{"md_atom_id": "md_ch04_a106", "file": "knowledge_base/chapters/ch04_general_assumptions.md", "atom_type": "TABLE_ROW", "parent_section": "\u00a74.1.7.1 [Example of Splitting Questionnaires]", "verbatim": "| 2 | CDISC01 | QS | CDISC01.100014 | QSCAT | CGI | QSLANG | Questionnaire Language | FRENCH | CRF | |", "assigned_reverse_verdict": "SOURCED", "detail": null}
{"md_atom_id": "md_varindex_a358", "file": "knowledge_base/VARIABLE_INDEX.md", "atom_type": "TABLE_ROW", "parent_section": "\u00a7 \u4e8c\u3001\u9886\u57df\u4e13\u5c5e\u53d8\u91cf\uff08\u4ec5 1 \u4e2a\u57df\uff0c\u5171 1499 \u4e2a\uff09\uff0c\u6309\u57df\u5206\u7ec4", "verbatim": "| DAORRES | Result or Finding in Original Units | Char | Result Qualifier | Exp | \u2014 |", "assigned_reverse_verdict": "SYNTHESIZED", "detail": "auto:synthesized_file"}
{"md_atom_id": "md_ch02_a098", "file": "knowledge_base/chapters/ch02_fundamentals.md", "atom_type": "SENTENCE", "parent_section": "\u00a72.6 [Creating a New Domain]", "verbatim": "**Key rules for custom domains:**", "assigned_reverse_verdict": "SYNTHESIZED", "detail": "auto:bold_only_nav_anchor"}
{"md_atom_id": "md_varindex_a322", "file": "knowledge_base/VARIABLE_INDEX.md", "atom_type": "TABLE_ROW", "parent_section": "\u00a7 \u4e8c\u3001\u9886\u57df\u4e13\u5c5e\u53d8\u91cf\uff08\u4ec5 1 \u4e2a\u57df\uff0c\u5171 1499 \u4e2a\uff09\uff0c\u6309\u57df\u5206\u7ec4", "verbatim": "| CVPOS | Position of Subject During Observation | Char | Record Qualifier | Perm | C71148 |", "assigned_reverse_verdict": "SYNTHESIZED", "detail": "auto:synthesized_file"}
{"md_atom_id": "md_dmMS_ex_a026", "file": "knowledge_base/domains/MS/examples.md", "atom_type": "SENTENCE", "parent_section": "\u00a7MS.2 [Example 2]", "verbatim": "**ms.xpt**", "assigned_reverse_verdict": "SYNTHESIZED", "detail": "auto:bold_only_nav_anchor"}
{"md_atom_id": "md_varindex_a781", "file": "knowledge_base/VARIABLE_INDEX.md", "atom_type": "TABLE_ROW", "parent_section": "\u00a7 \u4e8c\u3001\u9886\u57df\u4e13\u5c5e\u53d8\u91cf\uff08\u4ec5 1 \u4e2a\u57df\uff0c\u5171 1499 \u4e2a\uff09\uff0c\u6309\u57df\u5206\u7ec4", "verbatim": "| LBDY | Study Day of Specimen Collection | Num | Timing | Perm | \u2014 |", "assigned_reverse_verdict": "SYNTHESIZED", "detail": "auto:synthesized_file"}
{"md_atom_id": "md_index_a027", "file": "knowledge_base/INDEX.md", "atom_type": "LIST_ITEM", "parent_section": "\u00a7 Domains (63 domains)", "verbatim": "- **examples.md** \u2014 Implementation examples with data tables (from SDTMIG v3.4 PDF)", "assigned_reverse_verdict": "SYNTHESIZED", "detail": "auto:synthesized_file"}
{"md_atom_id": "md_dmPC_ex_a360", "file": "knowledge_base/domains/PC/examples.md", "atom_type": "TABLE_HEADER", "parent_section": "\u00a7PC.2.7 [Example 4 (Complex exclusions)]", "verbatim": "| Row | STUDYID | RDOMAIN | USUBJID | IDVAR | IDVARVAL | RELTYPE | RELID |\n|-----|---------|---------|---------|-------|----------|---------|-------|", "assigned_reverse_verdict": "SYNTHESIZED", "detail": "auto:synthesized_type:TABLE_HEADER"}
{"md_atom_id": "md_varindex_a777", "file": "knowledge_base/VARIABLE_INDEX.md", "atom_type": "TABLE_ROW", "parent_section": "\u00a7 \u4e8c\u3001\u9886\u57df\u4e13\u5c5e\u53d8\u91cf\uff08\u4ec5 1 \u4e2a\u57df\uff0c\u5171 1499 \u4e2a\uff09\uff0c\u6309\u57df\u5206\u7ec4", "verbatim": "| LBTOXGR | Standard Toxicity Grade | Char | Record Qualifier | Perm | \u2014 |", "assigned_reverse_verdict": "SYNTHESIZED", "detail": "auto:synthesized_file"}
{"md_atom_id": "md_varindex_a636", "file": "knowledge_base/VARIABLE_INDEX.md", "atom_type": "TABLE_ROW", "parent_section": "\u00a7 \u4e8c\u3001\u9886\u57df\u4e13\u5c5e\u53d8\u91cf\uff08\u4ec5 1 \u4e2a\u57df\uff0c\u5171 1499 \u4e2a\uff09\uff0c\u6309\u57df\u5206\u7ec4", "verbatim": "| GFREASND | Reason Test Not Done | Char | Record Qualifier | Perm | \u2014 |", "assigned_reverse_verdict": "SYNTHESIZED", "detail": "auto:synthesized_file"}
{"md_atom_id": "md_varindex_a1537", "file": "knowledge_base/VARIABLE_INDEX.md", "atom_type": "TABLE_ROW", "parent_section": "\u00a7 \u4e8c\u3001\u9886\u57df\u4e13\u5c5e\u53d8\u91cf\uff08\u4ec5 1 \u4e2a\u57df\uff0c\u5171 1499 \u4e2a\uff09\uff0c\u6309\u57df\u5206\u7ec4", "verbatim": "| TRORRES | Result or Finding in Original Units | Char | Result Qualifier | Exp | \u2014 |", "assigned_reverse_verdict": "SYNTHESIZED", "detail": "auto:synthesized_file"}
{"md_atom_id": "md_varindex_a080", "file": "knowledge_base/VARIABLE_INDEX.md", "atom_type": "TABLE_ROW", "parent_section": "\u00a7 \u4e8c\u3001\u9886\u57df\u4e13\u5c5e\u53d8\u91cf\uff08\u4ec5 1 \u4e2a\u57df\uff0c\u5171 1499 \u4e2a\uff09\uff0c\u6309\u57df\u5206\u7ec4", "verbatim": "| AEUNANT | Unanticipated Adverse Device Effect | Char | Record Qualifier | Perm | C66742 |", "assigned_reverse_verdict": "SYNTHESIZED", "detail": "auto:synthesized_file"}
{"md_atom_id": "md_routing_a037", "file": "knowledge_base/ROUTING.md", "atom_type": "LIST_ITEM", "parent_section": "\u00a7 \u591a\u6587\u4ef6\u67e5\u8be2\u7b56\u7565", "verbatim": "4. **\u901a\u7528\u89c4\u5219\u515c\u5e95**: ch04_general_assumptions.md\uff08\u5982\u679c\u4e3b\u6587\u4ef6\u672a\u8986\u76d6\uff09", "assigned_reverse_verdict": "SYNTHESIZED", "detail": "auto:synthesized_file"}
{"md_atom_id": "md_varindex_a818", "file": "knowledge_base/VARIABLE_INDEX.md", "atom_type": "TABLE_ROW", "parent_section": "\u00a7 \u4e8c\u3001\u9886\u57df\u4e13\u5c5e\u53d8\u91cf\uff08\u4ec5 1 \u4e2a\u57df\uff0c\u5171 1499 \u4e2a\uff09\uff0c\u6309\u57df\u5206\u7ec4", "verbatim": "| MBMETHOD | Method of Test or Examination | Char | Record Qualifier | Exp | C85492 |", "assigned_reverse_verdict": "SYNTHESIZED", "detail": "auto:synthesized_file"}
{"md_atom_id": "md_varindex_a914", "file": "knowledge_base/VARIABLE_INDEX.md", "atom_type": "TABLE_ROW", "parent_section": "\u00a7 \u4e8c\u3001\u9886\u57df\u4e13\u5c5e\u53d8\u91cf\uff08\u4ec5 1 \u4e2a\u57df\uff0c\u5171 1499 \u4e2a\uff09\uff0c\u6309\u57df\u5206\u7ec4", "verbatim": "| MKDTC | Date/Time of Collection | Char | Timing | Exp | ISO 8601 datetime or interval |", "assigned_reverse_verdict": "SYNTHESIZED", "detail": "auto:synthesized_file"}
{"md_atom_id": "md_varindex_a041", "file": "knowledge_base/VARIABLE_INDEX.md", "atom_type": "TABLE_ROW", "parent_section": "\u00a7 \u4e8c\u3001\u9886\u57df\u4e13\u5c5e\u53d8\u91cf\uff08\u4ec5 1 \u4e2a\u57df\uff0c\u5171 1499 \u4e2a\uff09\uff0c\u6309\u57df\u5206\u7ec4", "verbatim": "| AEREFID | Reference ID | Char | Identifier | Perm | \u2014 |", "assigned_reverse_verdict": "SYNTHESIZED", "detail": "auto:synthesized_file"}
{"md_atom_id": "md_dmTA_ex_a142", "file": "knowledge_base/domains/TA/examples.md", "atom_type": "TABLE_ROW", "parent_section": "\u00a7TA.4 [Example 4]", "verbatim": "| 8 | EX4 | TA | A | A | 8 | A | Trt A | | | TREATMENT |", "assigned_reverse_verdict": "SYNTHESIZED", "detail": "auto:examples_data_row"}
{"md_atom_id": "md_dmFA_ex_a062", "file": "knowledge_base/domains/FA/examples.md", "atom_type": "TABLE_HEADER", "parent_section": "\u00a7FA.2 [Example 2]", "verbatim": "| Row | STUDYID | RDOMAIN | USUBJID | IDVAR | IDVARVAL | RELTYPE | RELID |\n|-----|---------|---------|---------|-------|----------|---------|-------|", "assigned_reverse_verdict": "SYNTHESIZED", "detail": "auto:synthesized_type:TABLE_HEADER"}
{"md_atom_id": "md_dmDS_ex_a234", "file": "knowledge_base/domains/DS/examples.md", "atom_type": "TABLE_ROW", "parent_section": "\u00a7DS.11 [Example 11]", "verbatim": "| 13 | DS10 | TA | ABC | ABC | 6 | AB | Trt AB | | | TREATMENT |", "assigned_reverse_verdict": "SYNTHESIZED", "detail": "auto:examples_data_row"}
{"md_atom_id": "md_dmPC_ex_a438", "file": "knowledge_base/domains/PC/examples.md", "atom_type": "TABLE_ROW", "parent_section": "\u00a7PC.2.7 [Example 4 (Complex exclusions)]", "verbatim": "| 49 | ABC-123 | PP | ABC-123-0001 | PPSEQ | 5 | | 4 |", "assigned_reverse_verdict": "SYNTHESIZED", "detail": "auto:examples_data_row"}
{"md_atom_id": "md_varindex_a060", "file": "knowledge_base/VARIABLE_INDEX.md", "atom_type": "TABLE_ROW", "parent_section": "\u00a7 \u4e8c\u3001\u9886\u57df\u4e13\u5c5e\u53d8\u91cf\uff08\u4ec5 1 \u4e2a\u57df\uff0c\u5171 1499 \u4e2a\uff09\uff0c\u6309\u57df\u5206\u7ec4", "verbatim": "| AELOC | Location of Event | Char | Record Qualifier | Perm | C74456 |", "assigned_reverse_verdict": "SYNTHESIZED", "detail": "auto:synthesized_file"}
{"md_atom_id": "md_model02_a179", "file": "knowledge_base/model/02_observation_classes.md", "atom_type": "TABLE_ROW", "parent_section": "\u00a73.1.4 Identifiers for All Classes", "verbatim": "| 15 | --LNKGRP | Link Group ID | Char | Identifier | Used with RELREC to link groups of records |", "assigned_reverse_verdict": "SOURCED_P4A_MISSED", "detail": "sv20_p0059_a011"}
{"md_atom_id": "md_model02_a087", "file": "knowledge_base/model/02_observation_classes.md", "atom_type": "TABLE_ROW", "parent_section": "\u00a73.1.2 > Topic and Qualifier Variables (56 variables)", "verbatim": "| 22 | --SOCCD | Primary System Organ Class Code | Num | Variable Qualifier (--SOC) | Not in nonclinical trials |", "assigned_reverse_verdict": "SOURCED_P4A_MISSED", "detail": "sv20_p0017_a001"}
{"md_atom_id": "md_model06_a027", "file": "knowledge_base/model/06_relationship_datasets.md", "atom_type": "TABLE_ROW", "parent_section": "\u00a76.1 Related Records (RELREC)", "verbatim": "| 9 | RELTYPE | Relationship Type | Char | Record Qualifier | Identifies the hierarchical level of the records in the relationship. Values should be either ONE or MANY. |", "assigned_reverse_verdict": "SOURCED_P4A_MISSED", "detail": "sv20_p0065_a005"}
{"md_atom_id": "md_model02_a159", "file": "knowledge_base/model/02_observation_classes.md", "atom_type": "TABLE_ROW", "parent_section": "\u00a73.1.3 > Findings About (Subtype)", "verbatim": "| --OBJ | Object of the Observation | Char | Record Qualifier | Used in domains modeled as Findings About Events or Findings About Interventions. Describes the event or intervention whose property is being measured in --TESTCD/--TEST. |", "assigned_reverse_verdict": "SOURCED_P4A_MISSED", "detail": "sv20_p0032_a011"}
{"md_atom_id": "md_model02_a075", "file": "knowledge_base/model/02_observation_classes.md", "atom_type": "TABLE_ROW", "parent_section": "\u00a73.1.2 > Topic and Qualifier Variables (56 variables)", "verbatim": "| 10 | --HLGT | High Level Group Term | Char | Variable Qualifier (--TERM) | Not in nonclinical trials |", "assigned_reverse_verdict": "SOURCED_P4A_MISSED", "detail": "sv20_p0016_a002"}
{"md_atom_id": "md_model02_a024", "file": "knowledge_base/model/02_observation_classes.md", "atom_type": "TABLE_ROW", "parent_section": "\u00a73.1.1 > Topic and Qualifier Variables (43 variables)", "verbatim": "| 9 | --REASOC | Reason for Occur Value | Char | Record Qualifier | Reason the event did or did not occur |", "assigned_reverse_verdict": "SOURCED_P4A_MISSED", "detail": "sv20_p0016_a008"}
{"md_atom_id": "md_model01_a030", "file": "knowledge_base/model/01_concepts_and_terms.md", "atom_type": "LIST_ITEM", "parent_section": "\u00a72.1 [Model Concepts and Terms \u2014 Variables]", "verbatim": "4. **Qualifier variables** \u2014 include additional illustrative text or numeric values that describe the results or additional traits of the observation (e.g., units, descriptive adjectives)", "assigned_reverse_verdict": "SOURCED_P4A_MISSED", "detail": "sv20_p0009_a011"}
{"md_atom_id": "md_ch04_a917", "file": "knowledge_base/chapters/ch04_general_assumptions.md", "atom_type": "CODE_LITERAL", "parent_section": "\u00a74.5.3.2 [Text Strings Greater than 200 Characters in Other Variables]", "verbatim": "mh.xpt", "assigned_reverse_verdict": "SOURCED_P4A_MISSED", "detail": "ig34_p0055_a022"}
{"md_atom_id": "md_model02_a028", "file": "knowledge_base/model/02_observation_classes.md", "atom_type": "TABLE_ROW", "parent_section": "\u00a73.1.1 > Topic and Qualifier Variables (43 variables)", "verbatim": "| 13 | --EPCHGI | Epi/Pandemic Related Change Indicator | Char | Record Qualifier | Whether intervention was changed due to epidemic or pandemic |", "assigned_reverse_verdict": "SOURCED_P4A_MISSED", "detail": "sv20_p0013_a001"}
{"md_atom_id": "md_model04_a010", "file": "knowledge_base/model/04_associated_persons.md", "atom_type": "LIST_ITEM", "parent_section": "\u00a74 [SDTM v2.0 \u2014 Chapter 4: Associated Persons Data]", "verbatim": "3. **Linking variables:**\n   - **RSUBJID** \u2014 Related Subject or Pool Identifier: identifies a related subject or pool of subjects. RSUBJID may be populated with the USUBJID of the related subject or the POOLID of the related pool. RSUBJID will be null for data about associated persons who are related to the study but not to any study subjects.\n   - **RDEVID** \u2014 Related Device Identifier: identifier for a related device. RDEVID will be populated with the SPDEVID of the related device.\n   - **SREL** \u2014 Subject, Device, or Study Relationship: if RSUBJID is populated, describes the relationship of the associated person(s) to the subject or pool identified in RSUBJID. If RDEVID is populated, describes the relationship to the device identified in RDEVID. If RSUBJID and RDEVID are null, SREL describes the relationship to the study identified in STUDYID.", "assigned_reverse_verdict": "SOURCED_P4A_MISSED", "detail": "sv20_p0050_a017"}
{"md_atom_id": "md_ch04_a967", "file": "knowledge_base/chapters/ch04_general_assumptions.md", "atom_type": "TABLE_ROW", "parent_section": "\u00a74.5.4 [Evaluators in the Interventions and Events Observation Classes]", "verbatim": "| 3 | 12345 | AE | 99-123 | AESEQ | 3 | AERELNS1 | Relationship to Non-study Treatment | Possibly related to aspirin use | CRF | ADJUDICATION COMMITTEE |", "assigned_reverse_verdict": "UNSOURCED_CANDIDATE", "detail": null}
{"md_atom_id": "md_ch08_a308", "file": "knowledge_base/chapters/ch08_relationships.md", "atom_type": "TABLE_ROW", "parent_section": "\u00a78.7 [Related Subjects (RELSUB)]", "verbatim": "| 1 | HEM021 | HEM021-001 | HEM021-002 | MOTHER, BIOLOGICAL |", "assigned_reverse_verdict": "UNSOURCED_CANDIDATE", "detail": null}
{"md_atom_id": "md_ch08_a083", "file": "knowledge_base/chapters/ch08_relationships.md", "atom_type": "SENTENCE", "parent_section": "\u00a78.2.2 [RELREC Dataset Examples]", "verbatim": "**Rows 1-3:** Show the representation of a relationship between an AE record and 2 concomitant medication records.", "assigned_reverse_verdict": "UNSOURCED_CANDIDATE", "detail": null}
{"md_atom_id": "md_ch04_a329", "file": "knowledge_base/chapters/ch04_general_assumptions.md", "atom_type": "TABLE_ROW", "parent_section": "\u00a74.2.7.3 [\"Specify\" Values for Topic Variables]", "verbatim": "| IBUPROFEN   | Y       |", "assigned_reverse_verdict": "UNSOURCED_CANDIDATE", "detail": null}
{"md_atom_id": "md_ch04_a191", "file": "knowledge_base/chapters/ch04_general_assumptions.md", "atom_type": "LIST_ITEM", "parent_section": "\u00a74.2.1.3 [--TERM Conventions (Events)]", "verbatim": "- Should represent the term as reported on the CRF", "assigned_reverse_verdict": "UNSOURCED_CANDIDATE", "detail": null}
{"md_atom_id": "md_ch04_a711", "file": "knowledge_base/chapters/ch04_general_assumptions.md", "atom_type": "TABLE_ROW", "parent_section": "\u00a74.4.10 [Representing Time Points]", "verbatim": "| --TPTREF | Time Point Reference description (e.g., \"DOSE 1 OF TREATMENT A\") |", "assigned_reverse_verdict": "UNSOURCED_CANDIDATE", "detail": null}
{"md_atom_id": "md_ch04_a935", "file": "knowledge_base/chapters/ch04_general_assumptions.md", "atom_type": "SENTENCE", "parent_section": "\u00a74.5.3.2 [Text Strings Greater than 200 Characters in Other Variables]", "verbatim": "**Example 3 (pr.xpt / supppr.xpt):** PRREAS was longer than 200 characters, but required only 1 supplemental qualifier to represent the remaining text.", "assigned_reverse_verdict": "UNSOURCED_CANDIDATE", "detail": null}
{"md_atom_id": "md_ch08_a286", "file": "knowledge_base/chapters/ch08_relationships.md", "atom_type": "LIST_ITEM", "parent_section": "\u00a78.7 [Related Subjects (RELSUB)]", "verbatim": "3. If POOLID is submitted, then in any record, 1 and only 1 of USUBJID and POOLID must be populated.", "assigned_reverse_verdict": "UNSOURCED_CANDIDATE", "detail": null}
{"md_atom_id": "md_ch04_a823", "file": "knowledge_base/chapters/ch04_general_assumptions.md", "atom_type": "LIST_ITEM", "parent_section": "\u00a74.5.1 [Original and Standardized Results]", "verbatim": "- Values with comparison operators (e.g., >10,000, <1): place in --STRESC; --STRESN should be null", "assigned_reverse_verdict": "UNSOURCED_CANDIDATE", "detail": null}
{"md_atom_id": "md_ch04_a708", "file": "knowledge_base/chapters/ch04_general_assumptions.md", "atom_type": "TABLE_ROW", "parent_section": "\u00a74.4.10 [Representing Time Points]", "verbatim": "| --TPT | Planned Time Point Name (e.g., \"1 HOUR POST-DOSE\") |", "assigned_reverse_verdict": "UNSOURCED_CANDIDATE", "detail": null}
{"md_atom_id": "md_ch08_a097", "file": "knowledge_base/chapters/ch08_relationships.md", "atom_type": "TABLE_ROW", "parent_section": "\u00a78.2.2 [RELREC Dataset Examples]", "verbatim": "| 2 | EFC1234 | CM | 123456 | CMSEQ | 11 | | 1 |", "assigned_reverse_verdict": "UNSOURCED_CANDIDATE", "detail": null}
{"md_atom_id": "md_ch04_a603", "file": "knowledge_base/chapters/ch04_general_assumptions.md", "atom_type": "LIST_ITEM", "parent_section": "\u00a74.4.4 [Study Day Variables]", "verbatim": "- Partial dates should not be used to derive study day", "assigned_reverse_verdict": "UNSOURCED_CANDIDATE", "detail": null}
{"md_atom_id": "md_ch08_a340", "file": "knowledge_base/chapters/ch08_relationships.md", "atom_type": "TABLE_ROW", "parent_section": "\u00a78.8 [Related Specimens (RELSPEC)]", "verbatim": "| 1 | ABC-123 | 001-01 | SPC-001 | TISSUE | | 1 |", "assigned_reverse_verdict": "UNSOURCED_CANDIDATE", "detail": null}
{"md_atom_id": "md_ch04_a745", "file": "knowledge_base/chapters/ch04_general_assumptions.md", "atom_type": "TABLE_ROW", "parent_section": "\u00a74.4.10 [Representing Time Points]", "verbatim": "| | | 4H | 3 | |", "assigned_reverse_verdict": "UNSOURCED_CANDIDATE", "detail": null}
{"md_atom_id": "md_ch08_a323", "file": "knowledge_base/chapters/ch08_relationships.md", "atom_type": "TABLE_ROW", "parent_section": "\u00a78.8 [Related Specimens (RELSPEC)]", "verbatim": "| REFID | Specimen ID | Char | | Identifier | Specimen identifier, unique within USUBJID. | Req |", "assigned_reverse_verdict": "UNSOURCED_CANDIDATE", "detail": null}
{"md_atom_id": "md_dmCE_ex_a073", "file": "knowledge_base/domains/CE/examples.md", "atom_type": "SENTENCE", "parent_section": "\u00a7CE.3 [Example 3]", "verbatim": "**Row 1:** The subject had only 1 fracture in the last 5 years.", "assigned_reverse_verdict": "UNSOURCED_CANDIDATE", "detail": null}
{"md_atom_id": "md_model03_a023", "file": "knowledge_base/model/03_special_purpose_domains.md", "atom_type": "TABLE_ROW", "parent_section": "\u00a7 Demographics (DM) > Variables (38 variables)", "verbatim": "| 9 | RFCSTDTC | Date/Time of First Challenge Agent Admin | Char | Record Qualifier | |", "assigned_reverse_verdict": "UNSOURCED_CANDIDATE", "detail": null}
{"md_atom_id": "md_dmBE_ex_a048", "file": "knowledge_base/domains/BE/examples.md", "atom_type": "SENTENCE", "parent_section": "\u00a7BE.2 [Example 2]", "verbatim": "In this example, a blood sample was drawn, centrifuged to get plasma, and stored in a pretreated container before being shipped to the lab.", "assigned_reverse_verdict": "UNSOURCED_CANDIDATE", "detail": null}
{"md_atom_id": "md_ch01_a084", "file": "knowledge_base/chapters/ch01_introduction.md", "atom_type": "SENTENCE", "parent_section": "\u00a71.5 [Known Issues]", "verbatim": "This implies:", "assigned_reverse_verdict": "UNSOURCED_CANDIDATE", "detail": null}
{"md_atom_id": "md_dmTA_ex_a116", "file": "knowledge_base/domains/TA/examples.md", "atom_type": "SENTENCE", "parent_section": "\u00a7TA.4 [Example 4]", "verbatim": "2 arms (Drug A, Drug B), 3 epochs (Screening, Treatment, Follow-Up).", "assigned_reverse_verdict": "UNSOURCED_CANDIDATE", "detail": null}
{"md_atom_id": "md_dmPC_ex_a357", "file": "knowledge_base/domains/PC/examples.md", "atom_type": "LIST_ITEM", "parent_section": "\u00a7PC.2.7 [Example 4 (Complex exclusions)]", "verbatim": "**Rows 9-12:** The relationship with RELID \"3\" includes PC records with PCGRPID values \"DY1DRGX_A\", \"DY1DRGX_B\", and \"DY1DRGX_C\" and the one PP record with PPGRPID = \"AUC\".", "assigned_reverse_verdict": "UNSOURCED_CANDIDATE", "detail": null}
{"md_atom_id": "md_dmDM_ex_a121", "file": "knowledge_base/domains/DM/examples.md", "atom_type": "SENTENCE", "parent_section": "\u00a7DM.5 [Example 5]", "verbatim": "The CRF collects ETHNIC (Hispanic or Latino / Not Hispanic or Latino) with subcategories for Chinese regional ethnicity: HAN CHINESE, MANCHU, MIAO, UYGHUR, ZHUANG.", "assigned_reverse_verdict": "UNSOURCED_CANDIDATE", "detail": null}
{"md_atom_id": "md_model02_a207", "file": "knowledge_base/model/02_observation_classes.md", "atom_type": "TABLE_ROW", "parent_section": "\u00a73.1.5 > Study Day Variables", "verbatim": "| 19 | --RPSTDY | Actual Repro Phase Day of Obs Start | Num | Not in human clinical trials |", "assigned_reverse_verdict": "UNSOURCED_CANDIDATE", "detail": null}
{"md_atom_id": "md_dmPC_ex_a061", "file": "knowledge_base/domains/PC/examples.md", "atom_type": "LIST_ITEM", "parent_section": "\u00a7PC.2.2 [PC-PP Relating Records]", "verbatim": "- **Method B** (one to many, using PCSEQ and PPGRPID)", "assigned_reverse_verdict": "UNSOURCED_CANDIDATE", "detail": null}
{"md_atom_id": "md_model03_a134", "file": "knowledge_base/model/03_special_purpose_domains.md", "atom_type": "TABLE_ROW", "parent_section": "\u00a7 Subject Visits (SV) > Variables (16 variables)", "verbatim": "| 5 | VISIT | Visit Name | Char | Synonym Qualifier (VISITNUM) | |", "assigned_reverse_verdict": "UNSOURCED_CANDIDATE", "detail": null}
{"md_atom_id": "md_model02_a118", "file": "knowledge_base/model/02_observation_classes.md", "atom_type": "TABLE_ROW", "parent_section": "\u00a73.1.2 > Topic and Qualifier Variables (56 variables)", "verbatim": "| 53 | --CONTRT | Concomitant or Additional Trtmnt Given | Char | Record Qualifier | \"Y\", \"N\", and null |", "assigned_reverse_verdict": "UNSOURCED_CANDIDATE", "detail": null}
{"md_atom_id": "md_model02_a123", "file": "knowledge_base/model/02_observation_classes.md", "atom_type": "NOTE", "parent_section": "\u00a73.1.3 The Findings Observation Class", "verbatim": "**Structure:** One Record per Finding", "assigned_reverse_verdict": "UNSOURCED_CANDIDATE", "detail": null}
{"md_atom_id": "md_model05_a135", "file": "knowledge_base/model/05_study_level_data.md", "atom_type": "TABLE_ROW", "parent_section": "\u00a7 Trial Summary (TS)", "verbatim": "| 2 | DOMAIN | Domain Abbreviation | Char | Identifier |", "assigned_reverse_verdict": "UNSOURCED_CANDIDATE", "detail": null}
{"md_atom_id": "md_model02_a112", "file": "knowledge_base/model/02_observation_classes.md", "atom_type": "TABLE_ROW", "parent_section": "\u00a73.1.2 > Topic and Qualifier Variables (56 variables)", "verbatim": "| 47 | --SOD | Occurred with Overdose | Char | Record Qualifier | Not in nonclinical trials |", "assigned_reverse_verdict": "UNSOURCED_CANDIDATE", "detail": null}
{"md_atom_id": "md_dmPC_ex_a449", "file": "knowledge_base/domains/PC/examples.md", "atom_type": "LIST_ITEM", "parent_section": "\u00a7PC [PC \u2014 Examples]", "verbatim": "4. If none of the above applies, or the data become difficult to group, then start with Example 4, and decide which RELREC method would be easiest to implement and represent.", "assigned_reverse_verdict": "UNSOURCED_CANDIDATE", "detail": null}
