{"atom_id":"ig34_p0119_a001","source":"SDTMIG v3.4 (no header footer).pdf","source_short":"ig34","page":119,"atom_index_on_page":1,"atom_type":"CODE_LITERAL","verbatim":"ex.xpt","parent_section":"§6.1.3.3 [Exposure/Exposure as Collected Examples]","heading_level":null,"sibling_index":null,"cross_refs":null,"figure_ref":null,"table_ref":"ex.xpt","prompt_version":"P0_writer_pdf_v1.2+TOC_anchor+R1-R14"}
{"atom_id":"ig34_p0119_a002","source":"SDTMIG v3.4 (no header footer).pdf","source_short":"ig34","page":119,"atom_index_on_page":2,"atom_type":"TABLE_HEADER","verbatim":"| Row | STUDYID | DOMAIN | USUBJID | EXSEQ | EXLNKID | EXLNKGRP | EXTRT | EXDOSE | EXDOSU | EXDOSFRM | EXDOSFRQ | EXROUTE | EXADJ | VISITNUM | VISIT | EPOCH | EXSTDTC | EXENDTC | EXSTDY | EXENDY |","parent_section":"§6.1.3.3 [Exposure/Exposure as Collected Examples]","heading_level":null,"sibling_index":null,"cross_refs":null,"figure_ref":null,"table_ref":"ex.xpt","prompt_version":"P0_writer_pdf_v1.2+TOC_anchor+R1-R14"}
{"atom_id":"ig34_p0119_a003","source":"SDTMIG v3.4 (no header footer).pdf","source_short":"ig34","page":119,"atom_index_on_page":3,"atom_type":"TABLE_ROW","verbatim":"| 1 | ABC123 | EX | ABC123-0201 | 1 | 20090213T1000 | V1 | DRUG Z | 9.9 | mg/kg | SOLUTION | CONTINUOUS | INTRAVENOUS | | 1 | VISIT 2 | TREATMENT | 2009-02-13T10:00 | 2009-02-13T10:00 | 1 | 1 |","parent_section":"§6.1.3.3 [Exposure/Exposure as Collected Examples]","heading_level":null,"sibling_index":null,"cross_refs":null,"figure_ref":null,"table_ref":"ex.xpt","prompt_version":"P0_writer_pdf_v1.2+TOC_anchor+R1-R14"}
{"atom_id":"ig34_p0119_a004","source":"SDTMIG v3.4 (no header footer).pdf","source_short":"ig34","page":119,"atom_index_on_page":4,"atom_type":"TABLE_ROW","verbatim":"| 2 | ABC123 | EX | ABC123-0201 | 2 | 20090220T1100 | V2 | DRUG Z | 2.6 | mg/kg | SOLUTION | CONTINUOUS | INTRAVENOUS | Injection site reaction | 2 | VISIT 2 | TREATMENT | 2009-02-20T11:00 | 2009-02-20T11:00 | 8 | 8 |","parent_section":"§6.1.3.3 [Exposure/Exposure as Collected Examples]","heading_level":null,"sibling_index":null,"cross_refs":null,"figure_ref":null,"table_ref":"ex.xpt","prompt_version":"P0_writer_pdf_v1.2+TOC_anchor+R1-R14"}
{"atom_id":"ig34_p0119_a005","source":"SDTMIG v3.4 (no header footer).pdf","source_short":"ig34","page":119,"atom_index_on_page":5,"atom_type":"SENTENCE","verbatim":"To complete this example the relevant records from the Vital Signs domain are represented below, to show the collected weight of the subject which was used for the dosing calculations.","parent_section":"§6.1.3.3 [Exposure/Exposure as Collected Examples]","heading_level":null,"sibling_index":null,"cross_refs":null,"figure_ref":null,"table_ref":null,"prompt_version":"P0_writer_pdf_v1.2+TOC_anchor+R1-R14"}
{"atom_id":"ig34_p0119_a006","source":"SDTMIG v3.4 (no header footer).pdf","source_short":"ig34","page":119,"atom_index_on_page":6,"atom_type":"CODE_LITERAL","verbatim":"vs.xpt","parent_section":"§6.1.3.3 [Exposure/Exposure as Collected Examples]","heading_level":null,"sibling_index":null,"cross_refs":null,"figure_ref":null,"table_ref":"vs.xpt","prompt_version":"P0_writer_pdf_v1.2+TOC_anchor+R1-R14"}
{"atom_id":"ig34_p0119_a007","source":"SDTMIG v3.4 (no header footer).pdf","source_short":"ig34","page":119,"atom_index_on_page":7,"atom_type":"TABLE_HEADER","verbatim":"| Row | STUDYID | DOMAIN | USUBJID | VSSEQ | VSLNKID | VSLNKGRP | VSTESTCD | VSTEST | VSORRES | VSORRESU | VSTRESC | VSTRESN | VSLOBXFL | VISITNUM | VISIT | VSDTC | EPOCH |","parent_section":"§6.1.3.3 [Exposure/Exposure as Collected Examples]","heading_level":null,"sibling_index":null,"cross_refs":null,"figure_ref":null,"table_ref":"vs.xpt","prompt_version":"P0_writer_pdf_v1.2+TOC_anchor+R1-R14"}
{"atom_id":"ig34_p0119_a008","source":"SDTMIG v3.4 (no header footer).pdf","source_short":"ig34","page":119,"atom_index_on_page":8,"atom_type":"TABLE_ROW","verbatim":"| 1 | ABC123 | VS | ABC123-0201 | 1 | 20090213T1000 | V1 | WEIGHT | Weight | 55 | kg | 55 | 55 | Y | 1 | VISIT 1 | 2009-02-13 | TREATMENT |","parent_section":"§6.1.3.3 [Exposure/Exposure as Collected Examples]","heading_level":null,"sibling_index":null,"cross_refs":null,"figure_ref":null,"table_ref":"vs.xpt","prompt_version":"P0_writer_pdf_v1.2+TOC_anchor+R1-R14"}
{"atom_id":"ig34_p0119_a009","source":"SDTMIG v3.4 (no header footer).pdf","source_short":"ig34","page":119,"atom_index_on_page":9,"atom_type":"TABLE_ROW","verbatim":"| 2 | ABC123 | VS | ABC123-0201 | 2 | 20090220T1100 | V2 | WEIGHT | Weight | 55 | kg | 55 | 55 | | 2 | VISIT 2 | 2009-02-20 | TREATMENT |","parent_section":"§6.1.3.3 [Exposure/Exposure as Collected Examples]","heading_level":null,"sibling_index":null,"cross_refs":null,"figure_ref":null,"table_ref":"vs.xpt","prompt_version":"P0_writer_pdf_v1.2+TOC_anchor+R1-R14"}
{"atom_id":"ig34_p0119_a010","source":"SDTMIG v3.4 (no header footer).pdf","source_short":"ig34","page":119,"atom_index_on_page":10,"atom_type":"SENTENCE","verbatim":"The RELREC dataset represents relationships between EC, EX, and VS.","parent_section":"§6.1.3.3 [Exposure/Exposure as Collected Examples]","heading_level":null,"sibling_index":null,"cross_refs":null,"figure_ref":null,"table_ref":null,"prompt_version":"P0_writer_pdf_v1.2+TOC_anchor+R1-R14"}
{"atom_id":"ig34_p0119_a011","source":"SDTMIG v3.4 (no header footer).pdf","source_short":"ig34","page":119,"atom_index_on_page":11,"atom_type":"SENTENCE","verbatim":"Rows 1-3:    Represent the one-to-one-to-one relationship between \"PERFORMED\" records in EC, records in EX, and records in VS using --LNKID, .","parent_section":"§6.1.3.3 [Exposure/Exposure as Collected Examples]","heading_level":null,"sibling_index":null,"cross_refs":null,"figure_ref":null,"table_ref":null,"prompt_version":"P0_writer_pdf_v1.2+TOC_anchor+R1-R14"}
{"atom_id":"ig34_p0119_a012","source":"SDTMIG v3.4 (no header footer).pdf","source_short":"ig34","page":119,"atom_index_on_page":12,"atom_type":"SENTENCE","verbatim":"Rows 4-6:    Represent the many-to-one-to-one relationship between many records in EC (both \"SCHEDULED\" and \"PERFORMED\"), one record in EX, and one record in VS (for each visit), using --LNKGRP.","parent_section":"§6.1.3.3 [Exposure/Exposure as Collected Examples]","heading_level":null,"sibling_index":null,"cross_refs":null,"figure_ref":null,"table_ref":null,"prompt_version":"P0_writer_pdf_v1.2+TOC_anchor+R1-R14"}
{"atom_id":"ig34_p0119_a013","source":"SDTMIG v3.4 (no header footer).pdf","source_short":"ig34","page":119,"atom_index_on_page":13,"atom_type":"CODE_LITERAL","verbatim":"relrec.xpt","parent_section":"§6.1.3.3 [Exposure/Exposure as Collected Examples]","heading_level":null,"sibling_index":null,"cross_refs":null,"figure_ref":null,"table_ref":"relrec.xpt","prompt_version":"P0_writer_pdf_v1.2+TOC_anchor+R1-R14"}
{"atom_id":"ig34_p0119_a014","source":"SDTMIG v3.4 (no header footer).pdf","source_short":"ig34","page":119,"atom_index_on_page":14,"atom_type":"TABLE_HEADER","verbatim":"| Row | STUDYID | RDOMAIN | USUBJID | IDVAR | IDVARVAL | RELTYPE | RELID |","parent_section":"§6.1.3.3 [Exposure/Exposure as Collected Examples]","heading_level":null,"sibling_index":null,"cross_refs":null,"figure_ref":null,"table_ref":"relrec.xpt","prompt_version":"P0_writer_pdf_v1.2+TOC_anchor+R1-R14"}
{"atom_id":"ig34_p0119_a015","source":"SDTMIG v3.4 (no header footer).pdf","source_short":"ig34","page":119,"atom_index_on_page":15,"atom_type":"TABLE_ROW","verbatim":"| 1 | ABC123 | EC | | ECLNKID | | ONE | 1 |","parent_section":"§6.1.3.3 [Exposure/Exposure as Collected Examples]","heading_level":null,"sibling_index":null,"cross_refs":null,"figure_ref":null,"table_ref":"relrec.xpt","prompt_version":"P0_writer_pdf_v1.2+TOC_anchor+R1-R14"}
{"atom_id":"ig34_p0119_a016","source":"SDTMIG v3.4 (no header footer).pdf","source_short":"ig34","page":119,"atom_index_on_page":16,"atom_type":"TABLE_ROW","verbatim":"| 2 | ABC123 | EX | | EXLNKID | | ONE | 1 |","parent_section":"§6.1.3.3 [Exposure/Exposure as Collected Examples]","heading_level":null,"sibling_index":null,"cross_refs":null,"figure_ref":null,"table_ref":"relrec.xpt","prompt_version":"P0_writer_pdf_v1.2+TOC_anchor+R1-R14"}
{"atom_id":"ig34_p0119_a017","source":"SDTMIG v3.4 (no header footer).pdf","source_short":"ig34","page":119,"atom_index_on_page":17,"atom_type":"TABLE_ROW","verbatim":"| 6 | ABC123 | VS | | VSLNKID | | ONE | 1 |","parent_section":"§6.1.3.3 [Exposure/Exposure as Collected Examples]","heading_level":null,"sibling_index":null,"cross_refs":null,"figure_ref":null,"table_ref":"relrec.xpt","prompt_version":"P0_writer_pdf_v1.2+TOC_anchor+R1-R14"}
{"atom_id":"ig34_p0119_a018","source":"SDTMIG v3.4 (no header footer).pdf","source_short":"ig34","page":119,"atom_index_on_page":18,"atom_type":"TABLE_ROW","verbatim":"| 3 | ABC123 | EC | | ECLNKGRP | | MANY | 2 |","parent_section":"§6.1.3.3 [Exposure/Exposure as Collected Examples]","heading_level":null,"sibling_index":null,"cross_refs":null,"figure_ref":null,"table_ref":"relrec.xpt","prompt_version":"P0_writer_pdf_v1.2+TOC_anchor+R1-R14"}
{"atom_id":"ig34_p0119_a019","source":"SDTMIG v3.4 (no header footer).pdf","source_short":"ig34","page":119,"atom_index_on_page":19,"atom_type":"TABLE_ROW","verbatim":"| 4 | ABC123 | EX | | EXLNKGRP | | ONE | 2 |","parent_section":"§6.1.3.3 [Exposure/Exposure as Collected Examples]","heading_level":null,"sibling_index":null,"cross_refs":null,"figure_ref":null,"table_ref":"relrec.xpt","prompt_version":"P0_writer_pdf_v1.2+TOC_anchor+R1-R14"}
{"atom_id":"ig34_p0119_a020","source":"SDTMIG v3.4 (no header footer).pdf","source_short":"ig34","page":119,"atom_index_on_page":20,"atom_type":"TABLE_ROW","verbatim":"| ABC123 | VS | | VSLNKGRP | | ONE | 2 |","parent_section":"§6.1.3.3 [Exposure/Exposure as Collected Examples]","heading_level":null,"sibling_index":null,"cross_refs":null,"figure_ref":null,"table_ref":"relrec.xpt","prompt_version":"P0_writer_pdf_v1.2+TOC_anchor+R1-R14"}
{"atom_id":"ig34_p0119_a021","source":"SDTMIG v3.4 (no header footer).pdf","source_short":"ig34","page":119,"atom_index_on_page":21,"atom_type":"HEADING","verbatim":"Example 8","parent_section":"§6.1.3.3 [Exposure/Exposure as Collected Examples]","heading_level":5,"sibling_index":8,"cross_refs":null,"figure_ref":null,"table_ref":null,"prompt_version":"P0_writer_pdf_v1.2+TOC_anchor+R1-R14"}
{"atom_id":"ig34_p0119_a022","source":"SDTMIG v3.4 (no header footer).pdf","source_short":"ig34","page":119,"atom_index_on_page":22,"atom_type":"SENTENCE","verbatim":"In this example, a 100 mg tablet is scheduled to be taken daily. Start and end of dosing were collected, along with deviations from the planned daily dosing. Note: This method of data collection design is not consistent with current CDASH standards.","parent_section":"§6.1.3.3 [Exposure/Exposure as Collected Examples]","heading_level":null,"sibling_index":null,"cross_refs":null,"figure_ref":null,"table_ref":null,"prompt_version":"P0_writer_pdf_v1.2+TOC_anchor+R1-R14"}
{"atom_id":"ig34_p0119_a023","source":"SDTMIG v3.4 (no header footer).pdf","source_short":"ig34","page":119,"atom_index_on_page":23,"atom_type":"TABLE_HEADER","verbatim":"| First Dose Date | Last Dose Date |","parent_section":"§6.1.3.3 [Exposure/Exposure as Collected Examples]","heading_level":null,"sibling_index":null,"cross_refs":null,"figure_ref":null,"table_ref":null,"prompt_version":"P0_writer_pdf_v1.2+TOC_anchor+R1-R14"}
{"atom_id":"ig34_p0119_a024","source":"SDTMIG v3.4 (no header footer).pdf","source_short":"ig34","page":119,"atom_index_on_page":24,"atom_type":"TABLE_ROW","verbatim":"| 2012-01-13 | 2012-01-20 |","parent_section":"§6.1.3.3 [Exposure/Exposure as Collected Examples]","heading_level":null,"sibling_index":null,"cross_refs":null,"figure_ref":null,"table_ref":null,"prompt_version":"P0_writer_pdf_v1.2+TOC_anchor+R1-R14"}
{"atom_id":"ig34_p0119_a025","source":"SDTMIG v3.4 (no header footer).pdf","source_short":"ig34","page":119,"atom_index_on_page":25,"atom_type":"TABLE_HEADER","verbatim":"| Date | Number of Doses Daily If/When Deviated from Plan |","parent_section":"§6.1.3.3 [Exposure/Exposure as Collected Examples]","heading_level":null,"sibling_index":null,"cross_refs":null,"figure_ref":null,"table_ref":null,"prompt_version":"P0_writer_pdf_v1.2+TOC_anchor+R1-R14"}
{"atom_id":"ig34_p0119_a026","source":"SDTMIG v3.4 (no header footer).pdf","source_short":"ig34","page":119,"atom_index_on_page":26,"atom_type":"TABLE_ROW","verbatim":"| 2012-01-15 | 0 |","parent_section":"§6.1.3.3 [Exposure/Exposure as Collected Examples]","heading_level":null,"sibling_index":null,"cross_refs":null,"figure_ref":null,"table_ref":null,"prompt_version":"P0_writer_pdf_v1.2+TOC_anchor+R1-R14"}
{"atom_id":"ig34_p0119_a027","source":"SDTMIG v3.4 (no header footer).pdf","source_short":"ig34","page":119,"atom_index_on_page":27,"atom_type":"TABLE_ROW","verbatim":"| 2012-01-16 | 2 |","parent_section":"§6.1.3.3 [Exposure/Exposure as Collected Examples]","heading_level":null,"sibling_index":null,"cross_refs":null,"figure_ref":null,"table_ref":null,"prompt_version":"P0_writer_pdf_v1.2+TOC_anchor+R1-R14"}
{"atom_id":"ig34_p0119_a028","source":"SDTMIG v3.4 (no header footer).pdf","source_short":"ig34","page":119,"atom_index_on_page":28,"atom_type":"SENTENCE","verbatim":"The EC dataset shows administrations as collected.","parent_section":"§6.1.3.3 [Exposure/Exposure as Collected Examples]","heading_level":null,"sibling_index":null,"cross_refs":null,"figure_ref":null,"table_ref":null,"prompt_version":"P0_writer_pdf_v1.2+TOC_anchor+R1-R14"}
{"atom_id":"ig34_p0119_a029","source":"SDTMIG v3.4 (no header footer).pdf","source_short":"ig34","page":119,"atom_index_on_page":29,"atom_type":"SENTENCE","verbatim":"Row 1:    Shows the overall dosing interval from first dose date to last dose date.","parent_section":"§6.1.3.3 [Exposure/Exposure as Collected Examples]","heading_level":null,"sibling_index":null,"cross_refs":null,"figure_ref":null,"table_ref":null,"prompt_version":"P0_writer_pdf_v1.2+TOC_anchor+R1-R14"}
{"atom_id":"ig34_p0119_a030","source":"SDTMIG v3.4 (no header footer).pdf","source_short":"ig34","page":119,"atom_index_on_page":30,"atom_type":"SENTENCE","verbatim":"Row 2:    Shows the missed dose on 2012-01-15, which falls within the overall dosing interval.","parent_section":"§6.1.3.3 [Exposure/Exposure as Collected Examples]","heading_level":null,"sibling_index":null,"cross_refs":null,"figure_ref":null,"table_ref":null,"prompt_version":"P0_writer_pdf_v1.2+TOC_anchor+R1-R14"}
{"atom_id":"ig34_p0119_a031","source":"SDTMIG v3.4 (no header footer).pdf","source_short":"ig34","page":119,"atom_index_on_page":31,"atom_type":"SENTENCE","verbatim":"Row 3:    Shows a doubled dose on 2012-01-16, which also falls within the overall dosing interval.","parent_section":"§6.1.3.3 [Exposure/Exposure as Collected Examples]","heading_level":null,"sibling_index":null,"cross_refs":null,"figure_ref":null,"table_ref":null,"prompt_version":"P0_writer_pdf_v1.2+TOC_anchor+R1-R14"}
