{"atom_id": "ig34_p0126_a001", "source": "SDTMIG v3.4 (no header footer).pdf", "source_short": "ig34", "page": 126, "atom_index_on_page": 1, "atom_type": "TABLE_HEADER", "verbatim": "| Variable Name | Variable Label | Type | Controlled Terms, Codelist or Format¹ | Role | CDISC Notes | Core |", "parent_section": "§6.1.5 [Procedures (PR)]", "heading_level": null, "sibling_index": null, "cross_refs": null, "figure_ref": null, "table_ref": "pr.xpt", "prompt_version": "P0_writer_pdf_v1.2+TOC_anchor+R1-R15"}
{"atom_id": "ig34_p0126_a002", "source": "SDTMIG v3.4 (no header footer).pdf", "source_short": "ig34", "page": 126, "atom_index_on_page": 2, "atom_type": "TABLE_ROW", "verbatim": "| PRLOC | Location of Procedure | Char | (LOC) | Record Qualifier | Anatomical location of a procedure. | Perm |", "parent_section": "§6.1.5 [Procedures (PR)]", "heading_level": null, "sibling_index": null, "cross_refs": ["LOC"], "figure_ref": null, "table_ref": "pr.xpt", "prompt_version": "P0_writer_pdf_v1.2+TOC_anchor+R1-R15"}
{"atom_id": "ig34_p0126_a003", "source": "SDTMIG v3.4 (no header footer).pdf", "source_short": "ig34", "page": 126, "atom_index_on_page": 3, "atom_type": "TABLE_ROW", "verbatim": "| PRLAT | Laterality | Char | (LAT) | Variable Qualifier | Qualifier for anatomical location or specimen further detailing laterality. | Perm |", "parent_section": "§6.1.5 [Procedures (PR)]", "heading_level": null, "sibling_index": null, "cross_refs": ["LAT"], "figure_ref": null, "table_ref": "pr.xpt", "prompt_version": "P0_writer_pdf_v1.2+TOC_anchor+R1-R15"}
{"atom_id": "ig34_p0126_a004", "source": "SDTMIG v3.4 (no header footer).pdf", "source_short": "ig34", "page": 126, "atom_index_on_page": 4, "atom_type": "TABLE_ROW", "verbatim": "| PRDIR | Directionality | Char | (DIR) | Variable Qualifier | Qualifier for anatomical location or specimen further detailing directionality. | Perm |", "parent_section": "§6.1.5 [Procedures (PR)]", "heading_level": null, "sibling_index": null, "cross_refs": ["DIR"], "figure_ref": null, "table_ref": "pr.xpt", "prompt_version": "P0_writer_pdf_v1.2+TOC_anchor+R1-R15"}
{"atom_id": "ig34_p0126_a005", "source": "SDTMIG v3.4 (no header footer).pdf", "source_short": "ig34", "page": 126, "atom_index_on_page": 5, "atom_type": "TABLE_ROW", "verbatim": "| PRPORTOT | Portion or Totality | Char | (PORTOT) | Variable Qualifier | Qualifier for anatomical location or specimen further detailing the distribution, which means arrangement of, apportioning of. | Perm |", "parent_section": "§6.1.5 [Procedures (PR)]", "heading_level": null, "sibling_index": null, "cross_refs": ["PORTOT"], "figure_ref": null, "table_ref": "pr.xpt", "prompt_version": "P0_writer_pdf_v1.2+TOC_anchor+R1-R15"}
{"atom_id": "ig34_p0126_a006", "source": "SDTMIG v3.4 (no header footer).pdf", "source_short": "ig34", "page": 126, "atom_index_on_page": 6, "atom_type": "TABLE_ROW", "verbatim": "| VISITNUM | Visit Number | Num | | Timing | Clinical encounter number. Numeric version of VISIT, used for sorting. | Perm |", "parent_section": "§6.1.5 [Procedures (PR)]", "heading_level": null, "sibling_index": null, "cross_refs": null, "figure_ref": null, "table_ref": "pr.xpt", "prompt_version": "P0_writer_pdf_v1.2+TOC_anchor+R1-R15"}
{"atom_id": "ig34_p0126_a007", "source": "SDTMIG v3.4 (no header footer).pdf", "source_short": "ig34", "page": 126, "atom_index_on_page": 7, "atom_type": "TABLE_ROW", "verbatim": "| VISIT | Visit Name | Char | | Timing | Protocol-defined description of a clinical encounter. | Perm |", "parent_section": "§6.1.5 [Procedures (PR)]", "heading_level": null, "sibling_index": null, "cross_refs": null, "figure_ref": null, "table_ref": "pr.xpt", "prompt_version": "P0_writer_pdf_v1.2+TOC_anchor+R1-R15"}
{"atom_id": "ig34_p0126_a008", "source": "SDTMIG v3.4 (no header footer).pdf", "source_short": "ig34", "page": 126, "atom_index_on_page": 8, "atom_type": "TABLE_ROW", "verbatim": "| VISITDY | Planned Study Day of Visit | Num | | Timing | Planned study day of VISIT. Should be an integer. | Perm |", "parent_section": "§6.1.5 [Procedures (PR)]", "heading_level": null, "sibling_index": null, "cross_refs": null, "figure_ref": null, "table_ref": "pr.xpt", "prompt_version": "P0_writer_pdf_v1.2+TOC_anchor+R1-R15"}
{"atom_id": "ig34_p0126_a009", "source": "SDTMIG v3.4 (no header footer).pdf", "source_short": "ig34", "page": 126, "atom_index_on_page": 9, "atom_type": "TABLE_ROW", "verbatim": "| TAETORD | Planned Order of Element within Arm | Num | | Timing | Number that gives the planned order of the element within the arm. | Perm |", "parent_section": "§6.1.5 [Procedures (PR)]", "heading_level": null, "sibling_index": null, "cross_refs": null, "figure_ref": null, "table_ref": "pr.xpt", "prompt_version": "P0_writer_pdf_v1.2+TOC_anchor+R1-R15"}
{"atom_id": "ig34_p0126_a010", "source": "SDTMIG v3.4 (no header footer).pdf", "source_short": "ig34", "page": 126, "atom_index_on_page": 10, "atom_type": "TABLE_ROW", "verbatim": "| EPOCH | Epoch | Char | (EPOCH) | Timing | Epoch associated with the start date/time of the procedure. | Perm |", "parent_section": "§6.1.5 [Procedures (PR)]", "heading_level": null, "sibling_index": null, "cross_refs": ["EPOCH"], "figure_ref": null, "table_ref": "pr.xpt", "prompt_version": "P0_writer_pdf_v1.2+TOC_anchor+R1-R15"}
{"atom_id": "ig34_p0126_a011", "source": "SDTMIG v3.4 (no header footer).pdf", "source_short": "ig34", "page": 126, "atom_index_on_page": 11, "atom_type": "TABLE_ROW", "verbatim": "| PRSTDTC | Start Date/Time of Procedure | Char | ISO 8601 datetime or interval | Timing | Start date/time of the procedure represented in ISO 8601 character format. | Exp |", "parent_section": "§6.1.5 [Procedures (PR)]", "heading_level": null, "sibling_index": null, "cross_refs": null, "figure_ref": null, "table_ref": "pr.xpt", "prompt_version": "P0_writer_pdf_v1.2+TOC_anchor+R1-R15"}
{"atom_id": "ig34_p0126_a012", "source": "SDTMIG v3.4 (no header footer).pdf", "source_short": "ig34", "page": 126, "atom_index_on_page": 12, "atom_type": "TABLE_ROW", "verbatim": "| PRENDTC | End Date/Time of Procedure | Char | ISO 8601 datetime or interval | Timing | End date/time of the procedure represented in ISO 8601 character format. | Perm |", "parent_section": "§6.1.5 [Procedures (PR)]", "heading_level": null, "sibling_index": null, "cross_refs": null, "figure_ref": null, "table_ref": "pr.xpt", "prompt_version": "P0_writer_pdf_v1.2+TOC_anchor+R1-R15"}
{"atom_id": "ig34_p0126_a013", "source": "SDTMIG v3.4 (no header footer).pdf", "source_short": "ig34", "page": 126, "atom_index_on_page": 13, "atom_type": "TABLE_ROW", "verbatim": "| PRSTDY | Study Day of Start of Procedure | Num | | Timing | Study day of start of procedure expressed in integer days relative to the sponsor-defined RFSTDTC in Demographics. | Perm |", "parent_section": "§6.1.5 [Procedures (PR)]", "heading_level": null, "sibling_index": null, "cross_refs": null, "figure_ref": null, "table_ref": "pr.xpt", "prompt_version": "P0_writer_pdf_v1.2+TOC_anchor+R1-R15"}
{"atom_id": "ig34_p0126_a014", "source": "SDTMIG v3.4 (no header footer).pdf", "source_short": "ig34", "page": 126, "atom_index_on_page": 14, "atom_type": "TABLE_ROW", "verbatim": "| PRENDY | Study Day of End of Procedure | Num | | Timing | Study day of end of procedure expressed in integer days relative to the sponsor-defined RFSTDTC in Demographics. | Perm |", "parent_section": "§6.1.5 [Procedures (PR)]", "heading_level": null, "sibling_index": null, "cross_refs": null, "figure_ref": null, "table_ref": "pr.xpt", "prompt_version": "P0_writer_pdf_v1.2+TOC_anchor+R1-R15"}
{"atom_id": "ig34_p0126_a015", "source": "SDTMIG v3.4 (no header footer).pdf", "source_short": "ig34", "page": 126, "atom_index_on_page": 15, "atom_type": "TABLE_ROW", "verbatim": "| PRDUR | Duration of Procedure | Char | ISO 8601 duration | Timing | Collected duration of a procedure represented in ISO 8601 character format. Used only if collected on the CRF and not derived from start and end date/times. | Perm |", "parent_section": "§6.1.5 [Procedures (PR)]", "heading_level": null, "sibling_index": null, "cross_refs": null, "figure_ref": null, "table_ref": "pr.xpt", "prompt_version": "P0_writer_pdf_v1.2+TOC_anchor+R1-R15"}
{"atom_id": "ig34_p0126_a016", "source": "SDTMIG v3.4 (no header footer).pdf", "source_short": "ig34", "page": 126, "atom_index_on_page": 16, "atom_type": "TABLE_ROW", "verbatim": "| PRTPT | Planned Time Point Name | Char | | Timing | Text description of time when a procedure should be performed. This may be represented as an elapsed time relative to a fixed reference point, such as time of last dose. See PRTPTNUM and PRTPTREF. | Perm |", "parent_section": "§6.1.5 [Procedures (PR)]", "heading_level": null, "sibling_index": null, "cross_refs": null, "figure_ref": null, "table_ref": "pr.xpt", "prompt_version": "P0_writer_pdf_v1.2+TOC_anchor+R1-R15"}
{"atom_id": "ig34_p0126_a017", "source": "SDTMIG v3.4 (no header footer).pdf", "source_short": "ig34", "page": 126, "atom_index_on_page": 17, "atom_type": "TABLE_ROW", "verbatim": "| PRTPTNUM | Planned Time Point Number | Num | | Timing | Numerical version of planned time point used in sorting. | Perm |", "parent_section": "§6.1.5 [Procedures (PR)]", "heading_level": null, "sibling_index": null, "cross_refs": null, "figure_ref": null, "table_ref": "pr.xpt", "prompt_version": "P0_writer_pdf_v1.2+TOC_anchor+R1-R15"}
{"atom_id": "ig34_p0126_a018", "source": "SDTMIG v3.4 (no header footer).pdf", "source_short": "ig34", "page": 126, "atom_index_on_page": 18, "atom_type": "TABLE_ROW", "verbatim": "| PRELTM | Planned Elapsed Time from Time Point Ref | Char | ISO 8601 duration | Timing | Planned elapsed time in ISO 8601 format relative to a planned fixed reference (PRTPTREF). This variable is useful where there are repetitive measures. Not a clock time or a date/time variable, but an interval, represented as ISO duration. | Perm |", "parent_section": "§6.1.5 [Procedures (PR)]", "heading_level": null, "sibling_index": null, "cross_refs": null, "figure_ref": null, "table_ref": "pr.xpt", "prompt_version": "P0_writer_pdf_v1.2+TOC_anchor+R1-R15"}
{"atom_id": "ig34_p0126_a019", "source": "SDTMIG v3.4 (no header footer).pdf", "source_short": "ig34", "page": 126, "atom_index_on_page": 19, "atom_type": "TABLE_ROW", "verbatim": "| PRTPTREF | Time Point Reference | Char | | Timing | Description of the fixed reference point referred to by PRELTM, PRTPTNUM, and PRTPT. | Perm |", "parent_section": "§6.1.5 [Procedures (PR)]", "heading_level": null, "sibling_index": null, "cross_refs": null, "figure_ref": null, "table_ref": "pr.xpt", "prompt_version": "P0_writer_pdf_v1.2+TOC_anchor+R1-R15"}
{"atom_id": "ig34_p0126_a020", "source": "SDTMIG v3.4 (no header footer).pdf", "source_short": "ig34", "page": 126, "atom_index_on_page": 20, "atom_type": "TABLE_ROW", "verbatim": "| PRRFTDTC | Date/Time of Reference Time Point | Char | ISO 8601 datetime or interval | Timing | Date/time for a fixed reference time point defined by PRTRTREF in ISO 8601 character format. | Perm |", "parent_section": "§6.1.5 [Procedures (PR)]", "heading_level": null, "sibling_index": null, "cross_refs": null, "figure_ref": null, "table_ref": "pr.xpt", "prompt_version": "P0_writer_pdf_v1.2+TOC_anchor+R1-R15"}
{"atom_id": "ig34_p0126_a021", "source": "SDTMIG v3.4 (no header footer).pdf", "source_short": "ig34", "page": 126, "atom_index_on_page": 21, "atom_type": "TABLE_ROW", "verbatim": "| PRSTRTPT | Start Relative to Reference Time Point | Char | (STENRF) | Timing | Identifies the start of the observation as being before or after the sponsor-defined reference time point defined by variable PRSTTPT. Not all values of the codelist are allowable for this variable. See Section 4.4.7, Use of Relative Timing Variables. | Perm |", "parent_section": "§6.1.5 [Procedures (PR)]", "heading_level": null, "sibling_index": null, "cross_refs": ["STENRF", "Section 4.4.7"], "figure_ref": null, "table_ref": "pr.xpt", "prompt_version": "P0_writer_pdf_v1.2+TOC_anchor+R1-R15"}
{"atom_id": "ig34_p0126_a022", "source": "SDTMIG v3.4 (no header footer).pdf", "source_short": "ig34", "page": 126, "atom_index_on_page": 22, "atom_type": "TABLE_ROW", "verbatim": "| PRSTTPT | Start Reference Time Point | Char | | Timing | Description or date/time in ISO 8601 character format of the sponsor-defined reference point referred to by PRSTRTPT. Examples: \"2003-12-15\", \"VISIT 1\". | Perm |", "parent_section": "§6.1.5 [Procedures (PR)]", "heading_level": null, "sibling_index": null, "cross_refs": null, "figure_ref": null, "table_ref": "pr.xpt", "prompt_version": "P0_writer_pdf_v1.2+TOC_anchor+R1-R15"}
{"atom_id": "ig34_p0126_a023", "source": "SDTMIG v3.4 (no header footer).pdf", "source_short": "ig34", "page": 126, "atom_index_on_page": 23, "atom_type": "TABLE_ROW", "verbatim": "| PRENRTPT | End Relative to Reference Time Point | Char | (STENRF) | Timing | Identifies the end of the observation as being before or after the sponsor-defined reference time point defined by variable PRENTPT. Not all values of the codelist are allowable for this variable. See Section 4.4.7, Use of Relative Timing Variables. | Perm |", "parent_section": "§6.1.5 [Procedures (PR)]", "heading_level": null, "sibling_index": null, "cross_refs": ["STENRF", "Section 4.4.7"], "figure_ref": null, "table_ref": "pr.xpt", "prompt_version": "P0_writer_pdf_v1.2+TOC_anchor+R1-R15"}
{"atom_id": "ig34_p0126_a024", "source": "SDTMIG v3.4 (no header footer).pdf", "source_short": "ig34", "page": 126, "atom_index_on_page": 24, "atom_type": "TABLE_ROW", "verbatim": "| PRENTPT | End Reference Time Point | Char | | Timing | Description or date/time in ISO 8601 character format of the sponsor-defined reference point referred to by PRENRTPT. Examples: \"2003-12-25\", \"VISIT 2\". | Perm |", "parent_section": "§6.1.5 [Procedures (PR)]", "heading_level": null, "sibling_index": null, "cross_refs": null, "figure_ref": null, "table_ref": "pr.xpt", "prompt_version": "P0_writer_pdf_v1.2+TOC_anchor+R1-R15"}
{"atom_id": "ig34_p0126_a025", "source": "SDTMIG v3.4 (no header footer).pdf", "source_short": "ig34", "page": 126, "atom_index_on_page": 25, "atom_type": "NOTE", "verbatim": "¹In this column, an asterisk (*) indicates that the variable may be subject to controlled terminology. CDISC/NCI codelist values are enclosed in parentheses.", "parent_section": "§6.1.5 [Procedures (PR)]", "heading_level": null, "sibling_index": null, "cross_refs": null, "figure_ref": null, "table_ref": null, "prompt_version": "P0_writer_pdf_v1.2+TOC_anchor+R1-R15"}
{"atom_id": "ig34_p0127_a001", "source": "SDTMIG v3.4 (no header footer).pdf", "source_short": "ig34", "page": 127, "atom_index_on_page": 1, "atom_type": "HEADING", "verbatim": "PR – Assumptions", "parent_section": "§6.1.5 [Procedures (PR)]", "heading_level": 4, "sibling_index": 3, "cross_refs": null, "figure_ref": null, "table_ref": null, "prompt_version": "P0_writer_pdf_v1.2+TOC_anchor+R1-R15"}
{"atom_id": "ig34_p0127_a002", "source": "SDTMIG v3.4 (no header footer).pdf", "source_short": "ig34", "page": 127, "atom_index_on_page": 2, "atom_type": "LIST_ITEM", "verbatim": "1. Some examples of procedures, by type, include the following:", "parent_section": "§6.1.5 [Procedures (PR)]", "heading_level": null, "sibling_index": null, "cross_refs": null, "figure_ref": null, "table_ref": null, "prompt_version": "P0_writer_pdf_v1.2+TOC_anchor+R1-R15"}
{"atom_id": "ig34_p0127_a003", "source": "SDTMIG v3.4 (no header footer).pdf", "source_short": "ig34", "page": 127, "atom_index_on_page": 3, "atom_type": "LIST_ITEM", "verbatim": "a. Disease screening (e.g., mammogram, pap smear)", "parent_section": "§6.1.5 [Procedures (PR)]", "heading_level": null, "sibling_index": null, "cross_refs": null, "figure_ref": null, "table_ref": null, "prompt_version": "P0_writer_pdf_v1.2+TOC_anchor+R1-R15"}
{"atom_id": "ig34_p0127_a004", "source": "SDTMIG v3.4 (no header footer).pdf", "source_short": "ig34", "page": 127, "atom_index_on_page": 4, "atom_type": "LIST_ITEM", "verbatim": "b. Endoscopic examinations (e.g., arthroscopy, diagnostic colonoscopy, therapeutic colonoscopy, diagnostic laparoscopy, therapeutic laparoscopy)", "parent_section": "§6.1.5 [Procedures (PR)]", "heading_level": null, "sibling_index": null, "cross_refs": null, "figure_ref": null, "table_ref": null, "prompt_version": "P0_writer_pdf_v1.2+TOC_anchor+R1-R15"}
{"atom_id": "ig34_p0127_a005", "source": "SDTMIG v3.4 (no header footer).pdf", "source_short": "ig34", "page": 127, "atom_index_on_page": 5, "atom_type": "LIST_ITEM", "verbatim": "c. Diagnostic tests (e.g., amniocentesis, biopsy, catheterization, cutaneous oximetry, finger stick, fluorophotometry, imaging techniques (e.g., DXA scan, CT scan, MRI), phlebotomy, pulmonary function test, skin test, stress test, tympanometry)", "parent_section": "§6.1.5 [Procedures (PR)]", "heading_level": null, "sibling_index": null, "cross_refs": null, "figure_ref": null, "table_ref": null, "prompt_version": "P0_writer_pdf_v1.2+TOC_anchor+R1-R15"}
{"atom_id": "ig34_p0127_a006", "source": "SDTMIG v3.4 (no header footer).pdf", "source_short": "ig34", "page": 127, "atom_index_on_page": 6, "atom_type": "LIST_ITEM", "verbatim": "d. Therapeutic procedures (e.g., ablation therapy, catheterization, cryotherapy, mechanical ventilation, phototherapy, radiation therapy/radiotherapy, thermotherapy)", "parent_section": "§6.1.5 [Procedures (PR)]", "heading_level": null, "sibling_index": null, "cross_refs": null, "figure_ref": null, "table_ref": null, "prompt_version": "P0_writer_pdf_v1.2+TOC_anchor+R1-R15"}
{"atom_id": "ig34_p0127_a007", "source": "SDTMIG v3.4 (no header footer).pdf", "source_short": "ig34", "page": 127, "atom_index_on_page": 7, "atom_type": "LIST_ITEM", "verbatim": "e. Surgical procedures (e.g., curative surgery, diagnostic surgery, palliative surgery, therapeutic surgery, prophylactic surgery, resection, stenting, hysterectomy, tubal ligation, implantation)", "parent_section": "§6.1.5 [Procedures (PR)]", "heading_level": null, "sibling_index": null, "cross_refs": null, "figure_ref": null, "table_ref": null, "prompt_version": "P0_writer_pdf_v1.2+TOC_anchor+R1-R15"}
{"atom_id": "ig34_p0127_a008", "source": "SDTMIG v3.4 (no header footer).pdf", "source_short": "ig34", "page": 127, "atom_index_on_page": 8, "atom_type": "SENTENCE", "verbatim": "The Procedures domain is based on the Interventions observation class.", "parent_section": "§6.1.5 [Procedures (PR)]", "heading_level": null, "sibling_index": null, "cross_refs": ["RELREC", "MI"], "figure_ref": null, "table_ref": null, "prompt_version": "P0_writer_pdf_v1.2+TOC_anchor+R1-R15+repair"}
{"atom_id": "ig34_p0127_a009", "source": "SDTMIG v3.4 (no header footer).pdf", "source_short": "ig34", "page": 127, "atom_index_on_page": 9, "atom_type": "SENTENCE", "verbatim": "The extent of physiological effect may range from observable to microscopic.", "parent_section": "§6.1.5 [Procedures (PR)]", "heading_level": null, "sibling_index": null, "cross_refs": ["RELREC", "MI"], "figure_ref": null, "table_ref": null, "prompt_version": "P0_writer_pdf_v1.2+TOC_anchor+R1-R15+repair"}
{"atom_id": "ig34_p0127_a010", "source": "SDTMIG v3.4 (no header footer).pdf", "source_short": "ig34", "page": 127, "atom_index_on_page": 10, "atom_type": "SENTENCE", "verbatim": "Regardless of the extent of effect or whether it is collected in the study, all collected procedures are represented in this domain.", "parent_section": "§6.1.5 [Procedures (PR)]", "heading_level": null, "sibling_index": null, "cross_refs": ["RELREC", "MI"], "figure_ref": null, "table_ref": null, "prompt_version": "P0_writer_pdf_v1.2+TOC_anchor+R1-R15+repair"}
{"atom_id": "ig34_p0127_a011", "source": "SDTMIG v3.4 (no header footer).pdf", "source_short": "ig34", "page": 127, "atom_index_on_page": 11, "atom_type": "SENTENCE", "verbatim": "The protocol design should specify whether procedure information will be collected.", "parent_section": "§6.1.5 [Procedures (PR)]", "heading_level": null, "sibling_index": null, "cross_refs": ["RELREC", "MI"], "figure_ref": null, "table_ref": null, "prompt_version": "P0_writer_pdf_v1.2+TOC_anchor+R1-R15+repair"}
{"atom_id": "ig34_p0127_a012", "source": "SDTMIG v3.4 (no header footer).pdf", "source_short": "ig34", "page": 127, "atom_index_on_page": 12, "atom_type": "SENTENCE", "verbatim": "Measurements obtained from procedures are to be represented in their respective Findings domain(s).", "parent_section": "§6.1.5 [Procedures (PR)]", "heading_level": null, "sibling_index": null, "cross_refs": ["RELREC", "MI"], "figure_ref": null, "table_ref": null, "prompt_version": "P0_writer_pdf_v1.2+TOC_anchor+R1-R15+repair"}
{"atom_id": "ig34_p0127_a013", "source": "SDTMIG v3.4 (no header footer).pdf", "source_short": "ig34", "page": 127, "atom_index_on_page": 13, "atom_type": "SENTENCE", "verbatim": "For example, a biopsy may be performed to obtain a tissue sample that is then evaluated histopathologically.", "parent_section": "§6.1.5 [Procedures (PR)]", "heading_level": null, "sibling_index": null, "cross_refs": ["RELREC", "MI"], "figure_ref": null, "table_ref": null, "prompt_version": "P0_writer_pdf_v1.2+TOC_anchor+R1-R15+repair"}
{"atom_id": "ig34_p0127_a014", "source": "SDTMIG v3.4 (no header footer).pdf", "source_short": "ig34", "page": 127, "atom_index_on_page": 14, "atom_type": "SENTENCE", "verbatim": "In this case, details of the biopsy procedure can be represented in the PR domain and the histopathology findings in the Microscopic Findings (MI) domain.", "parent_section": "§6.1.5 [Procedures (PR)]", "heading_level": null, "sibling_index": null, "cross_refs": ["RELREC", "MI"], "figure_ref": null, "table_ref": null, "prompt_version": "P0_writer_pdf_v1.2+TOC_anchor+R1-R15+repair"}
{"atom_id": "ig34_p0127_a015", "source": "SDTMIG v3.4 (no header footer).pdf", "source_short": "ig34", "page": 127, "atom_index_on_page": 15, "atom_type": "SENTENCE", "verbatim": "Describing the relationship between PR and MI records (in RELREC) in this example is dependent on whether the relationship is collected, either explicitly or implicitly.", "parent_section": "§6.1.5 [Procedures (PR)]", "heading_level": null, "sibling_index": null, "cross_refs": ["RELREC", "MI"], "figure_ref": null, "table_ref": null, "prompt_version": "P0_writer_pdf_v1.2+TOC_anchor+R1-R15+repair"}
{"atom_id": "ig34_p0127_a016", "source": "SDTMIG v3.4 (no header footer).pdf", "source_short": "ig34", "page": 127, "atom_index_on_page": 16, "atom_type": "LIST_ITEM", "verbatim": "2. In the Findings Observation Class, the test method is represented in the --METHOD variable (e.g., electrophoresis, gram stain, polymerase chain reaction). At times, the test method overlaps with diagnostic/therapeutic procedures (e.g., ultrasound, MRI, x-ray) in-scope for the PR domain. The following is recommended: If timing (start, end or duration) or an indicator populating PROCCUR, PRSTAT, or PRREASND is collected, then a PR record should be created. If only the findings from a procedure are collected, then --METHOD in the Findings domain(s) may be sufficient to reflect the procedure and a related PR record is optional. It is at the sponsor’s discretion whether to represent the procedure as both a test method (--METHOD) and related PR record.", "parent_section": "§6.1.5 [Procedures (PR)]", "heading_level": null, "sibling_index": null, "cross_refs": ["PROCCUR", "PRSTAT", "PRREASND"], "figure_ref": null, "table_ref": null, "prompt_version": "P0_writer_pdf_v1.2+TOC_anchor+R1-R15"}
{"atom_id": "ig34_p0127_a017", "source": "SDTMIG v3.4 (no header footer).pdf", "source_short": "ig34", "page": 127, "atom_index_on_page": 17, "atom_type": "LIST_ITEM", "verbatim": "3. PRINDC is used to represent a medical indication, a medical condition which makes a treatment advisable. The reason for a procedure may be something other than a medical indication. For example, an x-ray might be taken to determine whether a fracture was present. Reasons other than medical indications should be represented using the supplemental qualifier PRREAS (see Appendix C1, Supplemental Qualifiers Name Codes).", "parent_section": "§6.1.5 [Procedures (PR)]", "heading_level": null, "sibling_index": null, "cross_refs": ["PRINDC", "PRREAS", "Appendix C1"], "figure_ref": null, "table_ref": null, "prompt_version": "P0_writer_pdf_v1.2+TOC_anchor+R1-R15"}
{"atom_id": "ig34_p0127_a018", "source": "SDTMIG v3.4 (no header footer).pdf", "source_short": "ig34", "page": 127, "atom_index_on_page": 18, "atom_type": "LIST_ITEM", "verbatim": "4. Any identifier variables, timing variables, or interventions general observation-class qualifiers may be added to the PR domain, but the following qualifiers would generally not be used: --MOOD, --LOT.", "parent_section": "§6.1.5 [Procedures (PR)]", "heading_level": null, "sibling_index": null, "cross_refs": null, "figure_ref": null, "table_ref": null, "prompt_version": "P0_writer_pdf_v1.2+TOC_anchor+R1-R15"}
{"atom_id": "ig34_p0127_a019", "source": "SDTMIG v3.4 (no header footer).pdf", "source_short": "ig34", "page": 127, "atom_index_on_page": 19, "atom_type": "HEADING", "verbatim": "PR – Examples", "parent_section": "§6.1.5 [Procedures (PR)]", "heading_level": 4, "sibling_index": 4, "cross_refs": null, "figure_ref": null, "table_ref": null, "prompt_version": "P0_writer_pdf_v1.2+TOC_anchor+R1-R15"}
{"atom_id": "ig34_p0127_a020", "source": "SDTMIG v3.4 (no header footer).pdf", "source_short": "ig34", "page": 127, "atom_index_on_page": 20, "atom_type": "HEADING", "verbatim": "Example 1", "parent_section": "§6.1.5 [Procedures (PR)]", "heading_level": 5, "sibling_index": 1, "cross_refs": null, "figure_ref": null, "table_ref": null, "prompt_version": "P0_writer_pdf_v1.2+TOC_anchor+R1-R15"}
{"atom_id": "ig34_p0127_a021", "source": "SDTMIG v3.4 (no header footer).pdf", "source_short": "ig34", "page": 127, "atom_index_on_page": 21, "atom_type": "SENTENCE", "verbatim": "A procedures log CRF may collect verbatim values (procedure names) and dates performed.", "parent_section": "§6.1.5 [Procedures (PR)]", "heading_level": null, "sibling_index": null, "cross_refs": ["Section 4.2.4"], "figure_ref": null, "table_ref": null, "prompt_version": "P0_writer_pdf_v1.2+TOC_anchor+R1-R15+repair"}
{"atom_id": "ig34_p0127_a022", "source": "SDTMIG v3.4 (no header footer).pdf", "source_short": "ig34", "page": 127, "atom_index_on_page": 22, "atom_type": "SENTENCE", "verbatim": "This example shows a subject who had 5 procedures collected and represented in the PR domain.", "parent_section": "§6.1.5 [Procedures (PR)]", "heading_level": null, "sibling_index": null, "cross_refs": ["Section 4.2.4"], "figure_ref": null, "table_ref": null, "prompt_version": "P0_writer_pdf_v1.2+TOC_anchor+R1-R15+repair"}
{"atom_id": "ig34_p0127_a023", "source": "SDTMIG v3.4 (no header footer).pdf", "source_short": "ig34", "page": 127, "atom_index_on_page": 23, "atom_type": "SENTENCE", "verbatim": "In this study, the sponsor chose to consider verbatim text in PRTRT as long text represented in mixed case.", "parent_section": "§6.1.5 [Procedures (PR)]", "heading_level": null, "sibling_index": null, "cross_refs": ["Section 4.2.4"], "figure_ref": null, "table_ref": null, "prompt_version": "P0_writer_pdf_v1.2+TOC_anchor+R1-R15+repair"}
{"atom_id": "ig34_p0127_a024", "source": "SDTMIG v3.4 (no header footer).pdf", "source_short": "ig34", "page": 127, "atom_index_on_page": 24, "atom_type": "SENTENCE", "verbatim": "See Section 4.2.4, Text Case in Submitted Data.", "parent_section": "§6.1.5 [Procedures (PR)]", "heading_level": null, "sibling_index": null, "cross_refs": ["Section 4.2.4"], "figure_ref": null, "table_ref": null, "prompt_version": "P0_writer_pdf_v1.2+TOC_anchor+R1-R15+repair"}
{"atom_id": "ig34_p0128_a001", "source": "SDTMIG v3.4 (no header footer).pdf", "source_short": "ig34", "page": 128, "atom_index_on_page": 1, "atom_type": "CODE_LITERAL", "verbatim": "pr.xpt", "parent_section": "§6.1.5 [Procedures (PR)]", "heading_level": null, "sibling_index": null, "cross_refs": null, "figure_ref": null, "table_ref": "pr.xpt", "prompt_version": "P0_writer_pdf_v1.2+TOC_anchor+R1-R15"}
{"atom_id": "ig34_p0128_a002", "source": "SDTMIG v3.4 (no header footer).pdf", "source_short": "ig34", "page": 128, "atom_index_on_page": 2, "atom_type": "TABLE_HEADER", "verbatim": "| Row | STUDYID | DOMAIN | USUBJID | PRSEQ | PRTRT | PRSTDTC | PRENDTC |", "parent_section": "§6.1.5 [Procedures (PR)]", "heading_level": null, "sibling_index": null, "cross_refs": null, "figure_ref": null, "table_ref": "pr.xpt", "prompt_version": "P0_writer_pdf_v1.2+TOC_anchor+R1-R15"}
{"atom_id": "ig34_p0128_a003", "source": "SDTMIG v3.4 (no header footer).pdf", "source_short": "ig34", "page": 128, "atom_index_on_page": 3, "atom_type": "TABLE_ROW", "verbatim": "| 1 | XYZ | PR | XYZ789-002 | 1 | Wisdom Teeth Extraction | 2010-06-08 | 2010-06-08 |", "parent_section": "§6.1.5 [Procedures (PR)]", "heading_level": null, "sibling_index": null, "cross_refs": null, "figure_ref": null, "table_ref": "pr.xpt", "prompt_version": "P0_writer_pdf_v1.2+TOC_anchor+R1-R15"}
{"atom_id": "ig34_p0128_a004", "source": "SDTMIG v3.4 (no header footer).pdf", "source_short": "ig34", "page": 128, "atom_index_on_page": 4, "atom_type": "TABLE_ROW", "verbatim": "| 2 | XYZ | PR | XYZ789-002 | 2 | Reset Broken Arm | 2010-08-06 | 2010-08-06 |", "parent_section": "§6.1.5 [Procedures (PR)]", "heading_level": null, "sibling_index": null, "cross_refs": null, "figure_ref": null, "table_ref": "pr.xpt", "prompt_version": "P0_writer_pdf_v1.2+TOC_anchor+R1-R15"}
{"atom_id": "ig34_p0128_a005", "source": "SDTMIG v3.4 (no header footer).pdf", "source_short": "ig34", "page": 128, "atom_index_on_page": 5, "atom_type": "TABLE_ROW", "verbatim": "| 3 | XYZ | PR | XYZ789-002 | 3 | Prostate Examination | 2010-12-12 | 2010-12-12 |", "parent_section": "§6.1.5 [Procedures (PR)]", "heading_level": null, "sibling_index": null, "cross_refs": null, "figure_ref": null, "table_ref": "pr.xpt", "prompt_version": "P0_writer_pdf_v1.2+TOC_anchor+R1-R15"}
{"atom_id": "ig34_p0128_a006", "source": "SDTMIG v3.4 (no header footer).pdf", "source_short": "ig34", "page": 128, "atom_index_on_page": 6, "atom_type": "TABLE_ROW", "verbatim": "| 4 | XYZ | PR | XYZ789-002 | 4 | Endoscopy | 2010-12-12 | 2010-12-12 |", "parent_section": "§6.1.5 [Procedures (PR)]", "heading_level": null, "sibling_index": null, "cross_refs": null, "figure_ref": null, "table_ref": "pr.xpt", "prompt_version": "P0_writer_pdf_v1.2+TOC_anchor+R1-R15"}
{"atom_id": "ig34_p0128_a007", "source": "SDTMIG v3.4 (no header footer).pdf", "source_short": "ig34", "page": 128, "atom_index_on_page": 7, "atom_type": "TABLE_ROW", "verbatim": "| 5 | XYZ | PR | XYZ789-002 | 5 | Heart Transplant | 2011-08-29 | 2011-08-29 |", "parent_section": "§6.1.5 [Procedures (PR)]", "heading_level": null, "sibling_index": null, "cross_refs": null, "figure_ref": null, "table_ref": "pr.xpt", "prompt_version": "P0_writer_pdf_v1.2+TOC_anchor+R1-R15"}
{"atom_id": "ig34_p0128_a008", "source": "SDTMIG v3.4 (no header footer).pdf", "source_short": "ig34", "page": 128, "atom_index_on_page": 8, "atom_type": "HEADING", "verbatim": "Example 2", "parent_section": "§6.1.5 [Procedures (PR)]", "heading_level": 5, "sibling_index": 2, "cross_refs": null, "figure_ref": null, "table_ref": null, "prompt_version": "P0_writer_pdf_v1.2+TOC_anchor+R1-R15"}
{"atom_id": "ig34_p0128_a009", "source": "SDTMIG v3.4 (no header footer).pdf", "source_short": "ig34", "page": 128, "atom_index_on_page": 9, "atom_type": "SENTENCE", "verbatim": "This example shows data from a 24-hour Holter monitor, an ambulatory electrocardiography device that records a continuous electrocardiographic rhythm pattern.", "parent_section": "§6.1.5 [Procedures (PR)]", "heading_level": null, "sibling_index": null, "cross_refs": null, "figure_ref": null, "table_ref": null, "prompt_version": "P0_writer_pdf_v1.2+TOC_anchor+R1-R15"}
{"atom_id": "ig34_p0128_a010", "source": "SDTMIG v3.4 (no header footer).pdf", "source_short": "ig34", "page": 128, "atom_index_on_page": 10, "atom_type": "SENTENCE", "verbatim": "The start and end of the Holter monitoring procedure are represented in the PR domain.", "parent_section": "§6.1.5 [Procedures (PR)]", "heading_level": null, "sibling_index": null, "cross_refs": null, "figure_ref": null, "table_ref": null, "prompt_version": "P0_writer_pdf_v1.2+TOC_anchor+R1-R15"}
{"atom_id": "ig34_p0128_a011", "source": "SDTMIG v3.4 (no header footer).pdf", "source_short": "ig34", "page": 128, "atom_index_on_page": 11, "atom_type": "CODE_LITERAL", "verbatim": "pr.xpt", "parent_section": "§6.1.5 [Procedures (PR)]", "heading_level": null, "sibling_index": null, "cross_refs": null, "figure_ref": null, "table_ref": "pr.xpt", "prompt_version": "P0_writer_pdf_v1.2+TOC_anchor+R1-R15"}
{"atom_id": "ig34_p0128_a012", "source": "SDTMIG v3.4 (no header footer).pdf", "source_short": "ig34", "page": 128, "atom_index_on_page": 12, "atom_type": "TABLE_HEADER", "verbatim": "| Row | STUDYID | DOMAIN | USUBJID | PRSEQ | PRLNKID | PRTRT | PRDECOD | PRPRESP | PROCCUR | PRSTDTC | PRENDTC |", "parent_section": "§6.1.5 [Procedures (PR)]", "heading_level": null, "sibling_index": null, "cross_refs": null, "figure_ref": null, "table_ref": "pr.xpt", "prompt_version": "P0_writer_pdf_v1.2+TOC_anchor+R1-R15"}
{"atom_id": "ig34_p0128_a013", "source": "SDTMIG v3.4 (no header footer).pdf", "source_short": "ig34", "page": 128, "atom_index_on_page": 13, "atom_type": "TABLE_ROW", "verbatim": "| 1 | ABC123 | PR | ABC123-001 | 1 | 20110101_20110102 | 24-HOUR HOLTER MONITOR | HOLTER CONTINUOUS ECG RECORDING | Y | Y | 2011-01-01T08:00 | 2011-01-02T09:45 |", "parent_section": "§6.1.5 [Procedures (PR)]", "heading_level": null, "sibling_index": null, "cross_refs": null, "figure_ref": null, "table_ref": "pr.xpt", "prompt_version": "P0_writer_pdf_v1.2+TOC_anchor+R1-R15"}
{"atom_id": "ig34_p0128_a014", "source": "SDTMIG v3.4 (no header footer).pdf", "source_short": "ig34", "page": 128, "atom_index_on_page": 14, "atom_type": "SENTENCE", "verbatim": "The heart rate findings from the procedure are represented in the ECG Test Results (EG) domain.", "parent_section": "§6.1.5 [Procedures (PR)]", "heading_level": null, "sibling_index": null, "cross_refs": ["EG"], "figure_ref": null, "table_ref": null, "prompt_version": "P0_writer_pdf_v1.2+TOC_anchor+R1-R15"}
{"atom_id": "ig34_p0128_a015", "source": "SDTMIG v3.4 (no header footer).pdf", "source_short": "ig34", "page": 128, "atom_index_on_page": 15, "atom_type": "CODE_LITERAL", "verbatim": "eg.xpt", "parent_section": "§6.1.5 [Procedures (PR)]", "heading_level": null, "sibling_index": null, "cross_refs": null, "figure_ref": null, "table_ref": "eg.xpt", "prompt_version": "P0_writer_pdf_v1.2+TOC_anchor+R1-R15"}
{"atom_id": "ig34_p0128_a016", "source": "SDTMIG v3.4 (no header footer).pdf", "source_short": "ig34", "page": 128, "atom_index_on_page": 16, "atom_type": "TABLE_HEADER", "verbatim": "| Row | STUDYID | DOMAIN | USUBJID | EGSEQ | EGLNKID | EGTESTCD | EGTEST | EGORRES | EGORRESU | EGMETHOD | EGDTC | EGENDTC |", "parent_section": "§6.1.5 [Procedures (PR)]", "heading_level": null, "sibling_index": null, "cross_refs": null, "figure_ref": null, "table_ref": "eg.xpt", "prompt_version": "P0_writer_pdf_v1.2+TOC_anchor+R1-R15"}
{"atom_id": "ig34_p0128_a017", "source": "SDTMIG v3.4 (no header footer).pdf", "source_short": "ig34", "page": 128, "atom_index_on_page": 17, "atom_type": "TABLE_ROW", "verbatim": "| 1 | ABC123 | EG | ABC123-001 | 1 | 20110101_20110102 | EGHRMIN | ECG Minimum Heart Rate | 70 | beats/min | HOLTER CONTINUOUS ECG RECORDING | 2011-01-01T08:00 | 2011-01-02T09:45 |", "parent_section": "§6.1.5 [Procedures (PR)]", "heading_level": null, "sibling_index": null, "cross_refs": null, "figure_ref": null, "table_ref": "eg.xpt", "prompt_version": "P0_writer_pdf_v1.2+TOC_anchor+R1-R15"}
{"atom_id": "ig34_p0128_a018", "source": "SDTMIG v3.4 (no header footer).pdf", "source_short": "ig34", "page": 128, "atom_index_on_page": 18, "atom_type": "TABLE_ROW", "verbatim": "| 2 | ABC123 | EG | ABC123-001 | 2 | 20110101_20110102 | EGHRMAX | ECG Maximum Heart Rate | 100 | beats/min | HOLTER CONTINUOUS ECG RECORDING | 2011-01-01T08:00 | 2011-01-02T09:45 |", "parent_section": "§6.1.5 [Procedures (PR)]", "heading_level": null, "sibling_index": null, "cross_refs": null, "figure_ref": null, "table_ref": "eg.xpt", "prompt_version": "P0_writer_pdf_v1.2+TOC_anchor+R1-R15"}
{"atom_id": "ig34_p0128_a019", "source": "SDTMIG v3.4 (no header footer).pdf", "source_short": "ig34", "page": 128, "atom_index_on_page": 19, "atom_type": "TABLE_ROW", "verbatim": "| 3 | ABC123 | EG | ABC123-001 | 3 | 20110101_20110102 | EGHRMEAN | ECG Mean Heart Rate | 75 | beats/min | HOLTER CONTINUOUS ECG RECORDING | 2011-01-01T08:00 | 2011-01-02T09:45 |", "parent_section": "§6.1.5 [Procedures (PR)]", "heading_level": null, "sibling_index": null, "cross_refs": null, "figure_ref": null, "table_ref": "eg.xpt", "prompt_version": "P0_writer_pdf_v1.2+TOC_anchor+R1-R15"}
{"atom_id": "ig34_p0128_a020", "source": "SDTMIG v3.4 (no header footer).pdf", "source_short": "ig34", "page": 128, "atom_index_on_page": 20, "atom_type": "SENTENCE", "verbatim": "The relrec.xpt reflects a one-to-many dataset-level relationship between PR and EG using --LNKID.", "parent_section": "§6.1.5 [Procedures (PR)]", "heading_level": null, "sibling_index": null, "cross_refs": ["RELREC"], "figure_ref": null, "table_ref": null, "prompt_version": "P0_writer_pdf_v1.2+TOC_anchor+R1-R15"}
{"atom_id": "ig34_p0128_a021", "source": "SDTMIG v3.4 (no header footer).pdf", "source_short": "ig34", "page": 128, "atom_index_on_page": 21, "atom_type": "CODE_LITERAL", "verbatim": "relrec.xpt", "parent_section": "§6.1.5 [Procedures (PR)]", "heading_level": null, "sibling_index": null, "cross_refs": null, "figure_ref": null, "table_ref": "relrec.xpt", "prompt_version": "P0_writer_pdf_v1.2+TOC_anchor+R1-R15"}
{"atom_id": "ig34_p0128_a022", "source": "SDTMIG v3.4 (no header footer).pdf", "source_short": "ig34", "page": 128, "atom_index_on_page": 22, "atom_type": "TABLE_HEADER", "verbatim": "| Row | STUDYID | RDOMAIN | USUBJID | IDVAR | IDVARVAL | RELTYPE | RELID |", "parent_section": "§6.1.5 [Procedures (PR)]", "heading_level": null, "sibling_index": null, "cross_refs": null, "figure_ref": null, "table_ref": "relrec.xpt", "prompt_version": "P0_writer_pdf_v1.2+TOC_anchor+R1-R15"}
{"atom_id": "ig34_p0128_a023", "source": "SDTMIG v3.4 (no header footer).pdf", "source_short": "ig34", "page": 128, "atom_index_on_page": 23, "atom_type": "TABLE_ROW", "verbatim": "| 1 | ABC123 | PR | | PRLNKID | | ONE | 1 |", "parent_section": "§6.1.5 [Procedures (PR)]", "heading_level": null, "sibling_index": null, "cross_refs": null, "figure_ref": null, "table_ref": "relrec.xpt", "prompt_version": "P0_writer_pdf_v1.2+TOC_anchor+R1-R15"}
{"atom_id": "ig34_p0128_a024", "source": "SDTMIG v3.4 (no header footer).pdf", "source_short": "ig34", "page": 128, "atom_index_on_page": 24, "atom_type": "TABLE_ROW", "verbatim": "| 2 | ABC123 | EG | | EGLNKID | | MANY | 1 |", "parent_section": "§6.1.5 [Procedures (PR)]", "heading_level": null, "sibling_index": null, "cross_refs": null, "figure_ref": null, "table_ref": "relrec.xpt", "prompt_version": "P0_writer_pdf_v1.2+TOC_anchor+R1-R15"}
{"atom_id": "ig34_p0128_a025", "source": "SDTMIG v3.4 (no header footer).pdf", "source_short": "ig34", "page": 128, "atom_index_on_page": 25, "atom_type": "HEADING", "verbatim": "Example 3", "parent_section": "§6.1.5 [Procedures (PR)]", "heading_level": 5, "sibling_index": 3, "cross_refs": null, "figure_ref": null, "table_ref": null, "prompt_version": "P0_writer_pdf_v1.2+TOC_anchor+R1-R15"}
{"atom_id": "ig34_p0128_a026", "source": "SDTMIG v3.4 (no header footer).pdf", "source_short": "ig34", "page": 128, "atom_index_on_page": 26, "atom_type": "SENTENCE", "verbatim": "This example shows data for 3 subjects who had on-study radiotherapy. Dose, dose unit, location, and timing are represented. In this study, the sponsor chose to consider verbatim text in PRTRT as long text represented in mixed case. See Section 4.2.4, Text Case in Submitted Data.", "parent_section": "§6.1.5 [Procedures (PR)]", "heading_level": null, "sibling_index": null, "cross_refs": ["Section 4.2.4"], "figure_ref": null, "table_ref": null, "prompt_version": "P0_writer_pdf_v1.2+TOC_anchor+R1-R15"}
{"atom_id": "ig34_p0128_a027", "source": "SDTMIG v3.4 (no header footer).pdf", "source_short": "ig34", "page": 128, "atom_index_on_page": 27, "atom_type": "CODE_LITERAL", "verbatim": "pr.xpt", "parent_section": "§6.1.5 [Procedures (PR)]", "heading_level": null, "sibling_index": null, "cross_refs": null, "figure_ref": null, "table_ref": "pr.xpt", "prompt_version": "P0_writer_pdf_v1.2+TOC_anchor+R1-R15"}
{"atom_id": "ig34_p0128_a028", "source": "SDTMIG v3.4 (no header footer).pdf", "source_short": "ig34", "page": 128, "atom_index_on_page": 28, "atom_type": "TABLE_HEADER", "verbatim": "| Row | STUDYID | DOMAIN | USUBJID | PRSEQ | PRTRT | PRDOSE | PRDOSU | PRLOC | PRLAT | PRSTDTC | PRENDTC |", "parent_section": "§6.1.5 [Procedures (PR)]", "heading_level": null, "sibling_index": null, "cross_refs": null, "figure_ref": null, "table_ref": "pr.xpt", "prompt_version": "P0_writer_pdf_v1.2+TOC_anchor+R1-R15"}
{"atom_id": "ig34_p0128_a029", "source": "SDTMIG v3.4 (no header footer).pdf", "source_short": "ig34", "page": 128, "atom_index_on_page": 29, "atom_type": "TABLE_ROW", "verbatim": "| 1 | ABC123 | PR | ABC123-1001 | 1 | External beam radiation therapy | 70 | Gy | BREAST | RIGHT | 2011-06-01 | 2011-06-25 |", "parent_section": "§6.1.5 [Procedures (PR)]", "heading_level": null, "sibling_index": null, "cross_refs": null, "figure_ref": null, "table_ref": "pr.xpt", "prompt_version": "P0_writer_pdf_v1.2+TOC_anchor+R1-R15"}
{"atom_id": "ig34_p0128_a030", "source": "SDTMIG v3.4 (no header footer).pdf", "source_short": "ig34", "page": 128, "atom_index_on_page": 30, "atom_type": "TABLE_ROW", "verbatim": "| 2 | ABC123 | PR | ABC123-2002 | 1 | Brachytherapy | 25 | Gy | PROSTATE | | 2011-07-15 | 2011-07-15 |", "parent_section": "§6.1.5 [Procedures (PR)]", "heading_level": null, "sibling_index": null, "cross_refs": null, "figure_ref": null, "table_ref": "pr.xpt", "prompt_version": "P0_writer_pdf_v1.2+TOC_anchor+R1-R15"}
{"atom_id": "ig34_p0128_a031", "source": "SDTMIG v3.4 (no header footer).pdf", "source_short": "ig34", "page": 128, "atom_index_on_page": 31, "atom_type": "TABLE_ROW", "verbatim": "| 3 | ABC123 | PR | ABC123-3003 | 1 | Radiotherapy | 300 | cGy | BONE | | 2011-08-19 | 2011-08-22 |", "parent_section": "§6.1.5 [Procedures (PR)]", "heading_level": null, "sibling_index": null, "cross_refs": null, "figure_ref": null, "table_ref": "pr.xpt", "prompt_version": "P0_writer_pdf_v1.2+TOC_anchor+R1-R15"}
{"atom_id": "ig34_p0129_a001", "source": "SDTMIG v3.4 (no header footer).pdf", "source_short": "ig34", "page": 129, "atom_index_on_page": 1, "atom_type": "HEADING", "verbatim": "6.1.6 Substance Use (SU)", "parent_section": "§6.1 [Models for Interventions Domains]", "heading_level": 3, "sibling_index": 6, "cross_refs": null, "figure_ref": null, "table_ref": null, "prompt_version": "P0_writer_pdf_v1.2+TOC_anchor+R1-R15"}
{"atom_id": "ig34_p0129_a002", "source": "SDTMIG v3.4 (no header footer).pdf", "source_short": "ig34", "page": 129, "atom_index_on_page": 2, "atom_type": "HEADING", "verbatim": "SU – Description/Overview", "parent_section": "§6.1.6 [Substance Use (SU)]", "heading_level": 4, "sibling_index": 1, "cross_refs": null, "figure_ref": null, "table_ref": null, "prompt_version": "P0_writer_pdf_v1.2+TOC_anchor+R1-R15"}
{"atom_id": "ig34_p0129_a003", "source": "SDTMIG v3.4 (no header footer).pdf", "source_short": "ig34", "page": 129, "atom_index_on_page": 3, "atom_type": "SENTENCE", "verbatim": "An interventions domain that contains substance use information that may be used to assess the efficacy and/or safety of therapies that look to mitigate the effects of chronic substance use.", "parent_section": "§6.1.6 [Substance Use (SU)]", "heading_level": null, "sibling_index": null, "cross_refs": null, "figure_ref": null, "table_ref": null, "prompt_version": "P0_writer_pdf_v1.2+TOC_anchor+R1-R15"}
{"atom_id": "ig34_p0129_a004", "source": "SDTMIG v3.4 (no header footer).pdf", "source_short": "ig34", "page": 129, "atom_index_on_page": 4, "atom_type": "HEADING", "verbatim": "SU – Specification", "parent_section": "§6.1.6 [Substance Use (SU)]", "heading_level": 4, "sibling_index": 2, "cross_refs": null, "figure_ref": null, "table_ref": null, "prompt_version": "P0_writer_pdf_v1.2+TOC_anchor+R1-R15"}
{"atom_id": "ig34_p0129_a005", "source": "SDTMIG v3.4 (no header footer).pdf", "source_short": "ig34", "page": 129, "atom_index_on_page": 5, "atom_type": "SENTENCE", "verbatim": "su.xpt, Substance Use — Interventions. One record per substance type per reported occurrence per subject, Tabulation.", "parent_section": "§6.1.6 [Substance Use (SU)]", "heading_level": null, "sibling_index": null, "cross_refs": null, "figure_ref": null, "table_ref": "su.xpt", "prompt_version": "P0_writer_pdf_v1.2+TOC_anchor+R1-R15"}
{"atom_id": "ig34_p0129_a006", "source": "SDTMIG v3.4 (no header footer).pdf", "source_short": "ig34", "page": 129, "atom_index_on_page": 6, "atom_type": "TABLE_HEADER", "verbatim": "| Variable Name | Variable Label | Type | Controlled Terms, Codelist or Format¹ | Role | CDISC Notes | Core |", "parent_section": "§6.1.6 [Substance Use (SU)]", "heading_level": null, "sibling_index": null, "cross_refs": null, "figure_ref": null, "table_ref": "su.xpt", "prompt_version": "P0_writer_pdf_v1.2+TOC_anchor+R1-R15"}
{"atom_id": "ig34_p0129_a007", "source": "SDTMIG v3.4 (no header footer).pdf", "source_short": "ig34", "page": 129, "atom_index_on_page": 7, "atom_type": "TABLE_ROW", "verbatim": "| STUDYID | Study Identifier | Char | | Identifier | Unique identifier for a study. | Req |", "parent_section": "§6.1.6 [Substance Use (SU)]", "heading_level": null, "sibling_index": null, "cross_refs": null, "figure_ref": null, "table_ref": "su.xpt", "prompt_version": "P0_writer_pdf_v1.2+TOC_anchor+R1-R15"}
{"atom_id": "ig34_p0129_a008", "source": "SDTMIG v3.4 (no header footer).pdf", "source_short": "ig34", "page": 129, "atom_index_on_page": 8, "atom_type": "TABLE_ROW", "verbatim": "| DOMAIN | Domain Abbreviation | Char | SU | Identifier | Two-character abbreviation for the domain. | Req |", "parent_section": "§6.1.6 [Substance Use (SU)]", "heading_level": null, "sibling_index": null, "cross_refs": ["SU"], "figure_ref": null, "table_ref": "su.xpt", "prompt_version": "P0_writer_pdf_v1.2+TOC_anchor+R1-R15"}
{"atom_id": "ig34_p0129_a009", "source": "SDTMIG v3.4 (no header footer).pdf", "source_short": "ig34", "page": 129, "atom_index_on_page": 9, "atom_type": "TABLE_ROW", "verbatim": "| USUBJID | Unique Subject Identifier | Char | | Identifier | Identifier used to uniquely identify a subject across all studies for all applications or submissions involving the product. | Req |", "parent_section": "§6.1.6 [Substance Use (SU)]", "heading_level": null, "sibling_index": null, "cross_refs": null, "figure_ref": null, "table_ref": "su.xpt", "prompt_version": "P0_writer_pdf_v1.2+TOC_anchor+R1-R15"}
{"atom_id": "ig34_p0129_a010", "source": "SDTMIG v3.4 (no header footer).pdf", "source_short": "ig34", "page": 129, "atom_index_on_page": 10, "atom_type": "TABLE_ROW", "verbatim": "| SUSEO | Sequence Number | Num | | Identifier | Sequence number given to ensure uniqueness of subject records within a domain. May be any valid number. | Req |", "parent_section": "§6.1.6 [Substance Use (SU)]", "heading_level": null, "sibling_index": null, "cross_refs": null, "figure_ref": null, "table_ref": "su.xpt", "prompt_version": "P0_writer_pdf_v1.2+TOC_anchor+R1-R15"}
{"atom_id": "ig34_p0129_a011", "source": "SDTMIG v3.4 (no header footer).pdf", "source_short": "ig34", "page": 129, "atom_index_on_page": 11, "atom_type": "TABLE_ROW", "verbatim": "| SUGRPID | Group ID | Char | | Identifier | Used to tie together a block of related records in a single domain for a subject. | Perm |", "parent_section": "§6.1.6 [Substance Use (SU)]", "heading_level": null, "sibling_index": null, "cross_refs": null, "figure_ref": null, "table_ref": "su.xpt", "prompt_version": "P0_writer_pdf_v1.2+TOC_anchor+R1-R15"}
{"atom_id": "ig34_p0129_a012", "source": "SDTMIG v3.4 (no header footer).pdf", "source_short": "ig34", "page": 129, "atom_index_on_page": 12, "atom_type": "TABLE_ROW", "verbatim": "| SUSPID | Sponsor-Defined Identifier | Char | | Identifier | Sponsor-defined reference number. May be preprinted on the CRF as an explicit line identifier or defined in the sponsor's operational database. Example: Line number on a Tobacco & Alcohol Use CRF page. | Perm |", "parent_section": "§6.1.6 [Substance Use (SU)]", "heading_level": null, "sibling_index": null, "cross_refs": null, "figure_ref": null, "table_ref": "su.xpt", "prompt_version": "P0_writer_pdf_v1.2+TOC_anchor+R1-R15"}
{"atom_id": "ig34_p0129_a013", "source": "SDTMIG v3.4 (no header footer).pdf", "source_short": "ig34", "page": 129, "atom_index_on_page": 13, "atom_type": "TABLE_ROW", "verbatim": "| SUTRT | Reported Name of Substance | Char | | Topic | Substance name. Examples: \"CIGARETTES\", \"COFFEE\". | Req |", "parent_section": "§6.1.6 [Substance Use (SU)]", "heading_level": null, "sibling_index": null, "cross_refs": null, "figure_ref": null, "table_ref": "su.xpt", "prompt_version": "P0_writer_pdf_v1.2+TOC_anchor+R1-R15"}
{"atom_id": "ig34_p0129_a014", "source": "SDTMIG v3.4 (no header footer).pdf", "source_short": "ig34", "page": 129, "atom_index_on_page": 14, "atom_type": "TABLE_ROW", "verbatim": "| SUMODIFY | Modified Substance Name | Char | | Synonym Qualifier | If SUTRT is modified, then the modified text is placed here. | Perm |", "parent_section": "§6.1.6 [Substance Use (SU)]", "heading_level": null, "sibling_index": null, "cross_refs": null, "figure_ref": null, "table_ref": "su.xpt", "prompt_version": "P0_writer_pdf_v1.2+TOC_anchor+R1-R15"}
{"atom_id": "ig34_p0129_a015", "source": "SDTMIG v3.4 (no header footer).pdf", "source_short": "ig34", "page": 129, "atom_index_on_page": 15, "atom_type": "TABLE_ROW", "verbatim": "| SUDECOD | Standardized Substance Name | Char | * | Synonym Qualifier | Standardized or dictionary-derived text description of SUTRT or SUMODIFY if the sponsor chooses to code the substance use. The sponsor is expected to provide the dictionary name and version used to map the terms utilizing the external codelist element in the Define-XML document. | Perm |", "parent_section": "§6.1.6 [Substance Use (SU)]", "heading_level": null, "sibling_index": null, "cross_refs": null, "figure_ref": null, "table_ref": "su.xpt", "prompt_version": "P0_writer_pdf_v1.2+TOC_anchor+R1-R15"}
{"atom_id": "ig34_p0129_a016", "source": "SDTMIG v3.4 (no header footer).pdf", "source_short": "ig34", "page": 129, "atom_index_on_page": 16, "atom_type": "TABLE_ROW", "verbatim": "| SUCAT | Category for Substance Use | Char | * | Grouping Qualifier | Used to define a category of related records. Examples: \"TOBACCO\", \"ALCOHOL\", or \"CAFFEINE\". | Perm |", "parent_section": "§6.1.6 [Substance Use (SU)]", "heading_level": null, "sibling_index": null, "cross_refs": null, "figure_ref": null, "table_ref": "su.xpt", "prompt_version": "P0_writer_pdf_v1.2+TOC_anchor+R1-R15"}
{"atom_id": "ig34_p0129_a017", "source": "SDTMIG v3.4 (no header footer).pdf", "source_short": "ig34", "page": 129, "atom_index_on_page": 17, "atom_type": "TABLE_ROW", "verbatim": "| SUSCAT | Subcategory for Substance Use | Char | * | Grouping Qualifier | A further categorization of substance use. Examples: \"CIGARS\", \"CIGARETTES\", \"BEER\", \"WINE\". | Perm |", "parent_section": "§6.1.6 [Substance Use (SU)]", "heading_level": null, "sibling_index": null, "cross_refs": null, "figure_ref": null, "table_ref": "su.xpt", "prompt_version": "P0_writer_pdf_v1.2+TOC_anchor+R1-R15"}
{"atom_id": "ig34_p0129_a018", "source": "SDTMIG v3.4 (no header footer).pdf", "source_short": "ig34", "page": 129, "atom_index_on_page": 18, "atom_type": "TABLE_ROW", "verbatim": "| SUPRESP | SU Pre-Specified | Char | (NY) | Variable Qualifier | Used to indicate whether (\"Y\"/null) information about the use of a specific substance was solicited on the CRF. | Perm |", "parent_section": "§6.1.6 [Substance Use (SU)]", "heading_level": null, "sibling_index": null, "cross_refs": ["NY"], "figure_ref": null, "table_ref": "su.xpt", "prompt_version": "P0_writer_pdf_v1.2+TOC_anchor+R1-R15"}
{"atom_id": "ig34_p0129_a019", "source": "SDTMIG v3.4 (no header footer).pdf", "source_short": "ig34", "page": 129, "atom_index_on_page": 19, "atom_type": "TABLE_ROW", "verbatim": "| SUOCCUR | SU Occurrence | Char | (NY) | Record Qualifier | When the use of specific substances is solicited, SUOCCUR is used to indicate whether (\"Y\"/\"N\") a particular prespecified substance was used. Values are null for substances not specifically solicited. | Perm |", "parent_section": "§6.1.6 [Substance Use (SU)]", "heading_level": null, "sibling_index": null, "cross_refs": ["NY"], "figure_ref": null, "table_ref": "su.xpt", "prompt_version": "P0_writer_pdf_v1.2+TOC_anchor+R1-R15"}
{"atom_id": "ig34_p0129_a020", "source": "SDTMIG v3.4 (no header footer).pdf", "source_short": "ig34", "page": 129, "atom_index_on_page": 20, "atom_type": "TABLE_ROW", "verbatim": "| SUSTAT | Completion Status | Char | (ND) | Record Qualifier | When the use of prespecified substances is solicited, the completion status indicates that there was no response to the question about the prespecified substance. When there is no prespecified list on the CRF, then the completion status indicates that substance use was not assessed for the subject. | Perm |", "parent_section": "§6.1.6 [Substance Use (SU)]", "heading_level": null, "sibling_index": null, "cross_refs": ["ND"], "figure_ref": null, "table_ref": "su.xpt", "prompt_version": "P0_writer_pdf_v1.2+TOC_anchor+R1-R15"}
{"atom_id": "ig34_p0129_a021", "source": "SDTMIG v3.4 (no header footer).pdf", "source_short": "ig34", "page": 129, "atom_index_on_page": 21, "atom_type": "TABLE_ROW", "verbatim": "| SUREASND | Reason Substance Use Not Collected | Char | | Record Qualifier | Describes the reason substance use was not collected. Used in conjunction with SUSTAT when value of SUSTAT is \"NOT DONE\". | Perm |", "parent_section": "§6.1.6 [Substance Use (SU)]", "heading_level": null, "sibling_index": null, "cross_refs": null, "figure_ref": null, "table_ref": "su.xpt", "prompt_version": "P0_writer_pdf_v1.2+TOC_anchor+R1-R15"}
{"atom_id": "ig34_p0129_a022", "source": "SDTMIG v3.4 (no header footer).pdf", "source_short": "ig34", "page": 129, "atom_index_on_page": 22, "atom_type": "TABLE_ROW", "verbatim": "| SUCLAS | Substance Use Class | Char | * | Variable Qualifier | Substance use class. May be obtained from coding. When coding to a single class, populate with class value. If using a dictionary and coding to multiple classes, then follow Section 4.2.8.3, Multiple Values for a Non-result Qualifier Variable, or omit SUCLAS. | Perm |", "parent_section": "§6.1.6 [Substance Use (SU)]", "heading_level": null, "sibling_index": null, "cross_refs": ["Section 4.2.8.3"], "figure_ref": null, "table_ref": "su.xpt", "prompt_version": "P0_writer_pdf_v1.2+TOC_anchor+R1-R15"}
{"atom_id": "ig34_p0129_a023", "source": "SDTMIG v3.4 (no header footer).pdf", "source_short": "ig34", "page": 129, "atom_index_on_page": 23, "atom_type": "TABLE_ROW", "verbatim": "| SUCLASCD | Substance Use Class Code | Char | * | Variable Qualifier | Code corresponding to SUCLAS. May be obtained from coding. | Perm |", "parent_section": "§6.1.6 [Substance Use (SU)]", "heading_level": null, "sibling_index": null, "cross_refs": null, "figure_ref": null, "table_ref": "su.xpt", "prompt_version": "P0_writer_pdf_v1.2+TOC_anchor+R1-R15"}
{"atom_id": "ig34_p0129_a024", "source": "SDTMIG v3.4 (no header footer).pdf", "source_short": "ig34", "page": 129, "atom_index_on_page": 24, "atom_type": "TABLE_ROW", "verbatim": "| SUDOSE | Substance Use Consumption | Num | | Record Qualifier | Amount of SUTRT consumed. Not populated if SUDOSTXT is populated. | Perm |", "parent_section": "§6.1.6 [Substance Use (SU)]", "heading_level": null, "sibling_index": null, "cross_refs": null, "figure_ref": null, "table_ref": "su.xpt", "prompt_version": "P0_writer_pdf_v1.2+TOC_anchor+R1-R15"}
{"atom_id": "ig34_p0130_a001", "source": "SDTMIG v3.4 (no header footer).pdf", "source_short": "ig34", "page": 130, "atom_index_on_page": 1, "atom_type": "TABLE_ROW", "verbatim": "| SUDOSTXT | Substance Use Consumption Text | Char | | Record Qualifier | Substance use consumption amounts or a range of consumption information collected in text form. Not populated if SUDOSE is populated. | Perm |", "parent_section": "§6.1.6 [Substance Use (SU)]", "heading_level": null, "sibling_index": null, "cross_refs": null, "figure_ref": null, "table_ref": "su.xpt", "prompt_version": "P0_writer_pdf_v1.2+TOC_anchor+R1-R15"}
{"atom_id": "ig34_p0130_a002", "source": "SDTMIG v3.4 (no header footer).pdf", "source_short": "ig34", "page": 130, "atom_index_on_page": 2, "atom_type": "TABLE_ROW", "verbatim": "| SUDOSU | Consumption Units | Char | (UNIT) | Variable Qualifier | Units for SUDOSE, SUDOSTOT, or SUDOSTXT. Examples: \"oz\", \"CIGARETTE\", \"PACK\", \"g\". | Perm |", "parent_section": "§6.1.6 [Substance Use (SU)]", "heading_level": null, "sibling_index": null, "cross_refs": ["UNIT"], "figure_ref": null, "table_ref": "su.xpt", "prompt_version": "P0_writer_pdf_v1.2+TOC_anchor+R1-R15"}
{"atom_id": "ig34_p0130_a003", "source": "SDTMIG v3.4 (no header footer).pdf", "source_short": "ig34", "page": 130, "atom_index_on_page": 3, "atom_type": "TABLE_ROW", "verbatim": "| SUDOSFRM | Dose Form | Char | (FRM) | Variable Qualifier | Dose form for SUTRT. Examples: \"INJECTABLE\", \"LIQUID\", \"POWDER\". | Perm |", "parent_section": "§6.1.6 [Substance Use (SU)]", "heading_level": null, "sibling_index": null, "cross_refs": ["FRM"], "figure_ref": null, "table_ref": "su.xpt", "prompt_version": "P0_writer_pdf_v1.2+TOC_anchor+R1-R15"}
{"atom_id": "ig34_p0130_a004", "source": "SDTMIG v3.4 (no header footer).pdf", "source_short": "ig34", "page": 130, "atom_index_on_page": 4, "atom_type": "TABLE_ROW", "verbatim": "| SUDOSFRQ | Use Frequency Per Interval | Char | (FREQ) | Variable Qualifier | Usually expressed as the number of repeated administrations of SUDOSE within a specific time period. Example: \"Q24H\" (every day). | Perm |", "parent_section": "§6.1.6 [Substance Use (SU)]", "heading_level": null, "sibling_index": null, "cross_refs": ["FREQ"], "figure_ref": null, "table_ref": "su.xpt", "prompt_version": "P0_writer_pdf_v1.2+TOC_anchor+R1-R15"}
{"atom_id": "ig34_p0130_a005", "source": "SDTMIG v3.4 (no header footer).pdf", "source_short": "ig34", "page": 130, "atom_index_on_page": 5, "atom_type": "TABLE_ROW", "verbatim": "| SUDOSTOT | Total Daily Consumption | Num | | Record Qualifier | Total daily use of SUTRT using the units in SUDOSU. Used when dosing is collected as total daily dose. If a sponsor needs to aggregate the data over a period other than daily, then the aggregated total could be recorded in a supplemental qualifier variable. | Perm |", "parent_section": "§6.1.6 [Substance Use (SU)]", "heading_level": null, "sibling_index": null, "cross_refs": null, "figure_ref": null, "table_ref": "su.xpt", "prompt_version": "P0_writer_pdf_v1.2+TOC_anchor+R1-R15"}
{"atom_id": "ig34_p0130_a006", "source": "SDTMIG v3.4 (no header footer).pdf", "source_short": "ig34", "page": 130, "atom_index_on_page": 6, "atom_type": "TABLE_ROW", "verbatim": "| SUROUTE | Route of Administration | Char | (ROUTE) | Variable Qualifier | Route of administration for SUTRT. Examples: \"ORAL\", \"INTRAVENOUS\". | Perm |", "parent_section": "§6.1.6 [Substance Use (SU)]", "heading_level": null, "sibling_index": null, "cross_refs": ["ROUTE"], "figure_ref": null, "table_ref": "su.xpt", "prompt_version": "P0_writer_pdf_v1.2+TOC_anchor+R1-R15"}
{"atom_id": "ig34_p0130_a007", "source": "SDTMIG v3.4 (no header footer).pdf", "source_short": "ig34", "page": 130, "atom_index_on_page": 7, "atom_type": "TABLE_ROW", "verbatim": "| TAETORD | Planned Order of Element within Arm | Num | | Timing | Number that gives the planned order of the element within the arm for the element in which the substance use started. Null for substances that started before study participation. | Perm |", "parent_section": "§6.1.6 [Substance Use (SU)]", "heading_level": null, "sibling_index": null, "cross_refs": null, "figure_ref": null, "table_ref": "su.xpt", "prompt_version": "P0_writer_pdf_v1.2+TOC_anchor+R1-R15"}
{"atom_id": "ig34_p0130_a008", "source": "SDTMIG v3.4 (no header footer).pdf", "source_short": "ig34", "page": 130, "atom_index_on_page": 8, "atom_type": "TABLE_ROW", "verbatim": "| EPOCH | Epoch | Char | (EPOCH) | Timing | Epoch associated with the start date/time of the substance use. Null for substances that started before study participation. | Perm |", "parent_section": "§6.1.6 [Substance Use (SU)]", "heading_level": null, "sibling_index": null, "cross_refs": ["EPOCH"], "figure_ref": null, "table_ref": "su.xpt", "prompt_version": "P0_writer_pdf_v1.2+TOC_anchor+R1-R15"}
{"atom_id": "ig34_p0130_a009", "source": "SDTMIG v3.4 (no header footer).pdf", "source_short": "ig34", "page": 130, "atom_index_on_page": 9, "atom_type": "TABLE_ROW", "verbatim": "| SUSTDTC | Start Date/Time of Substance Use | Char | ISO 8601 datetime or interval | Timing | Start date/time of the substance use represented in ISO 8601 character format. | Perm |", "parent_section": "§6.1.6 [Substance Use (SU)]", "heading_level": null, "sibling_index": null, "cross_refs": null, "figure_ref": null, "table_ref": "su.xpt", "prompt_version": "P0_writer_pdf_v1.2+TOC_anchor+R1-R15"}
{"atom_id": "ig34_p0130_a010", "source": "SDTMIG v3.4 (no header footer).pdf", "source_short": "ig34", "page": 130, "atom_index_on_page": 10, "atom_type": "TABLE_ROW", "verbatim": "| SUENDTC | End Date/Time of Substance Use | Char | ISO 8601 datetime or interval | Timing | End date/time of the substance use represented in ISO 8601 character format. | Perm |", "parent_section": "§6.1.6 [Substance Use (SU)]", "heading_level": null, "sibling_index": null, "cross_refs": null, "figure_ref": null, "table_ref": "su.xpt", "prompt_version": "P0_writer_pdf_v1.2+TOC_anchor+R1-R15"}
{"atom_id": "ig34_p0130_a011", "source": "SDTMIG v3.4 (no header footer).pdf", "source_short": "ig34", "page": 130, "atom_index_on_page": 11, "atom_type": "TABLE_ROW", "verbatim": "| SUSTDY | Study Day of Start of Substance Use | Num | | Timing | Study day of start of substance use relative to the sponsor-defined RFSTDTC. | Perm |", "parent_section": "§6.1.6 [Substance Use (SU)]", "heading_level": null, "sibling_index": null, "cross_refs": null, "figure_ref": null, "table_ref": "su.xpt", "prompt_version": "P0_writer_pdf_v1.2+TOC_anchor+R1-R15"}
{"atom_id": "ig34_p0130_a012", "source": "SDTMIG v3.4 (no header footer).pdf", "source_short": "ig34", "page": 130, "atom_index_on_page": 12, "atom_type": "TABLE_ROW", "verbatim": "| SUENDY | Study Day of End of Substance Use | Num | | Timing | Study day of end of substance use relative to the sponsor-defined RFSTDTC. | Perm |", "parent_section": "§6.1.6 [Substance Use (SU)]", "heading_level": null, "sibling_index": null, "cross_refs": null, "figure_ref": null, "table_ref": "su.xpt", "prompt_version": "P0_writer_pdf_v1.2+TOC_anchor+R1-R15"}
{"atom_id": "ig34_p0130_a013", "source": "SDTMIG v3.4 (no header footer).pdf", "source_short": "ig34", "page": 130, "atom_index_on_page": 13, "atom_type": "TABLE_ROW", "verbatim": "| SUDUR | Duration of Substance Use | Char | ISO 8601 duration | Timing | Collected duration of substance use in ISO 8601 format. Used only if collected on the CRF and not derived from start and end date/times. | Perm |", "parent_section": "§6.1.6 [Substance Use (SU)]", "heading_level": null, "sibling_index": null, "cross_refs": null, "figure_ref": null, "table_ref": "su.xpt", "prompt_version": "P0_writer_pdf_v1.2+TOC_anchor+R1-R15"}
{"atom_id": "ig34_p0130_a014", "source": "SDTMIG v3.4 (no header footer).pdf", "source_short": "ig34", "page": 130, "atom_index_on_page": 14, "atom_type": "TABLE_ROW", "verbatim": "| SUSTRF | Start Relative to Reference Period | Char | (STENRF) | Timing | Describes the start of the substance use relative to the sponsor-defined reference period. The sponsor-defined reference period is a continuous period of time defined by a discrete starting point and a discrete ending point (represented by RFSTDTC and RFENDTC in Demographics). If information such as \"PRIOR\" was collected, this information may be translated into SUSTRF. Not all values of the codelist are allowable for this variable. See Section 4.4.7, Use of Relative Timing Variables. | Perm |", "parent_section": "§6.1.6 [Substance Use (SU)]", "heading_level": null, "sibling_index": null, "cross_refs": ["STENRF", "Section 4.4.7"], "figure_ref": null, "table_ref": "su.xpt", "prompt_version": "P0_writer_pdf_v1.2+TOC_anchor+R1-R15"}
{"atom_id": "ig34_p0130_a015", "source": "SDTMIG v3.4 (no header footer).pdf", "source_short": "ig34", "page": 130, "atom_index_on_page": 15, "atom_type": "TABLE_ROW", "verbatim": "| SUENRF | End Relative to Reference Period | Char | (STENRF) | Timing | Describes the end of the substance use relative to the sponsor-defined reference period. The sponsor-defined reference period is a continuous period of time defined by a discrete starting point and a discrete ending point (represented by RFSTDTC and RFENDTC in Demographics). If information such as \"PRIOR\", \"ONGOING\", or \"CONTINUING\" was collected, this information may be translated into SUENRF. Not all values of the codelist are allowable for this variable. See Section 4.4.7, Use of Relative Timing Variables. | Perm |", "parent_section": "§6.1.6 [Substance Use (SU)]", "heading_level": null, "sibling_index": null, "cross_refs": ["STENRF", "Section 4.4.7"], "figure_ref": null, "table_ref": "su.xpt", "prompt_version": "P0_writer_pdf_v1.2+TOC_anchor+R1-R15"}
{"atom_id": "ig34_p0130_a016", "source": "SDTMIG v3.4 (no header footer).pdf", "source_short": "ig34", "page": 130, "atom_index_on_page": 16, "atom_type": "TABLE_ROW", "verbatim": "| SUSTRTPT | Start Relative to Reference Time Point | Char | (STENRF) | Timing | Identifies the start of the substance as being before or after the reference time point defined by variable SUSTTPT. Not all values of the codelist are allowable for this variable. See Section 4.4.7 , Use of Relative Timing Variables. | Perm |", "parent_section": "§6.1.6 [Substance Use (SU)]", "heading_level": null, "sibling_index": null, "cross_refs": ["STENRF", "Section 4.4.7"], "figure_ref": null, "table_ref": "su.xpt", "prompt_version": "P0_writer_pdf_v1.2+TOC_anchor+R1-R15"}
{"atom_id": "ig34_p0130_a017", "source": "SDTMIG v3.4 (no header footer).pdf", "source_short": "ig34", "page": 130, "atom_index_on_page": 17, "atom_type": "TABLE_ROW", "verbatim": "| SUSTTPT | Start Reference Time Point | Char | | Timing | Description or date/time in ISO 8601 character format of the reference point referred to by SUSTRTPT. Examples: \"2003-12-15\", \"VISIT 1\". | Perm |", "parent_section": "§6.1.6 [Substance Use (SU)]", "heading_level": null, "sibling_index": null, "cross_refs": null, "figure_ref": null, "table_ref": "su.xpt", "prompt_version": "P0_writer_pdf_v1.2+TOC_anchor+R1-R15"}
{"atom_id": "ig34_p0130_a018", "source": "SDTMIG v3.4 (no header footer).pdf", "source_short": "ig34", "page": 130, "atom_index_on_page": 18, "atom_type": "TABLE_ROW", "verbatim": "| SUENRTPT | End Relative to Reference Time Point | Char | (STENRF) | Timing | Identifies the end of the substance as being before or after the reference time point defined by variable SUENTPT. | Perm |", "parent_section": "§6.1.6 [Substance Use (SU)]", "heading_level": null, "sibling_index": null, "cross_refs": ["STENRF"], "figure_ref": null, "table_ref": "su.xpt", "prompt_version": "P0_writer_pdf_v1.2+TOC_anchor+R1-R15"}
