{"sample_id":"B1","atom_id":"md_ch03_a001","atom_type":"HEADING","line_range":[1,1],"checks":{"verbatim_byte_exact":"PASS","atom_type_correct":"PASS","parent_section_canonical":"PASS","heading_level_correct":"PASS","sibling_index_correct":"PASS","figure_ref_correct":"N/A","cross_refs_correct":"N/A","line_start_end_correct":"PASS"},"strict_verdict":"PASS","functional_verdict":"PASS","rationale":"L1 H1 byte-exact '# SDTMIG v3.4 — Chapter 3: Submitting Data in Standard Format'; h_lvl=1 sib=1; parent_section simplified to §3 [Submitting Data in Standard Format] per batch 05 D1 model — correct."}
{"sample_id":"B2","atom_id":"md_ch03_a021","atom_type":"HEADING","line_range":[23,23],"checks":{"verbatim_byte_exact":"PASS","atom_type_correct":"PASS","parent_section_canonical":"PASS","heading_level_correct":"PASS","sibling_index_correct":"PASS","figure_ref_correct":"N/A","cross_refs_correct":"N/A","line_start_end_correct":"PASS"},"strict_verdict":"PASS","functional_verdict":"PASS","rationale":"L23 '### 3.2.1 Dataset-level Metadata' byte-exact; h_lvl=3 sib=1 RESTART under §3.2; parent §3.2 [Using the CDISC Domain Models...] canonical bracketed — correct."}
{"sample_id":"B3","atom_id":"md_ch03_a024","atom_type":"TABLE_HEADER","line_range":[29,30],"checks":{"verbatim_byte_exact":"PASS","atom_type_correct":"PASS","parent_section_canonical":"PASS","heading_level_correct":"N/A","sibling_index_correct":"N/A","figure_ref_correct":"N/A","cross_refs_correct":"N/A","line_start_end_correct":"PASS"},"strict_verdict":"PASS","functional_verdict":"PASS","rationale":"L29-30 TABLE_HEADER 2 lines (header + separator); 7 cols Dataset/Description/Class/Structure/Purpose/Keys/Location byte-exact; line_end-line_start=1 satisfies Hook A1/C-5 ≤1; parent §3.2.1 canonical."}
{"sample_id":"B4","atom_id":"md_ch03_a086","atom_type":"TABLE_ROW","line_range":[92,92],"checks":{"verbatim_byte_exact":"PASS","atom_type_correct":"PASS","parent_section_canonical":"PASS","heading_level_correct":"N/A","sibling_index_correct":"N/A","figure_ref_correct":"N/A","cross_refs_correct":"N/A","line_start_end_correct":"PASS"},"strict_verdict":"PASS","functional_verdict":"PASS","rationale":"L92 SUPP-- row byte-exact incl. '--' literal in dataset cell + '[domain name]' brackets in description + 'supp--.xpt' in location; pipe-delimited fully preserved; parent §3.2.1 canonical."}
{"sample_id":"B5a","atom_id":"md_ch03_a090","atom_type":"HEADING","line_range":[97,97],"checks":{"verbatim_byte_exact":"PASS","atom_type_correct":"PASS","parent_section_canonical":"PASS","heading_level_correct":"PASS","sibling_index_correct":"PASS","figure_ref_correct":"N/A","cross_refs_correct":"N/A","line_start_end_correct":"PASS"},"strict_verdict":"PASS","functional_verdict":"PASS","rationale":"L97 '### 3.2.1.1 Primary Keys' byte-exact; h_lvl=3 (markdown literal Hook A2); sib=1 + parent §3.2.1 [Dataset-level Metadata] (semantic D5 by number prefix 3.2.1.x) — correct under D5."}
{"sample_id":"B5b","atom_id":"md_ch03_a102","atom_type":"HEADING","line_range":[107,107],"checks":{"verbatim_byte_exact":"PASS","atom_type_correct":"PASS","parent_section_canonical":"PASS","heading_level_correct":"PASS","sibling_index_correct":"PASS","figure_ref_correct":"N/A","cross_refs_correct":"N/A","line_start_end_correct":"PASS"},"strict_verdict":"PASS","functional_verdict":"PASS","rationale":"L107 '### 3.2.1.2 CDISC Submission Value-level Metadata' byte-exact; h_lvl=3 markdown literal; sib=2 + parent §3.2.1 (semantic D5) — correct, sibling of a090 under §3.2.1."}
{"sample_id":"B5c","atom_id":"md_ch03_a109","atom_type":"HEADING","line_range":[117,117],"checks":{"verbatim_byte_exact":"PASS","atom_type_correct":"PASS","parent_section_canonical":"PASS","heading_level_correct":"PASS","sibling_index_correct":"PASS","figure_ref_correct":"N/A","cross_refs_correct":"N/A","line_start_end_correct":"PASS"},"strict_verdict":"PASS","functional_verdict":"PASS","rationale":"CRITICAL: source L117 = '## 3.2.2 Conformance' (h_lvl=2 NOT 3; kickoff §2.2/§4 D5 stated wrong). Writer correctly Rule-B'd: emit h_lvl=2 per markdown literal + parent §3.2 + sib=2. Verbatim byte-exact. Under D5 dual-constraint (markdown level + semantic prefix), §3.2.2 numbering is child-of-§3.2; writer choice canonical."}
{"sample_id":"B6","atom_id":"md_ch03_a120","atom_type":"LIST_ITEM","line_range":[130,130],"checks":{"verbatim_byte_exact":"PASS","atom_type_correct":"PASS","parent_section_canonical":"PASS","heading_level_correct":"N/A","sibling_index_correct":"N/A","figure_ref_correct":"N/A","cross_refs_correct":"N/A","line_start_end_correct":"PASS"},"strict_verdict":"PASS","functional_verdict":"PASS","rationale":"L130 last numbered LIST_ITEM '10. Conforming...' byte-exact; line_end=130=file end (wc -l ch03=130) Hook 22 PASS coverage; parent §3.2.2 [Conformance] canonical; LIST_ITEM startswith digit-dot-space '10. ' satisfies §R-C7."}
{"sample_id":"S1","atom_id":"md_ch03_a020","atom_type":"NOTE","line_range":[21,21],"checks":{"verbatim_byte_exact":"PASS","atom_type_correct":"PASS","parent_section_canonical":"PASS","heading_level_correct":"N/A","sibling_index_correct":"N/A","figure_ref_correct":"N/A","cross_refs_correct":"N/A","line_start_end_correct":"PASS"},"strict_verdict":"PASS","functional_verdict":"PASS","rationale":"L21 '**Note:**' carve-out kept whole multi-sentence per kickoff §4; verbatim byte-exact incl. quoted block + nested parens; parent §3.2 canonical; NOTE atom_type correct (bold-Note prefix carve-out)."}
{"sample_id":"S2","atom_id":"md_ch03_a099","atom_type":"SENTENCE","line_range":[103,103],"checks":{"verbatim_byte_exact":"PASS","atom_type_correct":"PASS","parent_section_canonical":"PASS","heading_level_correct":"N/A","sibling_index_correct":"N/A","figure_ref_correct":"N/A","cross_refs_correct":"N/A","line_start_end_correct":"PASS"},"strict_verdict":"PASS","functional_verdict":"PASS","rationale":"L103 '**Definitions:**' SENTENCE caption (NOT NOTE) per kickoff §4 distinction — '**Note**'/'**Exception**' = NOTE carve-out; '**Definitions**'/'**Example**' = caption SENTENCE. Verbatim byte-exact; parent §3.2.1.1 [Primary Keys] canonical."}
{"sample_id":"S3","atom_id":"md_ch03_a106","atom_type":"SENTENCE","line_range":[111,111],"checks":{"verbatim_byte_exact":"PASS","atom_type_correct":"PASS","parent_section_canonical":"PASS","heading_level_correct":"N/A","sibling_index_correct":"N/A","figure_ref_correct":"N/A","cross_refs_correct":"N/A","line_start_end_correct":"PASS"},"strict_verdict":"PASS","functional_verdict":"PASS","rationale":"L111 '**Example:** The Vital Signs (VS)...' kept whole multi-sentence per kickoff §4 explicit (deviation from §C-1 split is sanctioned for bold-caption Example block). Verbatim byte-exact; parent §3.2.1.2 canonical; atom_type SENTENCE correct (caption not carve-out NOTE)."}
{"sample_id":"S4","atom_id":"md_ch03_a100","atom_type":"LIST_ITEM","line_range":[104,104],"checks":{"verbatim_byte_exact":"PASS","atom_type_correct":"PASS","parent_section_canonical":"PASS","heading_level_correct":"N/A","sibling_index_correct":"N/A","figure_ref_correct":"N/A","cross_refs_correct":"N/A","line_start_end_correct":"PASS"},"strict_verdict":"PASS","functional_verdict":"PASS","rationale":"L104 natural-key definition LIST_ITEM kept whole per Hook C-7 (multi-sentence list item not truncated); verbatim byte-exact incl. '- A **natural key**' prefix + escaped \"unnatural\" quotes; parent §3.2.1.1 canonical."}
