{"atom_id": "ig34_p0291_a023", "verdict": "PASS", "dim_verbatim": "PASS", "dim_atom_type": "PASS", "dim_parent_section": "PASS", "dim_atom_id": "PASS", "dim_heading_fields": "N/A", "evidence_pdf_page": 291, "notes": "MKTPTREF row mid MK-Spec table verbatim match; parent §6.3.7.3 MK canonical full-form correct per NEW6 L5+ atom rule; cross-BATCH chain continuity from sister batch 29 §6.3.7.3 MK validated first live-fire round 6"}
{"atom_id": "ig34_p0292_a017", "verdict": "PASS", "dim_verbatim": "PASS", "dim_atom_type": "PASS", "dim_parent_section": "PASS", "dim_atom_id": "PASS", "dim_heading_fields": "N/A", "evidence_pdf_page": 292, "notes": "Rows 9-10 LIST_ITEM verbatim match including escaped quotes around NOT DONE; parent §6.3.7.3 MK correct (MK-Examples Example 1)"}
{"atom_id": "ig34_p0293_a016", "verdict": "PASS", "dim_verbatim": "PASS", "dim_atom_type": "PASS", "dim_parent_section": "PASS", "dim_atom_id": "PASS", "dim_heading_fields": "N/A", "evidence_pdf_page": 293, "notes": "Row 14 mk.xpt SWLLIND Shoulder Joint NOT DONE/JOINT NOT EVALUABLE verbatim match including empty cells preserved per R8; parent §6.3.7.3 MK correct"}
{"atom_id": "ig34_p0294_a011", "verdict": "PASS", "dim_verbatim": "PASS", "dim_atom_type": "PASS", "dim_parent_section": "PASS", "dim_atom_id": "PASS", "dim_heading_fields": "PASS", "evidence_pdf_page": 294, "notes": "L4 §6.3.7.4 NV HEADING verbatim with double space after section number preserved per R10; hl=4 sib=4 RESTART under §6.3.7 group container correct; parent §6.3.7 Morphology/Physiology Domains validates NEW6.b L3-group NEVER self-parent (7th cumulative streak)"}
{"atom_id": "ig34_p0295_a012", "verdict": "PASS", "dim_verbatim": "PASS", "dim_atom_type": "PASS", "dim_parent_section": "PASS", "dim_atom_id": "PASS", "dim_heading_fields": "N/A", "evidence_pdf_page": 295, "notes": "NVLAT spec row verbatim match including (LAT) codelist parens; parent §6.3.7.4 NV canonical full-form correct"}
{"atom_id": "ig34_p0296_a021", "verdict": "PASS", "dim_verbatim": "PASS", "dim_atom_type": "PASS", "dim_parent_section": "PASS", "dim_atom_id": "PASS", "dim_heading_fields": "N/A", "evidence_pdf_page": 296, "notes": "nv.xpt TABLE_HEADER 19 columns verbatim match (Row through NVDTC); parent §6.3.7.4 NV correct (NV-Examples Example 1)"}
{"atom_id": "ig34_p0297_a024", "verdict": "PASS", "dim_verbatim": "PASS", "dim_atom_type": "PASS", "dim_parent_section": "PASS", "dim_atom_id": "PASS", "dim_heading_fields": "N/A", "evidence_pdf_page": 297, "notes": "relrec.xpt row 5 ABC123/AG/AGLNKID/ONE/8 verbatim match including empty USUBJID and IDVARVAL cells preserved per R8; parent §6.3.7.4 NV correct (NV-Examples Example 1 relrec)"}
{"atom_id": "ig34_p0298_a024", "verdict": "PASS", "dim_verbatim": "PASS", "dim_atom_type": "PASS", "dim_parent_section": "PASS", "dim_atom_id": "PASS", "dim_heading_fields": "PASS", "evidence_pdf_page": 298, "notes": "OE-Description/Overview L5 HEADING with en-dash – verbatim preserved; hl=5 sib=1 RESTART per L4 §6.3.7.5 OE chain Description=1 correct; parent §6.3.7.5 OE canonical full-form (NEW6.b 8th cumulative streak L5-under-L4 not self-parent applicable)"}
{"atom_id": "ig34_p0299_a005", "verdict": "PASS", "dim_verbatim": "PASS", "dim_atom_type": "PASS", "dim_parent_section": "PASS", "dim_atom_id": "PASS", "dim_heading_fields": "N/A", "evidence_pdf_page": 299, "notes": "STUDYID row in oe.xpt spec verbatim match including double-space empty codelist column preserved per R8; parent §6.3.7.5 OE correct"}
{"atom_id": "ig34_p0300_a022", "verdict": "PASS", "dim_verbatim": "PASS", "dim_atom_type": "PASS", "dim_parent_section": "PASS", "dim_atom_id": "PASS", "dim_heading_fields": "N/A", "evidence_pdf_page": 300, "notes": "VISITDY Timing row verbatim match including double-space empty codelist column preserved per R8; parent §6.3.7.5 OE correct (mid OE-Spec Timing block)"}
