{"sample_id": "s01", "atom_id": "md_dmHO_ex_a001", "atom_type": "HEADING", "h_lvl": 1, "sib_idx": 1, "parent_section": "§HO [HO — Examples]", "line_start": 1, "line_end": 1, "verbatim_byte_exact_match": true, "source_line": "# HO — Examples", "verdict": "PASS", "notes": "H1 file root sib=1 universal precedent (round 04 §2.7 example block); parent=file root self-reference per HEADING-self-as-parent convention sustained 47 prior files."}
{"sample_id": "s02", "atom_id": "md_dmHO_ex_a002", "atom_type": "HEADING", "h_lvl": 2, "sib_idx": 1, "parent_section": "§HO [HO — Examples]", "line_start": 3, "line_end": 3, "verbatim_byte_exact_match": true, "source_line": "## Example 1", "verdict": "PASS", "notes": "H2 Ex1 at L3 first H2 in file → sib=1; parent=file root (NOT self-namespace §HO.1); h_lvl=2 byte-exact ## prefix."}
{"sample_id": "s03", "atom_id": "md_dmHO_ex_a003", "atom_type": "SENTENCE", "h_lvl": null, "sib_idx": null, "parent_section": "§HO.1 [Example 1]", "line_start": 5, "line_end": 5, "verbatim_byte_exact_match": true, "source_line": "In this example, a healthcare encounter CRF collects verbatim descriptions of the encounter.", "verdict": "PASS", "notes": "First SENTENCE under Ex1 — parent transitioned to §HO.1 sub-namespace per §2.5; SENTENCE sib_idx null per round 03 lock; verbatim ends with period byte-exact."}
{"sample_id": "s04", "atom_id": "md_dmHO_ex_a009", "atom_type": "SENTENCE", "h_lvl": null, "sib_idx": null, "parent_section": "§HO.1 [Example 1]", "line_start": 17, "line_end": 17, "verbatim_byte_exact_match": true, "source_line": "**ho.xpt**", "verdict": "PASS", "notes": "Bold-caption (file-name marker) — §R-D5 accept as SENTENCE (non-Note/Exception caption); not flagged as HEADING/NOTE; parent §HO.1 inherited from H2."}
{"sample_id": "s05", "atom_id": "md_dmHO_ex_a035", "atom_type": "TABLE_ROW", "h_lvl": null, "sib_idx": null, "parent_section": "§HO.1 [Example 1]", "line_start": 53, "line_end": 53, "verbatim_byte_exact_match": true, "source_line": "| 6 | ABC | HO | ABC123105 | HOSEQ | 2 | HONAM | Provider Name | ROOSEVELT HOSPITAL | CRF | |", "verdict": "PASS", "notes": "Last atom of Ex1 segment (suppho table final row) — parent still §HO.1 (next atom a036 at L55 boundary back to file-root); trailing empty cell `| |` byte-exact preserved."}
{"sample_id": "s06", "atom_id": "md_dmHO_ex_a036", "atom_type": "HEADING", "h_lvl": 2, "sib_idx": 2, "parent_section": "§HO [HO — Examples]", "line_start": 55, "line_end": 55, "verbatim_byte_exact_match": true, "source_line": "## Example 2", "verdict": "PASS", "notes": "Second H2 in file → sib=2 (continuation from sib=1 a002); parent=file root; H2 boundary clean transition Ex1 → Ex2."}
{"sample_id": "s07", "atom_id": "md_dmHO_ex_a037", "atom_type": "SENTENCE", "h_lvl": null, "sib_idx": null, "parent_section": "§HO.2 [Example 2]", "line_start": 57, "line_end": 57, "verbatim_byte_exact_match": true, "source_line": "In this example, the dates of an initial hospitalization are collected as well as the date/time of ICU stay. Subsequent to discharge from the initial hospitalization, follow-up healthcare encounters, including admission to a rehabilitation facility, visits with healthcare providers, and home nursing visits were collected. Repeat hospitalizations are categorized separately.", "verdict": "PASS", "notes": "First atom under Ex2 — parent transitioned to §HO.2; multi-sentence narrative kept as single atom (3 sentences in 1 source line) — Hook R22 sub-line carve-out N/A here (single line one atom)."}
{"sample_id": "s08", "atom_id": "md_dmHO_ex_a054", "atom_type": "TABLE_ROW", "h_lvl": null, "sib_idx": null, "parent_section": "§HO.2 [Example 2]", "line_start": 81, "line_end": 81, "verbatim_byte_exact_match": true, "source_line": "| 1 | ABC | HO | ABC123101 | HOSEQ | 7 | HOINDC | Indication | STROKE | CRF | |", "verdict": "PASS", "notes": "Last atom of batch — atom_id a054 = expected (54 atoms total a001..a054 continuous); parent §HO.2; trailing empty cell preserved."}
{"sample_id": "s09", "atom_id": "md_dmHO_ex_a010", "atom_type": "TABLE_HEADER", "h_lvl": null, "sib_idx": null, "parent_section": "§HO.1 [Example 1]", "line_start": 19, "line_end": 20, "verbatim_byte_exact_match": true, "source_line_19": "| Row | STUDYID | DOMAIN | USUBJID | HOSEQ | HOTERM | EPOCH | HOSTDTC | HOENDTC | HODUR |", "source_line_20": "|-----|---------|--------|---------|-------|--------|-------|---------|---------|-------|", "verdict": "PASS", "notes": "v1.9 standard 2-row TABLE_HEADER (line_end-line_start=1) per §R-D6; sib=null canonical for TABLE_HEADER; verbatim joined with literal \\n preserves both header + alignment row byte-exact (10 columns); domains-bucket post-pilot scope so 1-row legacy not applicable."}
{"sample_id": "s10", "atom_id": "md_dmHO_ex_a012", "atom_type": "TABLE_ROW", "h_lvl": null, "sib_idx": null, "parent_section": "§HO.1 [Example 1]", "line_start": 22, "line_end": 22, "verbatim_byte_exact_match": true, "source_line": "| 2 | ABC | HO | ABC123101 | 2 | NURSING HOME | TREATMENT | | | P6D |", "verdict": "PASS", "notes": "Empty cells preservation — 3 distinct empty cell patterns: HOSTDTC empty `| |`, HOENDTC empty `| |`, trailing empty `|` after P6D content. Rule B byte-exact `| 2 | ABC | HO | ABC123101 | 2 | NURSING HOME | TREATMENT | | | P6D |` reproduced with no whitespace collapse, no cell merge."}
{"sample_id": "s11", "atom_id": "md_dmHO_ex_a004", "atom_type": "SENTENCE", "h_lvl": null, "sib_idx": null, "parent_section": "§HO.1 [Example 1]", "line_start": 7, "line_end": 7, "verbatim_byte_exact_match": true, "source_line": "**Rows 1-2:** Subject ABC123101 was hospitalized and then moved to a nursing home.", "verdict": "PASS", "notes": "§R-D5 bold-caption SENTENCE accept — caption `**Rows 1-2:**` is non-Note/Exception (`Rows` per §R-D5 explicit list); kept as part of single SENTENCE atom (caption + content), NOT split, NOT promoted to HEADING/NOTE; verbatim byte-exact incl. bold markers `**...**` and trailing period."}
