{"atom_id": "ig34_p0341_a020", "page": 341, "atom_type": "TABLE_ROW", "verdict": "PASS", "dimensions": {"verbatim_integrity": "PASS", "atom_type_correctness": "PASS", "heading_chain": "N/A", "parent_section_canonical": "PASS", "table_row_pipe_count": "PASS", "n2_cyrillic": "PASS"}, "rationale": "PDF p.341 SC Examples Example 1 sc.xpt table row 6 reads exactly: ABC | SC | ABC-001-003 | 2 | MARISTAT | Marital Status | NEVER MARRIED | NEVER MARRIED | 1999-05-03. Atom verbatim prefixes explicit Row=6 column matching PDF Row header. 10 cells / 11 pipes consistent with TABLE_HEADER Row|STUDYID|DOMAIN|USUBJID|SCSEQ|SCTESTCD|SCTEST|SCORRES|SCSTRESC|SCDTC. parent_section 'SC – Examples' is L5 textual heading canonical form.", "evidence_pdf_quote": "6 | ABC | SC | ABC-001-003 | 2 | MARISTAT | Marital Status | NEVER MARRIED | NEVER MARRIED | 1999-05-03", "reviewer_subagent_type": "pr-review-toolkit:pr-test-analyzer", "rule_d_slot": 45, "audit_pivot_index": 26}
{"atom_id": "ig34_p0342_a018", "page": 342, "atom_type": "HEADING", "verdict": "PASS", "dimensions": {"verbatim_integrity": "PASS", "atom_type_correctness": "PASS", "heading_chain": "PASS", "parent_section_canonical": "PASS", "table_row_pipe_count": "N/A", "n2_cyrillic": "PASS"}, "rationale": "PDF p.342 shows L3 heading '6.3.11 Subject Status (SS)' verbatim exact. heading_level=3 + sibling_index=11 correct (11th L3 sub-section under §6.3). parent_section L2 short-bracket '§6.3 [MODELS FOR FINDINGS DOMAINS]' aligns with v1.4 N6/N8 rule (L2 short-bracket reserved exclusively for L3 HEADING atoms).", "evidence_pdf_quote": "6.3.11 Subject Status (SS)", "reviewer_subagent_type": "pr-review-toolkit:pr-test-analyzer", "rule_d_slot": 45, "audit_pivot_index": 26}
{"atom_id": "ig34_p0343_a007", "page": 343, "atom_type": "TABLE_ROW", "verdict": "PASS", "dimensions": {"verbatim_integrity": "PASS", "atom_type_correctness": "PASS", "heading_chain": "N/A", "parent_section_canonical": "PASS", "table_row_pipe_count": "PASS", "n2_cyrillic": "PASS"}, "rationale": "PDF p.343 SS Specification table SSCAT row reads exactly: SSCAT | Category for Assessment | Char | * | Grouping Qualifier | Used to categorize observations across subjects. | Perm. 7 cells / 8 pipes match TABLE_HEADER Variable Name|Variable Label|Type|Controlled Terms Codelist or Format|Role|CDISC Notes|Core. parent_section 'SS – Specification' is L5 textual canonical.", "evidence_pdf_quote": "SSCAT | Category for Assessment | Char | * | Grouping Qualifier | Used to categorize observations across subjects. | Perm", "reviewer_subagent_type": "pr-review-toolkit:pr-test-analyzer", "rule_d_slot": 45, "audit_pivot_index": 26}
{"atom_id": "ig34_p0344_a015", "page": 344, "atom_type": "HEADING", "verdict": "PASS", "dimensions": {"verbatim_integrity": "PASS", "atom_type_correctness": "PASS", "heading_chain": "PASS", "parent_section_canonical": "PASS", "table_row_pipe_count": "N/A", "n2_cyrillic": "PASS"}, "rationale": "PDF p.344 shows L3 heading '6.3.12 Tumor/Lesion Domains' verbatim exact (matches PDF byte-for-byte; uses ASCII forward-slash). heading_level=3 + sibling_index=12 correct. parent_section L2 short-bracket per v1.4 N6.", "evidence_pdf_quote": "6.3.12 Tumor/Lesion Domains", "reviewer_subagent_type": "pr-review-toolkit:pr-test-analyzer", "rule_d_slot": 45, "audit_pivot_index": 26}
{"atom_id": "ig34_p0345_a003", "page": 345, "atom_type": "LIST_ITEM", "verdict": "PASS", "dimensions": {"verbatim_integrity": "PASS", "atom_type_correctness": "PASS", "heading_chain": "N/A", "parent_section_canonical": "PASS", "table_row_pipe_count": "N/A", "n2_cyrillic": "PASS"}, "rationale": "PDF p.345 top shows bullet list continuing from p.344 under TU – Description/Overview: 'anatomical location of the tumor / method used to identify the tumor / role of the individual identifying the tumor / timing information.' Atom verbatim 'role of the individual identifying the tumor' is the 3rd bullet exact match. parent_section 'TU – Description/Overview' is correct L5 ancestor (the bullet list belongs to TU Desc/Overview narrative).", "evidence_pdf_quote": "role of the individual identifying the tumor", "reviewer_subagent_type": "pr-review-toolkit:pr-test-analyzer", "rule_d_slot": 45, "audit_pivot_index": 26}
{"atom_id": "ig34_p0346_a015", "page": 346, "atom_type": "HEADING", "verdict": "PASS", "dimensions": {"verbatim_integrity": "PASS", "atom_type_correctness": "PASS", "heading_chain": "PASS", "parent_section_canonical": "PASS", "table_row_pipe_count": "N/A", "n2_cyrillic": "PASS"}, "rationale": "PDF p.346 mid-page shows L5 textual heading 'TU – Assumptions' verbatim exact. heading_level=5 + sibling_index=3 correct (TU – Description/Overview = sib 1 on p.344, TU – Specification = sib 2 on p.345, TU – Assumptions = sib 3 on p.346). parent_section '§6.3.12.1 Tumor/Lesion Identification (TU)' is L4 canonical full-form per v1.4 N7 for L5 HEADING.", "evidence_pdf_quote": "TU – Assumptions", "reviewer_subagent_type": "pr-review-toolkit:pr-test-analyzer", "rule_d_slot": 45, "audit_pivot_index": 26}
{"atom_id": "ig34_p0347_a011", "page": 347, "atom_type": "TABLE_HEADER", "verdict": "PASS", "dimensions": {"verbatim_integrity": "PASS", "atom_type_correctness": "PASS", "heading_chain": "N/A", "parent_section_canonical": "PASS", "table_row_pipe_count": "PASS", "n2_cyrillic": "PASS"}, "rationale": "PDF p.347 top of page shows the 'Example target tumor T04' table header columns: TULNKID | TUTESTCD | TUTEST | TUORRES | VISIT (5 cols). Atom verbatim '| TULNKID | TUTESTCD | TUTEST | TUORRES | VISIT |' = 5 cells / 6 pipes EXACT match. Option H Cycle 3 surgical fix confirmed: prior fabricated 'SCREEN' column has been removed; current verbatim matches PDF exactly. parent_section 'TU – Assumptions' correct (table sits inside Assumption 2 narrative).", "evidence_pdf_quote": "TULNKID | TUTESTCD | TUTEST | TUORRES | VISIT", "reviewer_subagent_type": "pr-review-toolkit:pr-test-analyzer", "rule_d_slot": 45, "audit_pivot_index": 26}
{"atom_id": "ig34_p0348_a002", "page": 348, "atom_type": "SENTENCE", "verdict": "PASS", "dimensions": {"verbatim_integrity": "PASS", "atom_type_correctness": "PASS", "heading_chain": "N/A", "parent_section_canonical": "PASS", "table_row_pipe_count": "N/A", "n2_cyrillic": "PASS"}, "rationale": "PDF p.348 Assumption 6 lead-in sentence reads exactly: 'Although it is possible that a sponsor may have a different chosen method, the following are the most common scenarios:' verbatim matches byte-for-byte (commas, colon preserved). parent_section 'TU – Assumptions' correct.", "evidence_pdf_quote": "Although it is possible that a sponsor may have a different chosen method, the following are the most common scenarios:", "reviewer_subagent_type": "pr-review-toolkit:pr-test-analyzer", "rule_d_slot": 45, "audit_pivot_index": 26}
{"atom_id": "ig34_p0349_a011", "page": 349, "atom_type": "TABLE_ROW", "verdict": "PASS", "dimensions": {"verbatim_integrity": "PASS", "atom_type_correctness": "PASS", "heading_chain": "N/A", "parent_section_canonical": "PASS", "table_row_pipe_count": "PASS", "n2_cyrillic": "PASS"}, "rationale": "PDF p.349 disease recurrence example table row 1 reads: IMG-00007 | LOC01 | DRCRLTLC | Disease Recurrence Relative Location | LOCAL | BREAST | LEFT | CT SCAN. Atom verbatim 8 cells / 9 pipes EXACT match. Option H Cycle 3 surgical fix confirmed: TUTESTCD = 'DRCRLTLC' correct (prior char-corruption 'DRCRCLTC' fully repaired). parent_section 'TU – Assumptions' correct (table sits in Assumption 10 narrative).", "evidence_pdf_quote": "IMG-00007 | LOC01 | DRCRLTLC | Disease Recurrence Relative Location | LOCAL | BREAST | LEFT | CT SCAN", "reviewer_subagent_type": "pr-review-toolkit:pr-test-analyzer", "rule_d_slot": 45, "audit_pivot_index": 26}
{"atom_id": "ig34_p0350_a001", "page": 350, "atom_type": "HEADING", "verdict": "PASS", "dimensions": {"verbatim_integrity": "PASS", "atom_type_correctness": "PASS", "heading_chain": "PASS", "parent_section_canonical": "PASS", "table_row_pipe_count": "N/A", "n2_cyrillic": "PASS"}, "rationale": "PDF p.350 top shows L4 heading '6.3.12.2 Tumor/Lesion Results (TR)' verbatim exact. heading_level=4 + sibling_index=2 correct (TU=.1 sib 1, TR=.2 sib 2 under §6.3.12). parent_section '§6.3.12 Tumor/Lesion Domains' is L3 canonical full-form per v1.4 N7 for L4 HEADING.", "evidence_pdf_quote": "6.3.12.2 Tumor/Lesion Results (TR)", "reviewer_subagent_type": "pr-review-toolkit:pr-test-analyzer", "rule_d_slot": 45, "audit_pivot_index": 26}
