{"atom_id": "ig34_p0141_a005", "verdict": "PASS", "atom_type_correct": true, "verbatim_correct": true, "parent_section_correct": true, "heading_fields_correct": "n/a", "rationale": "PDF p.141 AE Example 1 ae.xpt Row 3 PULMONARY EMBOLISM matches verbatim char-for-char (24 data cells incl. empty AEMODIFY/AESCONG/AESDISAB/AESDTH/AESHOSP/AESLIFE/AESMIE/AEENDTC/AEENDY preserved as `| |` per R8/R11). atom_type TABLE_ROW correct. parent_section §6.2.1 [Adverse Events (AE)] correct.", "severity": "n/a", "reviewer_slot": 24, "reviewer_type": "vercel:deployment-expert"}
{"atom_id": "ig34_p0142_a016", "verdict": "PASS", "atom_type_correct": true, "verbatim_correct": true, "parent_section_correct": true, "heading_fields_correct": "n/a", "rationale": "PDF p.142 AE Example 5 ae.xpt Row 2 Osteomyelitis right hip matches verbatim (T002|AE|002|HipX22|2|AE0033|Osteomyelitis right hip|OSTEOMYELITIS|HIP|RIGHT|Y|MODERATE|REMOVED|PROBABLE|RECOVERED/ RESOLVED WITH SEQUELLAE|N|Y|Y|N|N|N|Y|Y|N|N|2018-05-01|2018-05-10|15|25). All 29 cells present and char-for-char correct. atom_type TABLE_ROW correct. parent §6.2.1 correct.", "severity": "n/a", "reviewer_slot": 24, "reviewer_type": "vercel:deployment-expert"}
{"atom_id": "ig34_p0143_a002", "verdict": "PASS", "atom_type_correct": true, "verbatim_correct": true, "parent_section_correct": true, "heading_fields_correct": true, "rationale": "PDF p.143 top heading '6.2.2 Biospecimen Events (BE)' exact match. heading_level=3 correct (L3 sub-section under §6.2). sibling_index=2 correct (BE is 2nd L3 sibling after AE=sib1 under §6.2). parent_section §6.2 [MODELS FOR EVENTS DOMAINS] correct per TOC rule (sub-section heading parented to parent §). R3 HEADING anchored to TOC.", "severity": "n/a", "reviewer_slot": 24, "reviewer_type": "vercel:deployment-expert"}
{"atom_id": "ig34_p0144_a007", "verdict": "PASS", "atom_type_correct": true, "verbatim_correct": true, "parent_section_correct": true, "heading_fields_correct": "n/a", "rationale": "PDF p.144 BE-Specification spec table BESTDY row matches verbatim: 'BESTDY|Study Day of Start of Biospecimen Event|Num| |Timing|Actual study day of start of observation expressed in integer days relative to the sponsor-defined RFSTDTC in Demographics.|Perm'. Empty CT cell preserved as `| |` (R8). atom_type TABLE_ROW correct. parent §6.2.2 correct.", "severity": "n/a", "reviewer_slot": 24, "reviewer_type": "vercel:deployment-expert"}
{"atom_id": "ig34_p0145_a004", "verdict": "PASS", "atom_type_correct": true, "verbatim_correct": true, "parent_section_correct": true, "heading_fields_correct": true, "rationale": "PDF p.145 has heading 'Example 1' under BE-Examples section. heading_level=5 correct (L5 nested below BE-Examples L4 sib=4). sibling_index=1 correct (1st example under BE-Examples per R15 cross-batch sibling continuity). parent §6.2.2 correct. Action note 'OptionH_R15_sibling_continuity_Example1_SENTENCE_to_HEADING_L5_sib1' in extracted_by confirms this was correctly repaired from SENTENCE to HEADING.", "severity": "n/a", "reviewer_slot": 24, "reviewer_type": "vercel:deployment-expert"}
{"atom_id": "ig34_p0146_a005", "verdict": "PASS", "atom_type_correct": true, "verbatim_correct": true, "parent_section_correct": true, "heading_fields_correct": "n/a", "rationale": "PDF p.146 top-of-page bs.xpt table (continuing from BE Example 1 on p.145) Row 3 FFRZMAT: '3|ABC134|BS|43871|3|267FF|1148.267|FFRZMAT|Flash Freeze Material|SPECIMEN HANDLING|DRY ICE/ISOPOPANOL| |DRY ICE/ISOPOPANOL| | |BRAIN|CEREBRAL AQUEDUCT|1|5-0' matches verbatim. Empty BSORRESU/BSSTRESN/BSSTRESU cells preserved as `| |` (R8). atom_type TABLE_ROW correct. parent §6.2.2 correct. Action 'OptionE_p146_wholesale_replace' indicates prior repair, post-repair state is correct.", "severity": "n/a", "reviewer_slot": 24, "reviewer_type": "vercel:deployment-expert"}
{"atom_id": "ig34_p0147_a009", "verdict": "PASS", "atom_type_correct": true, "verbatim_correct": true, "parent_section_correct": true, "heading_fields_correct": "n/a", "rationale": "PDF p.147 has 'suppbe.xpt' as dataset filename label above suppqual table (middle region). atom_type CODE_LITERAL correct (R9 dataset filename literal). verbatim 'suppbe.xpt' exact char match. parent §6.2.2 correct (still within BE Example 2 spanning p.145-148). R9 parent = physical-page section.", "severity": "n/a", "reviewer_slot": 24, "reviewer_type": "vercel:deployment-expert"}
{"atom_id": "ig34_p0148_a010", "verdict": "PARTIAL", "atom_type_correct": true, "verbatim_correct": true, "parent_section_correct": true, "heading_fields_correct": false, "rationale": "PDF p.148 has heading 'References' between BE Example 2 closing (relrec.xpt table) and §6.2.3 CE start. atom_type HEADING correct, verbatim 'References' exact match, heading_level=4 correct, parent §6.2.2 correct per TOC rule (BE last bit → §6.2.2). HOWEVER sibling_index=null is incomplete: per R15 cross-batch continuity, References should be L4 sib=5 under §6.2.2 (after Description/Overview=1, Specification=2, Assumptions=3, Examples=4). The TOC ground truth provided in audit prompt only enumerates BE sub-headings up to Examples=4, but References as 5th L4 sibling sub-section under BE is required for R15 sibling continuity downstream.", "severity": "MEDIUM", "reviewer_slot": 24, "reviewer_type": "vercel:deployment-expert"}
{"atom_id": "ig34_p0149_a017", "verdict": "PASS", "atom_type_correct": true, "verbatim_correct": true, "parent_section_correct": true, "heading_fields_correct": "n/a", "rationale": "PDF p.149 CE-Specification table CESTRF row matches verbatim: 'CESTRF|Start Relative to Reference Period|Char|(STNREF)|Timing|Describes the start of the observation as being before or after the reference time point and a discrete starting point and a discrete ending point (represented by RFSTDTC and RFENDTC in Demographics). Not all values of the codelist are allowable for this variable. See Section 4.4.7, Use of Relative Timing Variables.|Perm'. (STNREF) codelist preserved verbatim per R6. cross_refs ['§4.4.7'] correctly extracted. atom_type TABLE_ROW correct. parent §6.2.3 correct. Note: PDF cell has paragraph break between 'Demographics).' and 'Not all values' rendered as space-join in atom; minor R10 wrap convention (LOW, not breaking).", "severity": "LOW", "reviewer_slot": 24, "reviewer_type": "vercel:deployment-expert"}
{"atom_id": "ig34_p0150_a004", "verdict": "PASS", "atom_type_correct": true, "verbatim_correct": true, "parent_section_correct": true, "heading_fields_correct": "n/a", "rationale": "PDF p.150 footnote text matches verbatim semantic content: 'In this column, an asterisk (*) indicates that the variable may be subject to controlled terminology. CDISC/NCI codelist values are enclosed in parentheses.' atom_type SENTENCE correct (it's a footnote sentence). parent §6.2.3 correct. Minor: PDF prepends '1' as superscript footnote marker (¹) tying to column header footnote ref; atom drops the leading '1' which is conventional for footnote-marker stripping (consistent with prior batch CE/AE footnote treatments). LOW severity informational only.", "severity": "LOW", "reviewer_slot": 24, "reviewer_type": "vercel:deployment-expert"}
