{
  "summary": {
    "n_questions": 53,
    "model": "deepseek/deepseek-chat",
    "threshold": 0.85,
    "source_recall_avg": 0.8208,
    "source_recall_by_category": {
      "concept": 0.7692,
      "cross_domain": 0.6154,
      "mixed": 0.9231,
      "single_domain": 0.9643
    },
    "fact_recall_avg": 0.9484,
    "fact_recall_by_category": {
      "concept": 0.9308,
      "cross_domain": 0.9615,
      "mixed": 0.9615,
      "single_domain": 0.9405
    },
    "overall": 0.8846,
    "total_tokens": 676011,
    "verdict": "PASS"
  },
  "results": [
    {
      "id": "q01",
      "category": "single_domain",
      "question": "What is AETERM and what are its variable attributes in the AE domain?",
      "source_recall": 1.0,
      "source_hits": [
        "domains/AE/spec.md"
      ],
      "source_misses": [],
      "top5_sources": [
        "domains/AE/assumptions.md",
        "domains/AE/assumptions.md",
        "domains/AE/spec.md",
        "domains/AE/assumptions.md",
        "domains/AE/spec.md"
      ],
      "top5_similarities": [
        0.6641,
        0.6105,
        0.5884,
        0.579,
        0.5778
      ],
      "fact_recall": 1.0,
      "fact_hits": [
        "Topic",
        "Char",
        "Req",
        "Verbatim"
      ],
      "fact_misses": [],
      "answer_preview": "Based on the provided context, AETERM is the **Reported Term for the Adverse Event** and serves as the **Topic variable** for the AE (Adverse Events) dataset [Source: domains/AE/spec.md -- AETERM][Source: domains/AE/assumptions.md -- item_2a].\n\nHere are its specific variable attributes:\n\n- **Label:*",
      "usage": {
        "prompt_tokens": 10356,
        "completion_tokens": 373,
        "total_tokens": 10729
      },
      "model": "deepseek/deepseek-chat",
      "elapsed_s": 4.97
    },
    {
      "id": "q02",
      "category": "single_domain",
      "question": "What are the required (Core=Req) variables in the DM domain?",
      "source_recall": 1.0,
      "source_hits": [
        "domains/DM/spec.md"
      ],
      "source_misses": [],
      "top5_sources": [
        "domains/DM/assumptions.md",
        "chapters/ch04_general_assumptions.md",
        "chapters/ch04_general_assumptions.md",
        "model/01_concepts_and_terms.md",
        "domains/TM/spec.md"
      ],
      "top5_similarities": [
        0.6081,
        0.5671,
        0.5064,
        0.5049,
        0.4935
      ],
      "fact_recall": 0.3333,
      "fact_hits": [
        "STUDYID",
        "USUBJID"
      ],
      "fact_misses": [
        "RFSTDTC",
        "AGE",
        "SEX",
        "ARM"
      ],
      "answer_preview": "Based on the retrieved context, I can determine the following about the DM domain:\n\nThe DM domain is described as a **special-purpose domain** that \"includes a set of essential standard variables that describe each subject in a clinical study\" and is \"the parent domain for all other observations for",
      "usage": {
        "prompt_tokens": 10815,
        "completion_tokens": 424,
        "total_tokens": 11239
      },
      "model": "deepseek/deepseek-chat",
      "elapsed_s": 4.72
    },
    {
      "id": "q03",
      "category": "single_domain",
      "question": "What are the key assumptions for adverse event data collection and coding?",
      "source_recall": 1.0,
      "source_hits": [
        "domains/AE/assumptions.md"
      ],
      "source_misses": [],
      "top5_sources": [
        "domains/AE/assumptions.md",
        "domains/AE/assumptions.md",
        "domains/AE/assumptions.md",
        "domains/AE/assumptions.md",
        "domains/CE/assumptions.md"
      ],
      "top5_similarities": [
        0.592,
        0.5756,
        0.5717,
        0.5609,
        0.5365
      ],
      "fact_recall": 1.0,
      "fact_hits": [
        "AETERM",
        "MedDRA",
        "AEDECOD"
      ],
      "fact_misses": [],
      "answer_preview": "## Key Assumptions for Adverse Event Data Collection and Coding\n\n### 1. Scope and Definition of Adverse Events\n\nThe AE dataset includes \"any untoward medical occurrence\" per ICH E2A, though sponsors may extend or limit collection scope per regulatory consultation (e.g., collecting pre-treatment even",
      "usage": {
        "prompt_tokens": 16179,
        "completion_tokens": 1395,
        "total_tokens": 17574
      },
      "model": "deepseek/deepseek-chat",
      "elapsed_s": 12.89
    },
    {
      "id": "q04",
      "category": "single_domain",
      "question": "What is the purpose of the TV (Trial Visits) domain and what variables does it contain?",
      "source_recall": 1.0,
      "source_hits": [
        "domains/TV/spec.md"
      ],
      "source_misses": [],
      "top5_sources": [
        "domains/SV/assumptions.md",
        "VARIABLE_INDEX.md",
        "domains/TV/examples.md",
        "domains/TV/assumptions.md",
        "domains/TA/spec.md"
      ],
      "top5_similarities": [
        0.6873,
        0.6708,
        0.6648,
        0.6384,
        0.6357
      ],
      "fact_recall": 1.0,
      "fact_hits": [
        "VISITNUM",
        "VISIT"
      ],
      "fact_misses": [],
      "answer_preview": "Based on the provided context, the **TV (Trial Visits)** domain is a Trial Design domain used to define the **planned visit schedule** for a clinical trial. Its purpose is to document the protocol-defined timing and structure of clinical encounters (visits), allowing comparison of actual subject vis",
      "usage": {
        "prompt_tokens": 11464,
        "completion_tokens": 483,
        "total_tokens": 11947
      },
      "model": "deepseek/deepseek-chat",
      "elapsed_s": 5.05
    },
    {
      "id": "q05",
      "category": "single_domain",
      "question": "In the PE (Physical Examination) domain, what is the structure of the dataset, what is the role of the PETESTCD variable, and what value should PETESTCD have when the results of the entire physical examination are represented in one record?",
      "source_recall": 1.0,
      "source_hits": [
        "domains/PE/spec.md"
      ],
      "source_misses": [],
      "top5_sources": [
        "domains/PE/spec.md",
        "domains/PE/spec.md",
        "VARIABLE_INDEX.md",
        "domains/PE/examples.md",
        "domains/PE/assumptions.md"
      ],
      "top5_similarities": [
        0.731,
        0.7026,
        0.6909,
        0.6542,
        0.6236
      ],
      "fact_recall": 1.0,
      "fact_hits": [
        "PETESTCD",
        "Topic",
        "PHYSEXAM"
      ],
      "fact_misses": [],
      "answer_preview": "Based on the SDTMIG v3.4 knowledge base, here is the structure of the PE (Physical Examination) domain, the role of `PETESTCD`, and the specific value to use when representing the entire examination in a single record.\n\n### 1. Dataset Structure\n\nThe Physical Examination (PE) domain is a **Findings**",
      "usage": {
        "prompt_tokens": 15428,
        "completion_tokens": 903,
        "total_tokens": 16331
      },
      "model": "deepseek/deepseek-chat",
      "elapsed_s": 8.26
    },
    {
      "id": "q21",
      "category": "single_domain",
      "question": "What is the LBTESTCD variable in the LB (Laboratory Test Results) domain? Describe its role, controlled terminology codelist code, and naming constraints.",
      "source_recall": 1.0,
      "source_hits": [
        "domains/LB/spec.md"
      ],
      "source_misses": [],
      "top5_sources": [
        "domains/LB/spec.md",
        "domains/LB/spec.md",
        "domains/LB/assumptions.md",
        "domains/LB/spec.md",
        "domains/LB/spec.md"
      ],
      "top5_similarities": [
        0.7837,
        0.7576,
        0.7499,
        0.7118,
        0.7058
      ],
      "fact_recall": 1.0,
      "fact_hits": [
        "Topic",
        "C65047",
        "8 characters"
      ],
      "fact_misses": [],
      "answer_preview": "## LBTESTCD — Lab Test or Examination Short Name (LB Domain)\n\n### Definition\n\n| Attribute | Value |\n|-----------|-------|\n| **Order** | 8 |\n| **Label** | Lab Test or Examination Short Name |\n| **Type** | Char |\n| **Role** | Topic |\n| **Core** | Req |\n| **Controlled Terms** | C65047 |\n| **CDISC Notes",
      "usage": {
        "prompt_tokens": 12125,
        "completion_tokens": 560,
        "total_tokens": 12685
      },
      "model": "deepseek/deepseek-chat",
      "elapsed_s": 6.88
    },
    {
      "id": "q22",
      "category": "single_domain",
      "question": "What is the VS (Vital Signs) domain and what are some examples of VSTESTCD values? Include the codelist code.",
      "source_recall": 1.0,
      "source_hits": [
        "domains/VS/spec.md"
      ],
      "source_misses": [],
      "top5_sources": [
        "domains/VS/spec.md",
        "domains/VS/assumptions.md",
        "domains/VS/spec.md",
        "domains/VS/spec.md",
        "VARIABLE_INDEX.md"
      ],
      "top5_similarities": [
        0.7384,
        0.6914,
        0.67,
        0.6467,
        0.6305
      ],
      "fact_recall": 1.0,
      "fact_hits": [
        "Findings",
        "VSTESTCD",
        "C66741"
      ],
      "fact_misses": [],
      "answer_preview": "Based on the SDTM knowledge base, the Vital Signs (VS) domain is a Findings class domain used to represent subject-level vital sign measurements such as blood pressure, temperature, heart rate, and body mass index.\n\n## VS Domain Overview\nThe VS domain captures vital signs test results with a standar",
      "usage": {
        "prompt_tokens": 11557,
        "completion_tokens": 397,
        "total_tokens": 11954
      },
      "model": "deepseek/deepseek-chat",
      "elapsed_s": 4.08
    },
    {
      "id": "q23",
      "category": "single_domain",
      "question": "In the CM (Concomitant Medications) domain, what is the CMTRT variable and what observation class does CM belong to?",
      "source_recall": 1.0,
      "source_hits": [
        "domains/CM/spec.md"
      ],
      "source_misses": [],
      "top5_sources": [
        "domains/CM/spec.md",
        "domains/CM/assumptions.md",
        "domains/CM/assumptions.md",
        "domains/CM/spec.md",
        "VARIABLE_INDEX.md"
      ],
      "top5_similarities": [
        0.6736,
        0.6595,
        0.6281,
        0.6034,
        0.5988
      ],
      "fact_recall": 1.0,
      "fact_hits": [
        "CMTRT",
        "Interventions",
        "Topic",
        "Req"
      ],
      "fact_misses": [],
      "answer_preview": "Based on the provided knowledge base context, here are the answers:\n\n### CMTRT Variable\n\n**CMTRT** is the Reported Name of Drug, Med, or Therapy. It is a **Topic** variable with a **Char** (Character) type and a **Core** of **Req** (Required). It must always have a value. CMTRT captures the verbatim",
      "usage": {
        "prompt_tokens": 10746,
        "completion_tokens": 228,
        "total_tokens": 10974
      },
      "model": "deepseek/deepseek-chat",
      "elapsed_s": 3.14
    },
    {
      "id": "q24",
      "category": "single_domain",
      "question": "What is the EX (Exposure) domain used for and what is the Topic variable EXTRT?",
      "source_recall": 1.0,
      "source_hits": [
        "domains/EX/spec.md"
      ],
      "source_misses": [],
      "top5_sources": [
        "domains/EX/assumptions.md",
        "domains/EX/assumptions.md",
        "domains/EX/assumptions.md",
        "domains/EC/spec.md",
        "domains/EX/assumptions.md"
      ],
      "top5_similarities": [
        0.6559,
        0.6203,
        0.6116,
        0.5973,
        0.5774
      ],
      "fact_recall": 1.0,
      "fact_hits": [
        "EXTRT",
        "Interventions",
        "protocol-specified"
      ],
      "fact_misses": [],
      "answer_preview": "## EX (Exposure) Domain — Definition and Topic Variable\n\n### Purpose of the EX Domain\n\nThe EX domain is used to represent **protocol-specified study treatment exposures** for each subject. It captures the protocol-specified dose, units, and administration details for investigational products, active",
      "usage": {
        "prompt_tokens": 11890,
        "completion_tokens": 955,
        "total_tokens": 12845
      },
      "model": "deepseek/deepseek-chat",
      "elapsed_s": 8.43
    },
    {
      "id": "q25",
      "category": "single_domain",
      "question": "In the MH (Medical History) domain, what is the role of MHTERM and what assumptions guide medical history data collection?",
      "source_recall": 1.0,
      "source_hits": [
        "domains/MH/assumptions.md"
      ],
      "source_misses": [],
      "top5_sources": [
        "domains/MH/assumptions.md",
        "VARIABLE_INDEX.md",
        "domains/MH/assumptions.md",
        "domains/MH/spec.md",
        "domains/MH/assumptions.md"
      ],
      "top5_similarities": [
        0.7369,
        0.6858,
        0.6768,
        0.6764,
        0.6713
      ],
      "fact_recall": 1.0,
      "fact_hits": [
        "MHTERM",
        "Topic",
        "Verbatim"
      ],
      "fact_misses": [],
      "answer_preview": "Based on the retrieved context, here is the information regarding the role of MHTERM and the assumptions guiding Medical History data collection in the MH domain.\n\n### Role of MHTERM\n\n**MHTERM** (Reported Term for the Medical History) has the following attributes:\n- **Type:** Char\n- **Role:** Topic\n",
      "usage": {
        "prompt_tokens": 13648,
        "completion_tokens": 799,
        "total_tokens": 14447
      },
      "model": "deepseek/deepseek-chat",
      "elapsed_s": 7.08
    },
    {
      "id": "q26",
      "category": "single_domain",
      "question": "Describe the EG (ECG Test Results) domain structure and the EGTESTCD variable, including its controlled terminology codelist codes.",
      "source_recall": 1.0,
      "source_hits": [
        "domains/EG/spec.md"
      ],
      "source_misses": [],
      "top5_sources": [
        "domains/EG/spec.md",
        "domains/EG/spec.md",
        "domains/EG/spec.md",
        "VARIABLE_INDEX.md",
        "domains/EG/spec.md"
      ],
      "top5_similarities": [
        0.7263,
        0.7253,
        0.7229,
        0.6737,
        0.6583
      ],
      "fact_recall": 1.0,
      "fact_hits": [
        "EGTESTCD",
        "Findings",
        "C71153"
      ],
      "fact_misses": [],
      "answer_preview": "## EG (ECG Test Results) Domain Structure\n\nThe EG domain is a **Findings** class domain in SDTM, used to capture electrocardiogram (ECG) test results and findings. It contains approximately **39 variables** organized by role:\n\n- **Identifier variables** (5): EGSEQ, EGGRPID, EGREFID, EGSPID, EGBEATNO",
      "usage": {
        "prompt_tokens": 12340,
        "completion_tokens": 1034,
        "total_tokens": 13374
      },
      "model": "deepseek/deepseek-chat",
      "elapsed_s": 8.89
    },
    {
      "id": "q27",
      "category": "single_domain",
      "question": "What is the IE (Inclusion/Exclusion) domain and what is the role and maximum length of the IETEST variable?",
      "source_recall": 1.0,
      "source_hits": [
        "domains/IE/spec.md"
      ],
      "source_misses": [],
      "top5_sources": [
        "domains/TI/spec.md",
        "domains/IE/spec.md",
        "domains/TI/assumptions.md",
        "domains/IE/assumptions.md",
        "domains/IE/assumptions.md"
      ],
      "top5_similarities": [
        0.7161,
        0.6769,
        0.6678,
        0.6552,
        0.6364
      ],
      "fact_recall": 1.0,
      "fact_hits": [
        "IETEST",
        "200",
        "Synonym Qualifier"
      ],
      "fact_misses": [],
      "answer_preview": "Based on the retrieved context, here is the answer to your question:\n\n### Overview of the IE Domain\n\nThe **IE (Inclusion/Exclusion Criteria Not Met)** domain is a **Findings** class domain used to collect responses to only those inclusion or exclusion criteria that a **subject did not meet**. It doe",
      "usage": {
        "prompt_tokens": 9431,
        "completion_tokens": 300,
        "total_tokens": 9731
      },
      "model": "deepseek/deepseek-chat",
      "elapsed_s": 3.17
    },
    {
      "id": "q06",
      "category": "cross_domain",
      "question": "What is SUPPQUAL and when should supplemental qualifiers be used instead of adding variables to a domain?",
      "source_recall": 1.0,
      "source_hits": [
        "domains/SUPPQUAL/spec.md"
      ],
      "source_misses": [],
      "top5_sources": [
        "chapters/ch08_relationships.md",
        "domains/SUPPQUAL/assumptions.md",
        "chapters/ch08_relationships.md",
        "model/06_relationship_datasets.md",
        "chapters/ch08_relationships.md"
      ],
      "top5_similarities": [
        0.7411,
        0.7409,
        0.7302,
        0.7295,
        0.6782
      ],
      "fact_recall": 1.0,
      "fact_hits": [
        "QNAM",
        "QVAL",
        "non-standard"
      ],
      "fact_misses": [],
      "answer_preview": "## SUPPQUAL — Supplemental Qualifiers\n\n**SUPPQUAL** (full name: *Supplemental Qualifiers for [domain name]*) is a special-purpose relationship dataset model used to capture **non-standard variables (NSVs)** that cannot be accommodated in the standard SDTM domain datasets. Each parent domain has its ",
      "usage": {
        "prompt_tokens": 15465,
        "completion_tokens": 1106,
        "total_tokens": 16571
      },
      "model": "deepseek/deepseek-chat",
      "elapsed_s": 9.51
    },
    {
      "id": "q07",
      "category": "cross_domain",
      "question": "Which SDTM domains use the EPOCH variable and what is its purpose?",
      "source_recall": 0.0,
      "source_hits": [],
      "source_misses": [
        "VARIABLE_INDEX.md"
      ],
      "top5_sources": [
        "chapters/ch04_general_assumptions.md",
        "domains/SR/spec.md",
        "domains/TA/assumptions.md",
        "domains/CP/spec.md",
        "domains/FA/spec.md"
      ],
      "top5_similarities": [
        0.7004,
        0.6837,
        0.6827,
        0.6778,
        0.6772
      ],
      "fact_recall": 1.0,
      "fact_hits": [
        "EPOCH",
        "Timing"
      ],
      "fact_misses": [],
      "answer_preview": "Based on the SDTMIG v3.4 knowledge base, the **EPOCH** variable is used broadly across SDTM domains as a Timing variable. Its purpose, usage rules, and domain-specific variations are outlined below.\n\n### Purpose of EPOCH\nEPOCH is a **Permissible** Timing variable that identifies the trial epoch (e.g",
      "usage": {
        "prompt_tokens": 9518,
        "completion_tokens": 1110,
        "total_tokens": 10628
      },
      "model": "deepseek/deepseek-chat",
      "elapsed_s": 9.12
    },
    {
      "id": "q08",
      "category": "cross_domain",
      "question": "How does USUBJID serve as a linking key across SDTM domains?",
      "source_recall": 1.0,
      "source_hits": [
        "domains/DM/spec.md"
      ],
      "source_misses": [],
      "top5_sources": [
        "domains/SUPPQUAL/spec.md",
        "domains/DM/spec.md",
        "domains/PP/spec.md",
        "domains/RELSPEC/spec.md",
        "domains/RELSUB/spec.md"
      ],
      "top5_similarities": [
        0.7076,
        0.6924,
        0.6855,
        0.6845,
        0.6825
      ],
      "fact_recall": 1.0,
      "fact_hits": [
        "USUBJID",
        "Identifier",
        "unique"
      ],
      "fact_misses": [],
      "answer_preview": "Based on SDTMIG v3.4, **USUBJID** serves as the **universal primary linking key** across virtually all SDTM domains. Its role and usage are defined as follows:\n\n## Definition\n- **Label:** Unique Subject Identifier\n- **Type:** Char\n- **Role:** Identifier\n- **Core:** Req in nearly all domains (Req); E",
      "usage": {
        "prompt_tokens": 9182,
        "completion_tokens": 676,
        "total_tokens": 9858
      },
      "model": "deepseek/deepseek-chat",
      "elapsed_s": 7.38
    },
    {
      "id": "q09",
      "category": "cross_domain",
      "question": "How are adverse events linked to concomitant medications using RELREC?",
      "source_recall": 0.0,
      "source_hits": [],
      "source_misses": [
        "domains/RELREC/spec.md"
      ],
      "top5_sources": [
        "chapters/ch08_relationships.md",
        "domains/RELREC/examples.md",
        "chapters/ch08_relationships.md",
        "domains/RELREC/assumptions.md",
        "domains/CM/assumptions.md"
      ],
      "top5_similarities": [
        0.6173,
        0.583,
        0.5828,
        0.5376,
        0.537
      ],
      "fact_recall": 1.0,
      "fact_hits": [
        "RELREC",
        "IDVAR",
        "IDVARVAL"
      ],
      "fact_misses": [],
      "answer_preview": "Based on the retrieved context, adverse events are linked to concomitant medications using the `RELREC` (Related Records) special-purpose dataset. This is done by creating a relationship identifier that connects records from the `AE` domain (Adverse Events) to records from the `CM` domain (Concomita",
      "usage": {
        "prompt_tokens": 16198,
        "completion_tokens": 772,
        "total_tokens": 16970
      },
      "model": "deepseek/deepseek-chat",
      "elapsed_s": 7.22
    },
    {
      "id": "q10",
      "category": "cross_domain",
      "question": "In oncology studies, how are the TR (Tumor/Lesion Results) domain and RS (Disease Response) domain linked together, and which specific identifier variables are used for each linkage direction?",
      "source_recall": 0.5,
      "source_hits": [
        "domains/TR/assumptions.md"
      ],
      "source_misses": [
        "domains/TR/spec.md"
      ],
      "top5_sources": [
        "domains/RS/assumptions.md",
        "domains/TR/assumptions.md",
        "domains/RS/assumptions.md",
        "domains/TR/assumptions.md",
        "domains/RS/assumptions.md"
      ],
      "top5_similarities": [
        0.713,
        0.7055,
        0.7032,
        0.6926,
        0.67
      ],
      "fact_recall": 1.0,
      "fact_hits": [
        "TRLNKID",
        "TRLNKGRP"
      ],
      "fact_misses": [],
      "answer_preview": "## TR ↔ RS Domain Linkage in Oncology Studies\n\nThe linkage between TR (Tumor/Lesion Results) and RS (Disease Response) domains uses a **two-level linking mechanism** via the `--LNKGRP` variable, supported by RELREC records.\n\n### Primary Linkage: TRLNKGRP → RSLNKGRP (TR → RS)\n\n- **Link direction**: F",
      "usage": {
        "prompt_tokens": 15743,
        "completion_tokens": 1253,
        "total_tokens": 16996
      },
      "model": "deepseek/deepseek-chat",
      "elapsed_s": 10.2
    },
    {
      "id": "q28",
      "category": "cross_domain",
      "question": "What is the FA (Findings About Events or Interventions) domain and how does it link to parent domains like AE or CM using FAOBJ?",
      "source_recall": 1.0,
      "source_hits": [
        "domains/FA/spec.md"
      ],
      "source_misses": [],
      "top5_sources": [
        "domains/FA/assumptions.md",
        "domains/FA/assumptions.md",
        "model/02_observation_classes.md",
        "domains/FA/assumptions.md",
        "domains/FA/assumptions.md"
      ],
      "top5_similarities": [
        0.6937,
        0.6555,
        0.6529,
        0.646,
        0.6434
      ],
      "fact_recall": 1.0,
      "fact_hits": [
        "Findings About",
        "FAOBJ",
        "FATESTCD"
      ],
      "fact_misses": [],
      "answer_preview": "## FA (Findings About Events or Interventions) Domain\n\n### Definition\n\nThe **Findings About Events or Interventions (FA)** domain is a subtype of the Findings observation class used to record observations about events or interventions that cannot be adequately represented as qualifier variables on t",
      "usage": {
        "prompt_tokens": 14986,
        "completion_tokens": 1478,
        "total_tokens": 16464
      },
      "model": "deepseek/deepseek-chat",
      "elapsed_s": 12.68
    },
    {
      "id": "q29",
      "category": "cross_domain",
      "question": "How do the four Trial Design domains TA (Trial Arms), TE (Trial Elements), TV (Trial Visits), and TI (Trial Inclusion/Exclusion) work together to define a study design?",
      "source_recall": 1.0,
      "source_hits": [
        "domains/TA/assumptions.md",
        "domains/TE/assumptions.md"
      ],
      "source_misses": [],
      "top5_sources": [
        "domains/TA/spec.md",
        "domains/TV/spec.md",
        "domains/TE/assumptions.md",
        "domains/TE/spec.md",
        "domains/TA/assumptions.md"
      ],
      "top5_similarities": [
        0.7568,
        0.7534,
        0.7359,
        0.7352,
        0.7245
      ],
      "fact_recall": 1.0,
      "fact_hits": [
        "TA",
        "TE",
        "TV",
        "TI"
      ],
      "fact_misses": [],
      "answer_preview": "Based on the SDTMIG v3.4 knowledge base, the four Trial Design domains work together as a layered, hierarchical model to define a study design. The following describes how each domain contributes and how they interrelate.\n\n## 1. Trial Elements (TE) — The Building Blocks\n\n**TE** defines the fundament",
      "usage": {
        "prompt_tokens": 14040,
        "completion_tokens": 1135,
        "total_tokens": 15175
      },
      "model": "deepseek/deepseek-chat",
      "elapsed_s": 11.26
    },
    {
      "id": "q30",
      "category": "cross_domain",
      "question": "What is the CO (Comments) domain and how does it reference records in other SDTM domains? Describe the RDOMAIN and IDVAR mechanism.",
      "source_recall": 1.0,
      "source_hits": [
        "domains/CO/spec.md",
        "domains/CO/assumptions.md"
      ],
      "source_misses": [],
      "top5_sources": [
        "domains/CO/assumptions.md",
        "domains/CO/assumptions.md",
        "model/03_special_purpose_domains.md",
        "chapters/ch08_relationships.md",
        "domains/CO/assumptions.md"
      ],
      "top5_similarities": [
        0.7154,
        0.6876,
        0.6819,
        0.6728,
        0.6547
      ],
      "fact_recall": 1.0,
      "fact_hits": [
        "COVAL",
        "RDOMAIN",
        "IDVAR"
      ],
      "fact_misses": [],
      "answer_preview": "## CO (Comments) Domain — Description and Reference Mechanism\n\n### Domain Overview\n\nThe **Comments (CO)** domain is a **special-purpose domain** that captures free-text comments not part of normal domain data. Comments are typically supplied by a principal investigator but may also come from other s",
      "usage": {
        "prompt_tokens": 11244,
        "completion_tokens": 1028,
        "total_tokens": 12272
      },
      "model": "deepseek/deepseek-chat",
      "elapsed_s": 8.5
    },
    {
      "id": "q31",
      "category": "cross_domain",
      "question": "How are the EC (Exposure as Collected) and EX (Exposure) domains different in purpose, and when should each be used?",
      "source_recall": 1.0,
      "source_hits": [
        "domains/EC/assumptions.md"
      ],
      "source_misses": [],
      "top5_sources": [
        "domains/EX/assumptions.md",
        "domains/EC/assumptions.md",
        "domains/EX/spec.md",
        "domains/EX/assumptions.md",
        "domains/EX/assumptions.md"
      ],
      "top5_similarities": [
        0.7328,
        0.7317,
        0.5962,
        0.5907,
        0.5869
      ],
      "fact_recall": 1.0,
      "fact_hits": [
        "collected",
        "EX",
        "EC"
      ],
      "fact_misses": [],
      "answer_preview": "## EC vs EX: Purpose and Usage\n\n### Summary\n\nThe **EC (Exposure as Collected)** and **EX (Exposure)** domains serve distinct but complementary purposes:\n\n- **EC** = Collected/pre-processed exposure data in the units as actually recorded on the CRF\n- **EX** = Derived exposure data in the **protocol-s",
      "usage": {
        "prompt_tokens": 14894,
        "completion_tokens": 1434,
        "total_tokens": 16328
      },
      "model": "deepseek/deepseek-chat",
      "elapsed_s": 14.61
    },
    {
      "id": "q32",
      "category": "cross_domain",
      "question": "How is VISIT and VISITNUM used consistently across observation-class domains, and what role does the SV (Subject Visits) domain play in tracking actual visit dates?",
      "source_recall": 0.5,
      "source_hits": [
        "domains/SV/assumptions.md"
      ],
      "source_misses": [
        "domains/SV/spec.md"
      ],
      "top5_sources": [
        "model/03_special_purpose_domains.md",
        "domains/TV/assumptions.md",
        "domains/FA/spec.md",
        "domains/AG/spec.md",
        "chapters/ch04_general_assumptions.md"
      ],
      "top5_similarities": [
        0.7044,
        0.6997,
        0.6681,
        0.6666,
        0.6665
      ],
      "fact_recall": 1.0,
      "fact_hits": [
        "VISIT",
        "VISITNUM",
        "SV"
      ],
      "fact_misses": [],
      "answer_preview": "Based on the knowledge base, **VISIT** and **VISITNUM** are used as **Timing variables** to link subject-level data to the planned and actual visit schedule, while the **SV domain** provides a record of the actual visit dates for each subject.\n\n### 1. Consistent Use Across Observation-Class Domains\n",
      "usage": {
        "prompt_tokens": 10188,
        "completion_tokens": 1276,
        "total_tokens": 11464
      },
      "model": "deepseek/deepseek-chat",
      "elapsed_s": 10.7
    },
    {
      "id": "q33",
      "category": "cross_domain",
      "question": "What is the RELSPEC domain and how does it define relationships between datasets at the study level, as opposed to RELREC which links individual records?",
      "source_recall": 0.0,
      "source_hits": [],
      "source_misses": [
        "domains/RELSPEC/spec.md"
      ],
      "top5_sources": [
        "chapters/ch08_relationships.md",
        "domains/RELSPEC/assumptions.md",
        "domains/RELSPEC/assumptions.md",
        "domains/RELREC/assumptions.md",
        "chapters/ch08_relationships.md"
      ],
      "top5_similarities": [
        0.7982,
        0.7933,
        0.7814,
        0.7707,
        0.7621
      ],
      "fact_recall": 1.0,
      "fact_hits": [
        "RELSPEC",
        "RELREC"
      ],
      "fact_misses": [],
      "answer_preview": "## RELSPEC Domain\n\n**RELSPEC** (Related Specimens) is a special-purpose domain used to represent **relationships between specimens**, enabling tracking of specimen lineage (e.g., parent specimen to derived aliquots or processed specimens). **[Source: model/06_relationship_datasets.md — 6.7 Related S",
      "usage": {
        "prompt_tokens": 13413,
        "completion_tokens": 1098,
        "total_tokens": 14511
      },
      "model": "deepseek/deepseek-chat",
      "elapsed_s": 9.3
    },
    {
      "id": "q34",
      "category": "cross_domain",
      "question": "Which SDTM domains share the controlled terminology codelist for NY (No Yes Response, C66742), and what variable typically uses this codelist in those domains?",
      "source_recall": 0.0,
      "source_hits": [],
      "source_misses": [
        "VARIABLE_INDEX.md"
      ],
      "top5_sources": [
        "chapters/ch04_general_assumptions.md",
        "chapters/ch04_general_assumptions.md",
        "domains/RELREC/spec.md",
        "domains/SV/spec.md",
        "domains/TM/spec.md"
      ],
      "top5_similarities": [
        0.6351,
        0.6157,
        0.6055,
        0.6017,
        0.593
      ],
      "fact_recall": 0.5,
      "fact_hits": [
        "C66742"
      ],
      "fact_misses": [
        "NY"
      ],
      "answer_preview": "Based on the provided context, the controlled terminology codelist **No Yes Response (C66742)** is referenced by the following SDTM domains and variables:\n\n| Domain | Variables Using C66742 |\n|--------|------------------------|\n| SV (Subject Visits) | SVPRESP, SVOCCUR, SVEPCHGI |\n| TM (Trial Disease",
      "usage": {
        "prompt_tokens": 10619,
        "completion_tokens": 372,
        "total_tokens": 10991
      },
      "model": "deepseek/deepseek-chat",
      "elapsed_s": 4.36
    },
    {
      "id": "q11",
      "category": "concept",
      "question": "What are the three observation classes in the SDTM model?",
      "source_recall": 1.0,
      "source_hits": [
        "model/02_observation_classes.md"
      ],
      "source_misses": [],
      "top5_sources": [
        "model/02_observation_classes.md",
        "model/01_concepts_and_terms.md",
        "terminology/supplementary/supplementary_part5.md",
        "chapters/ch04_general_assumptions.md",
        "model/05_study_level_data.md"
      ],
      "top5_similarities": [
        0.7205,
        0.5632,
        0.5473,
        0.5452,
        0.5433
      ],
      "fact_recall": 1.0,
      "fact_hits": [
        "Interventions",
        "Events",
        "Findings"
      ],
      "fact_misses": [],
      "answer_preview": "The three general observation classes in the SDTM model are **Interventions**, **Events**, and **Findings**. These classes are used to organize the majority of observations collected during a study, with each class sharing a common set of identifier and timing variables.\n\n**[Source: model/02_observa",
      "usage": {
        "prompt_tokens": 11900,
        "completion_tokens": 114,
        "total_tokens": 12014
      },
      "model": "deepseek/deepseek-chat",
      "elapsed_s": 2.08
    },
    {
      "id": "q12",
      "category": "concept",
      "question": "What do the Core designations Req, Exp, and Perm mean in SDTM?",
      "source_recall": 1.0,
      "source_hits": [
        "chapters/ch04"
      ],
      "source_misses": [],
      "top5_sources": [
        "chapters/ch04_general_assumptions.md",
        "domains/SUPPQUAL/spec.md",
        "domains/CO/spec.md",
        "terminology/supplementary/supplementary_part5.md",
        "domains/RELSPEC/assumptions.md"
      ],
      "top5_similarities": [
        0.6571,
        0.6055,
        0.5926,
        0.5856,
        0.5605
      ],
      "fact_recall": 1.0,
      "fact_hits": [
        "Required",
        "Expected",
        "Permissible"
      ],
      "fact_misses": [],
      "answer_preview": "## SDTM Core Designations\n\nThe SDTM defines three categories in the **Core** column of domain specification tables. These designations specify whether a variable must be included in a dataset and whether null values are permitted. The three categories are:\n\n### Req (Required)\n\n| Attribute | Rule |\n|",
      "usage": {
        "prompt_tokens": 12272,
        "completion_tokens": 709,
        "total_tokens": 12981
      },
      "model": "deepseek/deepseek-chat",
      "elapsed_s": 6.06
    },
    {
      "id": "q13",
      "category": "concept",
      "question": "What is the difference between Topic, Qualifier, and Identifier variable roles?",
      "source_recall": 1.0,
      "source_hits": [
        "model/01_concepts_and_terms.md"
      ],
      "source_misses": [],
      "top5_sources": [
        "chapters/ch04_general_assumptions.md",
        "domains/ML/assumptions.md",
        "VARIABLE_INDEX.md",
        "domains/RELREC/spec.md",
        "domains/DS/assumptions.md"
      ],
      "top5_similarities": [
        0.526,
        0.5227,
        0.5211,
        0.5129,
        0.5124
      ],
      "fact_recall": 1.0,
      "fact_hits": [
        "Topic",
        "Qualifier",
        "Identifier"
      ],
      "fact_misses": [],
      "answer_preview": "## Variable Roles: Identifier, Topic, and Qualifier\n\nBased on the SDTM conceptual model, these three variable roles serve distinct purposes in describing observations:\n\n### Identifier Variables\n- **Purpose**: Identify the study, subject, domain, and sequence number of the record\n- **Examples**: STUD",
      "usage": {
        "prompt_tokens": 10609,
        "completion_tokens": 894,
        "total_tokens": 11503
      },
      "model": "deepseek/deepseek-chat",
      "elapsed_s": 9.09
    },
    {
      "id": "q14",
      "category": "concept",
      "question": "How should a sponsor create a new custom domain in SDTM?",
      "source_recall": 1.0,
      "source_hits": [
        "chapters/ch02"
      ],
      "source_misses": [],
      "top5_sources": [
        "chapters/ch04_general_assumptions.md",
        "model/01_concepts_and_terms.md",
        "domains/CO/assumptions.md",
        "chapters/ch04_general_assumptions.md",
        "chapters/ch03_submitting_data.md"
      ],
      "top5_similarities": [
        0.6011,
        0.5033,
        0.5002,
        0.4946,
        0.4894
      ],
      "fact_recall": 1.0,
      "fact_hits": [
        "observation class"
      ],
      "fact_misses": [],
      "answer_preview": "Based on the provided context, a sponsor should follow these rules to create a new custom domain in SDTM:\n\n1.  **Use Reserved Prefixes**: To avoid conflicts with future CDISC-defined domain codes, use domain codes beginning with the letters **X, Y, or Z** for custom domains. Any letter or number may",
      "usage": {
        "prompt_tokens": 13588,
        "completion_tokens": 237,
        "total_tokens": 13825
      },
      "model": "deepseek/deepseek-chat",
      "elapsed_s": 2.81
    },
    {
      "id": "q15",
      "category": "concept",
      "question": "What are the three SDTM Core designation categories for variables, and what are the rules for handling a Permissible variable when a study did not collect the corresponding data item?",
      "source_recall": 1.0,
      "source_hits": [
        "chapters/ch04_general_assumptions.md"
      ],
      "source_misses": [],
      "top5_sources": [
        "chapters/ch04_general_assumptions.md",
        "model/01_concepts_and_terms.md",
        "model/01_concepts_and_terms.md",
        "chapters/ch04_general_assumptions.md",
        "chapters/ch01_introduction.md"
      ],
      "top5_similarities": [
        0.7806,
        0.6896,
        0.6426,
        0.6274,
        0.6228
      ],
      "fact_recall": 1.0,
      "fact_hits": [
        "Req",
        "Exp",
        "Perm"
      ],
      "fact_misses": [],
      "answer_preview": "## SDTM Core Designations\n\nThe three SDTM Core designation categories for variables are:\n\n1. **Required (Req)** — Must always be included in the dataset and cannot be null for any record. These are variables basic to the identification of a data record or necessary to make the record meaningful. **[",
      "usage": {
        "prompt_tokens": 14820,
        "completion_tokens": 348,
        "total_tokens": 15168
      },
      "model": "deepseek/deepseek-chat",
      "elapsed_s": 3.64
    },
    {
      "id": "q35",
      "category": "concept",
      "question": "What is Controlled Terminology (CT) in SDTM and how does it constrain the values that variables can contain?",
      "source_recall": 1.0,
      "source_hits": [
        "chapters/ch04"
      ],
      "source_misses": [],
      "top5_sources": [
        "chapters/ch04_general_assumptions.md",
        "chapters/ch04_general_assumptions.md",
        "chapters/ch04_general_assumptions.md",
        "domains/TS/assumptions.md",
        "model/01_concepts_and_terms.md"
      ],
      "top5_similarities": [
        0.6884,
        0.6771,
        0.6657,
        0.6237,
        0.6231
      ],
      "fact_recall": 1.0,
      "fact_hits": [
        "codelist",
        "Controlled Terms"
      ],
      "fact_misses": [],
      "answer_preview": "## Controlled Terminology (CT) in SDTM\n\n**Controlled Terminology (CT)** in SDTM is a set of standardized, permissible values for specific variables within a domain. It constrains what values can be populated in those variables, ensuring consistency across studies, sponsors, and regulatory submission",
      "usage": {
        "prompt_tokens": 11607,
        "completion_tokens": 679,
        "total_tokens": 12286
      },
      "model": "deepseek/deepseek-chat",
      "elapsed_s": 6.83
    },
    {
      "id": "q36",
      "category": "concept",
      "question": "What are the timing variables in SDTM (such as --DTC, --STDTC, --ENDTC) and how are they structured across domains?",
      "source_recall": 1.0,
      "source_hits": [
        "chapters/ch04"
      ],
      "source_misses": [],
      "top5_sources": [
        "domains/DS/assumptions.md",
        "model/01_concepts_and_terms.md",
        "chapters/ch04_general_assumptions.md",
        "domains/BE/assumptions.md",
        "domains/DM/assumptions.md"
      ],
      "top5_similarities": [
        0.7121,
        0.7001,
        0.6668,
        0.6647,
        0.6601
      ],
      "fact_recall": 1.0,
      "fact_hits": [
        "DTC",
        "STDTC",
        "ENDTC",
        "Timing"
      ],
      "fact_misses": [],
      "answer_preview": "## SDTM Timing Variables: Structure and Usage Across Domains\n\n### 1. Overview\n\nThe SDTM defines a comprehensive set of timing variables available across all three general observation classes (Interventions, Events, Findings), plus special-purpose domains. These variables describe **when** an observa",
      "usage": {
        "prompt_tokens": 13433,
        "completion_tokens": 1938,
        "total_tokens": 15371
      },
      "model": "deepseek/deepseek-chat",
      "elapsed_s": 16.46
    },
    {
      "id": "q37",
      "category": "concept",
      "question": "What are the Special-Purpose datasets in SDTM and which domains fall into this category?",
      "source_recall": 0.0,
      "source_hits": [],
      "source_misses": [
        "model/04_special_purpose.md"
      ],
      "top5_sources": [
        "model/01_concepts_and_terms.md",
        "chapters/ch04_general_assumptions.md",
        "model/02_observation_classes.md",
        "model/03_special_purpose_domains.md",
        "model/06_relationship_datasets.md"
      ],
      "top5_similarities": [
        0.666,
        0.6636,
        0.6624,
        0.657,
        0.657
      ],
      "fact_recall": 1.0,
      "fact_hits": [
        "Special-Purpose",
        "DM",
        "CO",
        "SUPPQUAL"
      ],
      "fact_misses": [],
      "answer_preview": "Based on the SDTM knowledge base, **Special-Purpose datasets** are a category of SDTM datasets that exist in addition to the three General Observation Classes (Interventions, Events, Findings). They have specific standardized structures designed to represent additional important information that doe",
      "usage": {
        "prompt_tokens": 13557,
        "completion_tokens": 536,
        "total_tokens": 14093
      },
      "model": "deepseek/deepseek-chat",
      "elapsed_s": 5.7
    },
    {
      "id": "q38",
      "category": "concept",
      "question": "How are SDTM domain abbreviation codes assigned? What are the rules for the two-character domain code?",
      "source_recall": 0.0,
      "source_hits": [],
      "source_misses": [
        "chapters/ch02"
      ],
      "top5_sources": [
        "chapters/ch04_general_assumptions.md",
        "domains/TM/spec.md",
        "chapters/ch04_general_assumptions.md",
        "domains/SV/spec.md",
        "domains/DA/spec.md"
      ],
      "top5_similarities": [
        0.6971,
        0.6852,
        0.6759,
        0.6703,
        0.6691
      ],
      "fact_recall": 1.0,
      "fact_hits": [
        "two-character",
        "DOMAIN"
      ],
      "fact_misses": [],
      "answer_preview": "Based on the retrieved context, SDTM domain abbreviation codes are two-character identifiers assigned to each dataset. The rules are as follows:\n\n- **Format**: The two-character domain code is limited to ASCII letters A-Z for the first character, and A-Z or 0-9 for the second character. No other cha",
      "usage": {
        "prompt_tokens": 9464,
        "completion_tokens": 424,
        "total_tokens": 9888
      },
      "model": "deepseek/deepseek-chat",
      "elapsed_s": 4.91
    },
    {
      "id": "q39",
      "category": "concept",
      "question": "What is the Findings About observation class and how does it differ from the standard Findings class?",
      "source_recall": 0.0,
      "source_hits": [],
      "source_misses": [
        "model/02_observation_classes.md"
      ],
      "top5_sources": [
        "domains/CP/spec.md",
        "domains/DA/spec.md",
        "domains/DD/spec.md",
        "domains/EG/spec.md",
        "domains/FT/spec.md"
      ],
      "top5_similarities": [
        0.7123,
        0.7123,
        0.7123,
        0.7123,
        0.7123
      ],
      "fact_recall": 0.5,
      "fact_hits": [
        "Findings About"
      ],
      "fact_misses": [
        "FAOBJ"
      ],
      "answer_preview": "# Findings About Observation Class vs. Standard Findings Class\n\nBased on the retrieved context, the **current knowledge base content only provides references to the Findings class definition** (via `model/02_observation_classes.md`), but **does not contain the actual text of that definition**, nor d",
      "usage": {
        "prompt_tokens": 8298,
        "completion_tokens": 433,
        "total_tokens": 8731
      },
      "model": "deepseek/deepseek-chat",
      "elapsed_s": 5.29
    },
    {
      "id": "q40",
      "category": "concept",
      "question": "What is the difference between collected data and derived data in SDTM, and how is the origin of a variable value indicated?",
      "source_recall": 1.0,
      "source_hits": [
        "chapters/ch04"
      ],
      "source_misses": [],
      "top5_sources": [
        "domains/LB/assumptions.md",
        "chapters/ch04_general_assumptions.md",
        "model/01_concepts_and_terms.md",
        "model/01_concepts_and_terms.md",
        "model/05_study_level_data.md"
      ],
      "top5_similarities": [
        0.6417,
        0.641,
        0.6331,
        0.6181,
        0.6092
      ],
      "fact_recall": 1.0,
      "fact_hits": [
        "Collected",
        "Derived",
        "Origin"
      ],
      "fact_misses": [],
      "answer_preview": "## Collected vs. Derived Data in SDTM\n\n### Definition and Key Difference\n\n**Collected data** are values obtained directly from a data source (e.g., CRF, vendor, device) without transformation. **Derived data** are values created through computation, algorithm, or logical rules applied to other data.",
      "usage": {
        "prompt_tokens": 13847,
        "completion_tokens": 613,
        "total_tokens": 14460
      },
      "model": "deepseek/deepseek-chat",
      "elapsed_s": 6.9
    },
    {
      "id": "q41",
      "category": "concept",
      "question": "What are the Trial Design Model datasets in SDTM and what kind of study-level information do they capture?",
      "source_recall": 1.0,
      "source_hits": [
        "model/05_study_level_data.md"
      ],
      "source_misses": [],
      "top5_sources": [
        "model/05_study_level_data.md",
        "domains/TA/spec.md",
        "domains/TD/spec.md",
        "domains/TE/spec.md",
        "domains/TI/spec.md"
      ],
      "top5_similarities": [
        0.8164,
        0.6611,
        0.6611,
        0.6611,
        0.6611
      ],
      "fact_recall": 1.0,
      "fact_hits": [
        "Trial Design",
        "TA",
        "TE",
        "TV"
      ],
      "fact_misses": [],
      "answer_preview": "## Trial Design Model Datasets in SDTM\n\nThe SDTM includes **2 types of study-level data**: trial design data and study reference data **[Source: model/05_study_level_data.md]**.\n\nThe **Trial Design Model (TDM)** datasets are a standardized way to describe the planned conduct of a clinical trial, cor",
      "usage": {
        "prompt_tokens": 11220,
        "completion_tokens": 1042,
        "total_tokens": 12262
      },
      "model": "deepseek/deepseek-chat",
      "elapsed_s": 11.57
    },
    {
      "id": "q16",
      "category": "mixed",
      "question": "What values are allowed for AESEV and what is its codelist code?",
      "source_recall": 0.5,
      "source_hits": [
        "domains/AE/spec.md"
      ],
      "source_misses": [
        "terminology/core/ae.md"
      ],
      "top5_sources": [
        "domains/AE/assumptions.md",
        "domains/AE/spec.md",
        "domains/AE/assumptions.md",
        "domains/AE/spec.md",
        "terminology/supplementary/supplementary_part1.md"
      ],
      "top5_similarities": [
        0.6134,
        0.602,
        0.54,
        0.532,
        0.5192
      ],
      "fact_recall": 1.0,
      "fact_hits": [
        "C66769",
        "MILD",
        "MODERATE",
        "SEVERE"
      ],
      "fact_misses": [],
      "answer_preview": "Based on the retrieved context, **AESEV** (Severity/Intensity) allows the following:\n\n- **Codelist Code:** C66769\n- **Controlled Terms:** The codelist is **Severity/Intensity Scale for Adverse Events (C66769)**\n- **Allowed values (examples):** \"MILD\", \"MODERATE\", \"SEVERE\"\n- **Extensible:** Not expli",
      "usage": {
        "prompt_tokens": 9729,
        "completion_tokens": 226,
        "total_tokens": 9955
      },
      "model": "deepseek/deepseek-chat",
      "elapsed_s": 2.86
    },
    {
      "id": "q17",
      "category": "mixed",
      "question": "How are date and time variables formatted in SDTM and what suffix do they use?",
      "source_recall": 1.0,
      "source_hits": [
        "chapters/ch04"
      ],
      "source_misses": [],
      "top5_sources": [
        "chapters/ch04_general_assumptions.md",
        "domains/VS/spec.md",
        "chapters/ch04_general_assumptions.md",
        "model/01_concepts_and_terms.md",
        "model/01_concepts_and_terms.md"
      ],
      "top5_similarities": [
        0.763,
        0.6402,
        0.6209,
        0.6154,
        0.6139
      ],
      "fact_recall": 1.0,
      "fact_hits": [
        "ISO 8601",
        "DTC"
      ],
      "fact_misses": [],
      "answer_preview": "Based on the knowledge base provided, date and time variables in SDTM are formatted according to the **ISO 8601 standard** and use the **DTC** suffix.\n\n## Format\n\nSDTM date/time variables are formatted using the **ISO 8601 extended format** as **character (Char)** data types. The general pattern is:",
      "usage": {
        "prompt_tokens": 13706,
        "completion_tokens": 639,
        "total_tokens": 14345
      },
      "model": "deepseek/deepseek-chat",
      "elapsed_s": 6.55
    },
    {
      "id": "q18",
      "category": "mixed",
      "question": "Explain the MedDRA coding chain for adverse events from verbatim term to dictionary term.",
      "source_recall": 1.0,
      "source_hits": [
        "domains/AE/spec.md",
        "domains/AE/assumptions.md"
      ],
      "source_misses": [],
      "top5_sources": [
        "chapters/ch04_general_assumptions.md",
        "domains/MH/assumptions.md",
        "domains/AE/assumptions.md",
        "terminology/core/trial_design.md",
        "domains/AE/spec.md"
      ],
      "top5_similarities": [
        0.6726,
        0.6303,
        0.6289,
        0.6197,
        0.6135
      ],
      "fact_recall": 1.0,
      "fact_hits": [
        "AETERM",
        "AEMODIFY",
        "AEDECOD",
        "Preferred Term"
      ],
      "fact_misses": [],
      "answer_preview": "## MedDRA Coding Chain for Adverse Events (AE domain)\n\nThe MedDRA coding hierarchy for adverse events in SDTM follows a multi-level chain from the verbatim collected term through progressively standardized levels to the MedDRA hierarchy terms. Here is the complete chain:\n\n---\n\n### Level 1: Verbatim ",
      "usage": {
        "prompt_tokens": 13865,
        "completion_tokens": 1707,
        "total_tokens": 15572
      },
      "model": "deepseek/deepseek-chat",
      "elapsed_s": 15.36
    },
    {
      "id": "q19",
      "category": "mixed",
      "question": "What controlled terminology codelist is used for DSDECOD when DSCAT equals 'DISPOSITION EVENT', and list specific CDISC Submission Values from that codelist for reasons of non-completion.",
      "source_recall": 1.0,
      "source_hits": [
        "domains/DS/assumptions.md",
        "terminology/core/disposition.md"
      ],
      "source_misses": [],
      "top5_sources": [
        "domains/DS/spec.md",
        "domains/DS/assumptions.md",
        "domains/DS/spec.md",
        "domains/DS/assumptions.md",
        "domains/DS/spec.md"
      ],
      "top5_similarities": [
        0.8036,
        0.7554,
        0.7248,
        0.7186,
        0.7037
      ],
      "fact_recall": 0.5,
      "fact_hits": [
        "C66727"
      ],
      "fact_misses": [
        "NCOMPLT"
      ],
      "answer_preview": "Based on the provided context, when `DSCAT` equals \"DISPOSITION EVENT\", the `DSDECOD` variable uses the **\"Completion/Reason for Non-Completion\"** codelist (C66727) [Source: domains/DS/spec.md — DSDECOD; domains/DS/assumptions.md — item_3b].\n\nThis codelist includes the following specific CDISC Submi",
      "usage": {
        "prompt_tokens": 10644,
        "completion_tokens": 346,
        "total_tokens": 10990
      },
      "model": "deepseek/deepseek-chat",
      "elapsed_s": 3.79
    },
    {
      "id": "q20",
      "category": "mixed",
      "question": "In the DM domain, what is the difference between the RFSTDTC/RFENDTC reference period pair and the RFXSTDTC/RFXENDTC pair, and under what circumstances will RFSTDTC be null?",
      "source_recall": 1.0,
      "source_hits": [
        "domains/DM/assumptions.md",
        "domains/DM/spec.md"
      ],
      "source_misses": [],
      "top5_sources": [
        "domains/DM/assumptions.md",
        "domains/DM/assumptions.md",
        "domains/DM/spec.md",
        "domains/DM/spec.md",
        "domains/DM/assumptions.md"
      ],
      "top5_similarities": [
        0.6645,
        0.6585,
        0.624,
        0.5839,
        0.5808
      ],
      "fact_recall": 1.0,
      "fact_hits": [
        "sponsor-defined",
        "screen failure"
      ],
      "fact_misses": [],
      "answer_preview": "## Difference Between RFSTDTC/RFENDTC and RFXSTDTC/RFXENDTC\n\n**RFSTDTC/RFENDTC (Subject Reference Period)** — Sponsor-defined pair:\n- **RFSTDTC**: Subject Reference Start Date/Time. Usually represents the date/time when the subject was first exposed to study treatment, but is open to customization b",
      "usage": {
        "prompt_tokens": 10500,
        "completion_tokens": 878,
        "total_tokens": 11378
      },
      "model": "deepseek/deepseek-chat",
      "elapsed_s": 8.4
    },
    {
      "id": "q42",
      "category": "mixed",
      "question": "In the LB domain, how are normal ranges represented using LBORNRLO and LBORNRHI, and what is the LBNRIND variable used for?",
      "source_recall": 1.0,
      "source_hits": [
        "domains/LB/spec.md",
        "domains/LB/assumptions.md"
      ],
      "source_misses": [],
      "top5_sources": [
        "domains/LB/spec.md",
        "domains/LB/assumptions.md",
        "domains/LB/assumptions.md",
        "domains/LB/spec.md",
        "domains/LB/spec.md"
      ],
      "top5_similarities": [
        0.7713,
        0.764,
        0.7123,
        0.6935,
        0.6933
      ],
      "fact_recall": 1.0,
      "fact_hits": [
        "LBORNRLO",
        "LBORNRHI",
        "LBNRIND"
      ],
      "fact_misses": [],
      "answer_preview": "Based on the retrieved context from the SDTMIG v3.4 knowledge base:\n\nIn the **LB** (Laboratory Test Results) domain:\n\n### 1. LBORNRLO and LBORNRHI — Reference Range in Original Units\n\n- **LBORNRLO** (Order: 20): **Reference Range Lower Limit in Orig Unit**. Type: Char, Role: Variable Qualifier, Core",
      "usage": {
        "prompt_tokens": 10728,
        "completion_tokens": 652,
        "total_tokens": 11380
      },
      "model": "deepseek/deepseek-chat",
      "elapsed_s": 5.53
    },
    {
      "id": "q43",
      "category": "mixed",
      "question": "What is the controlled terminology codelist for the SEX variable in the DM domain? Provide the codelist code and describe the Core designation.",
      "source_recall": 1.0,
      "source_hits": [
        "domains/DM/spec.md"
      ],
      "source_misses": [],
      "top5_sources": [
        "domains/DM/spec.md",
        "domains/DS/spec.md",
        "domains/RELREC/spec.md",
        "chapters/ch04_general_assumptions.md",
        "domains/DM/spec.md"
      ],
      "top5_similarities": [
        0.6578,
        0.6522,
        0.6346,
        0.633,
        0.6311
      ],
      "fact_recall": 1.0,
      "fact_hits": [
        "SEX",
        "C66731",
        "Req"
      ],
      "fact_misses": [],
      "answer_preview": "## SEX Controlled Terminology in DM Domain\n\n### Controlled Terminology Codelist\n\nThe SEX variable in the DM domain uses the **C66731** codelist (CDISC \"Sex\" codelist). **[Source: domains/DM/spec.md, SEX variable]**\n\nThe reference is confirmed in the DM Controlled Terminology section, which lists:\n- ",
      "usage": {
        "prompt_tokens": 9608,
        "completion_tokens": 424,
        "total_tokens": 10032
      },
      "model": "deepseek/deepseek-chat",
      "elapsed_s": 4.81
    },
    {
      "id": "q44",
      "category": "mixed",
      "question": "In the VS domain, what is the controlled terminology codelist code for VSTESTCD, and give examples of standard vital signs test codes like systolic and diastolic blood pressure.",
      "source_recall": 1.0,
      "source_hits": [
        "domains/VS/spec.md"
      ],
      "source_misses": [],
      "top5_sources": [
        "domains/VS/spec.md",
        "domains/VS/assumptions.md",
        "domains/VS/spec.md",
        "domains/CV/spec.md",
        "domains/VS/spec.md"
      ],
      "top5_similarities": [
        0.7284,
        0.687,
        0.6737,
        0.6367,
        0.6183
      ],
      "fact_recall": 1.0,
      "fact_hits": [
        "C66741",
        "SYSBP",
        "DIABP"
      ],
      "fact_misses": [],
      "answer_preview": "Based on the provided context:\n\n**VSTESTCD** uses the controlled terminology codelist code **C66741** (Vital Signs Test Code).\n\nFor examples of standard vital signs test codes:\n\n- **SYSBP** — Systolic Blood Pressure\n- **DIABP** — Diastolic Blood Pressure\n- **BMI** — Body Mass Index\n\nThe variable spe",
      "usage": {
        "prompt_tokens": 10274,
        "completion_tokens": 244,
        "total_tokens": 10518
      },
      "model": "deepseek/deepseek-chat",
      "elapsed_s": 2.56
    },
    {
      "id": "q45",
      "category": "mixed",
      "question": "What is the RACE variable in the DM domain, what codelist does it use, and what is its Core designation?",
      "source_recall": 1.0,
      "source_hits": [
        "domains/DM/spec.md"
      ],
      "source_misses": [],
      "top5_sources": [
        "domains/DM/spec.md",
        "domains/DM/assumptions.md",
        "domains/DM/examples.md",
        "domains/DM/examples.md",
        "domains/CO/spec.md"
      ],
      "top5_similarities": [
        0.6135,
        0.6038,
        0.5707,
        0.5662,
        0.5643
      ],
      "fact_recall": 1.0,
      "fact_hits": [
        "RACE",
        "C74457",
        "Exp"
      ],
      "fact_misses": [],
      "answer_preview": "## RACE Variable in the DM Domain\n\nBased on the SDTM knowledge base, here are the details for the RACE variable in the Demographics (DM) domain:\n\n### Variable Definition\n\n| Attribute | Value |\n|-----------|-------|\n| **Variable Name** | RACE |\n| **Label** | Race |\n| **Type** | Char (Character) |\n| *",
      "usage": {
        "prompt_tokens": 12923,
        "completion_tokens": 503,
        "total_tokens": 13426
      },
      "model": "deepseek/deepseek-chat",
      "elapsed_s": 5.16
    },
    {
      "id": "q46",
      "category": "mixed",
      "question": "What is the AEOUT (Outcome of Adverse Event) variable in the AE domain and what controlled terminology codelist code does it use?",
      "source_recall": 1.0,
      "source_hits": [
        "domains/AE/spec.md"
      ],
      "source_misses": [],
      "top5_sources": [
        "domains/AE/spec.md",
        "domains/AE/assumptions.md",
        "domains/AE/spec.md",
        "domains/AE/spec.md",
        "domains/AE/spec.md"
      ],
      "top5_similarities": [
        0.7992,
        0.7025,
        0.6582,
        0.628,
        0.6235
      ],
      "fact_recall": 1.0,
      "fact_hits": [
        "AEOUT",
        "C66768",
        "Perm"
      ],
      "fact_misses": [],
      "answer_preview": "## AEOUT — Outcome of Adverse Event\n\n**Definition:**\nAEOUT is a **Permissible (Perm)** variable in the **AE (Adverse Events)** domain that describes the outcome of an adverse event. It serves as a **Record Qualifier**.\n\n**Variable Specification:**\n\n| Attribute | Value |\n|-----------|-------|\n| **Lab",
      "usage": {
        "prompt_tokens": 11436,
        "completion_tokens": 237,
        "total_tokens": 11673
      },
      "model": "deepseek/deepseek-chat",
      "elapsed_s": 2.68
    },
    {
      "id": "q47",
      "category": "mixed",
      "question": "How do QS (Questionnaires) domains handle instrument-specific variables using QSCAT, and what role does QSTESTCD play in organizing question-level data?",
      "source_recall": 1.0,
      "source_hits": [
        "domains/QS/spec.md",
        "domains/QS/assumptions.md"
      ],
      "source_misses": [],
      "top5_sources": [
        "domains/QS/spec.md",
        "chapters/ch04_general_assumptions.md",
        "domains/SUPPQUAL/examples.md",
        "domains/FT/assumptions.md",
        "domains/QS/assumptions.md"
      ],
      "top5_similarities": [
        0.6923,
        0.6635,
        0.6612,
        0.6505,
        0.6505
      ],
      "fact_recall": 1.0,
      "fact_hits": [
        "QSTESTCD",
        "QSCAT",
        "Topic"
      ],
      "fact_misses": [],
      "answer_preview": "## QS Domain: QSCAT and QSTESTCD Roles\n\n### QSCAT — Instrument-Level Organization\n\n**QSCAT** (Category of Question) serves as the **Grouping Qualifier (Req)** that identifies the specific questionnaire instrument within the QS domain. It has the following characteristics:\n\n- **Label:** Category of Q",
      "usage": {
        "prompt_tokens": 12695,
        "completion_tokens": 1073,
        "total_tokens": 13768
      },
      "model": "deepseek/deepseek-chat",
      "elapsed_s": 9.64
    },
    {
      "id": "q48",
      "category": "mixed",
      "question": "What is the FATESTCD variable's controlled terminology codelist code in the FA domain, and give examples of standard FA test codes?",
      "source_recall": 1.0,
      "source_hits": [
        "domains/FA/spec.md"
      ],
      "source_misses": [],
      "top5_sources": [
        "domains/FA/spec.md",
        "domains/FA/spec.md",
        "domains/FT/spec.md",
        "domains/FA/assumptions.md",
        "domains/FA/spec.md"
      ],
      "top5_similarities": [
        0.678,
        0.6766,
        0.6573,
        0.6327,
        0.6314
      ],
      "fact_recall": 1.0,
      "fact_hits": [
        "FATESTCD",
        "C101832"
      ],
      "fact_misses": [],
      "answer_preview": "Based on the provided context, the FATESTCD variable in the FA (Findings About) domain has the following controlled terminology:\n\n**Controlled Terminology Codelist Code:** C101832 (Findings About Test Code)\n\n**[Source: domains/FA/spec.md -- FATESTCD]**\n\n**Examples of standard FA test codes include:*",
      "usage": {
        "prompt_tokens": 10201,
        "completion_tokens": 174,
        "total_tokens": 10375
      },
      "model": "deepseek/deepseek-chat",
      "elapsed_s": 2.39
    },
    {
      "id": "s01",
      "category": "single_domain",
      "question": "In the DM domain, what is the controlled terminology codelist code for the SEX variable, and what are its four permitted submission values?",
      "source_recall": 1.0,
      "source_hits": [
        "terminology/core/dm.md",
        "domains/DM/spec.md"
      ],
      "source_misses": [],
      "top5_sources": [
        "domains/DM/spec.md",
        "chapters/ch04_general_assumptions.md",
        "terminology/supplementary/supplementary_part5.md",
        "terminology/core/dm.md",
        "domains/DM/spec.md"
      ],
      "top5_similarities": [
        0.6528,
        0.5936,
        0.5929,
        0.5864,
        0.5862
      ],
      "fact_recall": 1.0,
      "fact_hits": [
        "C66731",
        "F",
        "M",
        "U",
        "UNDIFFERENTIATED"
      ],
      "fact_misses": [],
      "answer_preview": "Based on the retrieved context, the controlled terminology codelist code for the **SEX** variable in the DM domain is **C66731** **[Source: domains/DM/spec.md -- SEX]**. The codelist is non-extensible.\n\nThe four permitted submission values for this codelist (C66731) are **[Source: terminology/core/d",
      "usage": {
        "prompt_tokens": 10075,
        "completion_tokens": 118,
        "total_tokens": 10193
      },
      "model": "deepseek/deepseek-chat",
      "elapsed_s": 1.65
    },
    {
      "id": "s02",
      "category": "concept",
      "question": "What is the SUPPQUAL variable QNAM and what character constraints apply to it? What is the maximum length and what characters are allowed?",
      "source_recall": 1.0,
      "source_hits": [
        "domains/SUPPQUAL/spec.md",
        "model/06_relationship_datasets.md"
      ],
      "source_misses": [],
      "top5_sources": [
        "chapters/ch08_relationships.md",
        "domains/SUPPQUAL/spec.md",
        "chapters/ch08_relationships.md",
        "VARIABLE_INDEX.md",
        "domains/SUPPQUAL/spec.md"
      ],
      "top5_similarities": [
        0.6731,
        0.6726,
        0.6558,
        0.6533,
        0.6267
      ],
      "fact_recall": 0.6,
      "fact_hits": [
        "QNAM",
        "8 characters",
        "Qualifier Variable Name"
      ],
      "fact_misses": [
        "letters, numbers, or underscores",
        "cannot start with a number"
      ],
      "answer_preview": "## SUPPQUAL — QNAM Variable Definition\n\n### Specification\n\n- **Label:** Qualifier Variable Name\n- **Type:** Char\n- **Role:** Topic\n- **Core:** Required\n- **Controlled Terms:** None (sponsor-defined, though Appendix C1 provides suggested values for common supplemental qualifiers)\n\n**[Source: domains/",
      "usage": {
        "prompt_tokens": 15662,
        "completion_tokens": 498,
        "total_tokens": 16160
      },
      "model": "deepseek/deepseek-chat",
      "elapsed_s": 5.93
    },
    {
      "id": "s03",
      "category": "cross_domain",
      "question": "The DM variable RFXSTDTC is defined as equal to the earliest value of which variable in the EX domain? Similarly, RFXENDTC is equal to the latest value of which EX variable (or which fallback variable if that is not collected)?",
      "source_recall": 1.0,
      "source_hits": [
        "domains/DM/spec.md",
        "domains/EX/spec.md"
      ],
      "source_misses": [],
      "top5_sources": [
        "domains/DM/assumptions.md",
        "domains/DM/spec.md",
        "domains/DM/assumptions.md",
        "domains/DM/spec.md",
        "domains/DM/assumptions.md"
      ],
      "top5_similarities": [
        0.6708,
        0.6568,
        0.6371,
        0.6269,
        0.5943
      ],
      "fact_recall": 1.0,
      "fact_hits": [
        "EXSTDTC",
        "RFXSTDTC",
        "EXENDTC",
        "RFXENDTC",
        "earliest",
        "latest"
      ],
      "fact_misses": [],
      "answer_preview": "Based on the retrieved context:\n\n**RFXSTDTC** is defined as equal to the earliest value of **EXSTDTC** in the EX domain.\n\n**RFXENDTC** is defined as equal to the latest value of **EXENDTC** in the EX domain. If EXENDTC was not collected or is missing, the fallback is the latest value of **EXSTDTC**.",
      "usage": {
        "prompt_tokens": 10690,
        "completion_tokens": 194,
        "total_tokens": 10884
      },
      "model": "deepseek/deepseek-chat",
      "elapsed_s": 2.45
    },
    {
      "id": "s04",
      "category": "mixed",
      "question": "In the AE domain, what is the controlled terminology codelist code for the AEACN (Action Taken with Study Treatment) variable, and what ICH E2B example values does the CDISC Notes field list for this variable?",
      "source_recall": 0.5,
      "source_hits": [
        "domains/AE/spec.md"
      ],
      "source_misses": [
        "terminology/core/ae.md"
      ],
      "top5_sources": [
        "domains/AE/spec.md",
        "domains/AE/assumptions.md",
        "domains/AE/spec.md",
        "domains/AE/assumptions.md",
        "domains/AE/spec.md"
      ],
      "top5_similarities": [
        0.7623,
        0.6843,
        0.681,
        0.676,
        0.6686
      ],
      "fact_recall": 1.0,
      "fact_hits": [
        "C66767",
        "DRUG WITHDRAWN",
        "DOSE REDUCED",
        "DOSE INCREASED",
        "DOSE NOT CHANGED",
        "UNKNOWN",
        "NOT APPLICABLE"
      ],
      "fact_misses": [],
      "answer_preview": "Based on the retrieved context, the controlled terminology codelist code for the AEACN variable is **C66767**. The CDISC Notes field lists the following ICH E2B example values: \"DRUG WITHDRAWN\", \"DOSE REDUCED\", \"DOSE INCREASED\", \"DOSE NOT CHANGED\", \"UNKNOWN\", and \"NOT APPLICABLE\".\n\n**[Source: domain",
      "usage": {
        "prompt_tokens": 9931,
        "completion_tokens": 97,
        "total_tokens": 10028
      },
      "model": "deepseek/deepseek-chat",
      "elapsed_s": 1.94
    },
    {
      "id": "s05",
      "category": "single_domain",
      "question": "In the VS domain, what is the controlled terminology codelist code for the VSTESTCD variable? Name the codelist, state whether it is extensible, and give three example TESTCD values listed for blood pressure and heart rate.",
      "source_recall": 0.5,
      "source_hits": [
        "domains/VS/spec.md"
      ],
      "source_misses": [
        "terminology/core/vs.md"
      ],
      "top5_sources": [
        "domains/VS/assumptions.md",
        "domains/VS/spec.md",
        "domains/VS/spec.md",
        "domains/VS/spec.md",
        "domains/CV/spec.md"
      ],
      "top5_similarities": [
        0.6774,
        0.6639,
        0.6597,
        0.6488,
        0.6393
      ],
      "fact_recall": 0.8333,
      "fact_hits": [
        "C66741",
        "Vital Signs Test Code",
        "SYSBP",
        "DIABP",
        "HR"
      ],
      "fact_misses": [
        "Extensible: Yes"
      ],
      "answer_preview": "Based on the SDTMIG v3.4 knowledge base, the controlled terminology codelist code for the VSTESTCD variable in the VS domain is **C66741**, named **Vital Signs Test Code**. This codelist is **not extensible** (i.e., non-extensible), meaning only terms defined by CDISC may be used.\n\nThree example val",
      "usage": {
        "prompt_tokens": 10527,
        "completion_tokens": 167,
        "total_tokens": 10694
      },
      "model": "deepseek/deepseek-chat",
      "elapsed_s": 2.14
    }
  ],
  "tag": "deepseek"
}