{
  "summary": {
    "n_questions": 20,
    "source_recall_avg": 0.85,
    "source_recall_by_category": {
      "concept": 1.0,
      "cross_domain": 0.5,
      "mixed": 0.9,
      "single_domain": 1.0
    },
    "fact_recall_avg": 1.0,
    "overall": 0.925,
    "total_tokens": 318022,
    "threshold": 0.8,
    "verdict": "PASS"
  },
  "results": [
    {
      "id": "q01",
      "category": "single_domain",
      "question": "What is AETERM and what are its variable attributes in the AE domain?",
      "source_recall": 1.0,
      "source_hits": [
        "domains/AE/spec.md"
      ],
      "source_misses": [],
      "top5_sources": [
        "domains/AE/assumptions.md",
        "domains/AE/assumptions.md",
        "domains/AE/spec.md",
        "domains/AE/assumptions.md",
        "domains/AE/spec.md"
      ],
      "top5_similarities": [
        0.6641,
        0.6105,
        0.5884,
        0.579,
        0.5778
      ],
      "fact_recall": 1.0,
      "fact_hits": [
        "Topic",
        "Char",
        "Req",
        "Verbatim"
      ],
      "fact_misses": [],
      "answer_preview": "## AETERM — Reported Term for the Adverse Event\n\n### Variable Attributes\n\n| Attribute | Value |\n|-----------|-------|\n| **Order** | 9 |\n| **Label** | Reported Term for the Adverse Event |\n| **Type** | Char |\n| **Role** | Topic |\n| **Core** | Req (Required) |\n| **Controlled Terms** | *(none — free te",
      "usage": {
        "prompt_tokens": 12265,
        "completion_tokens": 601,
        "total_tokens": 12866
      },
      "model": "claude-sonnet-4-6",
      "elapsed_s": 12.69
    },
    {
      "id": "q02",
      "category": "single_domain",
      "question": "What are the required (Core=Req) variables in the DM domain?",
      "source_recall": 1.0,
      "source_hits": [
        "domains/DM/spec.md"
      ],
      "source_misses": [],
      "top5_sources": [
        "domains/DM/assumptions.md",
        "chapters/ch04_general_assumptions.md",
        "chapters/ch04_general_assumptions.md",
        "model/01_concepts_and_terms.md",
        "domains/TM/spec.md"
      ],
      "top5_similarities": [
        0.6081,
        0.5671,
        0.5064,
        0.5049,
        0.4935
      ],
      "fact_recall": 1.0,
      "fact_hits": [
        "STUDYID",
        "USUBJID",
        "RFSTDTC",
        "AGE",
        "SEX",
        "ARM"
      ],
      "fact_misses": [],
      "answer_preview": "# Required (Core=Req) Variables in the DM Domain\n\nBased on the DM domain specification, the following variables have **Core = Req**:\n\n**[Source: domains/DM/spec.md]**\n\n| Order | Variable | Label | Type | Role |\n|-------|----------|-------|------|------|\n| 1 | **STUDYID** | Study Identifier | Char | ",
      "usage": {
        "prompt_tokens": 12755,
        "completion_tokens": 708,
        "total_tokens": 13463
      },
      "model": "claude-sonnet-4-6",
      "elapsed_s": 12.62
    },
    {
      "id": "q03",
      "category": "single_domain",
      "question": "What are the key assumptions for adverse event data collection and coding?",
      "source_recall": 1.0,
      "source_hits": [
        "domains/AE/assumptions.md"
      ],
      "source_misses": [],
      "top5_sources": [
        "domains/AE/assumptions.md",
        "domains/AE/assumptions.md",
        "domains/AE/assumptions.md",
        "domains/AE/assumptions.md",
        "domains/CE/assumptions.md"
      ],
      "top5_similarities": [
        0.5919,
        0.5755,
        0.5716,
        0.5608,
        0.5364
      ],
      "fact_recall": 1.0,
      "fact_hits": [
        "AETERM",
        "MedDRA",
        "AEDECOD"
      ],
      "fact_misses": [],
      "answer_preview": "# Key Assumptions for Adverse Event Data Collection and Coding\n\n## 1. Scope and Definition\n\nThe AE dataset captures \"any untoward medical occurrence in a patient or clinical investigation subject administered a pharmaceutical product and which does not necessarily have a causal relationship with thi",
      "usage": {
        "prompt_tokens": 19335,
        "completion_tokens": 1346,
        "total_tokens": 20681
      },
      "model": "claude-sonnet-4-6",
      "elapsed_s": 30.06
    },
    {
      "id": "q04",
      "category": "single_domain",
      "question": "What is the purpose of the TV (Trial Visits) domain and what variables does it contain?",
      "source_recall": 1.0,
      "source_hits": [
        "domains/TV/spec.md"
      ],
      "source_misses": [],
      "top5_sources": [
        "domains/SV/assumptions.md",
        "VARIABLE_INDEX.md",
        "domains/TV/examples.md",
        "domains/TV/assumptions.md",
        "domains/TA/spec.md"
      ],
      "top5_similarities": [
        0.6873,
        0.6708,
        0.6648,
        0.6384,
        0.6357
      ],
      "fact_recall": 1.0,
      "fact_hits": [
        "VISITNUM",
        "VISIT"
      ],
      "fact_misses": [],
      "answer_preview": "# TV (Trial Visits) Domain\n\n## Purpose\n\nThe TV domain is a **Trial Design dataset** that defines the **planned visits** for a clinical trial. It serves as the reference standard against which actual subject visits (captured in SV) can be compared.\n\nSpecifically, TV describes:\n- The protocol-defined ",
      "usage": {
        "prompt_tokens": 13403,
        "completion_tokens": 896,
        "total_tokens": 14299
      },
      "model": "claude-sonnet-4-6",
      "elapsed_s": 20.62
    },
    {
      "id": "q05",
      "category": "single_domain",
      "question": "In the PE (Physical Examination) domain, what is the structure of the dataset, what is the role of the PETESTCD variable, and what value should PETESTCD have when the results of the entire physical examination are represented in one record?",
      "source_recall": 1.0,
      "source_hits": [
        "domains/PE/spec.md"
      ],
      "source_misses": [],
      "top5_sources": [
        "domains/PE/spec.md",
        "domains/PE/spec.md",
        "VARIABLE_INDEX.md",
        "domains/PE/examples.md",
        "domains/PE/assumptions.md"
      ],
      "top5_similarities": [
        0.731,
        0.7026,
        0.6909,
        0.6542,
        0.6236
      ],
      "fact_recall": 1.0,
      "fact_hits": [
        "PETESTCD",
        "Topic",
        "PHYSEXAM"
      ],
      "fact_misses": [],
      "answer_preview": "# PE Domain: Dataset Structure, PETESTCD Role, and Special Value\n\n## Dataset Structure\n\nThe PE domain belongs to the **Findings** observation class and is used to represent findings from general physical examinations. Each row typically represents findings for **one body system** examined at one poi",
      "usage": {
        "prompt_tokens": 18317,
        "completion_tokens": 702,
        "total_tokens": 19019
      },
      "model": "claude-sonnet-4-6",
      "elapsed_s": 15.85
    },
    {
      "id": "q06",
      "category": "cross_domain",
      "question": "What is SUPPQUAL and when should supplemental qualifiers be used instead of adding variables to a domain?",
      "source_recall": 1.0,
      "source_hits": [
        "domains/SUPPQUAL/spec.md"
      ],
      "source_misses": [],
      "top5_sources": [
        "chapters/ch08_relationships.md",
        "domains/SUPPQUAL/assumptions.md",
        "chapters/ch08_relationships.md",
        "model/06_relationship_datasets.md",
        "chapters/ch08_relationships.md"
      ],
      "top5_similarities": [
        0.7411,
        0.7409,
        0.7302,
        0.7295,
        0.6782
      ],
      "fact_recall": 1.0,
      "fact_hits": [
        "QNAM",
        "QVAL",
        "non-standard"
      ],
      "fact_misses": [],
      "answer_preview": "# SUPPQUAL — Overview and Usage Rules\n\n## What is SUPPQUAL / SUPP--?\n\nSUPPQUAL (Supplemental Qualifiers) is a special-purpose dataset model used to capture **non-standard variables (NSVs)** that cannot be added directly to standard domain datasets. Because the SDTM does not allow the addition of new",
      "usage": {
        "prompt_tokens": 18191,
        "completion_tokens": 1481,
        "total_tokens": 19672
      },
      "model": "claude-sonnet-4-6",
      "elapsed_s": 48.15
    },
    {
      "id": "q07",
      "category": "cross_domain",
      "question": "Which SDTM domains use the EPOCH variable and what is its purpose?",
      "source_recall": 0.0,
      "source_hits": [],
      "source_misses": [
        "VARIABLE_INDEX.md"
      ],
      "top5_sources": [
        "chapters/ch04_general_assumptions.md",
        "domains/SR/spec.md",
        "domains/TA/assumptions.md",
        "domains/CP/spec.md",
        "domains/FA/spec.md"
      ],
      "top5_similarities": [
        0.7004,
        0.6837,
        0.6827,
        0.6778,
        0.6772
      ],
      "fact_recall": 1.0,
      "fact_hits": [
        "EPOCH",
        "Timing"
      ],
      "fact_misses": [],
      "answer_preview": "# EPOCH Variable: Domains and Purpose\n\n## Variable Definition\n\nEPOCH is a **Timing variable** (Permissible) used across virtually all SDTM observation class domains:\n\n| Attribute | Value |\n|-----------|-------|\n| **Label** | Epoch |\n| **Type** | Char |\n| **Role** | Timing |\n| **Core** | Perm |\n| **C",
      "usage": {
        "prompt_tokens": 11230,
        "completion_tokens": 1076,
        "total_tokens": 12306
      },
      "model": "claude-sonnet-4-6",
      "elapsed_s": 19.05
    },
    {
      "id": "q08",
      "category": "cross_domain",
      "question": "How does USUBJID serve as a linking key across SDTM domains?",
      "source_recall": 1.0,
      "source_hits": [
        "domains/DM/spec.md"
      ],
      "source_misses": [],
      "top5_sources": [
        "domains/SUPPQUAL/spec.md",
        "domains/DM/spec.md",
        "domains/PP/spec.md",
        "domains/RELSPEC/spec.md",
        "domains/RELSUB/spec.md"
      ],
      "top5_similarities": [
        0.7075,
        0.6923,
        0.6855,
        0.6845,
        0.6825
      ],
      "fact_recall": 1.0,
      "fact_hits": [
        "USUBJID",
        "Identifier",
        "unique"
      ],
      "fact_misses": [],
      "answer_preview": "# USUBJID as a Cross-Domain Linking Key in SDTM\n\n## Core Definition\n\n**USUBJID** (Unique Subject Identifier) is a universal **Identifier-role** variable that appears in virtually every SDTM domain, serving as the primary mechanism for linking all subject-level data across the submission package.\n\n| ",
      "usage": {
        "prompt_tokens": 10941,
        "completion_tokens": 1170,
        "total_tokens": 12111
      },
      "model": "claude-sonnet-4-6",
      "elapsed_s": 26.93
    },
    {
      "id": "q09",
      "category": "cross_domain",
      "question": "How are adverse events linked to concomitant medications using RELREC?",
      "source_recall": 0.0,
      "source_hits": [],
      "source_misses": [
        "domains/RELREC/spec.md"
      ],
      "top5_sources": [
        "chapters/ch08_relationships.md",
        "domains/RELREC/examples.md",
        "chapters/ch08_relationships.md",
        "domains/RELREC/assumptions.md",
        "domains/CM/assumptions.md"
      ],
      "top5_similarities": [
        0.6173,
        0.583,
        0.5828,
        0.5376,
        0.537
      ],
      "fact_recall": 1.0,
      "fact_hits": [
        "RELREC",
        "IDVAR",
        "IDVARVAL"
      ],
      "fact_misses": [],
      "answer_preview": "# Linking Adverse Events to Concomitant Medications Using RELREC\n\n## Mechanism Overview\n\nThe RELREC dataset is used to represent **collected relationships** between AE records and CM records — typically where concomitant medications were taken specifically to treat an adverse event. This represents ",
      "usage": {
        "prompt_tokens": 19482,
        "completion_tokens": 1480,
        "total_tokens": 20962
      },
      "model": "claude-sonnet-4-6",
      "elapsed_s": 27.03
    },
    {
      "id": "q10",
      "category": "cross_domain",
      "question": "In oncology studies, how are the TR (Tumor/Lesion Results) domain and RS (Disease Response) domain linked together, and which specific identifier variables are used for each linkage direction?",
      "source_recall": 0.5,
      "source_hits": [
        "domains/TR/assumptions.md"
      ],
      "source_misses": [
        "domains/TR/spec.md"
      ],
      "top5_sources": [
        "domains/RS/assumptions.md",
        "domains/TR/assumptions.md",
        "domains/RS/assumptions.md",
        "domains/TR/assumptions.md",
        "domains/RS/assumptions.md"
      ],
      "top5_similarities": [
        0.713,
        0.7055,
        0.7032,
        0.6926,
        0.67
      ],
      "fact_recall": 1.0,
      "fact_hits": [
        "TRLNKID",
        "TRLNKGRP"
      ],
      "fact_misses": [],
      "answer_preview": "# Linking TR and RS Domains in Oncology Studies\n\n## Overview of the Multi-Domain Architecture\n\nThe oncology assessment data model uses three interconnected domains — **TU** (Tumor/Lesion Identification), **TR** (Tumor/Lesion Results), and **RS** (Disease Response) — with a formal RELREC relationship",
      "usage": {
        "prompt_tokens": 18619,
        "completion_tokens": 1554,
        "total_tokens": 20173
      },
      "model": "claude-sonnet-4-6",
      "elapsed_s": 28.61
    },
    {
      "id": "q11",
      "category": "concept",
      "question": "What are the three observation classes in the SDTM model?",
      "source_recall": 1.0,
      "source_hits": [
        "model/02_observation_classes.md"
      ],
      "source_misses": [],
      "top5_sources": [
        "model/02_observation_classes.md",
        "model/01_concepts_and_terms.md",
        "terminology/supplementary/supplementary_part5.md",
        "chapters/ch04_general_assumptions.md",
        "model/05_study_level_data.md"
      ],
      "top5_similarities": [
        0.7205,
        0.5632,
        0.5473,
        0.5452,
        0.5433
      ],
      "fact_recall": 1.0,
      "fact_hits": [
        "Interventions",
        "Events",
        "Findings"
      ],
      "fact_misses": [],
      "answer_preview": "# The Three SDTM General Observation Classes\n\nThe SDTM model defines three general observation classes that cover the majority of data collected during a study:\n\n## 1. Interventions\n> Represents investigational, therapeutic, and other treatments that are **administered to or used by a subject** (wit",
      "usage": {
        "prompt_tokens": 14157,
        "completion_tokens": 454,
        "total_tokens": 14611
      },
      "model": "claude-sonnet-4-6",
      "elapsed_s": 34.88
    },
    {
      "id": "q12",
      "category": "concept",
      "question": "What do the Core designations Req, Exp, and Perm mean in SDTM?",
      "source_recall": 1.0,
      "source_hits": [
        "chapters/ch04"
      ],
      "source_misses": [],
      "top5_sources": [
        "chapters/ch04_general_assumptions.md",
        "domains/SUPPQUAL/spec.md",
        "domains/CO/spec.md",
        "terminology/supplementary/supplementary_part5.md",
        "domains/RELSPEC/assumptions.md"
      ],
      "top5_similarities": [
        0.6571,
        0.6055,
        0.5926,
        0.5856,
        0.5605
      ],
      "fact_recall": 1.0,
      "fact_hits": [
        "Required",
        "Expected",
        "Permissible"
      ],
      "fact_misses": [],
      "answer_preview": "# SDTM Core Designations: Req, Exp, and Perm\n\nThe **Core** column in SDTM domain specification tables uses three designations to indicate whether a variable must, should, or may be included in a dataset.\n\n---\n\n## Definitions\n\n| Core Value | Full Name | Meaning |\n|------------|-----------|---------|\n",
      "usage": {
        "prompt_tokens": 14746,
        "completion_tokens": 506,
        "total_tokens": 15252
      },
      "model": "claude-sonnet-4-6",
      "elapsed_s": 28.74
    },
    {
      "id": "q13",
      "category": "concept",
      "question": "What is the difference between Topic, Qualifier, and Identifier variable roles?",
      "source_recall": 1.0,
      "source_hits": [
        "model/01_concepts_and_terms.md"
      ],
      "source_misses": [],
      "top5_sources": [
        "chapters/ch04_general_assumptions.md",
        "domains/ML/assumptions.md",
        "VARIABLE_INDEX.md",
        "domains/RELREC/spec.md",
        "domains/DS/assumptions.md"
      ],
      "top5_similarities": [
        0.526,
        0.5227,
        0.5211,
        0.5129,
        0.5124
      ],
      "fact_recall": 1.0,
      "fact_hits": [
        "Topic",
        "Qualifier",
        "Identifier"
      ],
      "fact_misses": [],
      "answer_preview": "# SDTM Variable Roles: Identifier, Topic, and Qualifier\n\n## Overview\n\nSDTM variables are classified into 5 major roles. The three you've asked about are defined as follows:\n\n**[Source: model/01_concepts_and_terms.md]**\n\n---\n\n## 1. Identifier Variables\n\n**Purpose:** Identify the study, subject, domai",
      "usage": {
        "prompt_tokens": 12551,
        "completion_tokens": 911,
        "total_tokens": 13462
      },
      "model": "claude-sonnet-4-6",
      "elapsed_s": 32.29
    },
    {
      "id": "q14",
      "category": "concept",
      "question": "How should a sponsor create a new custom domain in SDTM?",
      "source_recall": 1.0,
      "source_hits": [
        "chapters/ch02"
      ],
      "source_misses": [],
      "top5_sources": [
        "chapters/ch04_general_assumptions.md",
        "model/01_concepts_and_terms.md",
        "domains/CO/assumptions.md",
        "chapters/ch04_general_assumptions.md",
        "chapters/ch03_submitting_data.md"
      ],
      "top5_similarities": [
        0.6011,
        0.5033,
        0.5002,
        0.4946,
        0.4894
      ],
      "fact_recall": 1.0,
      "fact_hits": [
        "observation class"
      ],
      "fact_misses": [],
      "answer_preview": "# Creating a Custom Domain in SDTM\n\n## Core Principles\n\nWhen a sponsor needs to represent data that doesn't fit an existing CDISC-defined domain, they may create a custom domain based on the SDTM general observation classes (Interventions, Events, or Findings).\n\n---\n\n## 1. Domain Naming Rules\n\n**[So",
      "usage": {
        "prompt_tokens": 16031,
        "completion_tokens": 942,
        "total_tokens": 16973
      },
      "model": "claude-sonnet-4-6",
      "elapsed_s": 21.21
    },
    {
      "id": "q15",
      "category": "concept",
      "question": "What are the three SDTM Core designation categories for variables, and what are the rules for handling a Permissible variable when a study did not collect the corresponding data item?",
      "source_recall": 1.0,
      "source_hits": [
        "chapters/ch04_general_assumptions.md"
      ],
      "source_misses": [],
      "top5_sources": [
        "chapters/ch04_general_assumptions.md",
        "model/01_concepts_and_terms.md",
        "model/01_concepts_and_terms.md",
        "chapters/ch04_general_assumptions.md",
        "chapters/ch01_introduction.md"
      ],
      "top5_similarities": [
        0.7806,
        0.6896,
        0.6426,
        0.6274,
        0.6228
      ],
      "fact_recall": 1.0,
      "fact_hits": [
        "Req",
        "Exp",
        "Perm"
      ],
      "fact_misses": [],
      "answer_preview": "# SDTM Core Designation Categories\n\n## Three Core Categories\n\nSDTMIG v3.4 defines three Core designation values in Section 4.1.5:\n\n| Core Value | Meaning | Key Rule |\n|------------|---------|----------|\n| **Req** (Required) | Basic to record identification or makes the record meaningful | Must **alw",
      "usage": {
        "prompt_tokens": 17318,
        "completion_tokens": 656,
        "total_tokens": 17974
      },
      "model": "claude-sonnet-4-6",
      "elapsed_s": 39.41
    },
    {
      "id": "q16",
      "category": "mixed",
      "question": "What values are allowed for AESEV and what is its codelist code?",
      "source_recall": 0.5,
      "source_hits": [
        "domains/AE/spec.md"
      ],
      "source_misses": [
        "terminology/core/ae.md"
      ],
      "top5_sources": [
        "domains/AE/assumptions.md",
        "domains/AE/spec.md",
        "domains/AE/assumptions.md",
        "domains/AE/spec.md",
        "terminology/supplementary/supplementary_part1.md"
      ],
      "top5_similarities": [
        0.6134,
        0.602,
        0.54,
        0.532,
        0.5192
      ],
      "fact_recall": 1.0,
      "fact_hits": [
        "C66769",
        "MILD",
        "MODERATE",
        "SEVERE"
      ],
      "fact_misses": [],
      "answer_preview": "## AESEV — Severity/Intensity of Adverse Event\n\n### Variable Definition\n\n| Attribute | Value |\n|-----------|-------|\n| **Label** | Severity/Intensity |\n| **Type** | Char |\n| **Role** | Record Qualifier |\n| **Core** | Perm |\n| **Controlled Terms** | **C66769** (Severity/Intensity Scale for Adverse Ev",
      "usage": {
        "prompt_tokens": 11569,
        "completion_tokens": 395,
        "total_tokens": 11964
      },
      "model": "claude-sonnet-4-6",
      "elapsed_s": 21.3
    },
    {
      "id": "q17",
      "category": "mixed",
      "question": "How are date and time variables formatted in SDTM and what suffix do they use?",
      "source_recall": 1.0,
      "source_hits": [
        "chapters/ch04"
      ],
      "source_misses": [],
      "top5_sources": [
        "chapters/ch04_general_assumptions.md",
        "domains/VS/spec.md",
        "chapters/ch04_general_assumptions.md",
        "model/01_concepts_and_terms.md",
        "model/01_concepts_and_terms.md"
      ],
      "top5_similarities": [
        0.763,
        0.6402,
        0.6209,
        0.6154,
        0.6139
      ],
      "fact_recall": 1.0,
      "fact_hits": [
        "ISO 8601",
        "DTC"
      ],
      "fact_misses": [],
      "answer_preview": "## SDTM Date/Time Variable Formatting\n\n### Standard Format: ISO 8601 Extended Format\n\nSDTM requires all date and time variables to be stored using the **ISO 8601 extended format** as character/text data types. The full datetime pattern is:\n\n```\nYYYY-MM-DDThh:mm:ss(.n+)?(((+|-)hh:mm)|Z)?\n```\n\n| Compo",
      "usage": {
        "prompt_tokens": 16191,
        "completion_tokens": 1062,
        "total_tokens": 17253
      },
      "model": "claude-sonnet-4-6",
      "elapsed_s": 38.89
    },
    {
      "id": "q18",
      "category": "mixed",
      "question": "Explain the MedDRA coding chain for adverse events from verbatim term to dictionary term.",
      "source_recall": 1.0,
      "source_hits": [
        "domains/AE/spec.md",
        "domains/AE/assumptions.md"
      ],
      "source_misses": [],
      "top5_sources": [
        "chapters/ch04_general_assumptions.md",
        "domains/MH/assumptions.md",
        "domains/AE/assumptions.md",
        "terminology/core/trial_design.md",
        "domains/AE/spec.md"
      ],
      "top5_similarities": [
        0.6726,
        0.6303,
        0.6289,
        0.6197,
        0.6135
      ],
      "fact_recall": 1.0,
      "fact_hits": [
        "AETERM",
        "AEMODIFY",
        "AEDECOD",
        "Preferred Term"
      ],
      "fact_misses": [],
      "answer_preview": "# MedDRA Coding Chain for Adverse Events\n\n## Overview of the Coding Hierarchy\n\nThe SDTM AE domain implements the full MedDRA hierarchy, mapping from a raw verbatim term up through five hierarchical levels to the System Organ Class. Each level has both a text variable and a numeric code variable.\n\n--",
      "usage": {
        "prompt_tokens": 16510,
        "completion_tokens": 1599,
        "total_tokens": 18109
      },
      "model": "claude-sonnet-4-6",
      "elapsed_s": 29.24
    },
    {
      "id": "q19",
      "category": "mixed",
      "question": "What controlled terminology codelist is used for DSDECOD when DSCAT equals 'DISPOSITION EVENT', and list specific CDISC Submission Values from that codelist for reasons of non-completion.",
      "source_recall": 1.0,
      "source_hits": [
        "domains/DS/assumptions.md",
        "terminology/core/disposition.md"
      ],
      "source_misses": [],
      "top5_sources": [
        "domains/DS/spec.md",
        "domains/DS/assumptions.md",
        "domains/DS/spec.md",
        "domains/DS/assumptions.md",
        "domains/DS/spec.md"
      ],
      "top5_similarities": [
        0.8036,
        0.7554,
        0.7248,
        0.7186,
        0.7037
      ],
      "fact_recall": 1.0,
      "fact_hits": [
        "NCOMPLT",
        "C66727"
      ],
      "fact_misses": [],
      "answer_preview": "## DSDECOD Controlled Terminology for DSCAT = \"DISPOSITION EVENT\"\n\n### Codelist Assignment\n\nWhen **DSCAT = \"DISPOSITION EVENT\"**, DSDECOD uses the **NCOMPLT** codelist (C66727 — *Completion/Reason for Non-Completion*).\n\n**[Source: domains/DS/spec.md — DSDECOD]**\n**[Source: domains/DS/assumptions.md ",
      "usage": {
        "prompt_tokens": 12531,
        "completion_tokens": 787,
        "total_tokens": 13318
      },
      "model": "claude-sonnet-4-6",
      "elapsed_s": 16.33
    },
    {
      "id": "q20",
      "category": "mixed",
      "question": "In the DM domain, what is the difference between the RFSTDTC/RFENDTC reference period pair and the RFXSTDTC/RFXENDTC pair, and under what circumstances will RFSTDTC be null?",
      "source_recall": 1.0,
      "source_hits": [
        "domains/DM/assumptions.md",
        "domains/DM/spec.md"
      ],
      "source_misses": [],
      "top5_sources": [
        "domains/DM/assumptions.md",
        "domains/DM/assumptions.md",
        "domains/DM/spec.md",
        "domains/DM/spec.md",
        "domains/DM/assumptions.md"
      ],
      "top5_similarities": [
        0.6645,
        0.6585,
        0.624,
        0.5839,
        0.5808
      ],
      "fact_recall": 1.0,
      "fact_hits": [
        "sponsor-defined",
        "screen failure"
      ],
      "fact_misses": [],
      "answer_preview": "# DM Domain: RFSTDTC/RFENDTC vs. RFXSTDTC/RFXENDTC Reference Periods\n\n## Variable Definitions\n\n| Variable | Label | Core | Role |\n|----------|-------|------|------|\n| RFSTDTC | Subject Reference Start Date/Time | Exp | Record Qualifier |\n| RFENDTC | Subject Reference End Date/Time | Exp | Record Qua",
      "usage": {
        "prompt_tokens": 12438,
        "completion_tokens": 1116,
        "total_tokens": 13554
      },
      "model": "claude-sonnet-4-6",
      "elapsed_s": 43.93
    }
  ]
}