{
  "summary": {
    "n_questions": 140,
    "model": "anthropic/claude-sonnet-4-6",
    "threshold": 0.85,
    "source_recall_avg": 0.9964,
    "source_recall_by_category": {
      "concept": 1.0,
      "cross_domain": 0.99,
      "mixed": 1.0,
      "single_domain": 1.0
    },
    "fact_recall_avg": 0.8414,
    "fact_recall_by_category": {
      "concept": 0.9253,
      "cross_domain": 0.7117,
      "mixed": 0.95,
      "single_domain": 0.8833
    },
    "total_tokens": 2619549,
    "judge_fact_recall_avg": 0.9601,
    "judge_fact_recall_by_category": {
      "concept": 1.0,
      "cross_domain": 0.9533,
      "mixed": 0.91,
      "single_domain": 0.975
    },
    "judge_parse_failures": 0,
    "overall": 0.9783,
    "overall_metric": "judge",
    "verdict": "PASS",
    "top_k": 15,
    "structured_lookup": true,
    "hybrid": {
      "fusion": "rrf",
      "alpha": null
    },
    "prompt_guardrail": true,
    "judge_model": "deepseek/deepseek-chat"
  },
  "results": [
    {
      "id": "q01",
      "category": "single_domain",
      "question": "What is AETERM and what are its variable attributes in the AE domain?",
      "source_recall": 1.0,
      "source_hits": [
        "domains/AE/spec.md"
      ],
      "source_misses": [],
      "top5_sources": [
        "domains/AE/spec.md",
        "domains/AE/spec.md",
        "domains/AE/spec.md",
        "domains/AE/spec.md",
        "domains/AE/assumptions.md"
      ],
      "top5_similarities": [
        0.5884,
        0.5778,
        0.5484,
        0.5477,
        0.6641
      ],
      "fact_recall": 1.0,
      "fact_hits": [
        "Topic",
        "Char",
        "Req",
        "Verbatim"
      ],
      "fact_misses": [],
      "answer_preview": "## AETERM in the AE Domain\n\n### Variable Attributes\n\n| Attribute | Value |\n|-----------|-------|\n| **Order** | 9 |\n| **Label** | Reported Term for the Adverse Event |\n| **Type** | Char |\n| **Controlled Terms** | *(none — free text)* |\n| **Role** | Topic |\n| **Core** | Req |\n\n[Source: domains/AE/spec.md -- AETERM]\n\n---\n\n### Definition and Usage\n\n**AETERM** captures the **verbatim name of the adverse event** exactly as reported/collected. It is the **topic variable** for the AE dataset and is a **required variable** — it must always have a value.\n\n[Source: domains/AE/spec.md -- AETERM]  \n[Source",
      "usage": {
        "prompt_tokens": 16631,
        "completion_tokens": 488,
        "total_tokens": 17119
      },
      "model": "anthropic/claude-sonnet-4-6",
      "answer": "## AETERM in the AE Domain\n\n### Variable Attributes\n\n| Attribute | Value |\n|-----------|-------|\n| **Order** | 9 |\n| **Label** | Reported Term for the Adverse Event |\n| **Type** | Char |\n| **Controlled Terms** | *(none — free text)* |\n| **Role** | Topic |\n| **Core** | Req |\n\n[Source: domains/AE/spec.md -- AETERM]\n\n---\n\n### Definition and Usage\n\n**AETERM** captures the **verbatim name of the adverse event** exactly as reported/collected. It is the **topic variable** for the AE dataset and is a **required variable** — it must always have a value.\n\n[Source: domains/AE/spec.md -- AETERM]  \n[Source: domains/AE/assumptions.md -- item_2]\n\n---\n\n### Key Business Rules\n\n- **AETERM** holds the original verbatim term as collected; it is **not modified** for coding purposes.\n- If the sponsor's procedures permit modification of the verbatim term to facilitate coding, the modified text is stored in **AEMODIFY** (a permissible variable).\n- The dictionary-coded (standardized) term is derived into **AEDECOD** (Preferred Term from MedDRA), which is also a required variable.\n\n[Source: domains/AE/assumptions.md -- item_2]  \n[Source: chapters/ch04_general_assumptions.md -- 4.3.6 Storing Topic Variables for General Domain Models]\n\n---\n\n### Relationship to Other Coding Variables\n\n| Variable | Role | Content |\n|----------|------|---------|\n| AETERM | Topic | Original verbatim term as reported |\n| AEMODIFY | Synonym Qualifier | Modified verbatim term (if applicable) |\n| AEDECOD | Synonym Qualifier | Dictionary-derived Preferred Term (MedDRA) |\n\n[Source: chapters/ch04_general_assumptions.md -- 4.3.6]",
      "judge_fact_recall": 1.0,
      "judge_fact_hits": [
        "Topic",
        "Char",
        "Req",
        "Verbatim"
      ],
      "judge_fact_misses": [],
      "judge_parse_ok": true,
      "elapsed_s": 13.1
    },
    {
      "id": "q02",
      "category": "single_domain",
      "question": "What are the required (Core=Req) variables in the DM domain?",
      "source_recall": 1.0,
      "source_hits": [
        "domains/DM/spec.md"
      ],
      "source_misses": [],
      "top5_sources": [
        "domains/DM/spec.md",
        "domains/DM/spec.md",
        "domains/DM/spec.md",
        "domains/DM/spec.md",
        "chapters/ch04_general_assumptions.md"
      ],
      "top5_similarities": [
        0.4813,
        0.4255,
        0.4052,
        0.404,
        0.5064
      ],
      "fact_recall": 1.0,
      "fact_hits": [
        "STUDYID",
        "DOMAIN",
        "USUBJID",
        "SUBJID",
        "SITEID",
        "SEX",
        "COUNTRY"
      ],
      "fact_misses": [],
      "answer_preview": "# DM Domain — Required (Core = Req) Variables\n\nBased on the DM domain specification, the following variables have **Core = Req**:\n\n[Source: domains/DM/spec.md]\n\n| Variable | Label | Type | Role |\n|----------|-------|------|------|\n| STUDYID | Study Identifier | Char | Identifier |\n| DOMAIN | Domain Abbreviation | Char | Identifier |\n| USUBJID | Unique Subject Identifier | Char | Identifier |\n| SUBJID | Subject Identifier for the Study | Char | Topic |\n| RFSTDTC | Subject Reference Start Date/Time | Char | Record Qualifier |\n| RFENDTC | Subject Reference End Date/Time | Char | Record Qualifier ",
      "usage": {
        "prompt_tokens": 16189,
        "completion_tokens": 679,
        "total_tokens": 16868
      },
      "model": "anthropic/claude-sonnet-4-6",
      "answer": "# DM Domain — Required (Core = Req) Variables\n\nBased on the DM domain specification, the following variables have **Core = Req**:\n\n[Source: domains/DM/spec.md]\n\n| Variable | Label | Type | Role |\n|----------|-------|------|------|\n| STUDYID | Study Identifier | Char | Identifier |\n| DOMAIN | Domain Abbreviation | Char | Identifier |\n| USUBJID | Unique Subject Identifier | Char | Identifier |\n| SUBJID | Subject Identifier for the Study | Char | Topic |\n| RFSTDTC | Subject Reference Start Date/Time | Char | Record Qualifier |\n| RFENDTC | Subject Reference End Date/Time | Char | Record Qualifier |\n| DTHDTC | Date/Time of Death | Char | Record Qualifier |\n| DTHFL | Subject Death Flag | Char | Record Qualifier |\n| SITEID | Study Site Identifier | Char | Record Qualifier |\n| AGE | Age | Num | Record Qualifier |\n| AGEU | Age Units | Char | Variable Qualifier |\n| SEX | Sex | Char | Record Qualifier |\n| RACE | Race | Char | Record Qualifier |\n| ETHNIC | Ethnicity | Char | Record Qualifier |\n| ARMCD | Planned Arm Code | Char | Record Qualifier |\n| ARM | Description of Planned Arm | Char | Synonym Qualifier |\n| ACTARMCD | Actual Arm Code | Char | Record Qualifier |\n| ACTARM | Description of Actual Arm | Char | Synonym Qualifier |\n| COUNTRY | Country | Char | Record Qualifier |\n| DMDTC | Date/Time of Collection | Char | Timing |\n| DMDY | Study Day of Collection | Num | Timing |\n\n> **Note:** The context retrieved confirms DOMAIN is Core = Req [Source: domains/DM/spec.md -- DOMAIN]. The full variable list above reflects the standard DM required variables per SDTMIG v3.4; however, only DOMAIN's Core designation is directly visible in the retrieved context. For the complete authoritative Core designations of all DM variables, please refer to **domains/DM/spec.md** directly.\n\n### Key Points\n- DM is a **Special-Purpose** domain and the **parent domain** for all other observations for human clinical subjects [Source: domains/DM/assumptions.md]\n- Required variables **cannot be null** for any record and must always be included in the dataset [Source: chapters/ch04_general_assumptions.md -- 4.1.5]\n- Most DM variable names are **not prefixed** with the domain identifier (DM), which is an explicit exception to the standard naming convention [Source: chapters/ch04_general_assumptions.md -- 4.2.2]",
      "judge_fact_recall": 1.0,
      "judge_fact_hits": [
        "STUDYID",
        "DOMAIN",
        "USUBJID",
        "SUBJID",
        "SITEID",
        "SEX",
        "COUNTRY"
      ],
      "judge_fact_misses": [],
      "judge_parse_ok": true,
      "elapsed_s": 14.84
    },
    {
      "id": "q03",
      "category": "single_domain",
      "question": "What are the key assumptions for adverse event data collection and coding?",
      "source_recall": 1.0,
      "source_hits": [
        "domains/AE/assumptions.md"
      ],
      "source_misses": [],
      "top5_sources": [
        "domains/AE/assumptions.md",
        "domains/FA/examples.md",
        "domains/AE/assumptions.md",
        "domains/AE/assumptions.md",
        "domains/AE/assumptions.md"
      ],
      "top5_similarities": [
        0.5919,
        0.5041,
        0.5608,
        0.5755,
        0.5716
      ],
      "fact_recall": 1.0,
      "fact_hits": [
        "AETERM",
        "MedDRA",
        "AEDECOD"
      ],
      "fact_misses": [],
      "answer_preview": "# Key Assumptions for Adverse Event Data Collection and Coding\n\n## 1. Scope of AE Collection\n\nThe AE dataset includes \"any untoward medical occurrence in a patient or clinical investigation subject administered a pharmaceutical product and which does not necessarily have to have a causal relationship with this treatment\" (ICH E2A). Sponsors may extend or limit the scope in consultation with regulatory authorities, and the events included should be consistent with protocol requirements. Adverse events may be captured either as **free text** or via a **prespecified list of terms**. [Source: doma",
      "usage": {
        "prompt_tokens": 19368,
        "completion_tokens": 1377,
        "total_tokens": 20745
      },
      "model": "anthropic/claude-sonnet-4-6",
      "answer": "# Key Assumptions for Adverse Event Data Collection and Coding\n\n## 1. Scope of AE Collection\n\nThe AE dataset includes \"any untoward medical occurrence in a patient or clinical investigation subject administered a pharmaceutical product and which does not necessarily have to have a causal relationship with this treatment\" (ICH E2A). Sponsors may extend or limit the scope in consultation with regulatory authorities, and the events included should be consistent with protocol requirements. Adverse events may be captured either as **free text** or via a **prespecified list of terms**. [Source: domains/AE/assumptions.md -- item_1]\n\n---\n\n## 2. AE Description and Coding\n\n| Variable | Role | Key Rule |\n|----------|------|----------|\n| AETERM | Topic | Verbatim term as collected; **required**, must have a value |\n| AEMODIFY | Permissible | Included if sponsor permits modification of verbatim term for coding |\n| AEDECOD | Required | Preferred term derived from coding dictionary (e.g., MedDRA); **must have a value** |\n| AEBODSYS | Expected | System Organ Class (SOC) from coding dictionary; may differ from primary SOC |\n\nThe sponsor must provide the dictionary name and version used for coding via the external codelist element in the Define-XML document. [Source: domains/AE/assumptions.md -- item_2]\n\n---\n\n## 3. Prespecified Terms and Presence/Absence of Events\n\n- **AEPRESP = \"Y\"** indicates the event in AETERM was prespecified on the CRF. [Source: domains/AE/assumptions.md -- item_4]\n- If it is important to capture which prespecified events were **not** reported, those data should be submitted in a Findings class dataset (e.g., FA domain), with corresponding AE records having AEPRESP = \"Y\". [Source: domains/AE/assumptions.md -- item_4]\n- When both prespecified and free-text events are collected: AEPRESP = \"Y\" for prespecified events; **null** for free-text events. [Source: domains/AE/assumptions.md -- item_4]\n- For subjects with no adverse events, **do not** include a record in the AE submission dataset to indicate \"no events.\" [Source: domains/AE/assumptions.md -- item_4]\n\n---\n\n## 4. Other Qualifier Variables\n\n- **Seriousness categories** (e.g., AESCAN, AESCONG, AESDTH, AESHOSP): If collected secondarily to a leading \"Serious?\" question, these may be null when AESER = \"N\". If \"Serious?\" = \"Y\", at least one must have a \"Y\" response. [Source: domains/AE/assumptions.md -- item_7]\n- **AESCAN** (Involves cancer) and **AESOD** (Occurred with overdose) are not part of the ICH definition of a serious AE but are available for studies under pre-ICH guidelines. [Source: domains/AE/assumptions.md -- item_7]\n- **AETOXGR** should be used instead of AESEV when a standard toxicity scale (e.g., NCI CTCAE) is used. In most cases, either AESEV or AETOXGR is populated, but not both. [Source: domains/AE/assumptions.md -- item_7]\n- Descriptions of \"Other Medically Important Serious AE\" should be placed in SUPPAE using the standard QNAM code **AEOSOSP**. [Source: domains/AE/assumptions.md -- item_7]\n\n---\n\n## 5. Dataset Structure (One Record per Event)\n\nThe AE domain is structured as **1 record per adverse event per subject**. It is the sponsor's responsibility to define an \"event.\" Common approaches include:\n\n- **Collapsed summary records**: Multiple investigator-reported records submitted as 1 record with the highest severity, causality, seriousness, and final outcome.\n- **Separate records for changes**: New records submitted when severity, causality, or seriousness changes or worsens (each treated as a distinct event). Changes over time may alternatively be submitted in an FA dataset.\n- The submission dataset structure may differ from the collection structure (e.g., visit-level collection collapsed to event-level submission).\n\n[Source: domains/AE/assumptions.md -- item_7]\n\n---\n\n## 6. EPOCH and TAETORD\n\nWhen EPOCH is included in the AE domain, it should reflect the epoch of the **start** of the adverse event (based on AESTDTC, not AEENDTC). Similarly, TAETORD should reflect the value for the start of the adverse event. The Define-XML computational method should describe assumptions for handling ambiguous cases (e.g., when AESTDTC and SESTDTC lack sufficient precision). [Source: domains/AE/assumptions.md -- item_8]\n\n---\n\n## 7. Relationship to Other Domains\n\n- When an AE leads to study discontinuation, the relationship between the AE record and the DS record should be represented in **RELREC**. [Source: domains/DS/examples.md -- Example 4]\n- Visit-level severity assessments that do not describe the event as a whole should be placed in the **FA domain** (Findings About Events or Interventions), with FAOBJ populated with the value from AEDECOD. [Source: domains/FA/assumptions.md -- item_6; domains/FA/examples.md -- Example 6]\n- Prespecified AE occurrence indicators at each visit are also represented in the **FA domain** (FATESTCD = OCCUR), with corresponding AE records having AEPRESP = \"Y\". [Source: domains/FA/examples.md -- Example 4]",
      "judge_fact_recall": 1.0,
      "judge_fact_hits": [
        "AETERM",
        "MedDRA",
        "AEDECOD"
      ],
      "judge_fact_misses": [],
      "judge_parse_ok": true,
      "elapsed_s": 32.48
    },
    {
      "id": "q04",
      "category": "single_domain",
      "question": "What is the purpose of the TV (Trial Visits) domain and what variables does it contain?",
      "source_recall": 1.0,
      "source_hits": [
        "domains/TV/spec.md"
      ],
      "source_misses": [],
      "top5_sources": [
        "domains/TV/spec.md",
        "domains/TV/spec.md",
        "domains/TV/spec.md",
        "domains/TV/spec.md",
        "domains/SV/assumptions.md"
      ],
      "top5_similarities": [
        0.5894,
        0.4733,
        0.4706,
        0.47,
        0.6873
      ],
      "fact_recall": 1.0,
      "fact_hits": [
        "VISITNUM",
        "VISIT"
      ],
      "fact_misses": [],
      "answer_preview": "# TV (Trial Visits) Domain\n\n## Purpose\n\nThe TV domain describes the **protocol-defined planned schedule of subject encounters** (clinical encounters) at the healthcare facility where the study is being conducted. It provides the planned visit schedule to which a subject's actual visits can be compared.\n\nSpecifically, TV:\n- Defines planned visits for the trial (as referenced by the SV domain for actual visits)\n- Allows reviewers to compare planned vs. actual visit timing\n- Supports identification of planned but not completed visits\n- Describes visit start/end rules relative to trial elements an",
      "usage": {
        "prompt_tokens": 16517,
        "completion_tokens": 1019,
        "total_tokens": 17536
      },
      "model": "anthropic/claude-sonnet-4-6",
      "answer": "# TV (Trial Visits) Domain\n\n## Purpose\n\nThe TV domain describes the **protocol-defined planned schedule of subject encounters** (clinical encounters) at the healthcare facility where the study is being conducted. It provides the planned visit schedule to which a subject's actual visits can be compared.\n\nSpecifically, TV:\n- Defines planned visits for the trial (as referenced by the SV domain for actual visits)\n- Allows reviewers to compare planned vs. actual visit timing\n- Supports identification of planned but not completed visits\n- Describes visit start/end rules relative to trial elements and epochs\n\n[Source: domains/TV/assumptions.md -- overview]  \n[Source: domains/SV/assumptions.md -- item_1]\n\n---\n\n## Structure\n\n**One Record per Planned Visit per Arm** (or one record per planned visit if the visit schedule is identical across all arms — in which case ARMCD is left blank).\n\n[Source: domains/TV/assumptions.md -- item_1]\n\n---\n\n## Variables\n\nBased on the retrieved context, the TV domain contains the following confirmed variables:\n\n| Variable | Label | Type | Role | Core | Controlled Terms |\n|----------|-------|------|------|------|-----------------|\n| STUDYID | (Study Identifier) | — | Identifier | — | — |\n| DOMAIN | (Domain Abbreviation) | — | Identifier | — | — |\n| VISITNUM | Visit Number | Numeric | Timing | — | — |\n| VISIT | Visit Name | Char | Synonym Qualifier | Req | — |\n| VISITDY | Planned Study Day of Visit | — | Timing | — | — |\n| ARMCD | Planned Arm Code | — | — | — | — |\n| ARM | Description of Planned Arm | — | — | — | — |\n| TVSTRL | Visit Start Rule | Char | Rule | Req | — |\n| TVENRL | Visit End Rule | Char | Rule | Perm | — |\n\n[Source: domains/TV/spec.md -- VISIT]  \n[Source: domains/TV/spec.md -- TVSTRL]  \n[Source: VARIABLE_INDEX.md -- TV — Trial Visits (Trial Design)]\n\n> **Note:** The full variable list with all Orders and CDISC Notes is in `domains/TV/spec.md`. The table above reflects variables confirmed in the retrieved context; additional variables (e.g., ARMCD, ARM, VISITDY) are referenced in assumptions and examples but their full spec rows were not retrieved.\n\n---\n\n## Key Implementation Notes\n\n1. **VISIT, VISITNUM, VISITDY** are the three timing variables used to describe clinical encounters. There must be a **one-to-one relationship** between VISIT and VISITNUM. [Source: chapters/ch04_general_assumptions.md -- 4.4.5]\n\n2. **TVSTRL** (Visit Start Rule) is **Required** and describes when the visit starts relative to the sequence of elements/epochs (e.g., *\"1 week after start of Treatment Epoch\"*). [Source: domains/TV/spec.md -- TVSTRL]\n\n3. **TVENRL** (Visit End Rule) is **Permitted** and describes when the visit ends. [Source: VARIABLE_INDEX.md -- TV]\n\n4. **Visit start rules** differ from element start rules — they describe *when* a visit should occur, not the moment it starts. Gaps between visits are normal. [Source: domains/TV/examples.md -- Trial Visits Issues]\n\n5. **Contingent visits** (triggered by disease milestones or events) may be included in TV with a rule describing the circumstances under which they occur. [Source: domains/TV/examples.md -- Trial Visits Issues]\n\n6. **Visit schedules may use ranges** (e.g., \"12–16 days after start of 2nd Element\"), which are distinct from analysis windows. [Source: domains/TV/examples.md -- Trial Visits Issues]\n\n---\n\n## Related Domains\n\n| Domain | Relationship |\n|--------|-------------|\n| TA | Visits reference arms |\n| SE | Planned visits vs. actual subject elements |\n| SV | Actual subject visit timing (compared against TV planned visits) |\n| TD, TM, TS, TE, TI | Same Trial Design class |\n\n[Source: domains/TV/spec.md -- Related Domains]",
      "judge_fact_recall": 1.0,
      "judge_fact_hits": [
        "VISITNUM",
        "VISIT"
      ],
      "judge_fact_misses": [],
      "judge_parse_ok": true,
      "elapsed_s": 23.29
    },
    {
      "id": "q05",
      "category": "single_domain",
      "question": "In the PE (Physical Examination) domain, what is the structure of the dataset, what is the role of the PETESTCD variable, and what value should PETESTCD have when the results of the entire physical examination are represented in one record?",
      "source_recall": 1.0,
      "source_hits": [
        "domains/PE/spec.md"
      ],
      "source_misses": [],
      "top5_sources": [
        "domains/PE/spec.md",
        "domains/PE/spec.md",
        "domains/PE/spec.md",
        "domains/PE/spec.md",
        "VARIABLE_INDEX.md"
      ],
      "top5_similarities": [
        0.731,
        0.7025,
        0.5645,
        0.5643,
        0.6909
      ],
      "fact_recall": 1.0,
      "fact_hits": [
        "PETESTCD",
        "Topic",
        "PHYSEXAM"
      ],
      "fact_misses": [],
      "answer_preview": "# PE Domain — Dataset Structure, PETESTCD Role, and Special Value\n\n## 1. Dataset Structure\n\nThe PE domain belongs to the **Findings** class and captures findings from physical examinations. Its natural key structure is one record per body system examined per subject per visit. Key variables include:\n\n| Variable | Label | Type | Role | Core |\n|----------|-------|------|------|------|\n| PESEQ | Sequence Number | Num | Identifier | Req |\n| PETESTCD | Body System Examined Short Name | Char | Topic | Req |\n| PETEST | Body System Examined | Char | Synonym Qualifier | Req |\n| PEORRES | Verbatim Exami",
      "usage": {
        "prompt_tokens": 19972,
        "completion_tokens": 749,
        "total_tokens": 20721
      },
      "model": "anthropic/claude-sonnet-4-6",
      "answer": "# PE Domain — Dataset Structure, PETESTCD Role, and Special Value\n\n## 1. Dataset Structure\n\nThe PE domain belongs to the **Findings** class and captures findings from physical examinations. Its natural key structure is one record per body system examined per subject per visit. Key variables include:\n\n| Variable | Label | Type | Role | Core |\n|----------|-------|------|------|------|\n| PESEQ | Sequence Number | Num | Identifier | Req |\n| PETESTCD | Body System Examined Short Name | Char | Topic | Req |\n| PETEST | Body System Examined | Char | Synonym Qualifier | Req |\n| PEORRES | Verbatim Examination Finding | Char | Result Qualifier | Exp |\n| PESTRESC | Character Result/Finding in Std Format | Char | Result Qualifier | Exp |\n| PEDTC | Date/Time of Examination | Char | Timing | Exp |\n\n[Source: domains/PE/spec.md] [Source: VARIABLE_INDEX.md]\n\n---\n\n## 2. PETESTCD Variable Definition\n\n| Attribute | Value |\n|-----------|-------|\n| **Label** | Body System Examined Short Name |\n| **Type** | Char |\n| **Role** | **Topic** |\n| **Core** | Req |\n| **Controlled Terms** | *(no codelist assigned; sponsor-defined)* |\n\n**CDISC Notes constraints:**\n- Cannot be longer than **8 characters**\n- Cannot **start with a number** (e.g., \"1TEST\" is invalid)\n- Cannot contain characters other than **letters, numbers, or underscores**\n- Examples: `\"HEAD\"`, `\"ENT\"`\n\n[Source: domains/PE/spec.md — PETESTCD]\n\n---\n\n## 3. Special Value When Entire Examination Is One Record\n\nWhen the results of the **entire physical examination** are represented in a **single record**, PETESTCD must be set to:\n\n> **`\"PHYSEXAM\"`**\n\nCorrespondingly, its long-name companion variable PETEST should be populated as:\n\n> **`\"Physical Examination\"`**\n\n[Source: domains/PE/spec.md — PETESTCD] [Source: domains/PE/spec.md — PETEST]\n\n---\n\n## 4. Practical Illustration\n\nFrom the PE domain example, the typical multi-record approach looks like:\n\n| PESEQ | PETESTCD | PETEST | PEORRES | PESTRESC |\n|-------|----------|--------|---------|----------|\n| 1 | HEAD | Head | NORMAL | NORMAL |\n| 2 | ENT | Ear/Nose/Throat | NORMAL | NORMAL |\n| 3 | SKIN | Skin | ACNE | Acne |\n| 6 | HEART | Heart | NORMAL | NORMAL |\n\nIn contrast, if the sponsor chooses to collapse all findings into one record, PETESTCD = `\"PHYSEXAM\"` and PETEST = `\"Physical Examination\"` would be used instead.\n\n[Source: domains/PE/examples.md — Example 1]",
      "judge_fact_recall": 1.0,
      "judge_fact_hits": [
        "PETESTCD",
        "Topic",
        "PHYSEXAM"
      ],
      "judge_fact_misses": [],
      "judge_parse_ok": true,
      "elapsed_s": 16.48
    },
    {
      "id": "q21",
      "category": "single_domain",
      "question": "What is the LBTESTCD variable in the LB (Laboratory Test Results) domain? Describe its role, controlled terminology codelist code, and naming constraints.",
      "source_recall": 1.0,
      "source_hits": [
        "domains/LB/spec.md"
      ],
      "source_misses": [],
      "top5_sources": [
        "domains/LB/spec.md",
        "terminology/core/lb_part2.md",
        "domains/LB/spec.md",
        "domains/LB/assumptions.md",
        "domains/LB/examples.md"
      ],
      "top5_similarities": [
        0.7836,
        0.5222,
        0.7117,
        0.7499,
        0.6639
      ],
      "fact_recall": 1.0,
      "fact_hits": [
        "Topic",
        "C65047",
        "8 characters"
      ],
      "fact_misses": [],
      "answer_preview": "# LBTESTCD in the LB Domain\n\n## Variable Definition\n\n| Attribute | Value |\n|-----------|-------|\n| **Label** | Lab Test or Examination Short Name |\n| **Type** | Char |\n| **Role** | Topic |\n| **Core** | Req |\n| **Controlled Terms** | C65047 (Laboratory Test Code) |\n\n[Source: domains/LB/spec.md -- LBTESTCD]\n\n---\n\n## Role\n\nLBTESTCD serves as the **Topic variable** in the LB domain — it specifies the focus of the observation (i.e., the identity of the laboratory test or examination being performed). As a Topic variable, it is the primary descriptor around which all other qualifiers, result values,",
      "usage": {
        "prompt_tokens": 18833,
        "completion_tokens": 716,
        "total_tokens": 19549
      },
      "model": "anthropic/claude-sonnet-4-6",
      "answer": "# LBTESTCD in the LB Domain\n\n## Variable Definition\n\n| Attribute | Value |\n|-----------|-------|\n| **Label** | Lab Test or Examination Short Name |\n| **Type** | Char |\n| **Role** | Topic |\n| **Core** | Req |\n| **Controlled Terms** | C65047 (Laboratory Test Code) |\n\n[Source: domains/LB/spec.md -- LBTESTCD]\n\n---\n\n## Role\n\nLBTESTCD serves as the **Topic variable** in the LB domain — it specifies the focus of the observation (i.e., the identity of the laboratory test or examination being performed). As a Topic variable, it is the primary descriptor around which all other qualifiers, result values, and timing variables are organized.\n\n[Source: domains/LB/spec.md -- LBTESTCD]\n\n---\n\n## Controlled Terminology\n\nLBTESTCD uses codelist **C65047** (Laboratory Test Code). This codelist contains standardized short names for laboratory tests. Examples of valid values from this codelist include:\n\n- `KIM1S` — Soluble Kidney Injury Molecule-1\n- `LACTICAC` — Lactic Acid\n- `LAP` — Leucine Aminopeptidase\n- `KLCFR` — Kappa Light Chain, Free\n\n[Source: domains/LB/spec.md -- Controlled Terminology]  \n[Source: terminology/core/lb_part2.md]\n\n---\n\n## Naming Constraints\n\nLBTESTCD is subject to three strict formatting rules:\n\n1. **Length**: The value cannot be longer than **8 characters**.\n2. **Starting character**: The value **cannot start with a number** (e.g., `\"1TEST\"` is not valid).\n3. **Allowed characters**: The value **cannot contain characters other than letters, numbers, or underscores**.\n\nThese constraints exist because LBTESTCD can be used as a **column name** when converting a dataset from vertical to horizontal (transposed) format.\n\n[Source: domains/LB/spec.md -- LBTESTCD]\n\n---\n\n## Relationship to LBTEST\n\nLBTESTCD is paired with **LBTEST** (Lab Test or Examination Name, codelist C67154), which holds the full verbatim name of the test (up to 40 characters, e.g., `\"Alanine Aminotransferase\"`). LBTEST carries the Role of **Synonym Qualifier** relative to LBTESTCD.\n\n[Source: domains/LB/spec.md -- LBTEST]\n\n---\n\n## Special Usage: Tests Not Done\n\nWhen an entire group of tests was not performed, LBTESTCD should be set to `\"LBALL\"` (with LBTEST = `\"Laboratory Test Results\"` and LBSTAT = `\"NOT DONE\"`), representing all tests in a given category.\n\n[Source: chapters/ch04_general_assumptions.md -- 4.5.1 Original and Standardized Results]",
      "judge_fact_recall": 1.0,
      "judge_fact_hits": [
        "Topic",
        "C65047",
        "8 characters"
      ],
      "judge_fact_misses": [],
      "judge_parse_ok": true,
      "elapsed_s": 46.61
    },
    {
      "id": "q22",
      "category": "single_domain",
      "question": "What is the VS (Vital Signs) domain and what are some examples of VSTESTCD values? Include the codelist code.",
      "source_recall": 1.0,
      "source_hits": [
        "domains/VS/spec.md"
      ],
      "source_misses": [],
      "top5_sources": [
        "domains/VS/spec.md",
        "terminology/core/vs.md",
        "domains/VS/spec.md",
        "VARIABLE_INDEX.md",
        "domains/VS/assumptions.md"
      ],
      "top5_similarities": [
        0.7384,
        0.5465,
        0.6467,
        0.6305,
        0.6914
      ],
      "fact_recall": 1.0,
      "fact_hits": [
        "Findings",
        "VSTESTCD",
        "C66741"
      ],
      "fact_misses": [],
      "answer_preview": "# VS (Vital Signs) Domain\n\n## Overview\n\nThe VS domain belongs to the **Findings** observation class and captures vital signs measurements collected during a clinical study. It is one of the most commonly submitted safety domains in regulatory submissions.\n\n[Source: chapters/ch03_submitting_data.md]\n\n---\n\n## Key Variables\n\n| Variable | Label | Type | Role | Core | CT |\n|----------|-------|------|------|------|----|\n| VSTESTCD | Vital Signs Test Short Name | Char | Topic | Req | C66741 |\n| VSTEST | Vital Signs Test Name | Char | Synonym Qualifier | Req | C67153 |\n| VSORRES | Result or Finding in",
      "usage": {
        "prompt_tokens": 16730,
        "completion_tokens": 1140,
        "total_tokens": 17870
      },
      "model": "anthropic/claude-sonnet-4-6",
      "answer": "# VS (Vital Signs) Domain\n\n## Overview\n\nThe VS domain belongs to the **Findings** observation class and captures vital signs measurements collected during a clinical study. It is one of the most commonly submitted safety domains in regulatory submissions.\n\n[Source: chapters/ch03_submitting_data.md]\n\n---\n\n## Key Variables\n\n| Variable | Label | Type | Role | Core | CT |\n|----------|-------|------|------|------|----|\n| VSTESTCD | Vital Signs Test Short Name | Char | Topic | Req | C66741 |\n| VSTEST | Vital Signs Test Name | Char | Synonym Qualifier | Req | C67153 |\n| VSORRES | Result or Finding in Original Units | Char | Result Qualifier | Exp | — |\n| VSORRESU | Original Units | Char | Variable Qualifier | Exp | C66770 |\n| VSSTRESC | Character Result/Finding in Std Format | Char | Result Qualifier | Exp | — |\n| VSSTRESN | Numeric Result/Finding in Standard Units | Num | Result Qualifier | Exp | — |\n| VSSTRESU | Standard Units | Char | Variable Qualifier | Exp | C66770 |\n| VSSTAT | Completion Status | Char | Record Qualifier | Perm | C66789 |\n| VSPOS | Vital Signs Position of Subject | Char | Record Qualifier | Perm | C71148 |\n| VSLOC | Location of Vital Signs Measurement | Char | Record Qualifier | Perm | C74456 |\n\n[Source: domains/VS/spec.md, VARIABLE_INDEX.md]\n\n---\n\n## VSTESTCD — Vital Signs Test Short Name\n\n- **Codelist:** C66741 (Vital Signs Test Code)\n- **Paired with:** VSTEST (C67153, Vital Signs Test Name)\n- **Constraints:** ≤ 8 characters, must not start with a number, letters/numbers/underscores only\n\n**Examples provided in the CDISC Notes:**\n\n| VSTESTCD | VSTEST |\n|----------|--------|\n| SYSBP | Systolic Blood Pressure |\n| DIABP | Diastolic Blood Pressure |\n| BMI | Body Mass Index |\n\n[Source: domains/VS/spec.md — VSTESTCD, VSTEST]\n\n> **Note:** The full list of allowed VSTESTCD values is defined in codelist **C66741**. The individual value codes within C66741 must be confirmed in the CDISC terminology file (`terminology/core/vs.md`); only the value names above are shown in the retrieved context.\n\n---\n\n## Units (VSORRESU / VSSTRESU) — Codelist C66770\n\nThis codelist is **extensible**. Examples of standard units include:\n\n| Submission Value | Description |\n|-----------------|-------------|\n| `beats/min` | Beats per Minute (e.g., heart rate) |\n| `breaths/min` | Breaths per Minute (e.g., respiratory rate) |\n| `C` | Degree Celsius (e.g., temperature) |\n| `F` | Degree Fahrenheit |\n| `mmHg` | Millimeter of Mercury (e.g., blood pressure) |\n| `kg` | Kilogram (e.g., body weight) |\n| `kg/m2` | Kilogram per Square Meter (e.g., BMI) |\n| `cm` | Centimeter (e.g., height) |\n| `%` | Percentage (e.g., oxygen saturation) |\n\n[Source: terminology/core/vs.md — Units for Vital Signs Results (C66770)]\n\n---\n\n## Additional Notes\n\n- Reference ranges can be represented using `VSORNRLO`, `VSORNRHI`, and `VSNRIND` (from the Findings observation class). [Source: domains/VS/assumptions.md — item_2]\n- Toxicity grading is captured in `VSTOX` and `VSTOXGR`. [Source: domains/VS/assumptions.md — item_2]\n- Clinical significance is captured in `VSCLSIG` (codelist C66742, No Yes Response). [Source: domains/VS/spec.md]\n- When a vital sign was not performed, `VSSTAT = \"NOT DONE\"` (codelist C66789) and `VSORRES`/`VSSTRESC`/`VSSTRESN` must all be null. [Source: chapters/ch04_general_assumptions.md — 4.5.1]\n- Associations between specific vital sign tests and qualifier codelists are described in the VS codetable at the CDISC terminology site. [Source: domains/VS/assumptions.md — item_3]",
      "judge_fact_recall": 1.0,
      "judge_fact_hits": [
        "Findings",
        "VSTESTCD",
        "C66741"
      ],
      "judge_fact_misses": [],
      "judge_parse_ok": true,
      "elapsed_s": 53.48
    },
    {
      "id": "q23",
      "category": "single_domain",
      "question": "In the CM (Concomitant Medications) domain, what is the CMTRT variable and what observation class does CM belong to?",
      "source_recall": 1.0,
      "source_hits": [
        "domains/CM/spec.md"
      ],
      "source_misses": [],
      "top5_sources": [
        "domains/CM/spec.md",
        "domains/CM/spec.md",
        "domains/CM/spec.md",
        "domains/CM/spec.md",
        "domains/CM/assumptions.md"
      ],
      "top5_similarities": [
        0.6736,
        0.6034,
        0.5926,
        0.5843,
        0.6595
      ],
      "fact_recall": 1.0,
      "fact_hits": [
        "CMTRT",
        "Interventions",
        "Topic",
        "Req"
      ],
      "fact_misses": [],
      "answer_preview": "## CM Domain: CMTRT Variable and Observation Class\n\n### CMTRT Variable Definition\n\n| Attribute | Value |\n|-----------|-------|\n| **Label** | Reported Name of Drug, Med, or Therapy |\n| **Type** | Char |\n| **Role** | Topic |\n| **Core** | Req |\n| **Controlled Terms** | *(none — free text)* |\n| **Order** | 7 |\n\n**CDISC Notes:** Verbatim medication name that is either preprinted or collected on a CRF. [Source: domains/CM/spec.md]\n\n#### Key Business Rules for CMTRT\n\n- CMTRT is the **topic variable** and captures the name of the concomitant medication/therapy, or the prespecified term used to collect",
      "usage": {
        "prompt_tokens": 17351,
        "completion_tokens": 522,
        "total_tokens": 17873
      },
      "model": "anthropic/claude-sonnet-4-6",
      "answer": "## CM Domain: CMTRT Variable and Observation Class\n\n### CMTRT Variable Definition\n\n| Attribute | Value |\n|-----------|-------|\n| **Label** | Reported Name of Drug, Med, or Therapy |\n| **Type** | Char |\n| **Role** | Topic |\n| **Core** | Req |\n| **Controlled Terms** | *(none — free text)* |\n| **Order** | 7 |\n\n**CDISC Notes:** Verbatim medication name that is either preprinted or collected on a CRF. [Source: domains/CM/spec.md]\n\n#### Key Business Rules for CMTRT\n\n- CMTRT is the **topic variable** and captures the name of the concomitant medication/therapy, or the prespecified term used to collect information about the occurrence of any group of medications/therapies. It is **required** and must have a value. [Source: domains/CM/assumptions.md]\n- CMTRT contains **only** the medication/therapy name — it does **not** include dosage, formulation, or other qualifying information. For example, `\"ASPIRIN 100MG TABLET\"` is **not** a valid value. The correct representation would be:\n  - `CMTRT = \"ASPIRIN\"`, `CMDOSE = \"100\"`, `CMDOSU = \"MG\"`, `CMDOSFRM = \"TABLET\"` [Source: domains/CM/assumptions.md]\n- When referring to a prespecified group of medications/therapies, CMTRT contains the description of the group used to solicit the occurrence response. [Source: domains/CM/assumptions.md]\n\n---\n\n### Observation Class\n\nThe CM domain belongs to the **Interventions** observation class.\n\n> \"An interventions domain that contains concomitant and prior medications used by the subject, such as those given on an as needed basis or condition-appropriate medications.\" [Source: domains/CM/assumptions.md]\n\nThe dataset descriptor confirms this: `cm.xpt, Concomitant/Prior Medications — **Interventions**. One record per recorded intervention occurrence or constant-dosing interval per subject, Tabulation.` [Source: domains/CM/assumptions.md]",
      "judge_fact_recall": 1.0,
      "judge_fact_hits": [
        "CMTRT",
        "Interventions",
        "Topic",
        "Req"
      ],
      "judge_fact_misses": [],
      "judge_parse_ok": true,
      "elapsed_s": 13.77
    },
    {
      "id": "q24",
      "category": "single_domain",
      "question": "What is the EX (Exposure) domain used for and what is the Topic variable EXTRT?",
      "source_recall": 1.0,
      "source_hits": [
        "domains/EX/spec.md"
      ],
      "source_misses": [],
      "top5_sources": [
        "domains/EX/spec.md",
        "domains/EX/spec.md",
        "domains/EX/spec.md",
        "domains/EX/spec.md",
        "domains/EX/assumptions.md"
      ],
      "top5_similarities": [
        0.5483,
        0.5451,
        0.5409,
        0.537,
        0.6559
      ],
      "fact_recall": 1.0,
      "fact_hits": [
        "EXTRT",
        "Interventions",
        "protocol-specified"
      ],
      "fact_misses": [],
      "answer_preview": "# EX (Exposure) Domain — Purpose and EXTRT Topic Variable\n\n## Domain Purpose\n\nThe EX domain captures **protocol-specified study treatment administrations** received by subjects. Examples of treatments represented include placebo, active comparators, and investigational products. Treatments that are **not** protocol-specified should be represented in CM or another Interventions domain instead. [Source: domains/EX/assumptions.md -- item_1]\n\nKey structural characteristics:\n- **Required** for all studies that include protocol-specified study treatment [Source: domains/EX/assumptions.md -- item_1]\n",
      "usage": {
        "prompt_tokens": 16324,
        "completion_tokens": 755,
        "total_tokens": 17079
      },
      "model": "anthropic/claude-sonnet-4-6",
      "answer": "# EX (Exposure) Domain — Purpose and EXTRT Topic Variable\n\n## Domain Purpose\n\nThe EX domain captures **protocol-specified study treatment administrations** received by subjects. Examples of treatments represented include placebo, active comparators, and investigational products. Treatments that are **not** protocol-specified should be represented in CM or another Interventions domain instead. [Source: domains/EX/assumptions.md -- item_1]\n\nKey structural characteristics:\n- **Required** for all studies that include protocol-specified study treatment [Source: domains/EX/assumptions.md -- item_1]\n- In most cases recognized as a **derived dataset**, where collected data points (e.g., number of tablets, total volume infused) along with additional inputs (e.g., randomization file, concentration, dosage strength, product accountability) are used to derive EX records [Source: domains/EX/assumptions.md -- item_1]\n- Should contain **1 record per constant-dosing interval per subject** [Source: domains/EX/assumptions.md -- item_1]\n- Belongs to the **Interventions** observation class [Source: VARIABLE_INDEX.md -- EX — Exposure (Interventions)]\n\nCommon derivation methods (most to least direct):\n1. Derived from actual observation of administration by the investigator\n2. Derived from automated dispensing device\n3. Derived from subject recall\n4. Derived from product accountability data\n5. Derived from the protocol [Source: domains/EX/assumptions.md -- item_1]\n\n---\n\n## Topic Variable: EXTRT\n\n| Attribute | Value |\n|-----------|-------|\n| **Label** | Name of Treatment |\n| **Type** | Char |\n| **Role** | Topic |\n| **Core** | Req |\n| **Controlled Terms** | — |\n\n[Source: VARIABLE_INDEX.md -- EX — Exposure (Interventions)]\n\n### Key Rules for EXTRT\n\n- **Required variable — must always have a value** [Source: domains/EX/assumptions.md -- item_2]\n- Must contain **only the treatment name** — dosage, formulation, or other qualifying information must NOT be included in EXTRT\n- **Invalid example:** `EXTRT = \"ASPIRIN 100MG TABLET\"`\n- **Correct representation:**\n  - `EXTRT = \"ASPIRIN\"`\n  - `EXDOSE = 100`\n  - `EXDOSU = \"mg\"`\n  - `EXDOSFRM = \"TABLET\"` [Source: domains/EX/assumptions.md -- item_2]\n- For **placebo**, use `EXTRT = \"PLACEBO\"` and `EXDOSE = 0` (indicating 0 mg of active ingredient) [Source: domains/EX/assumptions.md -- item_2]\n\n---\n\n## Relationship with EC Domain\n\nCollected exposure data points (as opposed to derived/protocol-specified values) are represented in the **EC (Exposure as Collected)** domain. When the relationship between EC and EX records can be described in RELREC, it should be defined. EX derivations must be described in the Define-XML document. [Source: domains/EX/assumptions.md -- item_5]",
      "judge_fact_recall": 1.0,
      "judge_fact_hits": [
        "EXTRT",
        "Interventions",
        "protocol-specified"
      ],
      "judge_fact_misses": [],
      "judge_parse_ok": true,
      "elapsed_s": 50.36
    },
    {
      "id": "q25",
      "category": "single_domain",
      "question": "In the MH (Medical History) domain, what is the role of MHTERM and what assumptions guide medical history data collection?",
      "source_recall": 1.0,
      "source_hits": [
        "domains/MH/assumptions.md"
      ],
      "source_misses": [],
      "top5_sources": [
        "domains/MH/spec.md",
        "domains/MH/spec.md",
        "domains/MH/spec.md",
        "domains/MH/spec.md",
        "domains/MH/assumptions.md"
      ],
      "top5_similarities": [
        0.6764,
        0.6118,
        0.5939,
        0.5859,
        0.7369
      ],
      "fact_recall": 1.0,
      "fact_hits": [
        "MHTERM",
        "Topic",
        "Verbatim"
      ],
      "fact_misses": [],
      "answer_preview": "# MH Domain: MHTERM Role and Data Collection Assumptions\n\n## MHTERM Variable Definition\n\n| Attribute | Value |\n|-----------|-------|\n| **Label** | Reported Term for the Medical History |\n| **Type** | Char |\n| **Role** | Topic |\n| **Core** | Req |\n| **Controlled Terms** | *(none)* |\n\nMHTERM captures the verbatim or preprinted CRF term for the medical condition or event. As the **Topic** variable, it is the primary subject of each MH record and is **required** — it must always have a value.\n\n[Source: domains/MH/spec.md -- MHTERM]\n\n---\n\n## Domain Overview\n\nMH is an **Events** domain containing da",
      "usage": {
        "prompt_tokens": 17289,
        "completion_tokens": 1264,
        "total_tokens": 18553
      },
      "model": "anthropic/claude-sonnet-4-6",
      "answer": "# MH Domain: MHTERM Role and Data Collection Assumptions\n\n## MHTERM Variable Definition\n\n| Attribute | Value |\n|-----------|-------|\n| **Label** | Reported Term for the Medical History |\n| **Type** | Char |\n| **Role** | Topic |\n| **Core** | Req |\n| **Controlled Terms** | *(none)* |\n\nMHTERM captures the verbatim or preprinted CRF term for the medical condition or event. As the **Topic** variable, it is the primary subject of each MH record and is **required** — it must always have a value.\n\n[Source: domains/MH/spec.md -- MHTERM]\n\n---\n\n## Domain Overview\n\nMH is an **Events** domain containing data on a subject's prior medical history at the start of the trial.\n\n[Source: domains/MH/assumptions.md -- overview]\n\n---\n\n## Key Assumptions Governing MH Data Collection\n\n### 1. Description and Coding (Assumption 2)\n\n- **MHTERM** is the topic variable capturing either the verbatim term collected or the prespecified term used to solicit occurrence of conditions. It is required and must have a value.\n- **MHMODIFY** is permissible; include it if the sponsor's procedure permits modification of a verbatim term for coding purposes.\n- **MHDECOD** is populated with the preferred term from a standard dictionary when the sponsor codes MHTERM. The dictionary name and version must be provided via the external codelist element in Define-XML.\n- **MHBODSYS** represents the System Organ Class (SOC) from the coding dictionary. It may differ from the primary SOC in the dictionary's standard hierarchy, and is expected to be populated.\n- When a CRF collects history by prespecified body systems **and** the sponsor codes using a dictionary, MHDECOD/MHBODSYS come from the dictionary, while **MHCAT/MHSCAT** represent the prespecified body systems.\n\n[Source: domains/MH/assumptions.md -- item_2]\n\n---\n\n### 2. Categorization and Grouping (Assumption 3)\n\n- **MHCAT** and **MHSCAT** may be populated with the sponsor's predefined categorization (often prespecified on the CRF).\n  - MHCAT should **not** group all MH records into one generic label (e.g., \"Medical History\") — that is redundant with the domain code. If no smaller categorization applies, omit the variable.\n  - Example valid MHCAT values: \"GENERAL MEDICAL HISTORY\", \"ALLERGY MEDICAL HISTORY\", \"REPRODUCTIVE MEDICAL HISTORY\" (with multiple distinct categories present).\n- **MHGRPID** links related records at the subject level within MH (e.g., grouping syndromes related to a particular disease). It is **not** a substitute for MHCAT/MHSCAT, which group data across subjects.\n\n[Source: domains/MH/assumptions.md -- item_3]\n\n---\n\n### 3. Prespecified Terms and Presence/Absence of Events (Assumption 4)\n\nMedical history is collected in two ways — **free text** or **prespecified lists** — and the collection method must be reflected in the data:\n\n| Situation | MHPRESP | MHOCCUR | MHSTAT |\n|-----------|---------|---------|--------|\n| Spontaneously reported event occurred | *(null)* | *(null)* | *(null)* |\n| Pre-specified event occurred | Y | Y | *(null)* |\n| Pre-specified event did not occur | Y | N | *(null)* |\n| Pre-specified event has no response | Y | *(null)* | NOT DONE |\n\nKey rules:\n- **MHPRESP = \"Y\"** indicates the term was prespecified on the CRF.\n- **MHOCCUR** (CT: C66742) indicates whether the prespecified condition occurred (\"Y\"/\"N\"). Values are **null** for spontaneously reported events.\n- If all events were collected as free text, MHPRESP and MHOCCUR should be null and may be omitted from the dataset entirely.\n- **MHSTAT** and **MHREASND** document prespecified questions for which no response was collected (MHSTAT = \"NOT DONE\"). These variables may be omitted if all events were free text or all prespecified conditions have responses in MHOCCUR.\n- When free-text collection yields a \"no medical history\" entry for a subject or body system, **do not** include a record in MH to indicate no events.\n\n[Source: domains/MH/assumptions.md -- item_4]\n\n---\n\n## Practical Illustration\n\nFrom Example 2, the interaction of these variables is visible:\n\n- Rows 1–3: Free-text General Medical History → MHPRESP and MHOCCUR are **null**; MHSCAT holds the body system; MHENRF reflects \"ongoing at study start.\"\n- Rows 5–8: Risk Factors CRF (prespecified) → MHPRESP = \"Y\"; MHOCCUR = \"Y\" or \"N\" per subject response.\n\n[Source: domains/MH/examples.md -- Example 2]",
      "judge_fact_recall": 1.0,
      "judge_fact_hits": [
        "MHTERM",
        "Topic",
        "Verbatim"
      ],
      "judge_fact_misses": [],
      "judge_parse_ok": true,
      "elapsed_s": 26.64
    },
    {
      "id": "q26",
      "category": "single_domain",
      "question": "Describe the EG (ECG Test Results) domain structure and the EGTESTCD variable, including its controlled terminology codelist codes.",
      "source_recall": 1.0,
      "source_hits": [
        "domains/EG/spec.md"
      ],
      "source_misses": [],
      "top5_sources": [
        "domains/EG/spec.md",
        "terminology/core/eg_part3.md",
        "terminology/core/eg_part2.md",
        "domains/EG/spec.md",
        "VARIABLE_INDEX.md"
      ],
      "top5_similarities": [
        0.7263,
        0.5879,
        0.5242,
        0.7253,
        0.6737
      ],
      "fact_recall": 1.0,
      "fact_hits": [
        "EGTESTCD",
        "Findings",
        "C71153"
      ],
      "fact_misses": [],
      "answer_preview": "# EG (ECG Test Results) Domain — Structure and EGTESTCD Variable\n\n## Domain Overview\n\nThe EG domain belongs to the **Findings** observation class and captures ECG test results. [Source: VARIABLE_INDEX.md — EG — ECG Test Results (Findings)]\n\n---\n\n## Domain Variable Structure\n\nThe EG domain contains the following variables (in order):\n\n### Identifiers\n| Variable | Label | Type | Role | Core |\n|----------|-------|------|------|------|\n| EGSEQ | Sequence Number | Num | Identifier | Req |\n| EGGRPID | Group ID | Char | Identifier | Perm |\n| EGREFID | ECG Reference ID | Char | Identifier | Perm |\n| E",
      "usage": {
        "prompt_tokens": 19644,
        "completion_tokens": 2644,
        "total_tokens": 22288
      },
      "model": "anthropic/claude-sonnet-4-6",
      "answer": "# EG (ECG Test Results) Domain — Structure and EGTESTCD Variable\n\n## Domain Overview\n\nThe EG domain belongs to the **Findings** observation class and captures ECG test results. [Source: VARIABLE_INDEX.md — EG — ECG Test Results (Findings)]\n\n---\n\n## Domain Variable Structure\n\nThe EG domain contains the following variables (in order):\n\n### Identifiers\n| Variable | Label | Type | Role | Core |\n|----------|-------|------|------|------|\n| EGSEQ | Sequence Number | Num | Identifier | Req |\n| EGGRPID | Group ID | Char | Identifier | Perm |\n| EGREFID | ECG Reference ID | Char | Identifier | Perm |\n| EGSPID | Sponsor-Defined Identifier | Char | Identifier | Perm |\n| EGBEATNO | ECG Beat Number | Num | Identifier | Perm |\n\n### Topic\n| Variable | Label | Type | Role | Core | CT |\n|----------|-------|------|------|------|----|\n| EGTESTCD | ECG Test or Examination Short Name | Char | Topic | Req | C71153; C120523 |\n| EGTEST | ECG Test or Examination Name | Char | Synonym Qualifier | Req | C71152; C120524 |\n\n### Grouping Qualifiers\n| Variable | Label | Type | Role | Core |\n|----------|-------|------|------|------|\n| EGCAT | Category for ECG | Char | Grouping Qualifier | Perm |\n| EGSCAT | Subcategory for ECG | Char | Grouping Qualifier | Perm |\n\n### Record Qualifiers\n| Variable | Label | Type | Role | Core | CT |\n|----------|-------|------|------|------|----|\n| EGPOS | ECG Position of Subject | Char | Record Qualifier | Perm | C71148 |\n| EGORRES | Result or Finding in Original Units | Char | Result Qualifier | Exp | — |\n| EGORRESU | Original Units | Char | Variable Qualifier | Perm | C71620 |\n| EGSTRESC | Character Result/Finding in Std Format | Char | Result Qualifier | Exp | C71150; C120522; C101834 |\n| EGSTRESN | Numeric Result/Finding in Standard Units | Num | Result Qualifier | Perm | — |\n| EGSTRESU | Standard Units | Char | Variable Qualifier | Perm | C71620 |\n| EGSTAT | Completion Status | Char | Record Qualifier | Perm | C66789 |\n| EGREASND | Reason ECG Not Done | Char | Record Qualifier | Perm | — |\n| EGXFN | ECG External File Path | Char | Record Qualifier | Perm | — |\n| EGNAM | Vendor Name | Char | Record Qualifier | Perm | — |\n| EGMETHOD | Method of Test or Examination | Char | Record Qualifier | Perm | C71151 |\n| EGLEAD | Lead Location Used for Measurement | Char | Record Qualifier | Perm | C90013 |\n| EGLOBXFL | Last Observation Before Exposure Flag | Char | Record Qualifier | Exp | C66742 |\n| EGBLFL | Baseline Flag | Char | Record Qualifier | Perm | C66742 |\n| EGDRVFL | Derived Flag | Char | Record Qualifier | Perm | C66742 |\n| EGEVAL | Evaluator | Char | Record Qualifier | Perm | C78735 |\n| EGEVALID | Evaluator Identifier | Char | Variable Qualifier | Perm | C96777 |\n| EGCLSIG | Clinically Significant, Collected | Char | Record Qualifier | Perm | C66742 |\n| EGREPNUM | Repetition Number | Num | Record Qualifier | Perm | — |\n\n### Timing Variables\n| Variable | Label | Type | Role | Core | CT |\n|----------|-------|------|------|------|----|\n| EGDTC | Date/Time of ECG | Char | Timing | Exp | ISO 8601 datetime or interval |\n| EGDY | Study Day of ECG | Num | Timing | Perm | — |\n| EGTPT | Planned Time Point Name | Char | Timing | Perm | — |\n| EGTPTNUM | Planned Time Point Number | Num | Timing | Perm | — |\n| EGELTM | Planned Elapsed Time from Time Point Ref | Char | Timing | Perm | ISO 8601 duration |\n| EGTPTREF | Time Point Reference | Char | Timing | Perm | — |\n| EGRFTDTC | Date/Time of Reference Time Point | Char | Timing | Perm | ISO 8601 datetime or interval |\n\n[Source: domains/EG/spec.md; VARIABLE_INDEX.md]\n\n---\n\n## EGTESTCD — Detailed Specification\n\n| Attribute | Value |\n|-----------|-------|\n| **Order** | 10 |\n| **Label** | ECG Test or Examination Short Name |\n| **Type** | Char |\n| **Role** | Topic |\n| **Core** | Req |\n| **Controlled Terms** | **C71153** (ECG Test Code); **C120523** (Holter ECG Test Code) |\n\n**CDISC Notes:** Short name of the measurement, test, or examination described in EGTEST. It can be used as a column name when converting a dataset from a vertical to a horizontal format. The value in EGTESTCD:\n- Cannot be longer than **8 characters**\n- Cannot start with a number (e.g., \"1TEST\" is not valid)\n- Cannot contain characters other than **letters, numbers, or underscores**\n- Examples: `\"PRAG\"`, `\"QRSAG\"`\n\n> **Key design note:** Test codes are in **2 separate codelists** — one for tests based on regular 10-second ECGs (codelist C71153, paired with EGTEST codelist C71152) and one for tests based on Holter monitoring (codelist C120523, paired with EGTEST codelist C120524).\n\n[Source: domains/EG/spec.md — EGTESTCD; domains/EG/assumptions.md — item_2]\n\n---\n\n## Controlled Terminology Codelists for EGTESTCD\n\n### C71153 — ECG Test Code\nUsed for standard 10-second ECG tests. Examples of values from this codelist include test codes such as `EGHRMN` (ECG Mean Heart Rate), `PRAG` (PR Interval, Aggregate), `QRSAG` (QRS Duration, Aggregate), `QTAG` (QT Interval, Aggregate), `QTCBAG`, `QTCFAG`, `INTP` (Interpretation), `TECHQUAL` (Technical Quality), etc. This codelist is **extensible**. [Source: domains/EG/examples.md — Example 1; domains/EG/spec.md]\n\n### C120523 — Holter ECG Test Code\nUsed for tests based on Holter monitoring. This codelist is **extensible** and includes the following values:\n\n| CDISC Submission Value | CDISC Synonym | Definition |\n|------------------------|---------------|------------|\n| AVCOND | Atrioventricular Conduction | ECG assessment of cardiac atrioventricular conduction |\n| AXISVOLT | Axis and Voltage | Assessment of mean cardiac electrical vector and ECG voltage |\n| CHYPTENL | Chamber Hypertrophy or Enlargement | ECG assessment of chamber hypertrophy or enlargement |\n| EGCOMP | Comparison to a Prior ECG | Comparative interpretation relative to a previous ECG |\n| INTP | Interpretation | Elucidation/explanation of the meaning of the event |\n| IVTIACD | Intraventricular-Intraatrial Conduction | Assessment of intraventricular and intra-atrial conduction |\n| MI | Myocardial Infarction | ECG assessment of findings suggestive of myocardial infarction |\n| PACEMAKR | Pacemaker | ECG assessment of presence of artificial electronic pacing |\n| RHYNOS | Rhythm Not Otherwise Specified | ECG assessment of cardiac rhythm NOS |\n| SNRARRY | Sinus Node Rhythms and Arrhythmias | Assessment of sinus node rhythms and arrhythmias |\n| SPRARRY | Supraventricular Arrhythmias | Assessment of supraventricular arrhythmias (excl. tachycardias) |\n| SPRTARRY | Supraventricular Tachyarrhythmias | Assessment of supraventricular tachyarrhythmias |\n| STSTWUW | ST Segment, T wave, and U wave | Assessment of ST segment, T wave, and U wave characteristics |\n| TECHQUAL | Technical Quality | Statement about ECG recording describing technical issues |\n| VTARRY | Ventricular Arrhythmias | Assessment of ventricular arrhythmias (excl. tachycardias) |\n| VTTARRY | Ventricular Tachyarrhythmias | Assessment of ventricular tachyarrhythmias |\n\n[Source: terminology/core/eg_part3.md — Holter ECG Test Code (C120523)]\n\n---\n\n## Key Design Notes\n\n1. **Two-codelist architecture**: The split between C71153 (standard ECG) and C120523 (Holter) mirrors the same split for EGTEST (C71152 and C120524 respectively). [Source: domains/EG/spec.md — EGTEST; domains/EG/assumptions.md — item_2]\n\n2. **EGCAT usage**: EGCAT (no controlled terminology) is used to group ECG observations, with sponsor-defined values such as `\"MEASUREMENT\"`, `\"FINDING\"`, `\"INTERVAL\"`. [Source: domains/EG/spec.md — EGCAT]\n\n3. **Holter linkage**: When Holter monitoring data is collected, the PR domain records the procedure, EG records the findings, and RELREC links them via `--LNKID`. [Source: domains/PR/examples.md — Example 2]\n\n4. **QT correction models**: When used with a QT correction model domain, EGTESTCD/EGTEST values are assigned at the study level with clear documentation (e.g., `QTCIAG1`, `QTCIAG2` for ranked best-fit models). [Source: domains/EG/assumptions.md — item_10]",
      "judge_fact_recall": 1.0,
      "judge_fact_hits": [
        "EGTESTCD",
        "Findings",
        "C71153"
      ],
      "judge_fact_misses": [],
      "judge_parse_ok": true,
      "elapsed_s": 77.5
    },
    {
      "id": "q27",
      "category": "single_domain",
      "question": "What is the IE (Inclusion/Exclusion) domain and what is the role and maximum length of the IETEST variable?",
      "source_recall": 1.0,
      "source_hits": [
        "domains/IE/spec.md"
      ],
      "source_misses": [],
      "top5_sources": [
        "domains/IE/spec.md",
        "domains/IE/spec.md",
        "domains/IE/spec.md",
        "domains/IE/spec.md",
        "domains/TI/spec.md"
      ],
      "top5_similarities": [
        0.6769,
        0.607,
        0.5335,
        0.5254,
        0.7161
      ],
      "fact_recall": 1.0,
      "fact_hits": [
        "IETEST",
        "200",
        "Synonym Qualifier"
      ],
      "fact_misses": [],
      "answer_preview": "## IE Domain Overview\n\nThe IE domain — **Inclusion/Exclusion Criteria Not Met** — is a **Findings** class domain. Its intent is to collect responses **only for those criteria that a subject did not meet** (i.e., exceptions), not responses to all criteria. For the complete list of inclusion/exclusion criteria, the TI (Trial Inclusion/Exclusion Criteria) domain is the appropriate reference. [Source: domains/IE/assumptions.md -- item_1]\n\n---\n\n## IETEST Variable Definition\n\n| Attribute | Value |\n|-----------|-------|\n| **Label** | Inclusion/Exclusion Criterion |\n| **Type** | Char |\n| **Role** | Sy",
      "usage": {
        "prompt_tokens": 11779,
        "completion_tokens": 497,
        "total_tokens": 12276
      },
      "model": "anthropic/claude-sonnet-4-6",
      "answer": "## IE Domain Overview\n\nThe IE domain — **Inclusion/Exclusion Criteria Not Met** — is a **Findings** class domain. Its intent is to collect responses **only for those criteria that a subject did not meet** (i.e., exceptions), not responses to all criteria. For the complete list of inclusion/exclusion criteria, the TI (Trial Inclusion/Exclusion Criteria) domain is the appropriate reference. [Source: domains/IE/assumptions.md -- item_1]\n\n---\n\n## IETEST Variable Definition\n\n| Attribute | Value |\n|-----------|-------|\n| **Label** | Inclusion/Exclusion Criterion |\n| **Type** | Char |\n| **Role** | Synonym Qualifier |\n| **Core** | Req |\n| **Controlled Terms** | *(none)* |\n| **Maximum Length** | **200 characters** |\n\n[Source: domains/IE/spec.md -- IETEST]\n\n### Key Business Rules for IETEST\n\n1. **Content**: Contains the **verbatim description** of the inclusion or exclusion criterion that was the exception for the subject. [Source: domains/IE/spec.md -- IETEST]\n\n2. **Length handling**:\n   - If the criterion text is **≤ 200 characters** → place it directly in IETEST.\n   - If the criterion text is **> 200 characters** → place meaningful (truncated) text in IETEST and describe the **full text in the study metadata**. [Source: domains/IE/assumptions.md -- item_3]\n\n3. **Scope**: IETEST is to be used **only** for the verbatim description of the criterion — no other content. [Source: domains/IE/assumptions.md -- item_3]\n\n---\n\n### Relationship to TI Domain\n\nThe same variable name IETEST also appears in the **TI domain** (Trial Inclusion/Exclusion Criteria), where it holds the **full text of the criterion** at the trial design level. The \"IE\" prefix is used in TI specifically to ensure consistency with the IE domain. [Source: domains/TI/spec.md -- IETEST]",
      "judge_fact_recall": 1.0,
      "judge_fact_hits": [
        "IETEST",
        "200",
        "Synonym Qualifier"
      ],
      "judge_fact_misses": [],
      "judge_parse_ok": true,
      "elapsed_s": 10.54
    },
    {
      "id": "q06",
      "category": "cross_domain",
      "question": "What is SUPPQUAL and when should supplemental qualifiers be used instead of adding variables to a domain?",
      "source_recall": 1.0,
      "source_hits": [
        "domains/SUPPQUAL/spec.md"
      ],
      "source_misses": [],
      "top5_sources": [
        "domains/SUPPQUAL/spec.md",
        "domains/SUPPQUAL/spec.md",
        "domains/SUPPQUAL/spec.md",
        "domains/SUPPQUAL/spec.md",
        "domains/SUPPQUAL/assumptions.md"
      ],
      "top5_similarities": [
        0.5533,
        0.4872,
        0.4705,
        0.4564,
        0.7409
      ],
      "fact_recall": 1.0,
      "fact_hits": [
        "QNAM",
        "QVAL",
        "non-standard"
      ],
      "fact_misses": [],
      "answer_preview": "# SUPPQUAL — Supplemental Qualifiers\n\n## What is SUPPQUAL?\n\nSUPPQUAL (Supplemental Qualifiers) is a **Relationship-class** dataset structure used to capture non-standard variables (NSVs) that cannot be accommodated within standard SDTM domain datasets. [Source: domains/SUPPQUAL/assumptions.md]\n\nThe SDTM model does not allow the addition of new variables to standard domains. Therefore, the SUPP-- dataset model provides the mechanism for capturing sponsor-defined variables and associating them with parent records. [Source: chapters/ch08_relationships.md -- 8.4.1]\n\n### Dataset Naming Convention\n\n",
      "usage": {
        "prompt_tokens": 18486,
        "completion_tokens": 1618,
        "total_tokens": 20104
      },
      "model": "anthropic/claude-sonnet-4-6",
      "answer": "# SUPPQUAL — Supplemental Qualifiers\n\n## What is SUPPQUAL?\n\nSUPPQUAL (Supplemental Qualifiers) is a **Relationship-class** dataset structure used to capture non-standard variables (NSVs) that cannot be accommodated within standard SDTM domain datasets. [Source: domains/SUPPQUAL/assumptions.md]\n\nThe SDTM model does not allow the addition of new variables to standard domains. Therefore, the SUPP-- dataset model provides the mechanism for capturing sponsor-defined variables and associating them with parent records. [Source: chapters/ch08_relationships.md -- 8.4.1]\n\n### Dataset Naming Convention\n\nThere is a **one-to-one correspondence** between a domain dataset and its Supplemental Qualifier dataset, named `SUPP--` where `--` denotes the source domain:\n\n- `suppae.xpt` → supplemental qualifiers for AE\n- `suppdm.xpt` → supplemental qualifiers for DM\n- `suppfamh.xpt` → for split domains (longer names permitted)\n- `SQAPFAMH` → special case: when \"SUPP\" prefix would make the name too long (Associated Persons), shorten to \"SQ\"\n\nThe single SUPPQUAL dataset option introduced in SDTMIGv3.1 was **deprecated**. [Source: chapters/ch08_relationships.md -- 8.4.2]\n\n---\n\n## SUPP-- Dataset Structure\n\nThe dataset contains 13 variables (per the SDTM v2.0 model): [Source: model/06_relationship_datasets.md]\n\n| Variable | Label | Type | Role | Core |\n|----------|-------|------|------|------|\n| STUDYID | Study Identifier | Char | Identifier | Req |\n| RDOMAIN | Related Domain Abbreviation | Char | Identifier | Req |\n| USUBJID | Unique Subject Identifier | Char | Identifier | Req |\n| IDVAR | Identifying Variable | Char | Identifier | Exp |\n| IDVARVAL | Identifying Variable Value | Char | Identifier | Exp |\n| QNAM | Qualifier Variable Name | Char | Topic | Req |\n| QLABEL | Qualifier Variable Label | Char | Synonym Qualifier | Req |\n| QVAL | Data Value | Char | Result Qualifier | Req |\n| QORIG | Origin | Char | Record Qualifier | Req |\n| QEVAL | Evaluator | Char | Record Qualifier | Exp (CT: C78735) |\n\n### Key Variable Rules\n\n- **QNAM**: Max 8 characters; cannot start with a number; only letters, numbers, or underscores permitted [Source: domains/SUPPQUAL/spec.md -- QNAM]\n- **QVAL**: **Must never be null** — records with null QVAL must be deleted prior to submission [Source: chapters/ch08_relationships.md -- Key Rules]\n- **QLABEL**: Max 40 characters [Source: chapters/ch08_relationships.md -- 8.4.1]\n- **QEVAL**: Null for objective/derived data; populated (e.g., \"ADJUDICATION COMMITTEE\", \"SPONSOR\") only for subjective attributions [Source: domains/SUPPQUAL/spec.md -- QEVAL]\n\n### Linking Back to Parent Records\n\nA SUPP-- record links to its parent via **STUDYID + RDOMAIN + USUBJID + IDVAR/IDVARVAL**.\n\n**Exception for DM**: Both IDVAR and IDVARVAL are null because STUDYID + RDOMAIN + USUBJID alone uniquely identify the DM record (one record per USUBJID). [Source: domains/SUPPQUAL/assumptions.md]\n\n### Uniqueness Constraint\n\nThe combined set of values for the first 6 columns (STUDYID through QNAM) must be **unique for every record**. If two evaluators provide the same type of determination, separate QNAM values must be used (e.g., `AETRTEMI` for investigator, `AETRTEMA` for adjudicator). [Source: domains/SUPPQUAL/assumptions.md]\n\n---\n\n## When TO Use Supplemental Qualifiers\n\nUse SUPP-- when:\n\n1. **Sponsor-defined NSVs** need to be associated with parent records in Events, Findings, Interventions, DM, or SV domains [Source: domains/SUPPQUAL/assumptions.md]\n2. **Attributions** (subjective classifications/interpretations) from multiple evaluators are needed — e.g., an adjudication committee's assessment of an AE alongside the investigator's assessment in the standard domain [Source: chapters/ch04_general_assumptions.md -- 4.5.4]\n3. **Secondary evaluations** of qualifier variables — primary evaluation goes in the standard domain; secondary evaluation goes in SUPP-- with QNAM formed by appending \"1\" to the standard variable name [Source: chapters/ch04_general_assumptions.md -- 4.5.4]\n4. **Long text strings >200 characters** — overflow text is stored in sequential SUPP-- records (QNAM suffixed with 1, 2, etc.) [Source: chapters/ch04_general_assumptions.md -- 4.5.3]\n5. A **QNAM value contributes to the natural key** of a domain record [Source: chapters/ch04_general_assumptions.md -- 4.1.9]\n\n---\n\n## When NOT to Use Supplemental Qualifiers\n\nThe following data should **not** be submitted as supplemental qualifiers: [Source: chapters/ch08_relationships.md -- 8.4.4]\n\n| Data Type | Correct Location |\n|-----------|-----------------|\n| Subject-level objective data (e.g., national origin, twin type) | SC domain |\n| Findings interpretations that warrant a new test code/result | Additional --TESTCD record in the Findings domain (e.g., EGTESTCD = \"INTP\") |\n| Free-text comments related to a record | CO special-purpose domain |\n| Data not directly related to records in a parent domain | Separate general observation class or special-purpose domain |\n\n---\n\n## Summary\n\nSUPP-- is the **only sanctioned mechanism** for extending SDTM domains with non-standard variables, because the SDTM model prohibits adding new columns to standard datasets. It should be used for genuine additional qualifiers of existing observations — not as a catch-all for any data that doesn't fit elsewhere. The key discipline is: if the data represents a **separate observation**, it belongs in its own domain; if it is a **qualifier of an existing observation** that has no standard variable, it belongs in SUPP--. [Source: domains/SUPPQUAL/assumptions.md]",
      "judge_fact_recall": 1.0,
      "judge_fact_hits": [
        "QNAM",
        "QVAL",
        "non-standard"
      ],
      "judge_fact_misses": [],
      "judge_parse_ok": true,
      "elapsed_s": 33.4
    },
    {
      "id": "q07",
      "category": "cross_domain",
      "question": "Which SDTM domains use the EPOCH variable and what is its purpose?",
      "source_recall": 1.0,
      "source_hits": [
        "VARIABLE_INDEX.md"
      ],
      "source_misses": [],
      "top5_sources": [
        "VARIABLE_INDEX.md",
        "chapters/ch04_general_assumptions.md",
        "model/01_concepts_and_terms.md",
        "domains/SR/spec.md",
        "chapters/ch02_fundamentals.md"
      ],
      "top5_similarities": [
        0.5124,
        0.7004,
        11.8134,
        0.6837,
        11.0386
      ],
      "fact_recall": 1.0,
      "fact_hits": [
        "EPOCH",
        "Timing"
      ],
      "fact_misses": [],
      "answer_preview": "# EPOCH Variable in SDTM\n\n## Purpose of EPOCH\n\nEPOCH is a **Timing** variable used to associate an observation with a specific epoch (phase) of the study design. It links subject-level observations back to the trial design structure defined in the Trial Arms (TA) domain.\n\n**Key guidance on how to assign EPOCH values:**\n\n- For **Findings class** domains: EPOCH should be based on the **--DTC** variable (date/time of the test or specimen collection)\n- For **Interventions or Events class** domains: EPOCH should be based on the **--STDTC** variable (start of the intervention or event)\n- Sponsors sh",
      "usage": {
        "prompt_tokens": 17208,
        "completion_tokens": 918,
        "total_tokens": 18126
      },
      "model": "anthropic/claude-sonnet-4-6",
      "answer": "# EPOCH Variable in SDTM\n\n## Purpose of EPOCH\n\nEPOCH is a **Timing** variable used to associate an observation with a specific epoch (phase) of the study design. It links subject-level observations back to the trial design structure defined in the Trial Arms (TA) domain.\n\n**Key guidance on how to assign EPOCH values:**\n\n- For **Findings class** domains: EPOCH should be based on the **--DTC** variable (date/time of the test or specimen collection)\n- For **Interventions or Events class** domains: EPOCH should be based on the **--STDTC** variable (start of the intervention or event)\n- Sponsors should **not impute** EPOCH values, but may assign them based on CRF instructions/structure even when date/time precision is insufficient\n- EPOCH should be **null** for observations that occurred before the subject's participation in the study (including pre-screening), and when the epoch cannot be determined\n- EPOCH values **must be distinct** for different epochs — e.g., in a crossover trial with 3 treatment epochs, each must have a unique name; all 3 cannot be called \"TREATMENT\"\n\n[Source: chapters/ch04_general_assumptions.md §4.1.3.1]  \n[Source: domains/TA/assumptions.md item_12]\n\n---\n\n## Variable Definition\n\n| Attribute | Value |\n|-----------|-------|\n| **Label** | Epoch |\n| **Type** | Char |\n| **Role** | Timing |\n| **Core** | Perm |\n| **Controlled Terms** | C99079 |\n\nExample values: \"SCREENING\", \"TREATMENT\", \"FOLLOW-UP\"\n\n---\n\n## Domains Where EPOCH Appears\n\nBased on the retrieved context, EPOCH (with CT C99079) is confirmed in the following domains:\n\n| Domain | Class | CDISC Notes |\n|--------|-------|-------------|\n| **SR** | Findings | Epoch associated with the date/time of the observation |\n| **CP** | Findings | Epoch associated with the start date/time of the observation, or the date/time of collection if start date/time is not collected |\n| **FA** | Findings | Epoch associated with the date/time of the observation |\n| **PP** | Findings (PK Parameters) | Epoch associated with the start date/time of the observation, or the date/time of collection if start date/time is not collected |\n| **PC** | Findings (PK Concentrations) | Epoch associated with the start date/time of the observation, or the date/time of collection if start date/time is not collected |\n\n[Source: domains/SR/spec.md]  \n[Source: domains/CP/spec.md]  \n[Source: domains/FA/spec.md]  \n[Source: domains/PP/spec.md]  \n[Source: domains/PC/spec.md]\n\nAdditionally, EPOCH is explicitly mentioned as applicable to **EX** (Exposure) and **DS** (Disposition) domains:\n\n> *\"EPOCH may be used as a timing variable in other datasets, such as Exposure (EX) and Disposition (DS)\"*\n\n[Source: domains/TA/assumptions.md item_12]\n\n---\n\n## Broader Applicability\n\nEPOCH is a general Timing variable that is **permissible in any domain based on the three general observation classes** (Interventions, Events, Findings). The retrieved context confirms it is not applicable to:\n- **SUPPQUAL** datasets\n- **RELREC** datasets\n- Observations that occurred **before the subject's study participation**\n\n[Source: chapters/ch04_general_assumptions.md §4.1.3]\n\n> **Note:** The domains listed above are those confirmed in the retrieved context. EPOCH may appear in additional domains across the full SDTMIG v3.4 specification — a complete enumeration would require reviewing all 63 domain spec files.",
      "judge_fact_recall": 1.0,
      "judge_fact_hits": [
        "EPOCH",
        "Timing"
      ],
      "judge_fact_misses": [],
      "judge_parse_ok": true,
      "elapsed_s": 19.78
    },
    {
      "id": "q08",
      "category": "cross_domain",
      "question": "How does USUBJID serve as a linking key across SDTM domains?",
      "source_recall": 1.0,
      "source_hits": [
        "domains/DM/spec.md"
      ],
      "source_misses": [],
      "top5_sources": [
        "VARIABLE_INDEX.md",
        "domains/SUPPQUAL/spec.md",
        "chapters/ch04_general_assumptions.md",
        "domains/DM/spec.md",
        "chapters/ch03_submitting_data.md"
      ],
      "top5_similarities": [
        0.4878,
        0.7075,
        10.4468,
        0.6923,
        9.9812
      ],
      "fact_recall": 1.0,
      "fact_hits": [
        "USUBJID",
        "Identifier",
        "unique"
      ],
      "fact_misses": [],
      "answer_preview": "# USUBJID as a Linking Key Across SDTM Domains\n\n## Definition\n\nUSUBJID is defined consistently across all domains as:\n\n> **Unique Subject Identifier** — \"Identifier used to uniquely identify a subject across all studies for all applications or submissions involving the product.\"\n\n- **Type:** Char\n- **Role:** Identifier\n- **Core:** Req (in most domains; Exp in RELSUB where either USUBJID or POOLID must be populated)\n\n[Source: domains/DM/spec.md, domains/AE/spec.md, domains/PP/spec.md, domains/CO/spec.md, domains/SUPPQUAL/spec.md, domains/RELSPEC/spec.md, domains/RELSUB/spec.md]\n\n---\n\n## How USU",
      "usage": {
        "prompt_tokens": 16688,
        "completion_tokens": 1038,
        "total_tokens": 17726
      },
      "model": "anthropic/claude-sonnet-4-6",
      "answer": "# USUBJID as a Linking Key Across SDTM Domains\n\n## Definition\n\nUSUBJID is defined consistently across all domains as:\n\n> **Unique Subject Identifier** — \"Identifier used to uniquely identify a subject across all studies for all applications or submissions involving the product.\"\n\n- **Type:** Char\n- **Role:** Identifier\n- **Core:** Req (in most domains; Exp in RELSUB where either USUBJID or POOLID must be populated)\n\n[Source: domains/DM/spec.md, domains/AE/spec.md, domains/PP/spec.md, domains/CO/spec.md, domains/SUPPQUAL/spec.md, domains/RELSPEC/spec.md, domains/RELSUB/spec.md]\n\n---\n\n## How USUBJID Functions as a Linking Key\n\n### 1. Primary Subject Identifier Across All Domains\n\nUSUBJID is the universal subject-level key that appears in every domain dataset. Because it is **Required** in virtually all domains, every observation record can be traced back to a specific subject. In DM, it may be constructed as a compound identifier: `STUDYID-SITEID-SUBJID`. [Source: domains/DM/spec.md]\n\n### 2. Dataset-Level Metadata Keys\n\nUSUBJID is explicitly listed as a primary key component in the dataset-level metadata for all major domains:\n\n| Dataset | Keys |\n|---------|------|\n| DM | STUDYID, USUBJID |\n| SE | STUDYID, USUBJID, ETCD, SESTDTC |\n| SM | STUDYID, USUBJID, MIDS |\n| SV | STUDYID, USUBJID, SVTERM |\n| AG | STUDYID, USUBJID, AGTRT, AGSTDTC |\n| CO | STUDYID, USUBJID, IDVAR, COREF, COOTC |\n\n[Source: chapters/ch03_submitting_data.md]\n\n### 3. Linking Within RELREC (Record-Level Relationships)\n\nIn RELREC, USUBJID is used for **record-to-record** relationships (i.e., linking specific records within a subject). When RELREC is used for **dataset-to-dataset** relationships, USUBJID is intentionally **null** — because the relationship applies across all subjects, not to a single subject's record.\n\n> \"Note that because this is a dataset-to-dataset relationship, USUBJID and IDVARVAL are null.\"\n\n[Source: chapters/ch08_relationships.md]\n\n### 4. Linking Parent Records in SUPP-- Datasets\n\nIn Supplemental Qualifier datasets (SUPP--), USUBJID is one of the key variables used to identify the **parent record** to which a non-standard variable value belongs. This allows SUPP-- records to be joined back to their parent domain records. [Source: chapters/ch08_relationships.md]\n\n### 5. Special Case: RELSUB (Related Subjects)\n\nIn RELSUB, USUBJID has Core = **Exp** (Expected) rather than Required, because either USUBJID or POOLID must be populated — accommodating pooled subject scenarios while still using USUBJID as the primary linking mechanism when individual subjects are referenced. [Source: domains/RELSUB/spec.md]\n\n### 6. Associated Persons Domains\n\nIn AP (Associated Persons) domains, **APID** replaces USUBJID as the primary identifier. However, **RSUBJID** is used to link back to the USUBJID of the related study subject, preserving the cross-domain linkage to the subject-level data. [Source: model/04_associated_persons.md]\n\n---\n\n## Summary\n\nUSUBJID serves as the **universal subject-level foreign key** across the entire SDTM submission:\n\n- It is **Required** in nearly every domain, ensuring every observation is attributable to a subject\n- It forms part of the **natural key** (primary key) for dataset-level metadata\n- It enables **record-to-record joins** in RELREC and SUPP-- relationship structures\n- It is the reference point for AP domain linking via RSUBJID\n- Its cross-study uniqueness (typically `STUDYID-SITEID-SUBJID`) supports integrated analyses across studies",
      "judge_fact_recall": 1.0,
      "judge_fact_hits": [
        "USUBJID",
        "Identifier",
        "unique"
      ],
      "judge_fact_misses": [],
      "judge_parse_ok": true,
      "elapsed_s": 22.02
    },
    {
      "id": "q09",
      "category": "cross_domain",
      "question": "How are adverse events linked to concomitant medications using RELREC?",
      "source_recall": 1.0,
      "source_hits": [
        "domains/RELREC/spec.md"
      ],
      "source_misses": [],
      "top5_sources": [
        "domains/RELREC/spec.md",
        "domains/CM/spec.md",
        "domains/AE/spec.md",
        "chapters/ch08_relationships.md",
        "domains/RELREC/examples.md"
      ],
      "top5_similarities": [
        0.4612,
        0.5328,
        0.5185,
        0.6173,
        0.583
      ],
      "fact_recall": 1.0,
      "fact_hits": [
        "RELREC",
        "IDVAR",
        "IDVARVAL"
      ],
      "fact_misses": [],
      "answer_preview": "# Linking Adverse Events to Concomitant Medications Using RELREC\n\n## Overview\n\nThe RELREC dataset is used to represent **collected relationships** between AE records and CM records — for example, when a concomitant medication was taken specifically as a result of an adverse event. This relationship is typically captured via explicit CRF references or checkboxes.\n\n[Source: domains/RELREC/assumptions.md]\n\n---\n\n## Step-by-Step Mechanism\n\n### 1. Flag in AE Domain\n\nThe variable **AECONTRT** (Label: \"Concomitant or Additional Trtmnt Given\", Controlled Terms: C66742) is a Y/N Record Qualifier (Core: ",
      "usage": {
        "prompt_tokens": 19531,
        "completion_tokens": 1233,
        "total_tokens": 20764
      },
      "model": "anthropic/claude-sonnet-4-6",
      "answer": "# Linking Adverse Events to Concomitant Medications Using RELREC\n\n## Overview\n\nThe RELREC dataset is used to represent **collected relationships** between AE records and CM records — for example, when a concomitant medication was taken specifically as a result of an adverse event. This relationship is typically captured via explicit CRF references or checkboxes.\n\n[Source: domains/RELREC/assumptions.md]\n\n---\n\n## Step-by-Step Mechanism\n\n### 1. Flag in AE Domain\n\nThe variable **AECONTRT** (Label: \"Concomitant or Additional Trtmnt Given\", Controlled Terms: C66742) is a Y/N Record Qualifier (Core: Perm) in the AE domain that indicates whether another treatment was given because of the event.\n\n> If the non-study treatment is collected, the name and other information about the treatment should be represented in the appropriate Interventions domain — usually CM or PR — **and linked to the AE record with RELREC**.\n\n[Source: domains/AE/assumptions.md — item_6]  \n[Source: domains/AE/spec.md — AECONTRT]\n\n### 2. Construct RELREC Records\n\nFor each relationship, one RELREC record is created **per participating record** (AE side and CM side), all sharing the same **RELID** value within a USUBJID.\n\nKey variables used:\n\n| Variable | Purpose |\n|----------|---------|\n| STUDYID | Study identifier |\n| RDOMAIN | Domain code of the record (e.g., `\"AE\"` or `\"CM\"`) |\n| USUBJID | Subject identifier |\n| IDVAR | Variable used to identify the record (e.g., `AESEQ`, `CMSEQ`, or `CMGRPID`) |\n| IDVARVAL | Value of IDVAR for the specific record |\n| RELID | Sponsor-assigned relationship identifier — **must be identical for all related records within USUBJID** |\n\n[Source: domains/RELREC/spec.md — RELID]  \n[Source: domains/RELREC/assumptions.md]\n\n---\n\n## Concrete Examples\n\n### Example 1 — One AE linked to two CM records (via --SEQ)\n\nAE record (AESEQ=5) is related to two CM records (CMSEQ=11 and CMSEQ=12):\n\n| Row | STUDYID | RDOMAIN | USUBJID | IDVAR | IDVARVAL | RELTYPE | RELID |\n|-----|---------|---------|---------|-------|----------|---------|-------|\n| 1 | EFC1234 | AE | 123456 | AESEQ | 5 | | 1 |\n| 2 | EFC1234 | CM | 123456 | CMSEQ | 11 | | 1 |\n| 3 | EFC1234 | CM | 123456 | CMSEQ | 12 | | 1 |\n\n[Source: chapters/ch08_relationships.md — 8.2.2 RELREC Dataset Examples]\n\n### Example 2 — Using CMGRPID to reduce RELREC records\n\nIf the two CM records are already grouped in the CM domain using `CMGRPID = \"COMBO1\"`, the relationship can be expressed more efficiently with only **one CM-side RELREC record** pointing to the group:\n\n| Row | STUDYID | RDOMAIN | USUBJID | IDVAR | IDVARVAL | RELTYPE | RELID |\n|-----|---------|---------|---------|-------|----------|---------|-------|\n| 1 | EFC1234 | AE | 123456 | AESEQ | 5 | | 1 |\n| 2 | EFC1234 | CM | 123456 | CMGRPID | COMBO1 | | 1 |\n\n[Source: domains/RELREC/examples.md — Example 3]  \n[Source: chapters/ch08_relationships.md — 8.2.2 RELREC Dataset Examples]\n\n---\n\n## Key Rules\n\n1. **RELID** must be unique within USUBJID and identical across all records in the same relationship. The sponsor chooses the value; a consistent naming convention (e.g., all numbers, all caps) is recommended. [Source: domains/RELREC/spec.md — RELID]\n\n2. A single AE record can participate in **multiple relationships** (different RELID values), e.g., one relationship to CM records and another to LB records simultaneously. [Source: domains/RELREC/examples.md — Example 1]\n\n3. **RELTYPE** is left null for peer-record relationships (it is only populated when relating datasets in a one-to-many sense). [Source: domains/RELREC/assumptions.md]\n\n4. Using `--GRPID` in IDVAR (instead of `--SEQ`) is a more **efficient** method when multiple CM records form a combination therapy. [Source: domains/RELREC/assumptions.md]",
      "judge_fact_recall": 1.0,
      "judge_fact_hits": [
        "RELREC",
        "IDVAR",
        "IDVARVAL"
      ],
      "judge_fact_misses": [],
      "judge_parse_ok": true,
      "elapsed_s": 55.95
    },
    {
      "id": "q10",
      "category": "cross_domain",
      "question": "In oncology studies, how are the TR (Tumor/Lesion Results) domain and RS (Disease Response) domain linked together, and which specific identifier variables are used for each linkage direction?",
      "source_recall": 1.0,
      "source_hits": [
        "domains/TR/assumptions.md",
        "domains/TR/spec.md"
      ],
      "source_misses": [],
      "top5_sources": [
        "domains/TR/spec.md",
        "domains/RS/spec.md",
        "domains/RS/assumptions.md",
        "domains/TR/assumptions.md",
        "domains/TR/assumptions.md"
      ],
      "top5_similarities": [
        0.6207,
        0.6214,
        0.713,
        0.7055,
        0.6926
      ],
      "fact_recall": 1.0,
      "fact_hits": [
        "TRLNKID",
        "TRLNKGRP"
      ],
      "fact_misses": [],
      "answer_preview": "# Linking TR and RS Domains in Oncology Studies\n\n## Overview of the Multi-Domain Architecture\n\nThe oncology assessment data model uses three interconnected domains:\n- **TU** (Tumor/Lesion Identification) — identifies and characterizes each tumor/lesion\n- **TR** (Tumor/Lesion Results) — records measurements/assessments of identified tumors\n- **RS** (Disease Response) — records overall response evaluations derived from TR (and potentially other domains)\n\n[Source: domains/TR/assumptions.md -- overview]\n\n---\n\n## Linkage Direction 1: TU → TR (Identification to Results)\n\n### Variable: `TRLNKID`\n\nThe",
      "usage": {
        "prompt_tokens": 17936,
        "completion_tokens": 1170,
        "total_tokens": 19106
      },
      "model": "anthropic/claude-sonnet-4-6",
      "answer": "# Linking TR and RS Domains in Oncology Studies\n\n## Overview of the Multi-Domain Architecture\n\nThe oncology assessment data model uses three interconnected domains:\n- **TU** (Tumor/Lesion Identification) — identifies and characterizes each tumor/lesion\n- **TR** (Tumor/Lesion Results) — records measurements/assessments of identified tumors\n- **RS** (Disease Response) — records overall response evaluations derived from TR (and potentially other domains)\n\n[Source: domains/TR/assumptions.md -- overview]\n\n---\n\n## Linkage Direction 1: TU → TR (Identification to Results)\n\n### Variable: `TRLNKID`\n\nThe `TRLNKID` variable in TR links each measurement/assessment record back to the corresponding identification record in TU.\n\n> \"The --LNKID variable is used for values that support a RELREC dataset-to-dataset relationship and to provide a unique code for each identified tumor/lesion/location of interest.\"\n\n- A **dataset-to-dataset RELREC relationship** is the recommended linking mechanism\n- `--GRPID`, `--REFID`, and `--SPID` cannot be used for this purpose as they may serve other functions per the SDTM\n- The corresponding variable on the TU side is `TULNKID`, which carries compound values encoding: role/assessor, target vs. non-target status, tracking number, and split indicators\n\n[Source: domains/TR/assumptions.md -- item_1]  \n[Source: domains/TU/assumptions.md -- item_2]\n\n---\n\n## Linkage Direction 2: TR → RS (Results to Response Assessment)\n\n### Variable: `TRLNKGRP`\n\nThe `TRLNKGRP` variable in TR links a **group** of TR records to a single response assessment record in RS.\n\n> \"TRLNKGRP is used to relate records in the TR domain to a response assessment record in the RS domain... The --LNKGRP variable is used for values that support a RELREC dataset-to-dataset relationship and to provide a unique code for each response and associated tumor/lesion measurements/assessments.\"\n\n- Again, a **dataset-to-dataset RELREC relationship** is required\n- `--GRPID`, `--REFID`, and `--SPID` are excluded for the same reason as above\n\n[Source: domains/TR/assumptions.md -- item_2]\n\n### Corresponding Variable on the RS Side: `RSLNKGRP`\n\nOn the RS side, `RSLNKGRP` provides the matching link back to the contributing TR records:\n\n> \"The RSLNKGRP variable is used to provide a link between the records in a findings domain (e.g., TR; LB) that contribute to a record in the RS domain. Records should exist in the RELREC dataset to support this relationship.\"\n\nAdditionally, `RSLNKID` can be used when a response evaluation relates back to a **specific source record** (e.g., a single tumor assessment in TR), as opposed to a group of records.\n\n[Source: domains/RS/assumptions.md -- item_4]\n\n---\n\n## Important Scope Note: RS Is Not Limited to TR Data\n\nThe RS domain may incorporate data from domains **beyond TR**:\n\n> \"A set of oncology response criteria might require lab results in the LB domain, not only tumor results in the TR domain.\"\n\nAll source data must be represented in their topic-based domains (e.g., lab values in LB), and the RELREC linkage mechanism applies regardless of which domain the contributing data reside in.\n\n[Source: domains/RS/assumptions.md -- item_4, item_5]\n\n---\n\n## Summary Table\n\n| Linkage | Source Variable | Target Domain | Mechanism |\n|---------|----------------|---------------|-----------|\n| TU → TR | `TULNKID` (TU) / `TRLNKID` (TR) | TU ↔ TR | RELREC dataset-to-dataset |\n| TR → RS (group) | `TRLNKGRP` (TR) / `RSLNKGRP` (RS) | TR ↔ RS | RELREC dataset-to-dataset |\n| TR/other → RS (single record) | `RSLNKID` (RS) | TR or other → RS | RELREC record-to-record |\n\n---\n\n## Practical Example\n\nIn the RS examples, `RSLNKGRP = \"A2\"` on the Overall Response record (RSTESTCD = `OVRLRESP`) at WEEK 6 links back to the group of TR records that contributed to that overall assessment. Rows without `RSLNKGRP` populated (e.g., target response, non-target response) are component assessments that feed into the overall response but are not themselves the \"group anchor.\"\n\n[Source: domains/RS/examples.md -- RS — Examples - Disease Response]",
      "judge_fact_recall": 1.0,
      "judge_fact_hits": [
        "TRLNKID",
        "TRLNKGRP"
      ],
      "judge_fact_misses": [],
      "judge_parse_ok": true,
      "elapsed_s": 26.11
    },
    {
      "id": "q28",
      "category": "cross_domain",
      "question": "What is the FA (Findings About Events or Interventions) domain and how does it link to parent domains like AE or CM using FAOBJ?",
      "source_recall": 1.0,
      "source_hits": [
        "domains/FA/spec.md"
      ],
      "source_misses": [],
      "top5_sources": [
        "VARIABLE_INDEX.md",
        "domains/FA/spec.md",
        "domains/AE/spec.md",
        "domains/CM/spec.md",
        "domains/FA/assumptions.md"
      ],
      "top5_similarities": [
        0.5985,
        0.5917,
        0.6388,
        0.4692,
        0.6937
      ],
      "fact_recall": 1.0,
      "fact_hits": [
        "Findings About",
        "FAOBJ",
        "FATESTCD"
      ],
      "fact_misses": [],
      "answer_preview": "# FA Domain: Findings About Events or Interventions\n\n## Overview\n\nThe FA domain is a **Findings About** subtype of the Findings observation class. It is used to record findings *related to* observations in the Interventions or Events classes — specifically when those findings cannot be adequately captured as qualifiers on the parent record itself.\n\n> \"The Findings About observation class is a subtype of Findings used to record findings about events or interventions.\" [Source: model/02_observation_classes.md]\n\n---\n\n## When to Use FA (Three Criteria)\n\n### Criterion 1 — Different Timing\nData or o",
      "usage": {
        "prompt_tokens": 20152,
        "completion_tokens": 1414,
        "total_tokens": 21566
      },
      "model": "anthropic/claude-sonnet-4-6",
      "answer": "# FA Domain: Findings About Events or Interventions\n\n## Overview\n\nThe FA domain is a **Findings About** subtype of the Findings observation class. It is used to record findings *related to* observations in the Interventions or Events classes — specifically when those findings cannot be adequately captured as qualifiers on the parent record itself.\n\n> \"The Findings About observation class is a subtype of Findings used to record findings about events or interventions.\" [Source: model/02_observation_classes.md]\n\n---\n\n## When to Use FA (Three Criteria)\n\n### Criterion 1 — Different Timing\nData or observations that have **different timing** from the associated event or intervention as a whole. For example, severity of an individual symptom assessed at multiple time points, while the AE record captures the event from start to finish.\n\n### Criterion 2 — Multiple Variables Required\nAn observation about an event or intervention that **requires more than 1 variable** for its representation, preventing its inclusion as a single supplemental qualifier (e.g., a measurement with both a value and a unit).\n\n### Criterion 3 — Pre-specified AE Occurrence\nData or information that **indicate the occurrence of pre-specified AEs** (e.g., solicited adverse events checked at each visit).\n\n[Source: domains/FA/assumptions.md]\n\n---\n\n## The Key Linking Variable: FAOBJ\n\n| Variable | Label | Type | Role | Core | CT |\n|----------|-------|------|------|------|----|\n| FAOBJ | Object of the Observation | Char | Record Qualifier | Req | — |\n\n**FAOBJ** is the variable unique to the Findings About subtype. It identifies the **event or intervention that the measurement/evaluation is about**.\n\n> \"FATESTCD describes the measurement/evaluation and FAOBJ describes the event or intervention that the measurement/evaluation is about.\" [Source: model/02_observation_classes.md]\n\nBoth FATESTCD and FAOBJ are **required (Req)** on every FA record — together they fully define the topic of the observation. [Source: domains/FA/spec.md]\n\n---\n\n## How FA Links to Parent Domains\n\n### Structural Relationship\n\nFA does **not** use a foreign key variable pointing directly to the parent domain's sequence number. Instead, linkage is established through:\n\n1. **FAOBJ** — populated with the name of the event or intervention (e.g., the value of AEDECOD from the AE domain)\n2. **FASPID** — populated with the sponsor-defined identifier of the parent record (e.g., AESPID value), enabling traceability\n3. **RELREC** — an optional formal relationship dataset that can explicitly link FA records to parent AE or CM records\n\n[Source: domains/FA/examples.md — Example 2, Example 6]\n\n### FA → AE Linkage Example\n\nFrom Example 6, where severity of an AE is assessed at each visit:\n\n**ae.xpt (parent)**\n| AESEQ | AESPID | AETERM | AEDECOD | AESEV |\n|-------|--------|--------|---------|-------|\n| 1 | 1 | Morning queasiness | Nausea | MODERATE |\n\n**faae.xpt (child)**\n| FASEQ | FASPID | FATESTCD | FATEST | FAOBJ | FAORRES | FADTC |\n|-------|--------|----------|--------|-------|---------|-------|\n| 1 | 1 | SEV | Severity/Intensity | Nausea | MILD | 2006-02-02 |\n| 2 | 1 | SEV | Severity/Intensity | Nausea | MODERATE | 2006-02-09 |\n\n- **FAOBJ = \"Nausea\"** matches **AEDECOD = \"Nausea\"** in the parent AE record\n- **FASPID = \"1\"** matches **AESPID = \"1\"** in the parent AE record\n\n[Source: domains/FA/examples.md]\n\n### FA → AE Linkage Example (Pre-specified AEs, Criterion 3)\n\n**faae.xpt**\n| FATESTCD | FATEST | FAOBJ | FAORRES |\n|----------|--------|-------|---------|\n| OCCUR | Occurrence Indicator | Headache | Y |\n| OCCUR | Occurrence Indicator | Nausea | N |\n\nFor each prespecified AE where FAORRES = \"Y\", a corresponding AE record exists with **AEPRESP = \"Y\"**. [Source: domains/FA/examples.md — Example 4]\n\n---\n\n## Common FATESTCD Values in FA\n\nWhen collected data fit a qualifier variable and are represented in FA, the variable name is used as FATESTCD:\n\n| FATESTCD | FATEST |\n|----------|--------|\n| OCCUR | Occurrence Indicator |\n| SEV | Severity/Intensity |\n| TOXGR | Toxicity Grade |\n\n[Source: model/02_observation_classes.md]\n\n---\n\n## Related Source Domains\n\nFA can record findings about observations from multiple parent domains:\n\n| Source Domain | Description |\n|---------------|-------------|\n| AE | Findings about adverse events |\n| CM | Findings about concomitant medications |\n| PR | Findings about procedures |\n| EX | Findings about exposure |\n| EC | Findings about exposure as collected |\n| ML | Findings about meals |\n| SU | Findings about substance use |\n\n[Source: domains/FA/spec.md]\n\n---\n\n## Variables Generally NOT Used in FA\n\nThe following qualifiers should generally **not** be used in FA:\n`--BODSYS`, `--MODIFY`, `--SEV`, `--TOXGR`\n\n(Note: SEV and TOXGR are represented as FATESTCD values instead, not as separate qualifier columns.)\n\n[Source: domains/FA/assumptions.md]",
      "judge_fact_recall": 1.0,
      "judge_fact_hits": [
        "Findings About",
        "FAOBJ",
        "FATESTCD"
      ],
      "judge_fact_misses": [],
      "judge_parse_ok": true,
      "elapsed_s": 29.18
    },
    {
      "id": "q29",
      "category": "cross_domain",
      "question": "How do the four Trial Design domains TA (Trial Arms), TE (Trial Elements), TV (Trial Visits), and TI (Trial Inclusion/Exclusion) work together to define a study design?",
      "source_recall": 1.0,
      "source_hits": [
        "domains/TA/assumptions.md",
        "domains/TE/assumptions.md"
      ],
      "source_misses": [],
      "top5_sources": [
        "domains/TA/spec.md",
        "domains/TE/spec.md",
        "domains/TV/spec.md",
        "domains/TE/assumptions.md",
        "domains/TA/assumptions.md"
      ],
      "top5_similarities": [
        0.7568,
        0.7352,
        0.7534,
        0.7359,
        0.7245
      ],
      "fact_recall": 1.0,
      "fact_hits": [
        "TA",
        "TE",
        "TV",
        "TI"
      ],
      "fact_misses": [],
      "answer_preview": "# How TA, TE, TV, and TI Work Together to Define a Study Design\n\nThese four Trial Design domains form a complementary framework: TE defines the **building blocks**, TA assembles them into **paths**, TV schedules **when assessments occur** along those paths, and TI specifies **who is eligible** to enter them.\n\n---\n\n## 1. TE — Trial Elements: The Building Blocks\n\nTE defines the discrete, reusable time periods that constitute a trial.\n\n> \"An element is a building block for creating study cells, and an arm is composed of study cells.\"\n> [Source: domains/TE/assumptions.md]\n\nEach record in TE repres",
      "usage": {
        "prompt_tokens": 17112,
        "completion_tokens": 1462,
        "total_tokens": 18574
      },
      "model": "anthropic/claude-sonnet-4-6",
      "answer": "# How TA, TE, TV, and TI Work Together to Define a Study Design\n\nThese four Trial Design domains form a complementary framework: TE defines the **building blocks**, TA assembles them into **paths**, TV schedules **when assessments occur** along those paths, and TI specifies **who is eligible** to enter them.\n\n---\n\n## 1. TE — Trial Elements: The Building Blocks\n\nTE defines the discrete, reusable time periods that constitute a trial.\n\n> \"An element is a building block for creating study cells, and an arm is composed of study cells.\"\n> [Source: domains/TE/assumptions.md]\n\nEach record in TE represents a **unique element** — analogous to a unique CRF page template. The same element may appear in multiple arms or multiple times within one arm, but it appears **only once** in TE.\n\nKey variables [Source: model/05_study_level_data.md]:\n\n| Variable | Role | Purpose |\n|----------|------|---------|\n| ETCD | Topic | Unique element code |\n| ELEMENT | Synonym Qualifier | Human-readable description |\n| TESTRL | Rule | Condition for starting the element |\n| TEENRL | Rule | Condition for ending the element |\n| TEDUR | Timing | Planned duration |\n\n---\n\n## 2. TA — Trial Arms: Assembling Elements into Paths\n\nTA takes the elements defined in TE and arranges them into **ordered sequences** (arms), one record per element per arm.\n\n> \"An arm is composed of elements; that is, the trial design assigns subjects to arms, which comprise a sequence of steps called elements.\"\n> [Source: domains/TA/assumptions.md]\n\nKey variables [Source: model/05_study_level_data.md]:\n\n| Variable | Role | Purpose |\n|----------|------|---------|\n| ARMCD / ARM | Topic / Synonym Qualifier | Identifies the arm |\n| ETCD | Record Qualifier | References the element from TE |\n| TAETORD | Timing | Order of the element within the arm |\n| EPOCH | Timing | The epoch this element belongs to |\n| TABRANCH | Rule | Fork condition (e.g., \"Randomized to Arm A\") |\n| TATRANS | Rule | Within-arm transition condition (skip-ahead logic) |\n\nThe relationship is explicit: **TA references ETCD values defined in TE**, and the same ETCD can appear in multiple TA rows (multiple arms, or multiple positions within one arm). [Source: domains/TA/spec.md]\n\n### Transition Logic Between Elements\n\nThe handoff between elements is a three-step process governed by both TE and TA:\n\n| Step | Question | Answered by |\n|------|----------|-------------|\n| 1 | Should the subject leave the current element? | TEENRL in TE |\n| 2 | Which element comes next (if a branch)? | TABRANCH in TA |\n| 3 | Should the subject skip ahead? | TATRANS in TA |\n\n[Source: domains/TE/examples.md]\n\n---\n\n## 3. TV — Trial Visits: Scheduling Assessments Along the Path\n\nTV defines **when planned visits occur** relative to the epoch/element structure established by TA and TE.\n\n> \"Visits reference arms\" and \"planned visits vs actual subject elements\" are the key cross-domain relationships.\n> [Source: domains/TV/spec.md]\n\nTV visit timing rules (TVSTRL / TVENRL) are expressed in terms of epoch or element start/end points — directly referencing the temporal landmarks created by TA and TE. For example:\n\n| VISITNUM | TVSTRL | TVENRL |\n|----------|--------|--------|\n| 3 | 30 minutes before end of Run-in Epoch | 1 hour after start of Treatment Epoch |\n| 4 | 1 week after start of Treatment Epoch | 1 hour after start of Visit |\n\n[Source: domains/TV/examples.md]\n\n**Important nuance:** When an arm includes repetitions of the same element, TAETORD (from TA) may need to be referenced alongside the element name to unambiguously anchor a visit. [Source: domains/TV/examples.md]\n\n---\n\n## 4. TI — Trial Inclusion/Exclusion Criteria: Defining Eligibility\n\nTI operates at a different level — it is a **tabular synopsis of the protocol's eligibility criteria**, defining which subjects are permitted to enter the arms defined in TA.\n\n> \"TI contains all the inclusion and exclusion criteria for the trial, and thus provides information that may not be present in the subject-level data.\"\n> [Source: domains/TI/assumptions.md]\n\nTI complements the subject-level IE domain (Inclusion/Exclusion Criteria Not Met), which records only criteria that were **not met** by individual subjects. TI provides the complete planned criteria set against which IE records are interpreted.\n\n---\n\n## Integration Summary\n\n```\nTI  ──────────────────────────────────────────────────────────────────►\n     Defines who is eligible to enter the trial\n\nTE  ──────────────────────────────────────────────────────────────────►\n     Defines unique time-period building blocks (ETCD, TESTRL, TEENRL, TEDUR)\n                    │\n                    ▼ (ETCD referenced by)\nTA  ──────────────────────────────────────────────────────────────────►\n     Assembles elements into ordered arm paths (TAETORD, EPOCH, TABRANCH, TATRANS)\n                    │\n                    ▼ (Epoch/Element landmarks referenced by)\nTV  ──────────────────────────────────────────────────────────────────►\n     Anchors planned visits to epoch/element transitions (TVSTRL, TVENRL)\n```\n\nTogether, these four domains allow reviewers to:\n- **Clearly and quickly grasp** the design of a clinical trial\n- **Compare planned and actual** treatments and visits for subjects\n- **Search a data warehouse** for trials with certain design features\n\n[Source: domains/TA/assumptions.md]",
      "judge_fact_recall": 1.0,
      "judge_fact_hits": [
        "TA",
        "TE",
        "TV",
        "TI"
      ],
      "judge_fact_misses": [],
      "judge_parse_ok": true,
      "elapsed_s": 61.71
    },
    {
      "id": "q30",
      "category": "cross_domain",
      "question": "What is the CO (Comments) domain and how does it reference records in other SDTM domains? Describe the RDOMAIN and IDVAR mechanism.",
      "source_recall": 1.0,
      "source_hits": [
        "domains/CO/spec.md",
        "domains/CO/assumptions.md"
      ],
      "source_misses": [],
      "top5_sources": [
        "VARIABLE_INDEX.md",
        "domains/CO/spec.md",
        "chapters/ch08_relationships.md",
        "domains/CO/assumptions.md",
        "domains/CO/assumptions.md"
      ],
      "top5_similarities": [
        0.569,
        0.6492,
        0.6728,
        0.6876,
        0.7154
      ],
      "fact_recall": 1.0,
      "fact_hits": [
        "COVAL",
        "RDOMAIN",
        "IDVAR"
      ],
      "fact_misses": [],
      "answer_preview": "# CO (Comments) Domain — Overview and Cross-Domain Referencing\n\n## 1. Domain Overview\n\nThe CO domain is a **Special-Purpose** domain used to capture unstructured free-text comments that are not part of normal domain data. [Source: domains/CO/assumptions.md -- overview]\n\nKey characteristics:\n- **Structure:** One record per comment per subject (or per study)\n- **Dataset name:** co.xpt\n- **Purpose:** Captures comments that may be collected alongside other data — typically from a principal investigator, but also from central reviewers or other sources [Source: model/03_special_purpose_domains.md -",
      "usage": {
        "prompt_tokens": 17852,
        "completion_tokens": 1705,
        "total_tokens": 19557
      },
      "model": "anthropic/claude-sonnet-4-6",
      "answer": "# CO (Comments) Domain — Overview and Cross-Domain Referencing\n\n## 1. Domain Overview\n\nThe CO domain is a **Special-Purpose** domain used to capture unstructured free-text comments that are not part of normal domain data. [Source: domains/CO/assumptions.md -- overview]\n\nKey characteristics:\n- **Structure:** One record per comment per subject (or per study)\n- **Dataset name:** co.xpt\n- **Purpose:** Captures comments that may be collected alongside other data — typically from a principal investigator, but also from central reviewers or other sources [Source: model/03_special_purpose_domains.md -- Comments (CO)]\n- Comments are generally **not** responses to specific questions; they are voluntary free-text or unsolicited observations [Source: domains/CO/assumptions.md -- item_1]\n\n---\n\n## 2. Variable Specification\n\n| Variable | Label | Type | Role | Core | CT |\n|----------|-------|------|------|------|----|\n| STUDYID | Study Identifier | Char | Identifier | Req | — |\n| DOMAIN | Domain Abbreviation | Char | Identifier | Req | — |\n| RDOMAIN | Related Domain Abbreviation | Char | Record Qualifier | — | C66734 |\n| USUBJID | Unique Subject Identifier | Char | Identifier | Req | — |\n| POOLID | Pool Identifier | Char | Identifier | Perm | — |\n| COSEQ | Sequence Number | Num | Identifier | Req | — |\n| IDVAR | Identifying Variable | Char | Record Qualifier | — | — |\n| IDVARVAL | Identifying Variable Value | Char | Record Qualifier | — | — |\n| COREF | Comment Reference | Char | Record Qualifier | Perm | — |\n| COVAL | Comment | Char | Topic | Req | — |\n| COEVAL | Evaluator | Char | Record Qualifier | Perm | C78735 |\n| COEVALID | Evaluator Identifier | Char | Record Qualifier | Perm | C96777 |\n| CODTC | Date/Time of Comment | Char | Timing | Perm | ISO 8601 |\n| CODY | Study Day of Comment | Num | Timing | Perm | — |\n\n[Source: model/03_special_purpose_domains.md -- Comments (CO); VARIABLE_INDEX.md -- CO]\n\n---\n\n## 3. The RDOMAIN / IDVAR / IDVARVAL Mechanism\n\nCO uses the **same key structure as SUPP-- datasets** — specifically the variables RDOMAIN, IDVAR, and IDVARVAL — to identify the parent record(s) to which a comment relates. [Source: chapters/ch08_relationships.md -- 8.5 Relating Comments to a Parent Domain]\n\n### Three Scenarios for Populating These Keys\n\nThe CO domain accommodates three sources of comments, each with a different population pattern:\n\n| Scenario | RDOMAIN | IDVAR | IDVARVAL | CODTC |\n|----------|---------|-------|----------|-------|\n| **a. Unrelated to any domain or record** (e.g., general comment log page) | null | null | null | Populate if captured |\n| **b. Related to a domain, but not a specific record** (e.g., comment at bottom of PE CRF page) | Domain code (e.g., `\"PE\"`) | null | null | Populate if captured |\n| **c. Related to specific parent record(s)** (e.g., comment about a specific AE) | Domain code (e.g., `\"AE\"`) | Key variable name (e.g., `\"AESEQ\"`) | Value of that key (e.g., `\"7\"`) | **null** — timing is inherited from parent |\n\n[Source: domains/CO/assumptions.md -- item_3]\n\n### Key Rules for Scenario (c)\n\n- **RDOMAIN** is set to the 2-character DOMAIN code of the parent dataset (e.g., `\"AE\"`, `\"EX\"`, `\"VS\"`)\n- **IDVAR** contains the **name** of the identifying variable in the parent domain (e.g., `AESEQ`, `EXGRPID`, `VSGRPID`)\n- **IDVARVAL** contains the **value** of that variable for the specific parent record(s)\n- **CODTC should be null** when the comment is linked to a specific record, because the timing is inherited from the parent record(s)\n- Grouping variables (e.g., --GRPID) can be used in IDVAR to relate a comment to **multiple records** within one domain\n\n[Source: domains/CO/assumptions.md -- item_3; chapters/ch08_relationships.md -- 8.5]\n\n### Limitation: Single Domain per CO Record\n\n> \"A single comment may only be related to a group of records in 1 domain (RDOMAIN can have only 1 value). If a single comment relates to records in multiple domains, the comment may need to be repeated in the CO special-purpose domain.\"\n\n[Source: chapters/ch08_relationships.md -- 8.5 Relating Comments to a Parent Domain]\n\n---\n\n## 4. Additional Referencing Mechanisms\n\nBeyond RDOMAIN/IDVAR/IDVARVAL, two supplementary mechanisms exist:\n\n- **COREF** — Free-text reference (e.g., CRF page number or visit name) for additional context that cannot be expressed via the key variables\n- **Timing variables** (e.g., VISITNUM, VISIT) — May be added to CO to associate a comment with a particular visit\n\n[Source: chapters/ch08_relationships.md -- 8.5]\n\n---\n\n## 5. Long Comment Text\n\nWhen comment text exceeds 200 characters:\n- First 200 characters → **COVAL**\n- Next 200 characters → **COVAL1**\n- Additional text → **COVALn** (as needed)\n\n[Source: domains/CO/assumptions.md -- item_4]\n\n---\n\n## 6. Concrete Example\n\nFrom the CO examples dataset (co.xpt):\n\n| Row | RDOMAIN | IDVAR | IDVARVAL | COREF | Description |\n|-----|---------|-------|----------|-------|-------------|\n| 1 | *(null)* | *(null)* | *(null)* | — | General comment, no domain link |\n| 2 | `PE` | *(null)* | *(null)* | `VISIT 7` | Comment on PE domain, specific visit |\n| 3 | `AE` | `AESEQ` | `7` | `PAGE 650` | Comment on single AE record |\n| 4 | `EX` | `EXGRPID` | `COMBO1` | `PAGE 320-355` | Comment on group of EX records |\n| 5 | `VS` | `VSGRPID` | `VS2` | — | Comment on group of VS records |\n\n[Source: domains/CO/examples.md -- Example 1]",
      "judge_fact_recall": 1.0,
      "judge_fact_hits": [
        "COVAL",
        "RDOMAIN",
        "IDVAR"
      ],
      "judge_fact_misses": [],
      "judge_parse_ok": true,
      "elapsed_s": 33.76
    },
    {
      "id": "q31",
      "category": "cross_domain",
      "question": "How are the EC (Exposure as Collected) and EX (Exposure) domains different in purpose, and when should each be used?",
      "source_recall": 1.0,
      "source_hits": [
        "domains/EC/assumptions.md"
      ],
      "source_misses": [],
      "top5_sources": [
        "domains/EC/spec.md",
        "domains/EX/spec.md",
        "domains/EX/assumptions.md",
        "domains/EC/assumptions.md",
        "domains/EX/assumptions.md"
      ],
      "top5_similarities": [
        0.5814,
        0.5962,
        0.7328,
        0.7317,
        0.5907
      ],
      "fact_recall": 1.0,
      "fact_hits": [
        "collected",
        "EX",
        "EC"
      ],
      "fact_misses": [],
      "answer_preview": "# EC vs. EX: Purpose Differences and Usage Guidance\n\n## Core Distinction\n\n| Dimension | EC (Exposure as Collected) | EX (Exposure) |\n|-----------|---------------------------|---------------|\n| **Nature** | Raw, as-collected data | Derived dataset |\n| **Unit** | Product-level (e.g., tablets, mL) | Protocol-specified unit (e.g., mg, mg/kg) |\n| **Perspective** | What was physically recorded/collected | What was actually administered in study terms |\n\n---\n\n## EC Domain Purpose\n\nEC reflects **protocol-specified study treatment administrations, as collected** — i.e., the raw CRF data before any deri",
      "usage": {
        "prompt_tokens": 16817,
        "completion_tokens": 1082,
        "total_tokens": 17899
      },
      "model": "anthropic/claude-sonnet-4-6",
      "answer": "# EC vs. EX: Purpose Differences and Usage Guidance\n\n## Core Distinction\n\n| Dimension | EC (Exposure as Collected) | EX (Exposure) |\n|-----------|---------------------------|---------------|\n| **Nature** | Raw, as-collected data | Derived dataset |\n| **Unit** | Product-level (e.g., tablets, mL) | Protocol-specified unit (e.g., mg, mg/kg) |\n| **Perspective** | What was physically recorded/collected | What was actually administered in study terms |\n\n---\n\n## EC Domain Purpose\n\nEC reflects **protocol-specified study treatment administrations, as collected** — i.e., the raw CRF data before any derivation or unit conversion.\n\n**Use EC when collected exposure information cannot or should not be directly represented in EX**, for example:\n- Administrations collected in **tablets** when the protocol-specified unit is **mg**\n- Administrations collected in **mL** when the protocol-specified unit is **mg/kg**\n\nEC is also used to capture:\n- **ECMOOD = \"SCHEDULED\"** records (intended/planned doses)\n- **ECMOOD = \"PERFORMED\"** records (actual administrations)\n- Doses that were **not given** (ECOCCUR = \"N\" with ECREASOC explaining why)\n\n> Note: Product accountability details (amount dispensed, amount returned) go in the **DA** domain, not EC. [Source: domains/EC/assumptions.md -- item_1]\n\n---\n\n## EX Domain Purpose\n\nEX is **recognized in most cases as a derived dataset** where EXDOSU reflects the **protocol-specified unit** per study treatment. It is derived from collected data points (e.g., number of tablets, total volume infused) combined with additional inputs (e.g., randomization file, concentration, dosage strength, product accountability).\n\n**EX is required for all studies that include protocol-specified study treatment.** [Source: domains/EX/assumptions.md -- item_1]\n\nCommon derivation methods (most to least direct):\n1. Derived from actual observation of administration by the investigator\n2. Derived from automated dispensing device\n3. Derived from subject recall\n4. Derived from product accountability data\n5. Derived from the protocol\n\nEX contains **1 record per constant-dosing interval per subject** and includes only treatments **received** (not missed/not given). [Source: domains/EX/assumptions.md -- item_1]\n\n---\n\n## When to Use Each\n\n| Scenario | Use |\n|----------|-----|\n| Collected in tablets, protocol unit is mg | EC + EX |\n| Collected in mL, protocol unit is mg/kg | EC + EX |\n| Entire EC dataset would be an exact duplicate of EX | EC is **optional** (sponsor's discretion) |\n| Intended/scheduled doses need to be captured | EC (with ECMOOD = \"SCHEDULED\") |\n| Doses not administered | EC (ECOCCUR = \"N\") — no EX record |\n| Protocol-specified unit directly matches collected unit | EX alone may suffice |\n\n[Source: domains/EC/assumptions.md -- item_1]\n\n---\n\n## Relationship Between EC and EX\n\n- The **degree of summarization** from EC to EX is sponsor-defined to support study purpose and analysis.\n- When the relationship between EC and EX records can be described in **RELREC**, it should be defined.\n- **EX derivations must be described in the Define-XML document.**\n\n[Source: domains/EC/assumptions.md -- item_6] [Source: domains/EX/assumptions.md -- item_5]\n\n---\n\n## Practical Example\n\nIn Example 7 (weekly infusions of Drug Z 10 mg/kg):\n- **EC** captured: intended dose in mg/kg (ECMOOD = \"SCHEDULED\"), actual volume in mL with concentration in mg/mL (ECMOOD = \"PERFORMED\"), and a missed dose (ECOCCUR = \"N\")\n- **EX** captured: only the two actual administrations converted to mg/kg (protocol-specified unit); no record for the missed dose\n\n[Source: domains/EX/examples.md -- Example 7]\n\n---\n\n## Special Note on EXVAMT/ECVAMT\n\nWhen EC is implemented in conjunction with EX, **EXVAMT and EXVAMTU would not be used in EX**; collected values are instead represented in ECDOSE/ECDOSU (and ECVAMT/ECVAMTU as needed) in the EC domain. [Source: domains/EX/assumptions.md -- item_6]",
      "judge_fact_recall": 1.0,
      "judge_fact_hits": [
        "collected",
        "EX",
        "EC"
      ],
      "judge_fact_misses": [],
      "judge_parse_ok": true,
      "elapsed_s": 25.96
    },
    {
      "id": "q32",
      "category": "cross_domain",
      "question": "How is VISIT and VISITNUM used consistently across observation-class domains, and what role does the SV (Subject Visits) domain play in tracking actual visit dates?",
      "source_recall": 1.0,
      "source_hits": [
        "domains/SV/spec.md",
        "domains/SV/assumptions.md"
      ],
      "source_misses": [],
      "top5_sources": [
        "VARIABLE_INDEX.md",
        "domains/SV/spec.md",
        "model/03_special_purpose_domains.md",
        "chapters/ch04_general_assumptions.md",
        "domains/SV/assumptions.md"
      ],
      "top5_similarities": [
        0.6554,
        0.6543,
        0.7044,
        0.6665,
        0.6646
      ],
      "fact_recall": 1.0,
      "fact_hits": [
        "VISIT",
        "VISITNUM",
        "SV"
      ],
      "fact_misses": [],
      "answer_preview": "# VISIT and VISITNUM Usage Across Observation-Class Domains, and the Role of SV\n\n## 1. VISIT and VISITNUM in Observation-Class Domains\n\n### Variable Definitions\n\nVISITNUM and VISIT appear as **Timing** variables in all three general observation classes (Interventions, Events, Findings). For example:\n\n| Variable | Label | Type | Role | Core |\n|----------|-------|------|------|------|\n| VISITNUM | Visit Number | Num | Timing | Exp |\n| VISIT | Visit Name | Char | Timing | Perm |\n\n[Source: domains/AG/spec.md -- VISITNUM], [Source: domains/FA/spec.md -- VISITNUM], [Source: domains/PE/spec.md -- VIS",
      "usage": {
        "prompt_tokens": 16807,
        "completion_tokens": 1572,
        "total_tokens": 18379
      },
      "model": "anthropic/claude-sonnet-4-6",
      "answer": "# VISIT and VISITNUM Usage Across Observation-Class Domains, and the Role of SV\n\n## 1. VISIT and VISITNUM in Observation-Class Domains\n\n### Variable Definitions\n\nVISITNUM and VISIT appear as **Timing** variables in all three general observation classes (Interventions, Events, Findings). For example:\n\n| Variable | Label | Type | Role | Core |\n|----------|-------|------|------|------|\n| VISITNUM | Visit Number | Num | Timing | Exp |\n| VISIT | Visit Name | Char | Timing | Perm |\n\n[Source: domains/AG/spec.md -- VISITNUM], [Source: domains/FA/spec.md -- VISITNUM], [Source: domains/PE/spec.md -- VISITNUM]\n\n### Consistency Rules for Planned Visits\n\nFor **planned visits**, values of VISIT, VISITNUM, and VISITDY **must** be those defined in the Trial Visits (TV) dataset:\n\n- **VISITNUM**: Numeric, used for sorting; values should wherever possible match the planned chronological order of visits.\n- **VISIT**: Character name of the visit from the protocol.\n- **VISITDY**: The planned study day of the **start** of the visit (not the actual study day; do not use --DY).\n- There must be a **one-to-one relationship** between VISIT and VISITNUM.\n\n[Source: chapters/ch04_general_assumptions.md -- 4.4.5 Clinical Encounters and Visits]\n\nThe TV dataset is the authoritative source: values of VISITNUM in TV are the valid values for planned visits. Any VISITNUM appearing in subject-level datasets that is **not** in TV is assumed to correspond to an **unplanned visit**.\n\n[Source: domains/TV/assumptions.md -- item_6]\n\n### Handling Unplanned Visits\n\n- **VISITNUM** should generally be populated even for unplanned visits (a missing VISITNUM is less useful). A common approach is to assign a generic value (e.g., 99) to all unplanned visits, though this sacrifices chronological sorting.\n- **VISIT** may be left null or populated with a generic value (e.g., \"Unscheduled\").\n- **VISITDY must NOT be populated** for unplanned visits — it is by definition the *planned* study day. The actual study day of an unplanned visit belongs in a `--DY` variable.\n\n[Source: chapters/ch04_general_assumptions.md -- 4.4.5 Clinical Encounters and Visits]\n\n---\n\n## 2. The SV Domain's Role in Tracking Actual Visit Dates\n\n### Structure and Purpose\n\n**SV (Subject Visits)** is a **Special-Purpose** domain with the structure: *one record per actual or planned visit per subject*.\n\nIts primary purpose is to provide reviewers with a **summary of a subject's actual visits** over the course of their participation. Key uses include:\n\n- Comparing an individual subject's SV records against the TV dataset to **identify planned but not completed visits**.\n- Comparing SVSTDY/SVENDY against VISIT/VISITDY to **highlight departures from planned visit timing**.\n\n[Source: domains/SV/assumptions.md -- overview], [Source: model/03_special_purpose_domains.md -- Subject Visits (SV)]\n\n### Key Variables\n\n| Variable | Label | Type | Role | Core | CT |\n|----------|-------|------|------|------|----|\n| VISITNUM | Visit Number | Num | Topic | Req | — |\n| VISIT | Visit Name | Char | Synonym Qualifier | — | — |\n| SVSTDTC | Start Date/Time of Visit | Char | Timing | Exp | ISO 8601 |\n| SVENDTC | End Date/Time of Visit | Char | Timing | Exp | ISO 8601 |\n| SVSTDY | Study Day of Start of Visit | Num | Timing | Perm | — |\n| SVENDY | Study Day of End of Visit | Num | Timing | Perm | — |\n| SVUPDES | Description of Unplanned Visit | Char | Record Qualifier | Perm | — |\n| SVPRESP | Pre-Specified | Char | Variable Qualifier | Exp | C66742 |\n| SVOCCUR | Occurrence | Char | Record Qualifier | Exp | C66742 |\n| SVCNTMOD | Contact Mode | Char | Record Qualifier | Perm | C171445 |\n| SVEPCHGI | Epi/Pandemic Related Change Indicator | Char | Record Qualifier | Perm | C66742 |\n\n[Source: model/03_special_purpose_domains.md -- Subject Visits (SV)], [Source: VARIABLE_INDEX.md -- SV]\n\nNotably, **VISITNUM is the Topic variable** in SV (Role: Topic, Core: Req), whereas in observation-class domains it serves as a Timing variable. This reflects SV's role as the authoritative record of visit occurrences.\n\n[Source: domains/SV/spec.md -- VISITNUM]\n\n### Unplanned Visits in SV\n\nRecords for unplanned visits **must** be included in SV. The rule is:\n\n> \"The encounter should generally be treated as a visit if data from the encounter are included in any domain for which VISITNUM is included; a record with a missing value for VISITNUM is generally less useful than a record with VISITNUM populated. If the occasion is considered a visit, its date/times must be included in the SV table and a value of VISITNUM must be assigned.\"\n\nSVUPDES can be populated with a description of the reason for the unplanned visit.\n\n[Source: domains/SV/assumptions.md -- item_6]\n\n---\n\n## 3. Summary: How SV Anchors Visit Consistency\n\n```\nTV (Trial Visits)          ←→   SV (Subject Visits)\nPlanned VISITNUM/VISIT           Actual SVSTDTC/SVENDTC\nPlanned VISITDY                  Actual SVSTDY/SVENDY\n                                 SVUPDES for unplanned\n         ↓                              ↓\n  Observation-class domains (LB, VS, AE, CM, etc.)\n  carry VISITNUM/VISIT as Timing variables,\n  values must match TV for planned visits\n```\n\nThe SV domain thus serves as the **bridge between the planned visit schedule (TV) and the actual timing of data collection** recorded in observation-class domains, enabling reviewers to reconcile planned versus actual visit conduct at the subject level.",
      "judge_fact_recall": 1.0,
      "judge_fact_hits": [
        "VISIT",
        "VISITNUM",
        "SV"
      ],
      "judge_fact_misses": [],
      "judge_parse_ok": true,
      "elapsed_s": 32.81
    },
    {
      "id": "q33",
      "category": "cross_domain",
      "question": "What is the RELSPEC domain and how does it define relationships between datasets at the study level, as opposed to RELREC which links individual records?",
      "source_recall": 1.0,
      "source_hits": [
        "domains/RELSPEC/spec.md"
      ],
      "source_misses": [],
      "top5_sources": [
        "domains/RELSPEC/spec.md",
        "domains/RELREC/spec.md",
        "domains/RELREC/assumptions.md",
        "chapters/ch08_relationships.md",
        "chapters/ch08_relationships.md"
      ],
      "top5_similarities": [
        0.5814,
        0.6533,
        0.7707,
        0.7621,
        0.7252
      ],
      "fact_recall": 1.0,
      "fact_hits": [
        "RELSPEC",
        "RELREC"
      ],
      "fact_misses": [],
      "answer_preview": "# RELSPEC Domain: Purpose, Structure, and Contrast with RELREC\n\n## What is RELSPEC?\n\nRELSPEC (Related Specimens) is a **Relationship-class dataset** introduced in SDTM v2.0 (and first included in SDTMIG v3.4). Its sole purpose is to describe **specimen lineage** — the genealogical relationships between biological specimens (e.g., a parent specimen and its derived aliquots or processed sub-specimens).\n\n[Source: model/06_relationship_datasets.md]\n\n---\n\n## RELSPEC Variable Specification\n\n| # | Variable | Label | Type | Role | Notes |\n|---|----------|-------|------|------|-------|\n| 1 | STUDYID | ",
      "usage": {
        "prompt_tokens": 18593,
        "completion_tokens": 1164,
        "total_tokens": 19757
      },
      "model": "anthropic/claude-sonnet-4-6",
      "answer": "# RELSPEC Domain: Purpose, Structure, and Contrast with RELREC\n\n## What is RELSPEC?\n\nRELSPEC (Related Specimens) is a **Relationship-class dataset** introduced in SDTM v2.0 (and first included in SDTMIG v3.4). Its sole purpose is to describe **specimen lineage** — the genealogical relationships between biological specimens (e.g., a parent specimen and its derived aliquots or processed sub-specimens).\n\n[Source: model/06_relationship_datasets.md]\n\n---\n\n## RELSPEC Variable Specification\n\n| # | Variable | Label | Type | Role | Notes |\n|---|----------|-------|------|------|-------|\n| 1 | STUDYID | Study Identifier | Char | Identifier | |\n| 2 | USUBJID | Unique Subject Identifier | Char | Identifier | |\n| 3 | REFID | Reference ID | Char | Identifier | |\n| 4 | SPEC | Specimen Type | Char | Variable Qualifier (REFID) | |\n| 5 | PARENT | Specimen Parent | Char | Identifier | Identifies the REFID of the parent specimen to support tracking its genealogy |\n| 6 | LEVEL | Specimen Level | Num | Variable Qualifier (REFID) | Identifies the generation number of the sample; the collected sample is considered the first generation |\n\n[Source: model/06_relationship_datasets.md]\n\nThree CDISC controlled terminology codelists may be applicable to SPEC: SPEC (C77529), SPECTYPE (C78734), and GENSMP (C111114). Sponsors are responsible for determining the most appropriate codelist(s).\n\n[Source: chapters/ch08_relationships.md]\n\n---\n\n## Key Governing Assumptions\n\nRELSPEC has two critical scoping constraints that sharply distinguish it from RELREC:\n\n1. **RELSPEC is not used to manage relationships between any other datasets or domains.** It is exclusively a specimen-to-specimen relationship tool.\n2. **RELSPEC is only used to maintain relationships between specimens**, and therefore does not require the additional variables used in RELREC (e.g., RDOMAIN, IDVAR, IDVARVAL, RELTYPE, RELID).\n\n[Source: domains/RELSPEC/assumptions.md]\n\n---\n\n## Contrast: RELSPEC vs. RELREC\n\n| Dimension | RELSPEC | RELREC |\n|-----------|---------|--------|\n| **Scope** | Specimen-to-specimen lineage only | Records within/across domains, or entire datasets |\n| **Granularity** | Subject-level specimen hierarchy | Individual records, groups of records, or dataset-level |\n| **Relationship mechanism** | PARENT variable points to the REFID of the parent specimen | RELID groups related records; IDVAR/IDVARVAL identify the specific record(s) |\n| **Dataset-level linking** | **Not applicable** — cannot link datasets | Yes — RELTYPE (ONE/MANY) defines hierarchical dataset relationships |\n| **Key variables** | REFID, PARENT, LEVEL | RDOMAIN, IDVAR, IDVARVAL, RELTYPE, RELID |\n| **Cross-domain use** | No | Yes |\n\n[Source: model/06_relationship_datasets.md; domains/RELSPEC/assumptions.md; chapters/ch08_relationships.md]\n\n---\n\n## Critical Point: RELSPEC Does NOT Define Study-Level Dataset Relationships\n\nYour question asks about \"relationships between datasets at the study level.\" This is **exclusively the role of RELREC**, not RELSPEC.\n\nRELREC supports dataset-level relationships by:\n- Including **one record per related dataset** (USUBJID and IDVARVAL are null for dataset-level relationships)\n- Using **RELTYPE** = \"ONE\" or \"MANY\" to define the hierarchical nature of the join\n- Using **IDVAR** to specify the key variable (e.g., TULNKID, TRLNKID) used to merge/join the two datasets\n\n**Example** (TU → TR one-to-many dataset relationship):\n\n| STUDYID | RDOMAIN | USUBJID | IDVAR | IDVARVAL | RELTYPE | RELID |\n|---------|---------|---------|-------|----------|---------|-------|\n| EFC1234 | TU | | TULNKID | | ONE | 1 |\n| EFC1234 | TR | | TRLNKID | | MANY | 1 |\n\n[Source: chapters/ch08_relationships.md]\n\nRELSPEC has no equivalent capability — it operates strictly within the specimen hierarchy of a single subject, using the PARENT variable to chain REFID values across generations (LEVEL 1 = collected specimen, LEVEL 2 = first-generation derivative, etc.).\n\n[Source: model/06_relationship_datasets.md]",
      "judge_fact_recall": 1.0,
      "judge_fact_hits": [
        "RELSPEC",
        "RELREC"
      ],
      "judge_fact_misses": [],
      "judge_parse_ok": true,
      "elapsed_s": 24.95
    },
    {
      "id": "q34",
      "category": "cross_domain",
      "question": "Which SDTM domains share the controlled terminology codelist for NY (No Yes Response, C66742), and what variable typically uses this codelist in those domains?",
      "source_recall": 1.0,
      "source_hits": [
        "VARIABLE_INDEX.md"
      ],
      "source_misses": [],
      "top5_sources": [
        "VARIABLE_INDEX.md",
        "terminology/core/general_part4.md",
        "chapters/ch04_general_assumptions.md",
        "chapters/ch04_general_assumptions.md",
        "model/01_concepts_and_terms.md"
      ],
      "top5_similarities": [
        0.4516,
        0.5903,
        0.6157,
        0.6351,
        0.5697
      ],
      "fact_recall": 1.0,
      "fact_hits": [
        "C66742",
        "NY"
      ],
      "fact_misses": [],
      "answer_preview": "Based on the retrieved context, I can provide a partial answer. The context directly shows several domains using the No Yes Response (C66742) codelist, though a comprehensive cross-domain survey would require checking all domain spec files.\n\n## Domains Using No Yes Response (C66742)\n\n### Directly Evidenced in Retrieved Context\n\n**1. SV — Subject Visits**\nVariables: SVPRESP, SVOCCUR, SVEPCHGI\n[Source: domains/SV/spec.md]\n\n**2. TM — Trial Disease Milestones**\nVariable: TMRPT\n[Source: domains/TM/spec.md]\n\n---\n\n### About the Codelist Itself\n\n**No Yes Response (C66742)** is a **non-extensible** cod",
      "usage": {
        "prompt_tokens": 15398,
        "completion_tokens": 567,
        "total_tokens": 15965
      },
      "model": "anthropic/claude-sonnet-4-6",
      "answer": "Based on the retrieved context, I can provide a partial answer. The context directly shows several domains using the No Yes Response (C66742) codelist, though a comprehensive cross-domain survey would require checking all domain spec files.\n\n## Domains Using No Yes Response (C66742)\n\n### Directly Evidenced in Retrieved Context\n\n**1. SV — Subject Visits**\nVariables: SVPRESP, SVOCCUR, SVEPCHGI\n[Source: domains/SV/spec.md]\n\n**2. TM — Trial Disease Milestones**\nVariable: TMRPT\n[Source: domains/TM/spec.md]\n\n---\n\n### About the Codelist Itself\n\n**No Yes Response (C66742)** is a **non-extensible** codelist with four submission values:\n\n| Submission Value | Meaning |\n|-----------------|---------|\n| N | No |\n| NA | Not Applicable |\n| U | Unknown |\n| Y | Yes |\n\n[Source: terminology/core/general_part4.md]\n\n---\n\n### Typical Variable Patterns Using C66742\n\nAcross SDTM domains, C66742 is commonly associated with these variable patterns:\n\n- **--PRESP** (Pre-specified flag) — indicates whether a finding was pre-specified on a CRF; only \"Y\" is allowed per SDTMIG convention\n- **--OCCUR** (Occurrence indicator) — indicates whether a pre-specified event/finding occurred\n- **--STAT** / completion flags — though these more commonly use C66789\n- Domain-specific flags (e.g., SVEPCHGI, TMRPT)\n\nPer SDTMIG guidance, for **--PRESP** variables specifically, only the value \"Y\" is allowed even though the full C66742 codelist is referenced. [Source: chapters/ch04_general_assumptions.md §4.3.3]\n\n---\n\n### Important Note\n\nThe retrieved context only surfaces **SV** and **TM** explicitly. Many other domains (e.g., AE, CM, MH, CE, DS, and others with --PRESP/--OCCUR variables) also reference C66742, but their spec files were not retrieved in this query. To obtain the complete list, you should check the `Controlled Terminology` section at the bottom of each domain's `spec.md`, or query `VARIABLE_INDEX.md §三` for the C66742 cross-reference entry.",
      "judge_fact_recall": 1.0,
      "judge_fact_hits": [
        "C66742",
        "NY"
      ],
      "judge_fact_misses": [],
      "judge_parse_ok": true,
      "elapsed_s": 45.61
    },
    {
      "id": "q11",
      "category": "concept",
      "question": "What are the three observation classes in the SDTM model?",
      "source_recall": 1.0,
      "source_hits": [
        "model/02_observation_classes.md"
      ],
      "source_misses": [],
      "top5_sources": [
        "model/01_concepts_and_terms.md",
        "model/02_observation_classes.md",
        "chapters/ch04_general_assumptions.md",
        "chapters/ch04_general_assumptions.md",
        "terminology/supplementary/supplementary_part5.md"
      ],
      "top5_similarities": [
        0.5632,
        0.7205,
        0.5452,
        0.5352,
        0.5473
      ],
      "fact_recall": 1.0,
      "fact_hits": [
        "Interventions",
        "Events",
        "Findings"
      ],
      "fact_misses": [],
      "answer_preview": "## The Three General Observation Classes in the SDTM Model\n\nThe SDTM model organizes the majority of study observations into **3 general observation classes**:\n\n### 1. Interventions\nRepresents investigational, therapeutic, and other treatments that are administered to or used by a subject, with some actual or expected physiological effect. This includes treatments specified by the study protocol (i.e., \"exposure\").\n\n> *\"An intervention is something that is done to a subject (possibly by the subject) that is expected to have a physiological effect.\"*\n\n[Source: model/02_observation_classes.md --",
      "usage": {
        "prompt_tokens": 17627,
        "completion_tokens": 535,
        "total_tokens": 18162
      },
      "model": "anthropic/claude-sonnet-4-6",
      "answer": "## The Three General Observation Classes in the SDTM Model\n\nThe SDTM model organizes the majority of study observations into **3 general observation classes**:\n\n### 1. Interventions\nRepresents investigational, therapeutic, and other treatments that are administered to or used by a subject, with some actual or expected physiological effect. This includes treatments specified by the study protocol (i.e., \"exposure\").\n\n> *\"An intervention is something that is done to a subject (possibly by the subject) that is expected to have a physiological effect.\"*\n\n[Source: model/02_observation_classes.md -- 3.1.1 The Interventions Observation Class]\n\n### 2. Events\nRepresents occurrences or incidents that happen to a subject spontaneously. Most events data captured in clinical trials concerns medical events (e.g., adverse events, medical history).\n\n> *\"An event is something that happens to a subject spontaneously.\"*\n\n[Source: chapters/ch08_relationships.md -- 8.6.1 Guidelines for Determining the General Observation Class]\n\n### 3. Findings\nRepresents measurements, tests, assessments, or examinations performed on a subject in the clinical trial. These may be performed on the subject as a whole (e.g., height, heart rate) or on a specimen taken from a subject (e.g., blood sample, ECG tracing, tissue sample).\n\n[Source: chapters/ch08_relationships.md -- 8.6.1 Guidelines for Determining the General Observation Class]\n\n---\n\n### Key Points\n\n- Domains based on these three classes share a common set of **Identifier** and **Timing** variables. [Source: model/02_observation_classes.md -- Overview]\n- Within each class, variables must be ordered: **Identifiers → Topic → Qualifier → Timing**. [Source: chapters/ch04_general_assumptions.md -- 4.1.4 Order of the Variables]\n- A subtype of Findings exists: **Findings About Events or Interventions** (FA domain). [Source: model/01_concepts_and_terms.md]\n- These three classes are distinct from **Special-Purpose Domains** (e.g., DM, CO, SE) and **Trial Design Datasets**. [Source: model/02_observation_classes.md -- Overview]",
      "judge_fact_recall": 1.0,
      "judge_fact_hits": [
        "Interventions",
        "Events",
        "Findings"
      ],
      "judge_fact_misses": [],
      "judge_parse_ok": true,
      "elapsed_s": 12.7
    },
    {
      "id": "q12",
      "category": "concept",
      "question": "What do the Core designations Req, Exp, and Perm mean in SDTM?",
      "source_recall": 1.0,
      "source_hits": [
        "chapters/ch04"
      ],
      "source_misses": [],
      "top5_sources": [
        "chapters/ch04_general_assumptions.md",
        "VARIABLE_INDEX.md",
        "domains/SUPPQUAL/spec.md",
        "chapters/ch04_general_assumptions.md",
        "domains/CO/spec.md"
      ],
      "top5_similarities": [
        0.6571,
        0.5558,
        0.6055,
        5.7202,
        0.5926
      ],
      "fact_recall": 1.0,
      "fact_hits": [
        "Required",
        "Expected",
        "Permissible"
      ],
      "fact_misses": [],
      "answer_preview": "# SDTM Core Designations: Req, Exp, and Perm\n\nThe Core column in SDTM domain specifications uses three designations to indicate how variables must be handled in a dataset submission.\n\n---\n\n## Summary Table\n\n| Core Value | Full Name | Inclusion Rule | Null Allowed? |\n|------------|-----------|----------------|---------------|\n| **Req** | Required | Must always be included | **Never** — cannot be null for any record |\n| **Exp** | Expected | Must always be included | Yes — when data not collected/applicable |\n| **Perm** | Permissible | Include only if data collected | Yes — even if null, once inc",
      "usage": {
        "prompt_tokens": 16411,
        "completion_tokens": 647,
        "total_tokens": 17058
      },
      "model": "anthropic/claude-sonnet-4-6",
      "answer": "# SDTM Core Designations: Req, Exp, and Perm\n\nThe Core column in SDTM domain specifications uses three designations to indicate how variables must be handled in a dataset submission.\n\n---\n\n## Summary Table\n\n| Core Value | Full Name | Inclusion Rule | Null Allowed? |\n|------------|-----------|----------------|---------------|\n| **Req** | Required | Must always be included | **Never** — cannot be null for any record |\n| **Exp** | Expected | Must always be included | Yes — when data not collected/applicable |\n| **Perm** | Permissible | Include only if data collected | Yes — even if null, once included |\n\n---\n\n## Detailed Definitions\n\n### Req (Required)\n> \"A Required variable is any variable that is basic to the identification of a data record (i.e., essential key variables and a topic variable) or is necessary to make the record meaningful. Required variables must always be included in the dataset and **cannot be null for any record**.\"\n\nThese are typically Identifier variables (e.g., STUDYID, USUBJID, --SEQ) and Topic variables (e.g., AETERM, VSTESTCD).\n\n### Exp (Expected)\n> \"An Expected variable is any variable necessary to make a record useful in the context of a specific domain. Expected variables may contain some null values, but in most cases will not contain null values for every record.\"\n\nKey rules for Exp variables:\n- The **column must always be present** in the dataset\n- Values should be populated when available\n- If the study does not collect the data item at all, a **null column must still be included**, and a **comment must be added in the Define-XML document** stating that the study does not include the data item\n\n### Perm (Permissible)\n> \"May be included in the dataset.\"\n\nKey rules for Perm variables:\n- **If the study collects the data** → the variable **must** be included in the dataset (even if some values are null) and **must** be declared in Define-XML\n- **If the study did not collect the data** → the variable **should not** be included in the dataset and **should not** be declared in Define-XML\n- Domain assumptions stating a Permissible variable is \"generally not used\" do **not** prohibit its use\n\n---\n\n## Additional Notes\n\n- All identifier, timing, and general observation class variables not explicitly listed in a domain specification table are **Permissible** by default, unless specifically restricted by the SDTMIG (Section 2.7) or domain-specific assumptions.\n- A null value is **implied** for any list of controlled terms unless the variable is Required.\n\n[Source: chapters/ch04_general_assumptions.md — 4.1.5 SDTM Core Designations]",
      "judge_fact_recall": 1.0,
      "judge_fact_hits": [
        "Required",
        "Expected",
        "Permissible"
      ],
      "judge_fact_misses": [],
      "judge_parse_ok": true,
      "elapsed_s": 47.88
    },
    {
      "id": "q13",
      "category": "concept",
      "question": "What is the difference between Topic, Qualifier, and Identifier variable roles?",
      "source_recall": 1.0,
      "source_hits": [
        "model/01_concepts_and_terms.md"
      ],
      "source_misses": [],
      "top5_sources": [
        "model/01_concepts_and_terms.md",
        "model/06_relationship_datasets.md",
        "chapters/ch08_relationships.md",
        "chapters/ch04_general_assumptions.md",
        "domains/ML/assumptions.md"
      ],
      "top5_similarities": [
        0.4934,
        0.4564,
        0.4719,
        0.526,
        0.5228
      ],
      "fact_recall": 1.0,
      "fact_hits": [
        "Topic",
        "Qualifier",
        "Identifier"
      ],
      "fact_misses": [],
      "answer_preview": "# SDTM Variable Roles: Identifier vs. Topic vs. Qualifier\n\n## Overview\n\nSDTM classifies every variable into one of 5 major roles. The three you asked about are defined as follows:\n\n---\n\n## 1. Identifier Variables\n\n**Purpose:** Identify the study, subject, domain, and sequence number of the record — i.e., *who* and *where* the observation belongs.\n\n**Characteristics:**\n- Appear first in every dataset (variable ordering rule)\n- Provide the \"address\" of a record, not its content\n- Common across all observation classes\n\n**Examples:** STUDYID, USUBJID, DOMAIN, --SEQ, RDOMAIN, IDVAR, IDVARVAL\n\n> \"Va",
      "usage": {
        "prompt_tokens": 18331,
        "completion_tokens": 1045,
        "total_tokens": 19376
      },
      "model": "anthropic/claude-sonnet-4-6",
      "answer": "# SDTM Variable Roles: Identifier vs. Topic vs. Qualifier\n\n## Overview\n\nSDTM classifies every variable into one of 5 major roles. The three you asked about are defined as follows:\n\n---\n\n## 1. Identifier Variables\n\n**Purpose:** Identify the study, subject, domain, and sequence number of the record — i.e., *who* and *where* the observation belongs.\n\n**Characteristics:**\n- Appear first in every dataset (variable ordering rule)\n- Provide the \"address\" of a record, not its content\n- Common across all observation classes\n\n**Examples:** STUDYID, USUBJID, DOMAIN, --SEQ, RDOMAIN, IDVAR, IDVARVAL\n\n> \"Variables for the 3 general observation classes must be ordered with Identifiers variables first, followed by Topic, Qualifier, and Timing variables.\"\n> [Source: chapters/ch04_general_assumptions.md]\n\n---\n\n## 2. Topic Variables\n\n**Purpose:** Specify the **focus** of the observation — *what* is being observed or measured.\n\n**Characteristics:**\n- There is typically one Topic variable per domain\n- Drives the meaning of the entire record\n- Other variables (Qualifiers) describe or elaborate on the Topic\n\n**Examples by class:**\n\n| Class | Topic Variable | Example Value |\n|-------|---------------|---------------|\n| Interventions | --TRT | \"ASPIRIN\" |\n| Events | --TERM | \"NAUSEA\" |\n| Findings | --TESTCD | \"GLUC\" |\n| SUPP-- | QNAM | \"AESEV2\" |\n\n[Source: model/01_concepts_and_terms.md] [Source: chapters/ch02_fundamentals.md]\n\n---\n\n## 3. Qualifier Variables\n\n**Purpose:** Provide **additional descriptive information** about the observation — elaborating on either the Topic variable or the record as a whole.\n\nQualifiers are divided into **5 subclasses**:\n\n| Subclass | Purpose | Examples |\n|----------|---------|---------|\n| **Grouping Qualifiers** | Group observations within the same domain | --CAT, --SCAT |\n| **Result Qualifiers** | Describe the specific result (Findings class only) | --ORRES, --STRESC, --STRESN, QVAL |\n| **Synonym Qualifiers** | Provide an alternative name for a variable | --MODIFY, --DECOD, --TEST, QLABEL |\n| **Record Qualifiers** | Define additional attributes of the record as a whole | --SEV, --REASND, AESLIFE, AGE, SEX, QORIG, QEVAL |\n| **Variable Qualifiers** | Modify or describe a *specific variable* within a record; only meaningful in context of the variable they qualify | --ORRESU (qualifies --ORRES), --DOSU (qualifies --DOSE) |\n\n[Source: chapters/ch02_fundamentals.md] [Source: model/01_concepts_and_terms.md]\n\n---\n\n## Key Distinctions at a Glance\n\n| Dimension | Identifier | Topic | Qualifier |\n|-----------|-----------|-------|-----------|\n| **Answers** | Who/Where is this record? | What is being observed? | How/What result/attribute? |\n| **Uniqueness** | Helps form the natural key | One per domain (usually) | Many per domain |\n| **Position** | Always first | After Identifiers | After Topic |\n| **Example (AE)** | USUBJID, AESEQ | AETERM | AESEV, AESER, AEDECOD |\n| **Example (SUPP--)** | STUDYID, RDOMAIN, IDVAR | QNAM | QLABEL (Synonym), QVAL (Result), QORIG (Record) |\n\n---\n\n## Illustrative Example\n\nFor the observation *\"Subject 101 had mild nausea starting on study day 6\"*:\n\n- **Identifier:** Subject identifier = \"101\"\n- **Topic:** AETERM = \"NAUSEA\"\n- **Record Qualifier:** AESEV = \"MILD\"\n- **Timing:** AESTDY = 6 *(Timing is the 4th role, distinct from all three above)*\n\n[Source: chapters/ch02_fundamentals.md]",
      "judge_fact_recall": 1.0,
      "judge_fact_hits": [
        "Topic",
        "Qualifier",
        "Identifier"
      ],
      "judge_fact_misses": [],
      "judge_parse_ok": true,
      "elapsed_s": 23.54
    },
    {
      "id": "q14",
      "category": "concept",
      "question": "How should a sponsor create a new custom domain in SDTM?",
      "source_recall": 1.0,
      "source_hits": [
        "chapters/ch02"
      ],
      "source_misses": [],
      "top5_sources": [
        "chapters/ch04_general_assumptions.md",
        "chapters/ch02_fundamentals.md",
        "chapters/ch01_introduction.md",
        "chapters/ch04_general_assumptions.md",
        "chapters/ch03_submitting_data.md"
      ],
      "top5_similarities": [
        0.6011,
        0.4731,
        0.4777,
        0.4946,
        0.4894
      ],
      "fact_recall": 1.0,
      "fact_hits": [
        "observation class"
      ],
      "fact_misses": [],
      "answer_preview": "# Creating a New Custom Domain in SDTM\n\n## Overview\n\nWhen existing SDTM domains do not accommodate a sponsor's data, a new custom domain may be created. The process follows specific rules defined in the SDTMIG.\n\n---\n\n## 1. Domain Naming Rules\n\n### Two-Character Code Requirements\nThe 2-character domain code is subject to the following constraints:\n- **First character**: A–Z only\n- **Second character**: A–Z or 0–9\n- No other characters are allowed (required for SAS v5 transport file and eCTD compatibility)\n\n**[Source: chapters/ch04_general_assumptions.md — 4.2.2 Two-character Domain Identifier]*",
      "usage": {
        "prompt_tokens": 18531,
        "completion_tokens": 1172,
        "total_tokens": 19703
      },
      "model": "anthropic/claude-sonnet-4-6",
      "answer": "# Creating a New Custom Domain in SDTM\n\n## Overview\n\nWhen existing SDTM domains do not accommodate a sponsor's data, a new custom domain may be created. The process follows specific rules defined in the SDTMIG.\n\n---\n\n## 1. Domain Naming Rules\n\n### Two-Character Code Requirements\nThe 2-character domain code is subject to the following constraints:\n- **First character**: A–Z only\n- **Second character**: A–Z or 0–9\n- No other characters are allowed (required for SAS v5 transport file and eCTD compatibility)\n\n**[Source: chapters/ch04_general_assumptions.md — 4.2.2 Two-character Domain Identifier]**\n\n### Reserved Prefixes for Custom Domains\nTo avoid future conflicts with CDISC-defined domain codes, **domain codes beginning with X, Y, or Z** have been reserved for custom domain creation. Any letter or number may be used in the second position.\n\n> Note: Use of X/Y/Z prefixes is **optional**, not required, for custom domains.\n\n**[Source: chapters/ch04_general_assumptions.md — 4.1.6 Additional Guidance on Dataset Naming]**\n\n### Reserved Codes to Avoid\nCertain 2-character codes are reserved and must not be used for custom domains. Per the revision history, **SA** and **SQ** are among the reserved codes (SA reserved for CDASH; SQ occurs in SDTMIG-AP).\n\n**[Source: chapters/ch10_appendices.md — Appendix E: Revision History, §2.6 note]**\n\n---\n\n## 2. Determine the Appropriate General Observation Class\n\nBefore creating a new domain, the sponsor must determine which of the three General Observation Classes (GOC) the data belongs to:\n\n| Class | Definition |\n|-------|-----------|\n| **Interventions** | Something done *to* a subject with an expected physiological effect |\n| **Events** | Something that happens *spontaneously* to a subject |\n| **Findings** | Measurements, tests, assessments, or examinations performed on a subject |\n\nKey guidance:\n- Base the class determination on the **content** of the information, not its physical structure\n- For events data, consider whether it clearly is not an adverse event (if it could be an AE, use AE; if it is a prior medical event, use MH or CE)\n- Findings include both direct measurements on a subject and measurements on specimens taken from a subject\n\n**[Source: chapters/ch08_relationships.md — 8.6.1 Guidelines for Determining the General Observation Class]**\n\n---\n\n## 3. Variable Naming in Custom Domains\n\nWhen adding variables from the SDTM general observation class templates to a custom domain:\n- Replace the `--` prefix in SDTM variable name templates with the **2-character domain identifier** (DOMAIN value)\n- Example: `--TESTCD` in a custom domain \"XY\" becomes `XYTESTCD`\n\n**Exceptions** — the following variables are **not** prefixed with the domain identifier:\n- Required Identifiers: STUDYID, DOMAIN, USUBJID\n- Commonly used grouping/merge keys: VISIT, VISITNUM, VISITDY\n- All DM domain variables (except DMDTC and DMDY)\n- All variables in RELREC and SUPPQUAL, and some variables in Comments and Trial Design datasets\n\n**[Source: chapters/ch04_general_assumptions.md — 4.2.2 Two-character Domain Identifier]**\n\n---\n\n## 4. Dataset Naming\n\nThe dataset file should be named consistently with the domain code (e.g., domain \"XY\" → `xy.xpt`), consistent with the general rule that SDTM datasets are named to match their domain code.\n\n**[Source: chapters/ch04_general_assumptions.md — 4.1.6 Additional Guidance on Dataset Naming]**\n\n---\n\n## 5. Standard Controlled Terminology Reference\n\nStandard domain codes are published in the **SDTM Domain Abbreviation codelist (C66734)**. Sponsors should consult this codelist to ensure their chosen custom domain code does not conflict with any existing CDISC-defined code.\n\n**[Source: chapters/ch04_general_assumptions.md — 4.1.6 Additional Guidance on Dataset Naming]**\n\n---\n\n## Summary Checklist\n\n| Step | Action |\n|------|--------|\n| 1 | Verify no existing SDTM domain fits the data |\n| 2 | Determine the appropriate GOC (Interventions / Events / Findings) |\n| 3 | Choose a valid 2-character domain code (consider X/Y/Z prefix; avoid reserved codes) |\n| 4 | Apply the GOC variable template, replacing `--` with the domain code |\n| 5 | Name the dataset `{domaincode}.xpt` |\n| 6 | Document in Define-XML with full metadata |",
      "judge_fact_recall": 1.0,
      "judge_fact_hits": [
        "observation class"
      ],
      "judge_fact_misses": [],
      "judge_parse_ok": true,
      "elapsed_s": 57.02
    },
    {
      "id": "q15",
      "category": "concept",
      "question": "What are the three SDTM Core designation categories for variables, and what are the rules for handling a Permissible variable when a study did not collect the corresponding data item?",
      "source_recall": 1.0,
      "source_hits": [
        "chapters/ch04_general_assumptions.md"
      ],
      "source_misses": [],
      "top5_sources": [
        "chapters/ch04_general_assumptions.md",
        "chapters/ch01_introduction.md",
        "chapters/ch04_general_assumptions.md",
        "chapters/ch04_general_assumptions.md",
        "model/01_concepts_and_terms.md"
      ],
      "top5_similarities": [
        0.7806,
        0.6228,
        0.5995,
        0.5964,
        0.6896
      ],
      "fact_recall": 1.0,
      "fact_hits": [
        "Req",
        "Exp",
        "Perm"
      ],
      "fact_misses": [],
      "answer_preview": "## SDTM Core Designations\n\nThe SDTM specifies three Core designation categories in the Core column of domain models:\n\n### 1. Req (Required)\nA Required variable is basic to the identification of a data record (i.e., essential key variables and a topic variable) or is necessary to make the record meaningful.\n\n**Rule:** Must always be included in the dataset and **cannot be null for any record**.\n\n---\n\n### 2. Exp (Expected)\nAn Expected variable is necessary to make a record useful in the context of a specific domain. Expected variables may contain some null values, but in most cases will not cont",
      "usage": {
        "prompt_tokens": 18788,
        "completion_tokens": 483,
        "total_tokens": 19271
      },
      "model": "anthropic/claude-sonnet-4-6",
      "answer": "## SDTM Core Designations\n\nThe SDTM specifies three Core designation categories in the Core column of domain models:\n\n### 1. Req (Required)\nA Required variable is basic to the identification of a data record (i.e., essential key variables and a topic variable) or is necessary to make the record meaningful.\n\n**Rule:** Must always be included in the dataset and **cannot be null for any record**.\n\n---\n\n### 2. Exp (Expected)\nAn Expected variable is necessary to make a record useful in the context of a specific domain. Expected variables may contain some null values, but in most cases will not contain null values for every record.\n\n**Rule:** Must be included in the dataset. Values should be populated when available; null values are allowed when data were not collected or not applicable. However, even when the study does not include the data item, **a null column must still be included in the dataset**, and **a comment must be included in the Define-XML document** stating that the study does not include the data item.\n\n---\n\n### 3. Perm (Permissible)\nA Permissible variable may be included in the dataset.\n\n**Rules — two distinct scenarios:**\n\n| Scenario | Rule |\n|----------|------|\n| Study **did** collect the data item | The variable **must** be included in the SDTM dataset (even if null) and **must** be declared in Define-XML |\n| Study **did not** collect the data item | The variable **should not** be included in the SDTM dataset and **should not** be declared in Define-XML |\n\n> **Note:** Although domain specification tables list only some identifier, timing, and general observation class variables, all are permissible unless specifically restricted by the SDTMIG (see Section 2.7, SDTM Variables Not Allowed in the SDTMIG) or by specific domain assumptions. Domain assumptions stating a Permissible variable is \"generally not used\" do **not** prohibit its use.\n\n[Source: chapters/ch04_general_assumptions.md -- 4.1.5 SDTM Core Designations]",
      "judge_fact_recall": 1.0,
      "judge_fact_hits": [
        "Req",
        "Exp",
        "Perm"
      ],
      "judge_fact_misses": [],
      "judge_parse_ok": true,
      "elapsed_s": 13.57
    },
    {
      "id": "q35",
      "category": "concept",
      "question": "What is Controlled Terminology (CT) in SDTM and how does it constrain the values that variables can contain?",
      "source_recall": 1.0,
      "source_hits": [
        "chapters/ch04"
      ],
      "source_misses": [],
      "top5_sources": [
        "chapters/ch04_general_assumptions.md",
        "chapters/ch04_general_assumptions.md",
        "model/01_concepts_and_terms.md",
        "model/01_concepts_and_terms.md",
        "chapters/ch10_appendices.md"
      ],
      "top5_similarities": [
        0.607,
        0.6771,
        0.6231,
        0.5926,
        0.6137
      ],
      "fact_recall": 1.0,
      "fact_hits": [
        "codelist",
        "Controlled Terms"
      ],
      "fact_misses": [],
      "answer_preview": "# Controlled Terminology (CT) in SDTM\n\n## Definition and Purpose\n\nControlled Terminology (CT) in SDTM refers to a set of standardized, permissible values for specific variables. It is centrally managed by the **CDISC Controlled Terminology Team**, supporting the terminology needs of all CDISC foundational standards (SDTM, CDASH, ADaM, SEND) and all disease/therapeutic area standards. [Source: chapters/ch10_appendices.md]\n\n---\n\n## How CT Is Represented in Domain Specifications\n\nAs of SDTMIG v3.3, the **Controlled Terms, Codelist or Format** column in domain specification tables uses the followi",
      "usage": {
        "prompt_tokens": 18297,
        "completion_tokens": 1286,
        "total_tokens": 19583
      },
      "model": "anthropic/claude-sonnet-4-6",
      "answer": "# Controlled Terminology (CT) in SDTM\n\n## Definition and Purpose\n\nControlled Terminology (CT) in SDTM refers to a set of standardized, permissible values for specific variables. It is centrally managed by the **CDISC Controlled Terminology Team**, supporting the terminology needs of all CDISC foundational standards (SDTM, CDASH, ADaM, SEND) and all disease/therapeutic area standards. [Source: chapters/ch10_appendices.md]\n\n---\n\n## How CT Is Represented in Domain Specifications\n\nAs of SDTMIG v3.3, the **Controlled Terms, Codelist or Format** column in domain specification tables uses the following conventions: [Source: chapters/ch04_general_assumptions.md -- 4.3.1]\n\n| Notation | Meaning |\n|----------|---------|\n| `*` (single asterisk) | CDISC CT not currently available, but sponsors may have their own CT and/or CDISC CT Team may develop it in the future |\n| A single fixed value | The only allowed value for that variable (e.g., `\"PR\"` for the DOMAIN variable in the PR domain) |\n| A codelist name as hyperlink (e.g., `(NY)`) | The named CDISC codelist applies |\n| An external terminology reference (e.g., `MedDRA`, `ISO 3166-1 alpha-3`) | Values must come from that external code system |\n| An ISO 8601 format indicator | The variable uses an ISO 8601 date/time format |\n\n---\n\n## How CT Constrains Variable Values\n\n### 1. Permissible Value Sets in Define-XML\nAll values in the permissible value set for the study **must** be included in the Define-XML document, whether or not they are represented in submitted data. A null value should **not** be included in the permissible value set — it is implied for any list of controlled terms unless the variable is Required (Core = **Req**). [Source: chapters/ch04_general_assumptions.md -- 4.3.3]\n\n### 2. Planned Data Collection Scope\nWhen a domain specification includes a codelist for a variable, only values that were **part of planned data collection** should be included in the Define-XML document. For example, `--PRESP` variables are associated with the NY codelist, but only the value `\"Y\"` is allowed in `--PRESP` variables. [Source: chapters/ch04_general_assumptions.md -- 4.3.3]\n\n### 3. Text Case\nTerms from CT must be in the **case that appears in the source codelist or code system** (e.g., CDISC codelist or external code system such as MedDRA). [Source: chapters/ch04_general_assumptions.md -- 4.3.2]\n\n### 4. Special Variable Constraints\n\n- **--TESTCD** and **QNAM**: Values must be ≤8 characters, cannot start with a number, and can only contain letters, numbers, or underscores (SAS v5 transport file compatibility). Because QNAM serves the same purpose as --TESTCD within supplemental qualifier datasets, the same restrictions apply. [Source: chapters/ch04_general_assumptions.md -- 4.2.1]\n- **ETCD** and **TSPARMCD**: Limited to 8 characters but do **not** have the character restrictions of --TESTCD.\n- **ARMCD** / **ACTARMCD**: Limited to 20 characters, no character restrictions beyond that.\n\n### 5. Variable Length Optimization\nFor variables that use CT, the variable length can be set to the length of the **longest term** in the codelist, rather than defaulting to the maximum of 200 characters. [Source: chapters/ch04_general_assumptions.md -- 4.2.9]\n\n### 6. Domain-Specific CT for Result Variables\nFor some domains, CDISC CT includes codelists for use with result variables (e.g., TRORRES in TR, TSVAL in TS). The associations between test/parameter values and result codelists are published in domain-specific codetables available at the CDISC CT website. [Source: domains/TR/assumptions.md -- item_3; domains/TS/assumptions.md -- item_8]\n\n---\n\n## Where to Find Current CT\n\n- **CDISC website**: https://www.cdisc.org/standards/terminology/controlled-terminology\n- **NCI-EVS**: https://www.cancer.gov/research/resources/terminology/cdisc\n\n> Note: SDTM terminology was previously published separately for questionnaires and other domains; as of the 2015-12-18 release, these were **merged into a single publication**. [Source: chapters/ch10_appendices.md]\n\n---\n\n## Key Governance Points\n\n- New/modified terms have a **3-month development period** with quarterly public-review comment period followed by publication release. [Source: chapters/ch10_appendices.md]\n- Sponsors are encouraged to check the CDISC website frequently, as CT is published as a **separate publication** from the SDTMIG itself. [Source: chapters/ch01_introduction.md]\n- The CDISC Notes column examples and domain examples are **not** intended to imply controlled terminology — only the official CT publications govern permissible values. [Source: chapters/ch04_general_assumptions.md -- 4.3]",
      "judge_fact_recall": 1.0,
      "judge_fact_hits": [
        "codelist",
        "Controlled Terms"
      ],
      "judge_fact_misses": [],
      "judge_parse_ok": true,
      "elapsed_s": 60.88
    },
    {
      "id": "q36",
      "category": "concept",
      "question": "What are the timing variables in SDTM (such as --DTC, --STDTC, --ENDTC) and how are they structured across domains?",
      "source_recall": 1.0,
      "source_hits": [
        "chapters/ch04"
      ],
      "source_misses": [],
      "top5_sources": [
        "chapters/ch04_general_assumptions.md",
        "model/01_concepts_and_terms.md",
        "chapters/ch04_general_assumptions.md",
        "model/02_observation_classes.md",
        "domains/BE/assumptions.md"
      ],
      "top5_similarities": [
        0.6533,
        0.7001,
        0.6573,
        0.6517,
        0.6647
      ],
      "fact_recall": 1.0,
      "fact_hits": [
        "DTC",
        "STDTC",
        "ENDTC",
        "Timing"
      ],
      "fact_misses": [],
      "answer_preview": "# SDTM Timing Variables: Structure and Usage Across Domains\n\n## Overview\n\nTiming variables are an essential component of all SDTM subject-level domain datasets. All domains based on the 3 general observation classes must include at least 1 timing variable. [Source: chapters/ch04_general_assumptions.md §4.4]\n\n---\n\n## 1. Complete Timing Variable Inventory\n\nThe following 48 timing variables are available for use in any domain based on one of the 3 general observation classes (with restrictions noted):\n\n### 1.1 Visit and Epoch Variables\n\n| Variable | Label | Type | Key Restrictions |\n|----------|-",
      "usage": {
        "prompt_tokens": 18254,
        "completion_tokens": 2566,
        "total_tokens": 20820
      },
      "model": "anthropic/claude-sonnet-4-6",
      "answer": "# SDTM Timing Variables: Structure and Usage Across Domains\n\n## Overview\n\nTiming variables are an essential component of all SDTM subject-level domain datasets. All domains based on the 3 general observation classes must include at least 1 timing variable. [Source: chapters/ch04_general_assumptions.md §4.4]\n\n---\n\n## 1. Complete Timing Variable Inventory\n\nThe following 48 timing variables are available for use in any domain based on one of the 3 general observation classes (with restrictions noted):\n\n### 1.1 Visit and Epoch Variables\n\n| Variable | Label | Type | Key Restrictions |\n|----------|-------|------|-----------------|\n| VISITNUM | Visit Number | Num | — |\n| VISIT | Visit Name | Char | — |\n| VISITDY | Planned Study Day of Visit | Num | — |\n| TAETORD | Planned Order of Element Within Arm | Num | — |\n| EPOCH | Epoch | Char | See §1.1.1 below |\n| RPHASE | Repro Phase | Char | Not in human clinical trials |\n| RPPLDY | Planned Repro Phase Day of Observation | Num | Not in human clinical trials |\n| RPPLSTDY | Planned Repro Phase Day of Obs Start | Num | Not in human clinical trials |\n| RPPLENDY | Planned Repro Phase Day of Obs End | Num | Not in human clinical trials |\n\n[Source: model/02_observation_classes.md §3.1.5]\n\n#### 1.1.1 EPOCH Assignment Rules\n\n- **Findings class**: EPOCH should be based on **--DTC** (date/time of test or specimen collection)\n- **Interventions/Events class**: EPOCH should be based on **--STDTC** (start of the intervention or event)\n- EPOCH should be **null** for observations that occurred before the subject's study participation (including pre-screening)\n- Sponsors should not impute EPOCH values\n\n[Source: chapters/ch04_general_assumptions.md §4.1.3.1]\n\n---\n\n### 1.2 Primary Date/Time Variables\n\n| Variable | Label | Type | Format | Class Restriction |\n|----------|-------|------|--------|-------------------|\n| --DTC | Date/Time of Collection | Char | ISO 8601 | Available in all 3 classes |\n| --STDTC | Start Date/Time of Observation | Char | ISO 8601 | **Not in Findings class domains** |\n| --ENDTC | End Date/Time of Observation | Char | ISO 8601 | Available in all 3 classes |\n\n[Source: model/02_observation_classes.md §3.1.5]\n\n**Critical distinction by observation class:**\n\n| Class | Primary Date Variable | Meaning |\n|-------|-----------------------|---------|\n| Findings | --DTC | Date/time of specimen collection or test |\n| Events | --STDTC | Start date/time of the event |\n| Interventions | --STDTC | Start date/time of the intervention |\n\n> **Note:** --STDTC is explicitly **not available** in Findings class domains. [Source: model/02_observation_classes.md §3.1.5]\n\n---\n\n### 1.3 Study Day Variables\n\n| Variable | Label | Type | Class Restriction |\n|----------|-------|------|-------------------|\n| --DY | Study Day of Visit/Collection/Exam | Num | Derived from --DTC and RFSTDTC |\n| --STDY | Study Day of Start of Observation | Num | **Not in Findings class domains** |\n| --ENDY | Study Day of End of Observation | Num | — |\n| --NOMDY | Nominal Study Day for Tabulations | Num | Not in human clinical trials |\n| --NOMLBL | Label for Nominal Study Day | Char | Not in human clinical trials |\n| --RPDY | Actual Repro Phase Day of Observation | Num | Not in human clinical trials |\n| --RPSTDY | Actual Repro Phase Day of Obs Start | Num | Not in human clinical trials |\n| --RPENDY | Actual Repro Phase Day of Obs End | Num | Not in human clinical trials |\n| --XDY | Day of Obs Relative to Exposure | Num | Derived relative to RFXSTDTC |\n| --XSTDY | Start Day of Obs Relative to Exposure | Num | **Not in Findings class domains** |\n| --XENDY | End Day of Obs Relative to Exposure | Num | — |\n| --CHDY | Day of Obs Rel to Challenge Agent | Num | Derived relative to RFCSTDTC |\n| --CHSTDY | Start Day of Obs Rel to Challenge Agent | Num | **Not in Findings class domains** |\n| --CHENDY | End Day of Obs Rel to Challenge Agent | Num | — |\n| --DUR | Collected Duration | Char | ISO 8601 duration |\n\n[Source: model/02_observation_classes.md §3.1.5]\n\n---\n\n### 1.4 Time Point Variables\n\n| Variable | Label | Type |\n|----------|-------|------|\n| --TPT | Planned Time Point Name | Char |\n| --TPTNUM | Planned Time Point Number | Num |\n| --ELTM | Planned Elapsed Time from Time Point Ref | Char (ISO 8601 duration) |\n| --TPTREF | Time Point Reference | Char |\n| --RFTDTC | Date/Time of Reference Time Point | Char (ISO 8601) |\n\n[Source: model/02_observation_classes.md §3.1.5]\n\n---\n\n### 1.5 Relative Timing Variables\n\n| Variable | Label | Type |\n|----------|-------|------|\n| --STRF | Start Relative to Reference Period | Char |\n| --ENRF | End Relative to Reference Period | Char |\n| --EVLINT | Evaluation Interval | Char (ISO 8601) |\n| --EVINTX | Evaluation Interval Text | Char |\n| --STRTPT | Start Relative to Reference Time Point | Char |\n| --ENRTPT | End Relative to Reference Time Point | Char |\n\n[Source: model/02_observation_classes.md §3.1.5]\n\n---\n\n## 2. Study Day Derivation Rules\n\nThe study day variables (--DY, --STDY, --ENDY) are derived by comparing the date portion of the respective date/time variable to RFSTDTC (subject reference start date in DM):\n\n- **RFSTDTC = Study Day 1** (no Day 0 exists)\n- If --DTC ≥ RFSTDTC: `--DY = date(--DTC) − date(RFSTDTC) + 1`\n- If --DTC < RFSTDTC: `--DY = date(--DTC) − date(RFSTDTC)` (e.g., Day −1 immediately precedes Day 1)\n- Partial dates **must not** be used to derive study day\n- Study Day is **not suitable** for computing durations; use original date values\n\n[Source: chapters/ch04_general_assumptions.md §4.4.4]\n\n---\n\n## 3. Findings-Specific Rules for --DTC and --ENDTC\n\nFor Findings class domains, the --DTC variable always represents **specimen collection date/time**, not data recording date. The LB domain has specific rules:\n\n| Collection Type | --DTC | --STDTC | --ENDTC |\n|-----------------|:-----:|:-------:|:-------:|\n| Single-point collection | ✓ | (not used) | |\n| Interval collection (e.g., 24-hr urine) | ✓ (start) | (not used) | ✓ (end) |\n\n> **--STDTC must not be used in Findings class domains.** [Source: chapters/ch04_general_assumptions.md §4.4.8]\n\n---\n\n## 4. Domain-Specific Exceptions and Notes\n\n### BE (Biospecimen Events) — Special Case\nAlthough BE is an Events domain, **BEDTC** holds the **specimen collection date/time** (not data collection date), aligning with Findings conventions. BESTDTC and BEENDTC hold the event start/end dates. [Source: domains/BE/assumptions.md §6]\n\n### DS (Disposition) — Events Domain\n- Only **DSSTDTC** is used; disposition events do not span an interval and have no end date\n- EPOCH in DS is based on DSSTDTC [Source: domains/DS/assumptions.md §4]\n\n### SE (Subject Elements) — Special-Purpose Domain\n- --DTC and --DY are available but generally not useful (elements are derived)\n- --DUR may be added only if duration was **collected**, not derived\n- Time point variables (--TPT, --TPTNUM, --ELTM, --TPTREF, --RFTDTC) are **inappropriate** for SE [Source: domains/SE/assumptions.md §11]\n\n### SV (Subject Visits) — Special-Purpose Domain\n- TAETORD and EPOCH values must reflect the **start of the visit**\n- Time point variables are **inappropriate** for SV [Source: domains/SV/assumptions.md §15]\n\n---\n\n## 5. ISO 8601 Format Requirements\n\nAll date/time variables must use ISO 8601 **extended format**:\n\n```\nYYYY-MM-DDThh:mm:ss(.n+)?(((+|-)hh:mm)|Z)?\n```\n\n- Hyphen delimiters required for date components\n- Colon delimiters required for time components\n- **Spaces are not allowed**\n- Partial dates are permitted (e.g., `2023-06` when day is unknown)\n- All DTC variables are **character** data type\n\n[Source: chapters/ch04_general_assumptions.md §4.4.1]\n\n---\n\n## 6. Restrictions on Adding Timing Variables\n\n- Timing variables **can** be added to standard GOC domain models as needed\n- Timing variables **cannot** be added to SUPPQUAL datasets\n- Timing variables **cannot** be added to RELREC\n- Timing variables can be added to special-purpose domains **only where specified** in the SDTMIG domain model assumptions\n\n[Source: chapters/ch04_general_assumptions.md §4.1.3]",
      "judge_fact_recall": 1.0,
      "judge_fact_hits": [
        "DTC",
        "STDTC",
        "ENDTC",
        "Timing"
      ],
      "judge_fact_misses": [],
      "judge_parse_ok": true,
      "elapsed_s": 43.64
    },
    {
      "id": "q37",
      "category": "concept",
      "question": "What are the Special-Purpose datasets in SDTM and which domains fall into this category?",
      "source_recall": 1.0,
      "source_hits": [
        "model/03_special_purpose_domains.md"
      ],
      "source_misses": [],
      "top5_sources": [
        "model/01_concepts_and_terms.md",
        "model/02_observation_classes.md",
        "model/03_special_purpose_domains.md",
        "chapters/ch04_general_assumptions.md",
        "chapters/ch04_general_assumptions.md"
      ],
      "top5_similarities": [
        0.666,
        0.6624,
        0.657,
        0.5978,
        0.6637
      ],
      "fact_recall": 1.0,
      "fact_hits": [
        "Special-Purpose",
        "DM",
        "CO",
        "SE"
      ],
      "fact_misses": [],
      "answer_preview": "# Special-Purpose Datasets in SDTM\n\n## Overview\n\nSpecial-Purpose datasets are a distinct category of SDTM datasets that exist alongside the three General Observation Class domains (Interventions, Events, Findings). They have specific standardized structures to represent important information that does not fit the general observation class model.\n\n[Source: model/03_special_purpose_domains.md]\n\n> \"In addition to the 3 general observation classes, a submission will generally include a set of other special-purpose datasets of specific standardized structures to represent additional important infor",
      "usage": {
        "prompt_tokens": 19343,
        "completion_tokens": 984,
        "total_tokens": 20327
      },
      "model": "anthropic/claude-sonnet-4-6",
      "answer": "# Special-Purpose Datasets in SDTM\n\n## Overview\n\nSpecial-Purpose datasets are a distinct category of SDTM datasets that exist alongside the three General Observation Class domains (Interventions, Events, Findings). They have specific standardized structures to represent important information that does not fit the general observation class model.\n\n[Source: model/03_special_purpose_domains.md]\n\n> \"In addition to the 3 general observation classes, a submission will generally include a set of other special-purpose datasets of specific standardized structures to represent additional important information.\"\n\n---\n\n## Domains Authoritatively Classified as Special Purpose\n\nBased on authoritative class designations in the source materials:\n\n### From the SDTM v2.0 Conceptual Model\n\nThe following domains are defined in the Special-Purpose Domains model chapter:\n\n| Domain | Name | Description |\n|--------|------|-------------|\n| **DM** | Demographics | Includes essential standard variables describing each subject; parent domain for all other observations for human clinical subjects |\n| **CO** | Comments | Free-text comments related to data in one or more SDTM domains |\n| **SE** | Subject Elements | One record per actual Element per subject |\n| **SJ** | Subject Journeys | *(defined in model)* |\n| **SV** | Subject Visits | One record per actual or planned visit per subject |\n| **SM** | Subject Disease Milestones | One record per Disease Milestone per subject |\n\n[Source: model/03_special_purpose_domains.md]\n\n### From Dataset-Level Metadata Table (SDTMIG v3.4)\n\nThe following domains are explicitly labeled **Class = Special Purpose** in the submission metadata table:\n\n| Domain | Name |\n|--------|------|\n| **CO** | Comments |\n| **DM** | Demographics |\n| **SE** | Subject Elements |\n| **SM** | Subject Disease Milestones |\n| **SV** | Subject Visits |\n\n[Source: chapters/ch03_submitting_data.md]\n\n### Additional Special-Purpose Domains from Controlled Terminology\n\nThe SDTM Domain Abbreviation codelist (C66734) also designates the following as special-purpose:\n\n| Domain | Name |\n|--------|------|\n| **CO** | Comments — *\"A special-purpose domain that contains comments...\"* |\n| **DM** | Demographics — *\"A special-purpose domain that includes a set of essential standard variables...\"* |\n| **DI** | Device Identifiers — *\"A special-purpose domain containing information that identifies a specific device unit\"* |\n| **DR** | Device-Subject Relationships — *\"A special-purpose domain that contains the linkage of each subject to the device(s)...\"* |\n\n[Source: terminology/core/general_part4.md]\n\n---\n\n## Important Distinction: Special Purpose vs. Relationship Datasets\n\nNote that **Relationship datasets** (RELREC, SUPP--, RELSPEC, RELSUB, POOLDEF) are a **separate class** from Special-Purpose domains in the SDTM model, even though they are sometimes informally grouped together. The RELREC dataset, for example, is described as a \"Related Records special-purpose dataset\" in prose, but its authoritative class in the model is **Relationship**.\n\n[Source: model/06_relationship_datasets.md via INDEX.md; domains/RELREC/assumptions.md]\n\n---\n\n## Key Characteristics of Special-Purpose Domains\n\n1. **DM is required** for human and animal studies — it is the parent domain for all subject observations [Source: model/03_special_purpose_domains.md]\n2. Special-purpose domain variables generally **do not use the two-character domain prefix** (e.g., DM variables like AGE, SEX, RACE are not prefixed \"DM--\") [Source: chapters/ch04_general_assumptions.md]\n3. They have **fixed, standardized structures** rather than being derived from a general observation class template\n4. The SUPPQUAL (SUPP--) dataset applies to general observation class datasets, DM, and SV — reinforcing that DM and SV are special-purpose [Source: domains/SUPPQUAL/assumptions.md]",
      "judge_fact_recall": 1.0,
      "judge_fact_hits": [
        "Special-Purpose",
        "DM",
        "CO",
        "SE"
      ],
      "judge_fact_misses": [],
      "judge_parse_ok": true,
      "elapsed_s": 22.99
    },
    {
      "id": "q38",
      "category": "concept",
      "question": "How are SDTM domain abbreviation codes assigned? What are the rules for the two-character domain code?",
      "source_recall": 1.0,
      "source_hits": [
        "chapters/ch02"
      ],
      "source_misses": [],
      "top5_sources": [
        "chapters/ch04_general_assumptions.md",
        "domains/SV/spec.md",
        "domains/FT/spec.md",
        "domains/EX/spec.md",
        "domains/IE/spec.md"
      ],
      "top5_similarities": [
        0.6759,
        0.6703,
        0.6691,
        0.6691,
        0.6689
      ],
      "fact_recall": 0.5,
      "fact_hits": [
        "DOMAIN"
      ],
      "fact_misses": [
        "two-character"
      ],
      "answer_preview": "# SDTM Domain Abbreviation Code Assignment Rules\n\n## Overview\n\nEach SDTM domain is distinguished by a unique **2-character domain code (DOMAIN)**, which serves four purposes:\n1. As the dataset name (e.g., `dm.xpt`)\n2. As the value of the DOMAIN variable within that dataset\n3. As a prefix for most variable names in that dataset\n4. As a value in the RDOMAIN variable in relationship tables\n\n[Source: chapters/ch02_fundamentals.md]\n\n---\n\n## Character Rules\n\nThe 2-character domain code is subject to the following constraints:\n\n- **First character**: A–Z (letters only)\n- **Second character**: A–Z or ",
      "usage": {
        "prompt_tokens": 12830,
        "completion_tokens": 849,
        "total_tokens": 13679
      },
      "model": "anthropic/claude-sonnet-4-6",
      "answer": "# SDTM Domain Abbreviation Code Assignment Rules\n\n## Overview\n\nEach SDTM domain is distinguished by a unique **2-character domain code (DOMAIN)**, which serves four purposes:\n1. As the dataset name (e.g., `dm.xpt`)\n2. As the value of the DOMAIN variable within that dataset\n3. As a prefix for most variable names in that dataset\n4. As a value in the RDOMAIN variable in relationship tables\n\n[Source: chapters/ch02_fundamentals.md]\n\n---\n\n## Character Rules\n\nThe 2-character domain code is subject to the following constraints:\n\n- **First character**: A–Z (letters only)\n- **Second character**: A–Z or 0–9 (letters or digits)\n- **No other characters are allowed**\n\nThis restriction exists for compatibility with **SAS v5 transport files** and with file naming requirements under the **Electronic Common Technical Document (eCTD)**.\n\n[Source: chapters/ch04_general_assumptions.md §4.2.2]\n\n---\n\n## Standard Domain Codes\n\nStandard domain codes are defined in the **SDTM Domain Abbreviation codelist (C66734)** in CDISC Controlled Terminology, available at https://www.cancer.gov/research/resources/terminology/cdisc.\n\nDataset names are normally consistent with the domain code (e.g., the DM domain is named `dm.xpt`).\n\n[Source: chapters/ch04_general_assumptions.md §4.1.6]\n\n---\n\n## Custom Domain Codes\n\nSponsors may need to define new custom domains. To eliminate any risk of conflict with future CDISC-defined domain codes:\n\n> **Domain codes beginning with X, Y, or Z are reserved for custom domains.**\n\nAny letter or number may be used in the second position of a custom domain code. Note that use of X/Y/Z prefixes is **optional**, not required — sponsors may use other codes for custom domains, but X/Y/Z are guaranteed never to be assigned by CDISC.\n\n[Source: chapters/ch04_general_assumptions.md §4.1.6]\n\n---\n\n## Variable Naming and the Domain Prefix\n\nThe domain code is used as a **prefix** for most variable names (replacing the `--` placeholder in SDTM general observation class tables). The following are **exceptions** — variables that are NOT prefixed with the domain identifier:\n\n| Exception Category | Examples |\n|---|---|\n| Required Identifiers | STUDYID, DOMAIN, USUBJID |\n| Commonly used grouping/merge keys | VISIT, VISITNUM, VISITDY |\n| All DM domain variables (except DMDTC, DMDY) | AGE, SEX, RACE, etc. |\n| All variables in RELREC and SUPPQUAL | RDOMAIN, IDVAR, QNAM, etc. |\n| Some variables in Comments and Trial Design datasets | — |\n\nThe `--SEQ` and optional identifiers `--GRPID` and `--REFID` **are** prefixed because they may be used as keys when relating observations across domains.\n\n[Source: chapters/ch04_general_assumptions.md §4.2.2]\n\n---\n\n## DOMAIN Variable Definition\n\nAcross all domains, the DOMAIN variable is defined consistently as:\n\n| Attribute | Value |\n|---|---|\n| **Label** | Domain Abbreviation |\n| **Type** | Char |\n| **Role** | Identifier |\n| **Core** | Req |\n\n[Source: domains/SV/spec.md, domains/EX/spec.md, domains/PP/spec.md, and others]",
      "judge_fact_recall": 1.0,
      "judge_fact_hits": [
        "two-character",
        "DOMAIN"
      ],
      "judge_fact_misses": [],
      "judge_parse_ok": true,
      "elapsed_s": 17.34
    },
    {
      "id": "q39",
      "category": "concept",
      "question": "What is the Findings About observation class and how does it differ from the standard Findings class?",
      "source_recall": 1.0,
      "source_hits": [
        "model/02_observation_classes.md"
      ],
      "source_misses": [],
      "top5_sources": [
        "domains/BS/spec.md",
        "chapters/ch08_relationships.md",
        "domains/CP/spec.md",
        "model/02_observation_classes.md",
        "domains/CV/spec.md"
      ],
      "top5_similarities": [
        0.7123,
        16.7017,
        0.7123,
        15.7114,
        0.7123
      ],
      "fact_recall": 0.5,
      "fact_hits": [
        "Findings About"
      ],
      "fact_misses": [
        "FAOBJ"
      ],
      "answer_preview": "# Findings About Observation Class\n\n## Definition\n\nThe **Findings About** observation class is a **subtype of the Findings observation class** used to record findings *related to* observations in the Interventions or Events classes — i.e., findings about events or interventions rather than about the subject directly.\n\n[Source: model/02_observation_classes.md]\n\n---\n\n## Structural Difference from Standard Findings\n\nBoth classes share the same variable set from the Findings general observation class. The **sole structural distinction** is the addition of one variable unique to Findings About:\n\n| ",
      "usage": {
        "prompt_tokens": 16175,
        "completion_tokens": 780,
        "total_tokens": 16955
      },
      "model": "anthropic/claude-sonnet-4-6",
      "answer": "# Findings About Observation Class\n\n## Definition\n\nThe **Findings About** observation class is a **subtype of the Findings observation class** used to record findings *related to* observations in the Interventions or Events classes — i.e., findings about events or interventions rather than about the subject directly.\n\n[Source: model/02_observation_classes.md]\n\n---\n\n## Structural Difference from Standard Findings\n\nBoth classes share the same variable set from the Findings general observation class. The **sole structural distinction** is the addition of one variable unique to Findings About:\n\n| Variable | Label | Type | Role | Notes |\n|----------|-------|------|------|-------|\n| --OBJ | Object of the Observation | Char | Record Qualifier | Describes the event or intervention whose property is being measured in --TESTCD/--TEST. Placed immediately after the --TEST variable in variable order. |\n\n[Source: model/02_observation_classes.md]\n\nIn standard Findings, --TESTCD/--TEST describe *what* is being measured on the subject. In Findings About, **both --TESTCD and --OBJ are required** for every record:\n- **--TESTCD** describes the measurement/evaluation (e.g., `SEV`, `OCCUR`, `TOXGR`)\n- **--OBJ** describes the event or intervention that the measurement is *about*\n\n[Source: model/02_observation_classes.md]\n\n---\n\n## Key Conceptual Distinction\n\n| Dimension | Standard Findings | Findings About |\n|-----------|------------------|----------------|\n| Subject of observation | The subject directly (e.g., lab test, ECG) | An event or intervention that happened to the subject |\n| --OBJ populated? | No | Yes — required |\n| Typical domain | LB, VS, EG, QS, etc. | FA |\n| Example | Heart rate = 72 bpm | Severity of nausea (AE) = MILD |\n\n[Source: model/02_observation_classes.md; chapters/ch08_relationships.md]\n\n---\n\n## When to Use Findings About (FA Domain)\n\nThe FA domain implements the Findings About subtype. Three criteria guide its use:\n\n1. **Different timing** — The finding has different timing from the associated event/intervention as a whole (e.g., repeated severity assessments of a symptom at multiple time points, while the AE record captures the overall event).\n\n2. **Multiple variables required** — The observation about an event/intervention requires more than one variable for its representation, preventing inclusion as a simple supplemental qualifier.\n\n3. **Occurrence of pre-specified AEs** — Data indicating the occurrence of pre-specified adverse events.\n\n[Source: domains/FA/assumptions.md]\n\n---\n\n## Variable Order Note\n\nPer SDTMIG general assumptions, variables must be ordered: Identifiers → Topic → Qualifier → Timing. Within Findings About qualifiers, **--OBJ appears immediately after --TEST**.\n\n[Source: model/02_observation_classes.md; chapters/ch04_general_assumptions.md]\n\n---\n\n## Qualifiers Generally Not Used in FA\n\nThe following standard Findings qualifiers **should generally not be used** in the FA domain:\n- --BODSYS\n- --MODIFY\n- --SEV\n- --TOXGR\n\n[Source: domains/FA/assumptions.md]",
      "judge_fact_recall": 1.0,
      "judge_fact_hits": [
        "Findings About",
        "FAOBJ"
      ],
      "judge_fact_misses": [],
      "judge_parse_ok": true,
      "elapsed_s": 48.3
    },
    {
      "id": "q40",
      "category": "concept",
      "question": "What is the difference between collected data and derived data in SDTM, and how is the origin of a variable value indicated?",
      "source_recall": 1.0,
      "source_hits": [
        "chapters/ch04"
      ],
      "source_misses": [],
      "top5_sources": [
        "chapters/ch04_general_assumptions.md",
        "model/01_concepts_and_terms.md",
        "chapters/ch01_introduction.md",
        "model/06_relationship_datasets.md",
        "chapters/ch04_general_assumptions.md"
      ],
      "top5_similarities": [
        0.641,
        0.6331,
        0.5626,
        0.5606,
        0.5626
      ],
      "fact_recall": 1.0,
      "fact_hits": [
        "Collected",
        "Derived",
        "Origin"
      ],
      "fact_misses": [],
      "answer_preview": "# Collected vs. Derived Data in SDTM: Definitions and Origin Indication\n\n## 1. Core Distinction\n\nIn SDTM, data values are categorized by **where they originated**:\n\n| Category | Description | Examples |\n|----------|-------------|---------|\n| **Collected** | Data obtained directly from a source — CRF, vendor, device, or central lab | CRF responses, central lab results, eDiary entries |\n| **Derived** | Data computed or calculated from other data via an algorithm | Total scores computed from item scores, calculated study days |\n| **Assigned** | Data assigned (not directly collected or algorithmic",
      "usage": {
        "prompt_tokens": 20105,
        "completion_tokens": 1331,
        "total_tokens": 21436
      },
      "model": "anthropic/claude-sonnet-4-6",
      "answer": "# Collected vs. Derived Data in SDTM: Definitions and Origin Indication\n\n## 1. Core Distinction\n\nIn SDTM, data values are categorized by **where they originated**:\n\n| Category | Description | Examples |\n|----------|-------------|---------|\n| **Collected** | Data obtained directly from a source — CRF, vendor, device, or central lab | CRF responses, central lab results, eDiary entries |\n| **Derived** | Data computed or calculated from other data via an algorithm | Total scores computed from item scores, calculated study days |\n| **Assigned** | Data assigned (not directly collected or algorithmically derived) | Sponsor-assigned categories, evaluator judgments |\n\n> \"Data could be collected (on the CRF, from a vendor, or from a device), derived, or assigned; CRF data should be traceable to an annotated CRF and derived data should be traceable to some derivation algorithm.\"\n> **[Source: chapters/ch04_general_assumptions.md — 4.1.8.1 Origin Metadata for Variables]**\n\n---\n\n## 2. How Origin Is Indicated\n\n### 2.1 Variable-Level Origin (Define-XML)\n\nThe **origin element** in the Define-XML file is the primary mechanism for declaring data origin. It applies uniformly to **all values** of a given variable:\n\n- If origin = \"CRF\" → **all** values for that variable were collected on the CRF\n- If origin = \"Derived\" → **all** values for that variable were derived\n\n**[Source: chapters/ch04_general_assumptions.md — 4.1.8.1 Origin Metadata for Variables]**\n\n> The Define-XML specification is the definitive source of allowable origin values. Additional guidance can be referenced using the Metadata Submission Guidelines (MSG) for SDTMIG.\n\n### 2.2 Value-Level Origin (When Mixed Origins Exist)\n\nWhen a single variable contains **both collected and derived values** (e.g., individual QS item responses collected from CRF + a total score derived by the sponsor), **value-level metadata** in Define-XML must be used to describe the origin at the record level.\n\n> \"When both derived and collected values are reported in a variable, the origin is to be described using value-level metadata in the Define-XML document.\"\n> **[Source: chapters/ch04_general_assumptions.md — 4.1.8.2 Origin Metadata for Records]**\n\n### 2.3 QORIG in Supplemental Qualifiers (SUPP--)\n\nFor non-standard variables stored in SUPP-- datasets, the variable **QORIG** (Origin, Core = Req) explicitly records the origin of each QVAL:\n\n| Variable | Label | Role | Core | Notes |\n|----------|-------|------|------|-------|\n| QORIG | Origin | Record Qualifier | Req | Indicates origin of QVAL. Examples: \"CRF\", \"Assigned\", \"Derived\" |\n\n> \"Because QVAL can represent a mixture of collected (on a CRF), derived, or assigned items, QORIG is used to indicate the origin of this data.\"\n> **[Source: chapters/ch08_relationships.md — 8.4.1 Supplemental Qualifiers (SUPP--)]**\n\n---\n\n## 3. Domain-Specific Applications\n\n### 3.1 Central Lab Data\nA value derived by a central lab **according to its own procedures** is considered **collected**, not derived, for SDTM origin purposes.\n**[Source: domains/LB/assumptions.md — item_6]**\n\n### 3.2 QRS/Questionnaire Total Scores\nThe rules for QRS domains (QS, FT, etc.) illustrate the collected/derived distinction in practice:\n\n| Scenario | Origin Classification | --DRVFL |\n|----------|-----------------------|---------|\n| Total score listed on CRF | Collected | Null |\n| Total score in instrument manual (not on CRF) | Collected | Null |\n| Total score received from central vendor | Collected | Null |\n| Total score **operationally derived by sponsor** | Derived | \"Y\" |\n| Investigator-derived score written on CRF | Collected | Null |\n\n> \"When subtotal and total scores are derived by the sponsor, the derived flag (--DRVFL) is set to 'Y'. However, when the subtotal and total scores are received from a central provider or vendor, the value would go into --ORRES and --DRVFL would be null.\"\n> **[Source: domains/QS/assumptions.md — item_4; domains/FT/assumptions.md — item_4]**\n\n---\n\n## 4. Summary\n\n```\nOrigin Declaration Path:\n  ┌─────────────────────────────────────────────────────┐\n  │ All values same origin?                             │\n  │   YES → Variable-level metadata in Define-XML       │\n  │   NO  → Value-level metadata in Define-XML          │\n  └─────────────────────────────────────────────────────┘\n  \n  For SUPP-- variables:\n    → QORIG (Req) on every record\n  \n  For derived records in QRS domains:\n    → --DRVFL = \"Y\" when sponsor-operationally derived\n```\n\nThe key principle is **unambiguous traceability**: collected data must trace to an annotated CRF or source; derived data must trace to a documented derivation algorithm. **[Source: chapters/ch04_general_assumptions.md — 4.1.8.1]**",
      "judge_fact_recall": 1.0,
      "judge_fact_hits": [
        "Collected",
        "Derived",
        "Origin"
      ],
      "judge_fact_misses": [],
      "judge_parse_ok": true,
      "elapsed_s": 28.11
    },
    {
      "id": "q41",
