{
  "summary": {
    "n_questions": 140,
    "model": "deepseek/deepseek-v4-pro",
    "threshold": 0.85,
    "source_recall_avg": 0.9964,
    "source_recall_by_category": {
      "concept": 1.0,
      "cross_domain": 0.99,
      "mixed": 1.0,
      "single_domain": 1.0
    },
    "fact_recall_avg": 0.8187,
    "fact_recall_by_category": {
      "concept": 0.8927,
      "cross_domain": 0.7,
      "mixed": 0.94,
      "single_domain": 0.8449
    },
    "total_tokens": 2235573,
    "judge_fact_recall_avg": 0.9355,
    "judge_fact_recall_by_category": {
      "concept": 0.9867,
      "cross_domain": 0.9333,
      "mixed": 0.91,
      "single_domain": 0.9223
    },
    "judge_parse_failures": 0,
    "overall": 0.966,
    "overall_metric": "judge",
    "verdict": "PASS",
    "top_k": 15,
    "structured_lookup": true,
    "hybrid": {
      "fusion": "rrf",
      "alpha": null
    },
    "prompt_guardrail": true,
    "judge_model": "deepseek/deepseek-chat"
  },
  "results": [
    {
      "id": "q01",
      "category": "single_domain",
      "question": "What is AETERM and what are its variable attributes in the AE domain?",
      "source_recall": 1.0,
      "source_hits": [
        "domains/AE/spec.md"
      ],
      "source_misses": [],
      "top5_sources": [
        "domains/AE/spec.md",
        "domains/AE/spec.md",
        "domains/AE/spec.md",
        "domains/AE/spec.md",
        "domains/AE/assumptions.md"
      ],
      "top5_similarities": [
        0.5885,
        0.5778,
        0.5484,
        0.5477,
        0.6642
      ],
      "fact_recall": 1.0,
      "fact_hits": [
        "Topic",
        "Char",
        "Req",
        "Verbatim"
      ],
      "fact_misses": [],
      "answer_preview": "根据 SDTM AE 域的定义，**AETERM** 的含义及变量属性如下：\n\n- **Label**: Reported Term for the Adverse Event  \n- **Type**: Char（字符型）  \n- **Role**: Topic（主题变量）  \n- **Core**: Req（必需变量）  \n- **Controlled Terms**: 无（该字段未定义受控术语，即自由文本）  \n\n**说明**：AETERM 存储所收集的不良事件原文（verbatim term），是 AE 域的主题变量，必须填写。**[Source: domains/AE/spec.md]** 域假设中进一步明确，AETERM 是必填变量，必须包含一个值，并且通常为原文记录。**[Source: domains/AE/assumptions.md]**",
      "usage": {
        "prompt_tokens": 14042,
        "completion_tokens": 304,
        "total_tokens": 14346
      },
      "model": "deepseek/deepseek-v4-pro",
      "answer": "根据 SDTM AE 域的定义，**AETERM** 的含义及变量属性如下：\n\n- **Label**: Reported Term for the Adverse Event  \n- **Type**: Char（字符型）  \n- **Role**: Topic（主题变量）  \n- **Core**: Req（必需变量）  \n- **Controlled Terms**: 无（该字段未定义受控术语，即自由文本）  \n\n**说明**：AETERM 存储所收集的不良事件原文（verbatim term），是 AE 域的主题变量，必须填写。**[Source: domains/AE/spec.md]** 域假设中进一步明确，AETERM 是必填变量，必须包含一个值，并且通常为原文记录。**[Source: domains/AE/assumptions.md]**",
      "judge_fact_recall": 1.0,
      "judge_fact_hits": [
        "Topic",
        "Char",
        "Req",
        "Verbatim"
      ],
      "judge_fact_misses": [],
      "judge_parse_ok": true,
      "elapsed_s": 7.8
    },
    {
      "id": "q02",
      "category": "single_domain",
      "question": "What are the required (Core=Req) variables in the DM domain?",
      "source_recall": 1.0,
      "source_hits": [
        "domains/DM/spec.md"
      ],
      "source_misses": [],
      "top5_sources": [
        "domains/DM/spec.md",
        "domains/DM/spec.md",
        "domains/DM/spec.md",
        "domains/DM/spec.md",
        "chapters/ch04_general_assumptions.md"
      ],
      "top5_similarities": [
        0.4813,
        0.4255,
        0.4052,
        0.404,
        0.5064
      ],
      "fact_recall": 0.7143,
      "fact_hits": [
        "STUDYID",
        "DOMAIN",
        "USUBJID",
        "SUBJID",
        "SITEID"
      ],
      "fact_misses": [
        "SEX",
        "COUNTRY"
      ],
      "answer_preview": "根据提供的上下文，我无法完整列出 DM 域中所有 **Core=Req** 的变量。在当前检索到的上下文中，只能确认 **DOMAIN** 这一个变量的 Core 状态为 Req **[Source: domains/DM/spec.md]**。\n\n上下文提到“所有 Demographics (DM) domain 变量除了 DMDTC 和 DMDY 之外都不使用前缀” **[Source: chapters/ch04_general_assumptions.md §4.2.2]**，并指出 Identifier 变量（包括 STUDYID, DOMAIN, USUBJID）通常是必需的 **[Source: chapters/ch04_general_assumptions.md §4.2.2; model/01_concepts_and_terms.md §2.1]**。此外，核心规则说明 Required 变量“对于数据记录的识别至关重要” **[Source: chapters/ch04_general_assumptions.md §4.1.5]**。\n\n然而，要精确列出 DM 域中所有 **Core=Req** 的变量（例如 STUDYID, USUBJID, SUBJID, SITEID 等的具体 Core 状态），需要读取完整的 **domains/DM/spec.",
      "usage": {
        "prompt_tokens": 13834,
        "completion_tokens": 649,
        "total_tokens": 14483
      },
      "model": "deepseek/deepseek-v4-pro",
      "answer": "根据提供的上下文，我无法完整列出 DM 域中所有 **Core=Req** 的变量。在当前检索到的上下文中，只能确认 **DOMAIN** 这一个变量的 Core 状态为 Req **[Source: domains/DM/spec.md]**。\n\n上下文提到“所有 Demographics (DM) domain 变量除了 DMDTC 和 DMDY 之外都不使用前缀” **[Source: chapters/ch04_general_assumptions.md §4.2.2]**，并指出 Identifier 变量（包括 STUDYID, DOMAIN, USUBJID）通常是必需的 **[Source: chapters/ch04_general_assumptions.md §4.2.2; model/01_concepts_and_terms.md §2.1]**。此外，核心规则说明 Required 变量“对于数据记录的识别至关重要” **[Source: chapters/ch04_general_assumptions.md §4.1.5]**。\n\n然而，要精确列出 DM 域中所有 **Core=Req** 的变量（例如 STUDYID, USUBJID, SUBJID, SITEID 等的具体 Core 状态），需要读取完整的 **domains/DM/spec.md** 文件，该文件包含了每个变量的完整规格定义。当前上下文未提供此完整列表。",
      "judge_fact_recall": 0.1429,
      "judge_fact_hits": [
        "DOMAIN"
      ],
      "judge_fact_misses": [
        "STUDYID",
        "USUBJID",
        "SUBJID",
        "SITEID",
        "SEX",
        "COUNTRY"
      ],
      "judge_parse_ok": true,
      "elapsed_s": 13.31
    },
    {
      "id": "q03",
      "category": "single_domain",
      "question": "What are the key assumptions for adverse event data collection and coding?",
      "source_recall": 1.0,
      "source_hits": [
        "domains/AE/assumptions.md"
      ],
      "source_misses": [],
      "top5_sources": [
        "domains/AE/assumptions.md",
        "domains/FA/examples.md",
        "domains/AE/assumptions.md",
        "domains/AE/assumptions.md",
        "domains/AE/assumptions.md"
      ],
      "top5_similarities": [
        0.5919,
        0.5041,
        0.5608,
        0.5755,
        0.5716
      ],
      "fact_recall": 1.0,
      "fact_hits": [
        "AETERM",
        "MedDRA",
        "AEDECOD"
      ],
      "fact_misses": [],
      "answer_preview": "The key assumptions for adverse event data collection and coding in the AE domain are summarized below, citing the relevant SDTMIG v3.4 assumptions.\n\n---\n\n### 1. Scope and Definition of an Adverse Event\n- An AE is defined per ICH E2A as “any untoward medical occurrence … which does not necessarily have to have a causal relationship with this treatment.” The scope may be extended or limited in the protocol (e.g., capturing pre‑treatment events, excluding efficacy endpoints). **[Source: domains/AE/assumptions.md item 1]**\n- The sponsor defines what constitutes an event. The AE dataset is structu",
      "usage": {
        "prompt_tokens": 16502,
        "completion_tokens": 2026,
        "total_tokens": 18528
      },
      "model": "deepseek/deepseek-v4-pro",
      "answer": "The key assumptions for adverse event data collection and coding in the AE domain are summarized below, citing the relevant SDTMIG v3.4 assumptions.\n\n---\n\n### 1. Scope and Definition of an Adverse Event\n- An AE is defined per ICH E2A as “any untoward medical occurrence … which does not necessarily have to have a causal relationship with this treatment.” The scope may be extended or limited in the protocol (e.g., capturing pre‑treatment events, excluding efficacy endpoints). **[Source: domains/AE/assumptions.md item 1]**\n- The sponsor defines what constitutes an event. The AE dataset is structured as one record per adverse event per subject; events may be submitted as summary records (e.g., highest severity, causality, seriousness) or as separate records when there are changes in severity, causality, or seriousness. **[Source: domains/AE/assumptions.md item 7e]**\n\n### 2. Collection Methods\n- Adverse events can be collected either as free text or via a prespecified list of terms. **[Source: domains/AE/assumptions.md item 1]**\n- **Prespecified events:**  \n  - AEPRESP = “Y” indicates that the event was prespecified on the CRF. **[Source: domains/AE/assumptions.md item 4a]**  \n  - If it is necessary to know which prespecified events did *not* occur, those data are placed in the FA (Findings About Events or Interventions) domain. An AE record is created only for events that actually occurred (with AEPRESP = “Y”). **[Source: domains/AE/assumptions.md item 4b]**  \n  - When both prespecified and free‑text events are collected, AEPRESP is “Y” for prespecified events and null for free‑text events; the variable may be omitted if all events are free‑text. **[Source: domains/AE/assumptions.md item 4c]**  \n- **No‑event flag:** A record stating “no adverse events” for a subject is not submitted in the AE dataset; only actual events are included. **[Source: domains/AE/assumptions.md item 4d]**\n\n### 3. Coding and Terminology\n- **Verbatim term:** AETERM is the topic variable (required) and captures the verbatim term collected. **[Source: domains/AE/assumptions.md item 2a]**  \n- **Term modification:** AEMODIFY is a permissible variable used when the sponsor’s process permits modification of the verbatim term for coding. **[Source: domains/AE/assumptions.md item 2b]**  \n- **Coded term:** AEDECOD is the required preferred term derived from a standard dictionary (e.g., MedDRA). The dictionary name and version must be provided in Define‑XML using the external codelist element. **[Source: domains/AE/assumptions.md item 2c]**  \n- **System Organ Class:** AEBODSYS is the SOC from the coding dictionary; it is expected to be populated and may differ from the dictionary’s primary SOC. **[Source: domains/AE/assumptions.md item 2d]**\n\n### 4. Seriousness and Toxicity Grading\n- **Seriousness (AESER) and category variables:**  \n  - If collected via a single leading question (“Serious? Yes/No”), category variables (e.g., AESHOSP) may be null when AESER = “N”; if “Yes”, at least one category will be “Y”. If each category is individually collected, all category variables are populated and AESER is derived. **[Source: domains/AE/assumptions.md item 7a]**  \n  - Pre‑ICH seriousness categories “Involves cancer” (AESCAN) and “Occurred with overdose” (AESOD) are available for use in studies conducted under older guidelines. **[Source: domains/AE/assumptions.md item 7b]**  \n  - A description of “Other Medically Important Serious Adverse Event” is stored in SUPPAE with QNAM = AEOSOSP. **[Source: domains/AE/assumptions.md item 7c]**\n- **Toxicity grading:** When a standard toxicity scale (e.g., CTCAE) is used, AETOXGR replaces AESEV. Usually only one of these two variables is populated, but both may be used in specific cases. The scale name and version are documented in Define‑XML. **[Source: domains/AE/assumptions.md item 7d]**\n\n### 5. Timeline Orientation\n- If EPOCH or TAETORD is included, they are based on the start of the adverse event (AESTDTC), not the end. The computational method must be described in Define‑XML. **[Source: domains/AE/assumptions.md item 8]**\n\nThese assumptions collectively ensure that AE data are consistently defined, collected, coded, and structured for submission.",
      "judge_fact_recall": 1.0,
      "judge_fact_hits": [
        "AETERM",
        "MedDRA",
        "AEDECOD"
      ],
      "judge_fact_misses": [],
      "judge_parse_ok": true,
      "elapsed_s": 27.65
    },
    {
      "id": "q04",
      "category": "single_domain",
      "question": "What is the purpose of the TV (Trial Visits) domain and what variables does it contain?",
      "source_recall": 1.0,
      "source_hits": [
        "domains/TV/spec.md"
      ],
      "source_misses": [],
      "top5_sources": [
        "domains/TV/spec.md",
        "domains/TV/spec.md",
        "domains/TV/spec.md",
        "domains/TV/spec.md",
        "domains/SV/assumptions.md"
      ],
      "top5_similarities": [
        0.5894,
        0.4733,
        0.4706,
        0.47,
        0.6873
      ],
      "fact_recall": 1.0,
      "fact_hits": [
        "VISITNUM",
        "VISIT"
      ],
      "fact_misses": [],
      "answer_preview": "Based on the provided context, the purpose of the TV domain and its key variables are as follows:\n\n**Purpose**\n\nThe TV domain defines the **protocol-defined planned schedule of subject encounters** at the healthcare facility where the study is being conducted. It provides the standard way to describe clinical encounters so that a subject's actual visits [Source: domains/SV/assumptions.md] can be compared against the planned schedule [Source: domains/TV/assumptions.md]. This dataset is a part of the Trial Design Model. [Source: domains/TV/spec.md]\n\nGenerally, the structure is \"One Record per Pl",
      "usage": {
        "prompt_tokens": 14332,
        "completion_tokens": 819,
        "total_tokens": 15151
      },
      "model": "deepseek/deepseek-v4-pro",
      "answer": "Based on the provided context, the purpose of the TV domain and its key variables are as follows:\n\n**Purpose**\n\nThe TV domain defines the **protocol-defined planned schedule of subject encounters** at the healthcare facility where the study is being conducted. It provides the standard way to describe clinical encounters so that a subject's actual visits [Source: domains/SV/assumptions.md] can be compared against the planned schedule [Source: domains/TV/assumptions.md]. This dataset is a part of the Trial Design Model. [Source: domains/TV/spec.md]\n\nGenerally, the structure is \"One Record per Planned Visit per Arm,\" though for many blinded trials where the visit schedule is the same for all arms, the structure simplifies to \"One Record per Planned Visit,\" leaving `ARMCD` blank. [Source: domains/TV/assumptions.md]\n\n**Variables**\n\nThe TV domain is a Trial Design dataset. The following variables are listed in the provided context:\n\n*   **VISITNUM**: The numeric value used for sorting; there must be a one-to-one relationship with `VISIT`. [Source: chapters/ch04_general_assumptions.md]\n*   **VISIT**: A text description of the clinical encounter, often defined in the protocol. It is used as a Synonym Qualifier in addition to `VISITNUM` and/or `VISITDY`. [Source: domains/TV/spec.md]\n*   **VISITDY**: The planned study day of the start of the visit. [Source: chapters/ch04_general_assumptions.md]\n*   **TVSTRL** (Visit Start Rule): A Rule variable describing the condition for when the visit should start, often expressed relative to the start or end of an element or epoch. It is a Required variable. [Source: domains/TV/spec.md, domains/TV/examples.md]\n*   **TVENRL** (Visit End Rule): A Rule variable describing when a visit should end. It is a Permissible variable. [Source: domains/TV/examples.md, VARIABLE_INDEX.md]\n\nThe context does not provide a complete list of all variables for the TV domain, such as common identifiers and Arm variables.",
      "judge_fact_recall": 1.0,
      "judge_fact_hits": [
        "VISITNUM",
        "VISIT"
      ],
      "judge_fact_misses": [],
      "judge_parse_ok": true,
      "elapsed_s": 13.76
    },
    {
      "id": "q05",
      "category": "single_domain",
      "question": "In the PE (Physical Examination) domain, what is the structure of the dataset, what is the role of the PETESTCD variable, and what value should PETESTCD have when the results of the entire physical examination are represented in one record?",
      "source_recall": 1.0,
      "source_hits": [
        "domains/PE/spec.md"
      ],
      "source_misses": [],
      "top5_sources": [
        "domains/PE/spec.md",
        "domains/PE/spec.md",
        "domains/PE/spec.md",
        "domains/PE/spec.md",
        "VARIABLE_INDEX.md"
      ],
      "top5_similarities": [
        0.731,
        0.7026,
        0.5645,
        0.5643,
        0.6909
      ],
      "fact_recall": 1.0,
      "fact_hits": [
        "PETESTCD",
        "Topic",
        "PHYSEXAM"
      ],
      "fact_misses": [],
      "answer_preview": "Based on the SDTMIG v3.4 knowledge base, here are the details regarding the PE (Physical Examination) domain:\n\n**1. Dataset Structure**\nThe PE domain dataset has the structure of **One record per body system examined per subject per time point**.\n**[Source: chapters/ch03_submitting_data.md]**\n\n**2. Role of PETESTCD**\nIn the PE domain, the variable PETESTCD serves as the **Topic** variable. It is a Required (Req) variable with a Char data type, and its label is \"Body System Examined Short Name\". It represents the short name of the body system assessed during the physical examination.\n**[Source:",
      "usage": {
        "prompt_tokens": 16980,
        "completion_tokens": 576,
        "total_tokens": 17556
      },
      "model": "deepseek/deepseek-v4-pro",
      "answer": "Based on the SDTMIG v3.4 knowledge base, here are the details regarding the PE (Physical Examination) domain:\n\n**1. Dataset Structure**\nThe PE domain dataset has the structure of **One record per body system examined per subject per time point**.\n**[Source: chapters/ch03_submitting_data.md]**\n\n**2. Role of PETESTCD**\nIn the PE domain, the variable PETESTCD serves as the **Topic** variable. It is a Required (Req) variable with a Char data type, and its label is \"Body System Examined Short Name\". It represents the short name of the body system assessed during the physical examination.\n**[Source: domains/PE/spec.md]**\n\n**3. PETESTCD Value for Entire Examination**\nWhen the results of the entire physical examination are represented in a single record, the value for PETESTCD should be **PHYSEXAM**. Correspondingly, the value for PETEST should be \"Physical Examination\".\n**[Source: domains/PE/spec.md]**",
      "judge_fact_recall": 1.0,
      "judge_fact_hits": [
        "PETESTCD",
        "Topic",
        "PHYSEXAM"
      ],
      "judge_fact_misses": [],
      "judge_parse_ok": true,
      "elapsed_s": 10.26
    },
    {
      "id": "q21",
      "category": "single_domain",
      "question": "What is the LBTESTCD variable in the LB (Laboratory Test Results) domain? Describe its role, controlled terminology codelist code, and naming constraints.",
      "source_recall": 1.0,
      "source_hits": [
        "domains/LB/spec.md"
      ],
      "source_misses": [],
      "top5_sources": [
        "domains/LB/spec.md",
        "terminology/core/lb_part2.md",
        "domains/LB/spec.md",
        "domains/LB/assumptions.md",
        "domains/LB/examples.md"
      ],
      "top5_similarities": [
        0.7837,
        0.5222,
        0.7118,
        0.7499,
        0.6639
      ],
      "fact_recall": 1.0,
      "fact_hits": [
        "Topic",
        "C65047",
        "8 characters"
      ],
      "fact_misses": [],
      "answer_preview": "The **LBTESTCD** variable in the **LB (Laboratory Test Results)** domain is the short name that identifies a laboratory test or examination.\n\n- **Role:** Topic variable – it specifies the focus of the observation (the thing being measured/tested). **[Source: domains/LB/spec.md]**\n- **Controlled Terminology:** The variable is controlled by codelist **C65047** (Laboratory Test Code). This means the value submitted must be a standard term from that codelist (e.g., “ALT”, “LDH”). **[Source: domains/LB/spec.md]**\n- **Naming Constraints (value-level):**\n  - Maximum **8 characters**.\n  - Cannot **sta",
      "usage": {
        "prompt_tokens": 15966,
        "completion_tokens": 850,
        "total_tokens": 16816
      },
      "model": "deepseek/deepseek-v4-pro",
      "answer": "The **LBTESTCD** variable in the **LB (Laboratory Test Results)** domain is the short name that identifies a laboratory test or examination.\n\n- **Role:** Topic variable – it specifies the focus of the observation (the thing being measured/tested). **[Source: domains/LB/spec.md]**\n- **Controlled Terminology:** The variable is controlled by codelist **C65047** (Laboratory Test Code). This means the value submitted must be a standard term from that codelist (e.g., “ALT”, “LDH”). **[Source: domains/LB/spec.md]**\n- **Naming Constraints (value-level):**\n  - Maximum **8 characters**.\n  - Cannot **start with a number** (e.g., “1TEST” is invalid).\n  - Must contain **only letters, numbers, or underscores** (no spaces, hyphens, or other special characters). **[Source: domains/LB/spec.md]**\n- **Label:** “Lab Test or Examination Short Name”\n- **Core:** Required (Req)\n- **Relationship to LBTEST:** LBTESTCD is the coded short name; LBTEST (Laboratory Test or Examination Name, codelist C67154) serves as the synonym qualifier that spells out the full verbatim name. Together they form the Topic-Synonym pair for the test. **[Source: domains/LB/spec.md]**\n\nExample values: “ALT”, “LDH”, “ALB”, “CRP”.",
      "judge_fact_recall": 1.0,
      "judge_fact_hits": [
        "Topic",
        "C65047",
        "8 characters"
      ],
      "judge_fact_misses": [],
      "judge_parse_ok": true,
      "elapsed_s": 12.95
    },
    {
      "id": "q22",
      "category": "single_domain",
      "question": "What is the VS (Vital Signs) domain and what are some examples of VSTESTCD values? Include the codelist code.",
      "source_recall": 1.0,
      "source_hits": [
        "domains/VS/spec.md"
      ],
      "source_misses": [],
      "top5_sources": [
        "domains/VS/spec.md",
        "terminology/core/vs.md",
        "domains/VS/spec.md",
        "VARIABLE_INDEX.md",
        "domains/VS/assumptions.md"
      ],
      "top5_similarities": [
        0.7384,
        0.5465,
        0.6467,
        0.6305,
        0.6914
      ],
      "fact_recall": 1.0,
      "fact_hits": [
        "Findings",
        "VSTESTCD",
        "C66741"
      ],
      "fact_misses": [],
      "answer_preview": "VS (Vital Signs) 域是一个 **Findings** 类的 SDTM 域，用于记录受试者在研究过程中的生命体征测量数据，例如血压、脉搏、体温、呼吸频率、身高、体重、BMI 等。  \n【Source: domains/VS/spec.md, VARIABLE_INDEX.md】\n\n在该域中，`VSTESTCD` 是 **Topic** 变量，代表生命体征测量的简短名称。它的受控术语由 codelist **C66741**（Vital Signs Test Code）限定。  \n【Source: domains/VS/spec.md（VSTESTCD 的 Controlled Terms 字段）】\n\nCDISC Notes 中给出的 `VSTESTCD` 示例值包括：\n- **SYSBP**（对应 `VSTEST` 的 “Systolic Blood Pressure”）\n- **DIABP**（对应 “Diastolic Blood Pressure”）\n- **BMI**（对应 “Body Mass Index”）\n\n【Source: domains/VS/spec.md（VSTESTCD 的 CDISC Notes）】\n\n因此，`VSTESTCD` 使用 C66741 这个 codelist，其完整取值列表请参见对应的术语文件，但上述典型短名已展示了该变量的用途",
      "usage": {
        "prompt_tokens": 14245,
        "completion_tokens": 830,
        "total_tokens": 15075
      },
      "model": "deepseek/deepseek-v4-pro",
      "answer": "VS (Vital Signs) 域是一个 **Findings** 类的 SDTM 域，用于记录受试者在研究过程中的生命体征测量数据，例如血压、脉搏、体温、呼吸频率、身高、体重、BMI 等。  \n【Source: domains/VS/spec.md, VARIABLE_INDEX.md】\n\n在该域中，`VSTESTCD` 是 **Topic** 变量，代表生命体征测量的简短名称。它的受控术语由 codelist **C66741**（Vital Signs Test Code）限定。  \n【Source: domains/VS/spec.md（VSTESTCD 的 Controlled Terms 字段）】\n\nCDISC Notes 中给出的 `VSTESTCD` 示例值包括：\n- **SYSBP**（对应 `VSTEST` 的 “Systolic Blood Pressure”）\n- **DIABP**（对应 “Diastolic Blood Pressure”）\n- **BMI**（对应 “Body Mass Index”）\n\n【Source: domains/VS/spec.md（VSTESTCD 的 CDISC Notes）】\n\n因此，`VSTESTCD` 使用 C66741 这个 codelist，其完整取值列表请参见对应的术语文件，但上述典型短名已展示了该变量的用途。",
      "judge_fact_recall": 1.0,
      "judge_fact_hits": [
        "Findings",
        "VSTESTCD",
        "C66741"
      ],
      "judge_fact_misses": [],
      "judge_parse_ok": true,
      "elapsed_s": 16.33
    },
    {
      "id": "q23",
      "category": "single_domain",
      "question": "In the CM (Concomitant Medications) domain, what is the CMTRT variable and what observation class does CM belong to?",
      "source_recall": 1.0,
      "source_hits": [
        "domains/CM/spec.md"
      ],
      "source_misses": [],
      "top5_sources": [
        "domains/CM/spec.md",
        "domains/CM/spec.md",
        "domains/CM/spec.md",
        "domains/CM/spec.md",
        "domains/CM/assumptions.md"
      ],
      "top5_similarities": [
        0.6736,
        0.6034,
        0.5926,
        0.5843,
        0.6595
      ],
      "fact_recall": 1.0,
      "fact_hits": [
        "CMTRT",
        "Interventions",
        "Topic",
        "Req"
      ],
      "fact_misses": [],
      "answer_preview": "Based on the provided context:\n\nThe variable **CMTRT** is defined as follows:\n- **Label:** Reported Name of Drug, Med, or Therapy\n- **Type:** Char\n- **Role:** Topic\n- **Core:** Req\n- **CDISC Notes:** Verbatim medication name that is either preprinted or collected on a CRF.\n\nIts definition is found in the CM domain specification **[Source: domains/CM/spec.md]**.\n\nThe CM domain belongs to the **Interventions** observation class **[Source: domains/CM/assumptions.md]**.",
      "usage": {
        "prompt_tokens": 14656,
        "completion_tokens": 426,
        "total_tokens": 15082
      },
      "model": "deepseek/deepseek-v4-pro",
      "answer": "Based on the provided context:\n\nThe variable **CMTRT** is defined as follows:\n- **Label:** Reported Name of Drug, Med, or Therapy\n- **Type:** Char\n- **Role:** Topic\n- **Core:** Req\n- **CDISC Notes:** Verbatim medication name that is either preprinted or collected on a CRF.\n\nIts definition is found in the CM domain specification **[Source: domains/CM/spec.md]**.\n\nThe CM domain belongs to the **Interventions** observation class **[Source: domains/CM/assumptions.md]**.",
      "judge_fact_recall": 1.0,
      "judge_fact_hits": [
        "CMTRT",
        "Interventions",
        "Topic",
        "Req"
      ],
      "judge_fact_misses": [],
      "judge_parse_ok": true,
      "elapsed_s": 8.75
    },
    {
      "id": "q24",
      "category": "single_domain",
      "question": "What is the EX (Exposure) domain used for and what is the Topic variable EXTRT?",
      "source_recall": 1.0,
      "source_hits": [
        "domains/EX/spec.md"
      ],
      "source_misses": [],
      "top5_sources": [
        "domains/EX/spec.md",
        "domains/EX/spec.md",
        "domains/EX/spec.md",
        "domains/EX/spec.md",
        "domains/EX/assumptions.md"
      ],
      "top5_similarities": [
        0.5483,
        0.5451,
        0.5409,
        0.537,
        0.6559
      ],
      "fact_recall": 1.0,
      "fact_hits": [
        "EXTRT",
        "Interventions",
        "protocol-specified"
      ],
      "fact_misses": [],
      "answer_preview": "The **EX (Exposure)** domain is used to represent protocol-specified study treatments that subjects actually received. It is an Interventions-class domain and is required for all studies that include protocol-specified treatment (e.g., placebo, active comparators, investigational products). The EX domain is typically a derived dataset: each record describes a constant‑dosing interval (a period where dose, frequency, and route remain unchanged), built from collected data such as administration logs, product accountability, or protocol specifications. [Source: domains/EX/assumptions.md item_1.a,",
      "usage": {
        "prompt_tokens": 13774,
        "completion_tokens": 975,
        "total_tokens": 14749
      },
      "model": "deepseek/deepseek-v4-pro",
      "answer": "The **EX (Exposure)** domain is used to represent protocol-specified study treatments that subjects actually received. It is an Interventions-class domain and is required for all studies that include protocol-specified treatment (e.g., placebo, active comparators, investigational products). The EX domain is typically a derived dataset: each record describes a constant‑dosing interval (a period where dose, frequency, and route remain unchanged), built from collected data such as administration logs, product accountability, or protocol specifications. [Source: domains/EX/assumptions.md item_1.a, item_1.c, item_1.d]\n\n**EXTRT – the Topic variable**\n\n- **Label:** Name of Treatment  \n- **Type:** Char  \n- **Role:** Topic (required variable)  \n- **Core:** Req  \n- **Controlled Terms:** None  \n\nEXTRT captures the name of the protocol‑specified study treatment and is the primary topic variable of the domain. It must contain only the treatment name — **no dosage, formulation, or other qualifying information**. For example:\n\n- `EXTRT = \"ASPIRIN\"` (correct)  \n- `EXTRT = \"ASPIRIN 100MG TABLET\"` (invalid)\n\nIf dose, unit, or form need to be recorded, they go in separate variables such as `EXDOSE`, `EXDOSU`, and `EXDOSFRM`. [Source: domains/EX/assumptions.md item_2.a; VARIABLE_INDEX.md EX entry]",
      "judge_fact_recall": 1.0,
      "judge_fact_hits": [
        "EXTRT",
        "Interventions",
        "protocol-specified"
      ],
      "judge_fact_misses": [],
      "judge_parse_ok": true,
      "elapsed_s": 15.53
    },
    {
      "id": "q25",
      "category": "single_domain",
      "question": "In the MH (Medical History) domain, what is the role of MHTERM and what assumptions guide medical history data collection?",
      "source_recall": 1.0,
      "source_hits": [
        "domains/MH/assumptions.md"
      ],
      "source_misses": [],
      "top5_sources": [
        "domains/MH/spec.md",
        "domains/MH/spec.md",
        "domains/MH/spec.md",
        "domains/MH/spec.md",
        "domains/MH/assumptions.md"
      ],
      "top5_similarities": [
        0.6765,
        0.6119,
        0.594,
        0.586,
        0.7369
      ],
      "fact_recall": 1.0,
      "fact_hits": [
        "MHTERM",
        "Topic",
        "Verbatim"
      ],
      "fact_misses": [],
      "answer_preview": "In the **MH (Medical History)** domain, **MHTERM** serves as the **Topic** variable.  \n- **Label:** Reported Term for the Medical History  \n- **Type:** Char, **Role:** Topic, **Core:** Req  \n- **Definition:** It captures the verbatim term collected for the condition or event, *or* the prespecified term used to collect information about the occurrence of a group of conditions or events. [Source: domains/MH/spec.md – MHTERM]\n\nMedical history data collection is guided by several core assumptions:\n\n1. **Collection method & prespecification**  \n   - Information can be collected as **free text** or ",
      "usage": {
        "prompt_tokens": 14556,
        "completion_tokens": 1676,
        "total_tokens": 16232
      },
      "model": "deepseek/deepseek-v4-pro",
      "answer": "In the **MH (Medical History)** domain, **MHTERM** serves as the **Topic** variable.  \n- **Label:** Reported Term for the Medical History  \n- **Type:** Char, **Role:** Topic, **Core:** Req  \n- **Definition:** It captures the verbatim term collected for the condition or event, *or* the prespecified term used to collect information about the occurrence of a group of conditions or events. [Source: domains/MH/spec.md – MHTERM]\n\nMedical history data collection is guided by several core assumptions:\n\n1. **Collection method & prespecification**  \n   - Information can be collected as **free text** or via a **prespecified list of terms**.  \n   - When a term is prespecified, **MHPRESP** is set to `\"Y\"`. **MHOCCUR** is then used to indicate whether that prespecified condition occurred (`\"Y\"` = occurred, `\"N\"` = did not occur).  \n   - For spontaneously (free‑text) reported events, both MHPRESP and MHOCCUR should remain **null**.  \n   - If a prespecified question was not answered, **MHSTAT** = `\"NOT DONE\"` and **MHREASND** may provide the reason.  \n   - **No record** is created to indicate “no medical history” for a subject or body‑system category; instead, the absence of events is reflected by the absence of records.  \n   [Source: domains/MH/assumptions.md – item 4.a–e]\n\n2. **Description and coding**  \n   - **MHTERM** (Topic) holds the verbatim or prespecified term.  \n   - If the sponsor’s process allows modification of a verbatim term for coding, **MHMODIFY** is populated.  \n   - When a standard dictionary is used, **MHDECOD** contains the dictionary‑derived preferred term and **MHBODSYS** the associated system organ class.  \n   [Source: domains/MH/assumptions.md – item 2.a–d]\n\n3. **Categorization and grouping**  \n   - **MHCAT** and **MHSCAT** may hold the sponsor’s predefined categories (e.g., \"General Medical History\", \"Risk Factors\"). They must not merely repeat the domain name (e.g., avoid a single generic group like \"Medical History\").  \n   - **MHGRPID** can be used to link related records *within a subject* (e.g., multiple records for a single condition), but it is not a substitute for MHCAT/MHSCAT, which group data across subjects.  \n   [Source: domains/MH/assumptions.md – item 3.a–b]\n\n4. **Timing information**  \n   - **MHDTC** records the date/time the history was collected.  \n   - The start and end of the medical event are captured in **MHSTDTC** and **MHENDTC**, while **MHEVDTYP** (e.g., `\"DIAGNOSIS\"`) qualifies the type of start/end date when multiple are collected.  \n   - Relative timing (e.g., whether an event was ongoing at study start) is represented using **MHENRF**, **MHENRTPT**, and **MHENTPT**.  \n   [Source: domains/MH/spec.md – Timing variables; examples in domains/MH/examples.md]\n\nThese assumptions ensure that the nature of medical history data (solicited vs. unsolicited, coded vs. uncoded, prespecified vs. free‑text) is clearly captured and that the dataset can be properly interpreted for analysis.",
      "judge_fact_recall": 1.0,
      "judge_fact_hits": [
        "MHTERM",
        "Topic",
        "Verbatim"
      ],
      "judge_fact_misses": [],
      "judge_parse_ok": true,
      "elapsed_s": 23.3
    },
    {
      "id": "q26",
      "category": "single_domain",
      "question": "Describe the EG (ECG Test Results) domain structure and the EGTESTCD variable, including its controlled terminology codelist codes.",
      "source_recall": 1.0,
      "source_hits": [
        "domains/EG/spec.md"
      ],
      "source_misses": [],
      "top5_sources": [
        "domains/EG/spec.md",
        "terminology/core/eg_part3.md",
        "terminology/core/eg_part2.md",
        "domains/EG/spec.md",
        "VARIABLE_INDEX.md"
      ],
      "top5_similarities": [
        0.7263,
        0.5879,
        0.5242,
        0.7253,
        0.6737
      ],
      "fact_recall": 1.0,
      "fact_hits": [
        "EGTESTCD",
        "Findings",
        "C71153"
      ],
      "fact_misses": [],
      "answer_preview": "The EG (ECG Test Results) domain belongs to the **Findings** observation class and is used to represent electrocardiographic test results—including measurements, intervals, abnormalities, and interpretations—collected for study subjects. Its structure follows the standard pattern for a Findings dataset:\n\n- **Identifiers** – STUDYID, USUBJID, EGSEQ, EGGRPID, EGREFID, EGSPID, EGBEATNO.\n- **Topic** – EGTESTCD (the short test/examination name); its synonym EGTEST.\n- **Grouping Qualifiers** – EGCAT, EGSCAT.\n- **Result Qualifiers** – EGORRES, EGORRESU, EGSTRESC, EGSTRESN, EGSTRESU, EGSTAT, EGREASND,",
      "usage": {
        "prompt_tokens": 16463,
        "completion_tokens": 1860,
        "total_tokens": 18323
      },
      "model": "deepseek/deepseek-v4-pro",
      "answer": "The EG (ECG Test Results) domain belongs to the **Findings** observation class and is used to represent electrocardiographic test results—including measurements, intervals, abnormalities, and interpretations—collected for study subjects. Its structure follows the standard pattern for a Findings dataset:\n\n- **Identifiers** – STUDYID, USUBJID, EGSEQ, EGGRPID, EGREFID, EGSPID, EGBEATNO.\n- **Topic** – EGTESTCD (the short test/examination name); its synonym EGTEST.\n- **Grouping Qualifiers** – EGCAT, EGSCAT.\n- **Result Qualifiers** – EGORRES, EGORRESU, EGSTRESC, EGSTRESN, EGSTRESU, EGSTAT, EGREASND, EGXFN, EGNAM.\n- **Record Qualifiers** – EGPOS, EGMETHOD, EGLEAD, EGLOBXFL, EGBLFL, EGDRVFL, EGEVAL, EGEVALID, EGCLSIG, EGREPNUM.\n- **Timing** – EGDTC, EGDY, EGTPT, EGTPTNUM, EGELTM, EGTPTREF, EGRFTDTC.\n\nA full variable list is available in the variable index for EG. **[Source: VARIABLE_INDEX.md § EG]**\n\n### EGTESTCD Variable\n\n| Attribute | Value |\n|-----------|-------|\n| **Order** | 10 |\n| **Label** | ECG Test or Examination Short Name |\n| **Type** | Char |\n| **Role** | Topic |\n| **Core** | Req |\n| **Controlled Terms** | **C71153** (ECG Test Code) and **C120523** (Holter ECG Test Code) |\n\n**[Source: domains/EG/spec.md]**\n\n**CDISC Notes:**\n- EGTESTCD is the short‑name counterpart of EGTEST and can be used as a column header when transposing a vertical dataset to a horizontal format.\n- The value must be ≤ 8 characters, must not begin with a number, and may contain only letters, numbers, or underscores (e.g., `PRAG`, `QRSAG`).\n- Test codes are supplied from **two separate codelists**:  \n  - **C71153 (ECG Test Code)** – tests based on standard 10‑second ECGs.  \n  - **C120523 (Holter ECG Test Code)** – tests based on Holter monitoring (ambulatory continuous ECG).  \n  Which codelist applies depends on the nature of the ECG recording. **[Source: domains/EG/spec.md; domains/EG/assumptions.md item 2]**\n\nThe complete value sets for these codelists are documented in the SDTM controlled terminology:\n- ECG Test Code (C71153) → `terminology/core/eg_part2.md`\n- Holter ECG Test Code (C120523) → `terminology/core/eg_part3.md`\n\nBecause EGTESTCD is the domain Topic, it drives the meaning of the observation. The corresponding human‑readable test name is captured in the synonym qualifier EGTEST (Controlled Terms: C71152 and C120524), which always accompanies EGTESTCD. **[Source: domains/EG/spec.md]**",
      "judge_fact_recall": 1.0,
      "judge_fact_hits": [
        "EGTESTCD",
        "Findings",
        "C71153"
      ],
      "judge_fact_misses": [],
      "judge_parse_ok": true,
      "elapsed_s": 26.96
    },
    {
      "id": "q27",
      "category": "single_domain",
      "question": "What is the IE (Inclusion/Exclusion) domain and what is the role and maximum length of the IETEST variable?",
      "source_recall": 1.0,
      "source_hits": [
        "domains/IE/spec.md"
      ],
      "source_misses": [],
      "top5_sources": [
        "domains/IE/spec.md",
        "domains/IE/spec.md",
        "domains/IE/spec.md",
        "domains/IE/spec.md",
        "domains/TI/spec.md"
      ],
      "top5_similarities": [
        0.6769,
        0.607,
        0.5335,
        0.5254,
        0.7161
      ],
      "fact_recall": 1.0,
      "fact_hits": [
        "IETEST",
        "200",
        "Synonym Qualifier"
      ],
      "fact_misses": [],
      "answer_preview": "The **IE (Inclusion/Exclusion Criteria Not Met)** domain is a Findings‑class dataset that collects responses only for the inclusion/exclusion criteria a subject *did not meet*. It is not intended to capture all criteria – that complete list belongs in the Trial Inclusion/Exclusion Criteria (TI) domain. **[Source: domains/IE/assumptions.md, item 1]**\n\nThe **IETEST** variable is defined as:\n\n- **Label:** Inclusion/Exclusion Criterion  \n- **Role:** Synonym Qualifier  \n- **Core:** Required (Req)  \n- **Maximum length:** 200 characters  \n\nIf the criterion text exceeds 200 characters, a meaningful sh",
      "usage": {
        "prompt_tokens": 9955,
        "completion_tokens": 545,
        "total_tokens": 10500
      },
      "model": "deepseek/deepseek-v4-pro",
      "answer": "The **IE (Inclusion/Exclusion Criteria Not Met)** domain is a Findings‑class dataset that collects responses only for the inclusion/exclusion criteria a subject *did not meet*. It is not intended to capture all criteria – that complete list belongs in the Trial Inclusion/Exclusion Criteria (TI) domain. **[Source: domains/IE/assumptions.md, item 1]**\n\nThe **IETEST** variable is defined as:\n\n- **Label:** Inclusion/Exclusion Criterion  \n- **Role:** Synonym Qualifier  \n- **Core:** Required (Req)  \n- **Maximum length:** 200 characters  \n\nIf the criterion text exceeds 200 characters, a meaningful shorter version is placed in IETEST and the full text is described in the study metadata. **[Source: domains/IE/spec.md – IETEST; domains/IE/assumptions.md, item 3]**",
      "judge_fact_recall": 1.0,
      "judge_fact_hits": [
        "IETEST",
        "200",
        "Synonym Qualifier"
      ],
      "judge_fact_misses": [],
      "judge_parse_ok": true,
      "elapsed_s": 10.7
    },
    {
      "id": "q06",
      "category": "cross_domain",
      "question": "What is SUPPQUAL and when should supplemental qualifiers be used instead of adding variables to a domain?",
      "source_recall": 1.0,
      "source_hits": [
        "domains/SUPPQUAL/spec.md"
      ],
      "source_misses": [],
      "top5_sources": [
        "domains/SUPPQUAL/spec.md",
        "domains/SUPPQUAL/spec.md",
        "domains/SUPPQUAL/spec.md",
        "domains/SUPPQUAL/spec.md",
        "domains/SUPPQUAL/assumptions.md"
      ],
      "top5_similarities": [
        0.5533,
        0.4872,
        0.4705,
        0.4564,
        0.7409
      ],
      "fact_recall": 1.0,
      "fact_hits": [
        "QNAM",
        "QVAL",
        "non-standard"
      ],
      "fact_misses": [],
      "answer_preview": "SUPPQUAL（Supplemental Qualifiers，补充限定符）是 SDTM 中用于捕获非标准变量（NSVs）的特殊用途数据集模型。其根本原因在于 **SDTM 不允许向现有标准域中直接添加新变量**，因此需要通过补充限定符机制来记录这些额外的信息。\n\n## 1. SUPPQUAL 的定义与结构\n\n根据 SDTM 的规定，补充限定符必须作为独立的数据集提交，与父域数据集形成一一对应的关系（例如 SUPPAE 对应 AE 域）：\n\n> \"The SDTM does not allow the addition of new variables. Therefore, the Supplemental Qualifiers special-purpose dataset model is used to capture non-standard variables (NSVs) and their association to parent records in general-observation class datasets (Events, Findings, Interventions), Demographics (DM), and Subject Visits (SV).\"\n> **[Source: domains/SUPPQUAL/assumptions.",
      "usage": {
        "prompt_tokens": 15840,
        "completion_tokens": 1536,
        "total_tokens": 17376
      },
      "model": "deepseek/deepseek-v4-pro",
      "answer": "SUPPQUAL（Supplemental Qualifiers，补充限定符）是 SDTM 中用于捕获非标准变量（NSVs）的特殊用途数据集模型。其根本原因在于 **SDTM 不允许向现有标准域中直接添加新变量**，因此需要通过补充限定符机制来记录这些额外的信息。\n\n## 1. SUPPQUAL 的定义与结构\n\n根据 SDTM 的规定，补充限定符必须作为独立的数据集提交，与父域数据集形成一一对应的关系（例如 SUPPAE 对应 AE 域）：\n\n> \"The SDTM does not allow the addition of new variables. Therefore, the Supplemental Qualifiers special-purpose dataset model is used to capture non-standard variables (NSVs) and their association to parent records in general-observation class datasets (Events, Findings, Interventions), Demographics (DM), and Subject Visits (SV).\"\n> **[Source: domains/SUPPQUAL/assumptions.md]**\n\n> \"SUPP-- represents the metadata and data for each NSV/value combination. As the name suggests, this dataset is intended to capture additional qualifiers for an observation.\"\n> **[Source: chapters/ch08_relationships.md]**\n\nSUPP-- 数据集的核心变量包括：\n- **QNAM**：限定符变量名（≤8 字符，只能包含字母、数字和下划线）**[Source: domains/SUPPQUAL/spec.md]**\n- **QLABEL**：限定符变量标签（≤40 字符）\n- **QVAL**：数据值（必填，不允许为空）**[Source: domains/SUPPQUAL/spec.md]**\n- **QORIG**：数据来源（如 \"CRF\"、\"Assigned\"、\"Derived\"）\n- **QEVAL**：评估者（仅用于主观数据，如 \"ADJUDICATION COMMITTEE\"）**[Source: domains/SUPPQUAL/spec.md]**\n\n每条 SUPP-- 记录通过 STUDYID、RDOMAIN、USUBJID、IDVAR、IDVARVAL 关联回父记录。**[Source: chapters/ch08_relationships.md]**\n\n## 2. 何时应使用补充限定符\n\n补充限定符适用于以下场景：\n\n### 2.1 捕获非标准变量\n当研究数据中包含无法放入标准域变量的信息时，应使用 SUPP--。例如，收集了不包含在 AE 标准规范中的额外不良事件属性。**[Source: model/06_relationship_datasets.md]**\n\n### 2.2 捕获主观评估/归因\n当需要记录由特定评估者（如独立裁定委员会）做出的判断时，使用 SUPP-- 并通过 QEVAL 标明评估者角色。对于 Interventions 和 Events 类域，标准数据均假定为研究者评估；其他来源的评估应放入 SUPP--。**[Source: chapters/ch04_general_assumptions.md]**\n\n> \"Because observations may originate from more than 1 source (e.g., investigator, independent assessor), observations recorded in the Findings class include the --EVAL qualifier. For the Interventions and Events observation classes, which do not include the --EVAL variable, all data are assumed to be attributed to the principal investigator.\"\n> **[Source: chapters/ch04_general_assumptions.md]**\n\n### 2.3 处理超长文本\n当某个变量的值超过 200 字符时，前 200 字符保留在父域，超出的部分拆分到 SUPP-- 记录中（QNAM 追加数字后缀，如从 AERELNST 到 AERELNS1）。**[Source: chapters/ch04_general_assumptions.md]**\n\n## 3. 何时不应使用补充限定符\n\n以下情况不应使用 SUPP--：\n\n### 3.1 不应用 SUPP-- 的场景\n- **受试者层面的客观数据**，应使用 Subject Characteristics (SC) 域（如国籍、双胞胎类型）\n- **Findings 类的解释性数据**，应作为额外的测试代码和结果添加到 Findings 域中（如心电图解释 EGTESTCD = \"INTP\"）\n- **评论数据**，应使用 Comments (CO) 特殊用途域\n- **与父域记录无直接关联的数据**，应放入独立的通用观察类域或特殊用途域\n\n**[Source: chapters/ch08_relationships.md]**\n\n## 4. 补充说明：命名规范\n\nSUPP-- 数据集必须与父域一一对应（如 suppdm.xpt、suppae.xpt、suppcm.xpt）。当数据已被拆分到多个数据集时，可能需要更长的名称（如 SUPPFAMH）。当涉及 Associated Persons 数据且名称过长时，\"SUPP\" 可缩写为 \"SQ\"（如 SQAPFAMH）。**[Source: chapters/ch08_relationships.md]**\n\n## 总结\n\n| 场景 | 使用 SUPP-- | 不使用 SUPP-- |\n|------|------------|---------------|\n| 非标准变量（NSV） | ✅ | — |\n| 主观评估/归因 | ✅ | — |\n| 超长文本（>200 字符） | ✅ | — |\n| 客观受试者特征 | — | ✅ 使用 SC |\n| Findings 解释 | — | ✅ 使用 Findings 域 |\n| 自由文本评论 | — | ✅ 使用 CO |\n| 独立观察数据 | — | ✅ 使用专属域 |\n\n核心原则是：SUPP-- 仅用于**限定/补充已有观察记录的额外属性**，而非捕获独立的观察数据。**[Source: domains/SUPPQUAL/assumptions.md]**",
      "judge_fact_recall": 1.0,
      "judge_fact_hits": [
        "QNAM",
        "QVAL",
        "non-standard"
      ],
      "judge_fact_misses": [],
      "judge_parse_ok": true,
      "elapsed_s": 23.34
    },
    {
      "id": "q07",
      "category": "cross_domain",
      "question": "Which SDTM domains use the EPOCH variable and what is its purpose?",
      "source_recall": 1.0,
      "source_hits": [
        "VARIABLE_INDEX.md"
      ],
      "source_misses": [],
      "top5_sources": [
        "VARIABLE_INDEX.md",
        "chapters/ch04_general_assumptions.md",
        "model/01_concepts_and_terms.md",
        "domains/SR/spec.md",
        "chapters/ch02_fundamentals.md"
      ],
      "top5_similarities": [
        0.5124,
        0.7004,
        11.8134,
        0.6837,
        11.0386
      ],
      "fact_recall": 1.0,
      "fact_hits": [
        "EPOCH",
        "Timing"
      ],
      "fact_misses": [],
      "answer_preview": "EPOCH 是一个**Timing 变量**，用于标识临床观察发生时所处的**研究阶段（epoch）**。以下是基于 SDTM 知识库的详细说明：\n\n### 1. 使用 EPOCH 的域\nEPOCH 变量广泛应用于 SDTM 的各个观察类域以及一些特殊用途和试验设计域中。根据知识库，明确列出 EPOCH 变量的域包括（但不限于）：\n\n*   **Findings 类域:**\n    *   **CP** (Cell Phenotype Findings)\n    *   **FA** (Findings About Events or Interventions)\n    *   **PC** (Pharmacokinetics Concentrations)\n    *   **PP** (Pharmacokinetics Parameters)\n    *   **SR** (Skin Response)\n*   **试验设计域:**\n    *   **TV** (Trial Visits)\n\n**Variable Attributes:**\n*   **Label:** Epoch\n*   **Type:** Char\n*   **Role:** Timing\n*   **Core:** Perm (Permissible)\n*   **Controlled Terms:*",
      "usage": {
        "prompt_tokens": 14677,
        "completion_tokens": 1189,
        "total_tokens": 15866
      },
      "model": "deepseek/deepseek-v4-pro",
      "answer": "EPOCH 是一个**Timing 变量**，用于标识临床观察发生时所处的**研究阶段（epoch）**。以下是基于 SDTM 知识库的详细说明：\n\n### 1. 使用 EPOCH 的域\nEPOCH 变量广泛应用于 SDTM 的各个观察类域以及一些特殊用途和试验设计域中。根据知识库，明确列出 EPOCH 变量的域包括（但不限于）：\n\n*   **Findings 类域:**\n    *   **CP** (Cell Phenotype Findings)\n    *   **FA** (Findings About Events or Interventions)\n    *   **PC** (Pharmacokinetics Concentrations)\n    *   **PP** (Pharmacokinetics Parameters)\n    *   **SR** (Skin Response)\n*   **试验设计域:**\n    *   **TV** (Trial Visits)\n\n**Variable Attributes:**\n*   **Label:** Epoch\n*   **Type:** Char\n*   **Role:** Timing\n*   **Core:** Perm (Permissible)\n*   **Controlled Terms:** C99079\n\n### 2. EPOCH 的目的和用途\nEPOCH 变量的核心目的是将每个观察记录关联到试验方案中定义的一个特定时期（例如“筛选期”、“治疗期”、“随访期”）。\n\n**领域特定规则:**\n*   **通用定义:** EPOCH 是“与观察的日期/时间关联的Epoch（时期）”。常见的 EPOCH 值包括 **\"SCREENING\"（筛选期）**、**\"TREATMENT\"（治疗期）** 和 **\"FOLLOW-UP\"（随访期）**。**[Source: domains/SR/spec.md, domains/FA/spec.md]**\n*   **基于日期的推导:**\n    *   对于**发现类 (Findings)** 域，EPOCH 应基于 **--DTC**（采集日期/时间）来确定，因为这是检测或标本采集的日期。**[Source: chapters/ch04_general_assumptions.md]**\n    *   对于**干预类 (Interventions)** 和**事件类 (Events)** 域，EPOCH 应基于 **--STDTC**（开始日期/时间）来确定，因为这是干预或事件的开始。**[Source: chapters/ch04_general_assumptions.md]**\n    *   对于某些域，如 **PC** 和 **PP**，如果未收集开始日期/时间，EPOCH 会与采集日期/时间关联。**[Source: domains/PC/spec.md, domains/PP/spec.md]**\n\n### 3. 重要业务规则\n*   **不应填补 (Imputation):** 申办方不应填补 EPOCH 值。应尽可能基于 CRF 的结构和说明来分配 EPOCH，即使日期时间的精度不足以支持基于日期数据的直接分配。如果无法确定观察所处的时期，EPOCH 应留空。**[Source: chapters/ch04_general_assumptions.md]**\n*   **研究前数据:** EPOCH 是一个研究设计概念，因此**不适用于受试者参与研究之前开始的干预或事件**，也不适用于参与研究前执行的检查。对于这些记录，EPOCH 应为空。注意，受试者参与研究包括筛选期，这通常在 DM 域的参考开始日期 (RFSTDTC) 之前发生。**[Source: chapters/ch04_general_assumptions.md]**\n*   **唯一性:** 与研究阶段设计数据集（如 TA）中定义的一致，不同时期（epoch）的 EPOCH 值必须不同。例如，在一个包含三个治疗期的交叉试验中，**不能将所有三个时期都命名为 \"TREATMENT\"**，而必须使用有区分度的名称。**[Source: domains/TA/assumptions.md]**",
      "judge_fact_recall": 1.0,
      "judge_fact_hits": [
        "EPOCH",
        "Timing"
      ],
      "judge_fact_misses": [],
      "judge_parse_ok": true,
      "elapsed_s": 18.37
    },
    {
      "id": "q08",
      "category": "cross_domain",
      "question": "How does USUBJID serve as a linking key across SDTM domains?",
      "source_recall": 1.0,
      "source_hits": [
        "domains/DM/spec.md"
      ],
      "source_misses": [],
      "top5_sources": [
        "VARIABLE_INDEX.md",
        "domains/SUPPQUAL/spec.md",
        "chapters/ch04_general_assumptions.md",
        "domains/DM/spec.md",
        "chapters/ch03_submitting_data.md"
      ],
      "top5_similarities": [
        0.4878,
        0.7075,
        10.4468,
        0.6923,
        9.9812
      ],
      "fact_recall": 1.0,
      "fact_hits": [
        "USUBJID",
        "Identifier",
        "unique"
      ],
      "fact_misses": [],
      "answer_preview": "USUBJID (**Unique Subject Identifier**) is a required Identifier variable in the SDTM, defined identically across all subject-level domains: “Identifier used to uniquely identify a subject across all studies for all applications or submissions involving the product.” **[Source: domains/DM/spec.md]** Its consistent presence and non‑nullable requirement make it the primary subject‑level linking key across datasets:\n\n* **Subject‑by‑subject integration** – Every domain that captures data about a study subject (DM, AE, CM, LB, VS, etc.) includes USUBJID as a required Identifier. Because the value i",
      "usage": {
        "prompt_tokens": 14172,
        "completion_tokens": 1378,
        "total_tokens": 15550
      },
      "model": "deepseek/deepseek-v4-pro",
      "answer": "USUBJID (**Unique Subject Identifier**) is a required Identifier variable in the SDTM, defined identically across all subject-level domains: “Identifier used to uniquely identify a subject across all studies for all applications or submissions involving the product.” **[Source: domains/DM/spec.md]** Its consistent presence and non‑nullable requirement make it the primary subject‑level linking key across datasets:\n\n* **Subject‑by‑subject integration** – Every domain that captures data about a study subject (DM, AE, CM, LB, VS, etc.) includes USUBJID as a required Identifier. Because the value is stable for a given subject across all domains, any two datasets can be merged on USUBJID to assemble all observations for that subject. Dataset‑level metadata further illustrates that Demographics uses `STUDYID + USUBJID` as its natural key, and other domains build their keys on top of the same USUBJID, reinforcing its role as the fundamental subject link **[Source: chapters/ch03_submitting_data.md]**.\n\n* **Relationship and qualifier datasets** – In cross‑record linking structures, USUBJID is used to pinpoint the subject context for a related or supplemental record:\n  * **RELREC (Related Records)**: For record‑to‑record relationships (`USUBJID` and `IDVARVAL` are populated), USUBJID identifies the subject owning the parent record. For dataset‑to‑dataset relationships, `USUBJID` may be null because the link is independent of a specific subject **[Source: chapters/ch08_relationships.md]**.\n  * **SUPPQUAL (Supplemental Qualifiers)**: USUBJID is required and identifies the subject to whom the parent record belongs, allowing supplemental variables to be attached to the correct observation across any domain **[Source: domains/SUPPQUAL/spec.md]**.\n  * **RELSUB (Related Subjects)**: USUBJID (or POOLID) is expected and links related individuals to the primary study subject **[Source: domains/RELSUB/spec.md]**.\n\nIn short, USUBJID is the universal key that ties every recorded observation to a unique subject, enabling seamless cross‑domain merging, traceable relationships, and integrated regulatory review.",
      "judge_fact_recall": 1.0,
      "judge_fact_hits": [
        "USUBJID",
        "Identifier",
        "unique"
      ],
      "judge_fact_misses": [],
      "judge_parse_ok": true,
      "elapsed_s": 23.71
    },
    {
      "id": "q09",
      "category": "cross_domain",
      "question": "How are adverse events linked to concomitant medications using RELREC?",
      "source_recall": 1.0,
      "source_hits": [
        "domains/RELREC/spec.md"
      ],
      "source_misses": [],
      "top5_sources": [
        "domains/RELREC/spec.md",
        "domains/CM/spec.md",
        "domains/AE/spec.md",
        "chapters/ch08_relationships.md",
        "domains/RELREC/examples.md"
      ],
      "top5_similarities": [
        0.4612,
        0.5328,
        0.5185,
        0.6173,
        0.583
      ],
      "fact_recall": 1.0,
      "fact_hits": [
        "RELREC",
        "IDVAR",
        "IDVARVAL"
      ],
      "fact_misses": [],
      "answer_preview": "In CDISC SDTM, the link between an adverse event (AE) and concomitant medications (CM) is documented in the **RELREC** (Related Records) domain.  Both the AE and CM records that belong to the same collected relationship are given the same **RELID** (relationship identifier) within a subject.  The sponsor chooses the RELID value; all records sharing that RELID are considered related. **[Source: domains/RELREC/spec.md]**\n\nThe relationship usually originates from the **AECONTRT** variable in AE.  When AECONTRT = “Y” (concomitant treatment was given), the name and details of the treatment are stor",
      "usage": {
        "prompt_tokens": 16523,
        "completion_tokens": 1328,
        "total_tokens": 17851
      },
      "model": "deepseek/deepseek-v4-pro",
      "answer": "In CDISC SDTM, the link between an adverse event (AE) and concomitant medications (CM) is documented in the **RELREC** (Related Records) domain.  Both the AE and CM records that belong to the same collected relationship are given the same **RELID** (relationship identifier) within a subject.  The sponsor chooses the RELID value; all records sharing that RELID are considered related. **[Source: domains/RELREC/spec.md]**\n\nThe relationship usually originates from the **AECONTRT** variable in AE.  When AECONTRT = “Y” (concomitant treatment was given), the name and details of the treatment are stored in CM (or PR), and the AE record must be connected to those treatment records.  AECONTRT is permitted, using controlled terminology C66742 (values “Y”/“N”). **[Source: domains/AE/spec.md; domains/AE/assumptions.md, item 6]**\n\n## How to construct the RELREC records\n\nFor each relationship, add a record to RELREC for **each** record that participates:\n\n| Variable | AE‑row value | CM‑row value |\n|----------|--------------|--------------|\n| `STUDYID` | Study identifier | Same study |\n| `RDOMAIN` | `AE` | `CM` |\n| `USUBJID` | Subject ID | Same subject |\n| `IDVAR` | `AESEQ` (or other key) | `CMSEQ` (or `CMGRPID`) |\n| `IDVARVAL` | e.g., `5` | e.g., `11` |\n| `RELTYPE` | (null for peer records) | |\n| `RELID` | e.g., `1` | same `1` |\n\n**[Source: chapters/ch08_relationships.md, section 8.2; domains/RELREC/examples.md, Example 1]**\n\nIf many CM records belong to the same AE and are already grouped by **CMGRPID** (e.g., `COMBO1`), you can use `IDVAR = CMGRPID` and `IDVARVAL = COMBO1` to represent the entire group with a single RELREC record, reducing the number of rows. **[Source: chapters/ch08_relationships.md, Example 3; domains/RELREC/examples.md, Example 3]**\n\n### Example (peer‑record relationship)\n\nSuppose subject `123456` has an AE (`AESEQ=5`) treated by two concomitant medications (`CMSEQ=11,12`). The collected relationship is stored as:\n\n| Row | STUDYID | RDOMAIN | USUBJID | IDVAR | IDVARVAL | RELTYPE | RELID |\n|-----|---------|---------|---------|-------|----------|---------|-------|\n| 1 | EFC1234 | AE | 123456 | AESEQ | 5 | | 1 |\n| 2 | EFC1234 | CM | 123456 | CMSEQ | 11 | | 1 |\n| 3 | EFC1234 | CM | 123456 | CMSEQ | 12 | | 1 |\n\n**[Source: domains/RELREC/examples.md, Example 1; chapters/ch08_relationships.md, Example 1]**\n\nIf the same scenario had `CMGRPID = COMBO1` for those two medications, a shorter representation would be:\n\n| Row | STUDYID | RDOMAIN | USUBJID | IDVAR | IDVARVAL | RELTYPE | RELID |\n|-----|---------|---------|---------|-------|----------|---------|-------|\n| 1 | EFC1234 | AE | 123456 | AESEQ | 5 | | 1 |\n| 2 | EFC1234 | CM | 123456 | CMGRPID | COMBO1 | | 1 |\n\n**[Source: domains/RELREC/examples.md, Example 3]**\n\n> **Key point:** RELREC only expresses a collected, explicit relationship – it is not derived. When `AECONTRT = Y`, the concomitant‑medication records must be entered in CM and linked by matching `RELID` values across AE and CM rows.",
      "judge_fact_recall": 1.0,
      "judge_fact_hits": [
        "RELREC",
        "IDVAR",
        "IDVARVAL"
      ],
      "judge_fact_misses": [],
      "judge_parse_ok": true,
      "elapsed_s": 19.35
    },
    {
      "id": "q10",
      "category": "cross_domain",
      "question": "In oncology studies, how are the TR (Tumor/Lesion Results) domain and RS (Disease Response) domain linked together, and which specific identifier variables are used for each linkage direction?",
      "source_recall": 1.0,
      "source_hits": [
        "domains/TR/assumptions.md",
        "domains/TR/spec.md"
      ],
      "source_misses": [],
      "top5_sources": [
        "domains/TR/spec.md",
        "domains/RS/spec.md",
        "domains/RS/assumptions.md",
        "domains/TR/assumptions.md",
        "domains/TR/assumptions.md"
      ],
      "top5_similarities": [
        0.6207,
        0.6214,
        0.713,
        0.7055,
        0.6926
      ],
      "fact_recall": 1.0,
      "fact_hits": [
        "TRLNKID",
        "TRLNKGRP"
      ],
      "fact_misses": [],
      "answer_preview": "In oncology studies, the **TR** (Tumor/Lesion Results) and **RS** (Disease Response) domains are linked through a **RELREC dataset-to-dataset relationship** using dedicated grouping variables:\n\n- **From TR to RS:** The variable **TRLNKGRP** holds a unique code for each response assessment and its associated tumor/lesion measurements. This value is used in RELREC to connect rows in TR to the corresponding response record in RS.  \n  > “TRLNKGRP is used to relate records in the TR domain to a response assessment record in the RS domain.” **[Source: domains/TR/assumptions.md item_2]**\n\n- **From RS",
      "usage": {
        "prompt_tokens": 15264,
        "completion_tokens": 1781,
        "total_tokens": 17045
      },
      "model": "deepseek/deepseek-v4-pro",
      "answer": "In oncology studies, the **TR** (Tumor/Lesion Results) and **RS** (Disease Response) domains are linked through a **RELREC dataset-to-dataset relationship** using dedicated grouping variables:\n\n- **From TR to RS:** The variable **TRLNKGRP** holds a unique code for each response assessment and its associated tumor/lesion measurements. This value is used in RELREC to connect rows in TR to the corresponding response record in RS.  \n  > “TRLNKGRP is used to relate records in the TR domain to a response assessment record in the RS domain.” **[Source: domains/TR/assumptions.md item_2]**\n\n- **From RS to TR:** The variable **RSLNKGRP** is placed on the RS record and, via RELREC, links the response assessment back to the contributing findings (such as TR rows).  \n  > “The RSLNKGRP variable is used to provide a link between the records in a findings domain (e.g., Tumor/Lesion Results, TR; Laboratory Test Results, LB) that contribute to a record in the RS domain. Records should exist in the RELREC dataset to support this relationship.” **[Source: domains/RS/assumptions.md item_4]**\n\n- **Optional direct link (RS → TR):** In some cases, **RSLNKID** may be used to directly reference a source dataset (e.g., a specific TR tumor assessment) when a response evaluation or clinical classification measure is mapped back to that source.  \n  > “A RELREC relationship could also be defined using RSLNKID when a response evaluation or clinical classification measure relates back to another source dataset (e.g., tumor assessment in TR).” **[Source: domains/RS/assumptions.md item_4]**\n\n> **Note:** The variable **TRLNKID** is used for linking TR records to the tumor identification domain **TU**, not to RS. **TRLNKGRP** is the variable that specifically supports the TR‑to‑RS link. **[Source: domains/TR/assumptions.md item_1; domains/TU/assumptions.md item_2]**\n\nThus, the principal linkage uses **TRLNKGRP** on TR records and **RSLNKGRP** on RS records, with a RELREC relationship joining them. **RSLNKID** can provide an alternative direct link from RS to a source dataset like TR.",
      "judge_fact_recall": 0.5,
      "judge_fact_hits": [
        "TRLNKGRP"
      ],
      "judge_fact_misses": [
        "TRLNKID"
      ],
      "judge_parse_ok": true,
      "elapsed_s": 23.09
    },
    {
      "id": "q28",
      "category": "cross_domain",
      "question": "What is the FA (Findings About Events or Interventions) domain and how does it link to parent domains like AE or CM using FAOBJ?",
      "source_recall": 1.0,
      "source_hits": [
        "domains/FA/spec.md"
      ],
      "source_misses": [],
      "top5_sources": [
        "VARIABLE_INDEX.md",
        "domains/FA/spec.md",
        "domains/AE/spec.md",
        "domains/CM/spec.md",
        "domains/FA/assumptions.md"
      ],
      "top5_similarities": [
        0.5985,
        0.5917,
        0.6388,
        0.4692,
        0.6937
      ],
      "fact_recall": 1.0,
      "fact_hits": [
        "Findings About",
        "FAOBJ",
        "FATESTCD"
      ],
      "fact_misses": [],
      "answer_preview": "The **Findings About Events or Interventions (FA)** domain is a subtype of the Findings observation class, designed to capture observations that describe a property or measurement of an event or intervention, rather than the event or intervention as a whole [Source: model/02_observation_classes.md]. It is used when:\n\n- the timing of the assessment differs from the timing of the event/intervention itself (e.g., repeated severity measurements of an ongoing AE);\n- the observation requires multiple variables (beyond a simple supplemental qualifier); or\n- data indicate occurrences of prespecified e",
      "usage": {
        "prompt_tokens": 16893,
        "completion_tokens": 2254,
        "total_tokens": 19147
      },
      "model": "deepseek/deepseek-v4-pro",
      "answer": "The **Findings About Events or Interventions (FA)** domain is a subtype of the Findings observation class, designed to capture observations that describe a property or measurement of an event or intervention, rather than the event or intervention as a whole [Source: model/02_observation_classes.md]. It is used when:\n\n- the timing of the assessment differs from the timing of the event/intervention itself (e.g., repeated severity measurements of an ongoing AE);\n- the observation requires multiple variables (beyond a simple supplemental qualifier); or\n- data indicate occurrences of prespecified events [Source: domains/FA/assumptions.md item_6, item_2; domains/FA/assumptions.md item_6 (Criterion 1-3)].\n\nFA follows the standard Findings variable structure (e.g., `FATESTCD`, `FATEST`, `FAORRES`, `FASTRESC`) but adds one unique required variable: **`FAOBJ` (Object of the Observation)**.\n\n### The role of `FAOBJ`\n\n`FAOBJ` is a **Record Qualifier** that identifies *what the finding is about* – the specific event or intervention whose property is being measured. Together with `FATESTCD`, it forms the topic of the observation:\n\n- `FATESTCD` describes the measurement or assessment (e.g., `SEV` = Severity/Intensity, `OCCUR` = Occurrence Indicator).\n- `FAOBJ` specifies the object of that measurement (e.g., “Nausea”, “Injection Site Rash”, “Headache”) [Source: domains/FA/spec.md; model/02_observation_classes.md (Findings About subtype)].\n\nThus, for an FA record, the core idea is *“assess [FATESTCD] for [FAOBJ]”*.\n\n### Linking FA to parent domains (AE, CM, etc.)\n\nWhile `FAOBJ` itself is the **name** of the event/intervention, the **record-level link** is established through additional identifiers and relational structures:\n\n1. **FAOBJ as a semantic link** – The value of `FAOBJ` is typically the same as the parent domain’s topic variable (e.g., `AEDECOD` for AE, `CMDECOD` for CM). This makes it easy to align the finding to the correct parent record by matching the term. For example:\n   - If an AE record has `AEDECOD = \"NAUSEA\"`, the associated FA records can use `FAOBJ = \"Nausea\"` [Source: domains/FA/examples.md Example 6].\n   - If a procedure site rash is the event, `FAOBJ = \"Injection Site Rash\"` matches the `AETERM` or `AEDECOD` of the parent AE [Source: domains/FA/examples.md Example 2].\n\n2. **Explicit record identifiers** – A direct parent‑child relationship is often recorded using the sponsor‑defined identifier:\n   - `FASPID` in FA holds the value of `AESPID` from AE (or `CMPRESP`/`CMSPID` from CM, etc.). This is the most reliable way to trace each FA assessment back to its exact parent record [Source: domains/FA/examples.md Example 6, Example 2].\n\n3. **Relationship dataset (RELREC)** – When needed, a formal relationship can be documented in the RELREC domain, linking the FA records to their parent domain via `USUBJID`, `IDVAR`, and `IDVARVAL` (the `FASEQ`/`AESEQ`). This is especially useful when a single FA assessment might relate to multiple events or interventions.\n\n4. **Source domain references** – The FA domain explicitly references which parent domains it can link to: AE, CM, PR, EX, EC, ML, SU, and SR [Source: domains/FA/spec.md Related Domains]. The same `FAOBJ` population conventions apply (the `--TERM`/`--DECOD` from the corresponding domain is placed in `FAOBJ`).\n\n### Practical example\n\nFrom an injection site rash example:\n\n**Parent AE record**  \n`AESPID=5, AETERM=\"Injection site rash\", AEDECOD=\"Injection site rash\"`\n\n**FA records (Findings About the rash)**  \n`FASPID=5, FATESTCD=\"LDIAM\", FATEST=\"Longest Diameter\", FAOBJ=\"Injection Site Rash\", FAORRES=2.5`  \n`FASPID=5, FATESTCD=\"MACRNG\", FATEST=\"Number of Macules Range\", FAOBJ=\"Injection Site Rash\", FAORRES=\"26 to 100\"`\n\nHere `FAOBJ` holds the rash event name, matching the parent AE’s `AETERM`/`AEDECOD`, while `FASPID` provides exact record matching. No separate RELREC is needed because the sponsor‑defined identifier already links them [Source: domains/FA/examples.md Example 2].\n\nIn summary, **FAOBJ** describes *what* the finding is about (the event/intervention name), and the precise linkage to a parent record is achieved via **FASPID** and/or **RELREC**, using the parent domain’s `--SPID` or `--SEQ` as the key.",
      "judge_fact_recall": 1.0,
      "judge_fact_hits": [
        "Findings About",
        "FAOBJ",
        "FATESTCD"
      ],
      "judge_fact_misses": [],
      "judge_parse_ok": true,
      "elapsed_s": 33.29
    },
    {
      "id": "q29",
      "category": "cross_domain",
      "question": "How do the four Trial Design domains TA (Trial Arms), TE (Trial Elements), TV (Trial Visits), and TI (Trial Inclusion/Exclusion) work together to define a study design?",
      "source_recall": 1.0,
      "source_hits": [
        "domains/TA/assumptions.md",
        "domains/TE/assumptions.md"
      ],
      "source_misses": [],
      "top5_sources": [
        "domains/TA/spec.md",
        "domains/TE/spec.md",
        "domains/TV/spec.md",
        "domains/TE/assumptions.md",
        "domains/TA/assumptions.md"
      ],
      "top5_similarities": [
        0.7568,
        0.7352,
        0.7534,
        0.7359,
        0.7245
      ],
      "fact_recall": 1.0,
      "fact_hits": [
        "TA",
        "TE",
        "TV",
        "TI"
      ],
      "fact_misses": [],
      "answer_preview": "The four Trial Design domains — **TE (Trial Elements)**, **TA (Trial Arms)**, **TV (Trial Visits)**, and **TI (Trial Inclusion/Exclusion)** — together define the planned conduct of a clinical trial at the design level. They form the core of the Trial Design Model, with each domain capturing a distinct aspect of the study plan:\n\n---\n\n### 1. TE – Trial Elements (the building blocks)\nTE defines the smallest reusable time intervals of the trial, each with a unique **ETCD** (element code), a description (**ELEMENT**), and rules for starting (**TESTRL**) and ending (**TEENRL**) the element, along wi",
      "usage": {
        "prompt_tokens": 14714,
        "completion_tokens": 1831,
        "total_tokens": 16545
      },
      "model": "deepseek/deepseek-v4-pro",
      "answer": "The four Trial Design domains — **TE (Trial Elements)**, **TA (Trial Arms)**, **TV (Trial Visits)**, and **TI (Trial Inclusion/Exclusion)** — together define the planned conduct of a clinical trial at the design level. They form the core of the Trial Design Model, with each domain capturing a distinct aspect of the study plan:\n\n---\n\n### 1. TE – Trial Elements (the building blocks)\nTE defines the smallest reusable time intervals of the trial, each with a unique **ETCD** (element code), a description (**ELEMENT**), and rules for starting (**TESTRL**) and ending (**TEENRL**) the element, along with planned duration (**TEDUR**).  \n- An element is “a discrete period of time during which a specific type of treatment or activity is planned” [13].  \n- Each unique element appears only once in TE, even if it is used multiple times in the arm structure [4].\n\n---\n\n### 2. TA – Trial Arms (the roadmap)\nTA assembles the elements defined in TE into **planned arms** – ordered sequences that subjects follow through the trial. For each arm (**ARMCD**/**ARM**), TA records:\n- **TAETORD** – the order of each element within the arm.\n- **ETCD** / **ELEMENT** – which element from TE occupies that position.\n- **EPOCH** – the epoch (trial‑wide time period) that the element belongs to.\n- **TABRANCH** – rule for branching into separate arms (e.g., randomization).\n- **TATRANS** – rule for transition choices within an arm (e.g., skip to another element if a condition is met) [5][12].\n\nThus, TA maps elements to arms, defines branching/transition points, and assigns each arm‑element combination to an epoch. The combination of arm and epoch defines a **study cell**, and each study cell contains one or more elements [5][11].\n\n---\n\n### 3. TV – Trial Visits (the visit schedule)\nTV defines the planned visits, each with a **VISITNUM** and rules for starting (**TVSTRL**) and ending (**TVENRL**) the visit. These rules often reference elements or epochs (and, when an arm repeats the same element, may use **TAETORD** to distinguish occurrences).  \n- For example, a visit may “span an epoch transition” – starting before the end of one epoch and ending after the beginning of the next [15].  \n- TV connects the data‑collection events directly to the arm‑element timeline established by TA and TE. Subject‑level visit data (SV) then references these planned visit definitions.\n\n---\n\n### 4. TI – Trial Inclusion/Exclusion Criteria (the eligibility filter)\nTI contains **all** inclusion/exclusion criteria for the trial, providing a complete description of the population eligible to enter the study. It complements the subject‑level IE domain, which records only those criteria that a subject failed to meet [10].  \n- While TI does not directly link to TA/TE/TV structurally, it defines the pre‑conditions under which subjects are assigned to the arms and follow the visit schedule described by the other three domains.\n\n---\n\n### How They Work Together\n1. **TI** lays out who may participate.  \n2. **TE** defines the discrete time blocks (screen, run‑in, treatment, follow‑up, etc.) and the rules for moving from one to the next.  \n3. **TA** composes those elements into actual arms, specifying the order, branches, transitions, and epoch assignments – effectively building the trial flowchart.  \n4. **TV** overlays a visit schedule, tying each planned data‑collection point to the elements and epochs defined by TE and TA.  \n\nOnce the design is defined, subject‑level domains (DM, SV, EX, etc.) reference codes from these design domains (e.g., **ARMCD**, **ETCD**, **EPOCH**, **VISITNUM**) to align actual observations with the planned trial design. The entire framework ensures that reviewers can “clearly and quickly grasp the design,” compare trials, and compare planned vs. actual treatments and visits [5].",
      "judge_fact_recall": 1.0,
      "judge_fact_hits": [
        "TA",
        "TE",
        "TV",
        "TI"
      ],
      "judge_fact_misses": [],
      "judge_parse_ok": true,
      "elapsed_s": 29.97
    },
    {
      "id": "q30",
      "category": "cross_domain",
      "question": "What is the CO (Comments) domain and how does it reference records in other SDTM domains? Describe the RDOMAIN and IDVAR mechanism.",
      "source_recall": 1.0,
      "source_hits": [
        "domains/CO/spec.md",
        "domains/CO/assumptions.md"
      ],
      "source_misses": [],
      "top5_sources": [
        "VARIABLE_INDEX.md",
        "domains/CO/spec.md",
        "chapters/ch08_relationships.md",
        "domains/CO/assumptions.md",
        "domains/CO/assumptions.md"
      ],
      "top5_similarities": [
        0.569,
        0.6492,
        0.6728,
        0.6876,
        0.7154
      ],
      "fact_recall": 1.0,
      "fact_hits": [
        "COVAL",
        "RDOMAIN",
        "IDVAR"
      ],
      "fact_misses": [],
      "answer_preview": "The **CO (Comments)** domain is a Special-Purpose SDTM domain that holds unstructured free‑text comments collected during a study. It is structured as one record per comment per subject (or per study), and is used to submit comments that are either associated with a particular domain or record, or collected on standalone comment pages.\n\n**[Source: model/03_special_purpose_domains.md] [Source: domains/CO/assumptions.md – item 1]**\n\nCO references records in other SDTM domains through three key relationship variables: **RDOMAIN**, **IDVAR**, and **IDVARVAL**. These variables operate together to p",
      "usage": {
        "prompt_tokens": 15275,
        "completion_tokens": 1289,
        "total_tokens": 16564
      },
      "model": "deepseek/deepseek-v4-pro",
      "answer": "The **CO (Comments)** domain is a Special-Purpose SDTM domain that holds unstructured free‑text comments collected during a study. It is structured as one record per comment per subject (or per study), and is used to submit comments that are either associated with a particular domain or record, or collected on standalone comment pages.\n\n**[Source: model/03_special_purpose_domains.md] [Source: domains/CO/assumptions.md – item 1]**\n\nCO references records in other SDTM domains through three key relationship variables: **RDOMAIN**, **IDVAR**, and **IDVARVAL**. These variables operate together to point to the parent domain and, optionally, the specific parent record(s) to which a comment belongs.\n\n---\n\n### Relationship Variables\n\n| Variable | Label | Purpose |\n|----------|-------|---------|\n| **RDOMAIN** | Related Domain Abbreviation | Identifies the parent domain (e.g., AE, PE, EX) |\n| **IDVAR** | Identifying Variable | Name of the variable in the parent domain that holds the key value |\n| **IDVARVAL** | Identifying Variable Value | Value of that key variable, referencing the specific parent record(s) |\n\nThese variables are populated according to how the comment was collected (see Section 8.5 of the SDTMIG):\n\n1. **Comments unrelated to any domain or record**  \n   RDOMAIN, IDVAR, and IDVARVAL are all null. The comment is tied to the subject only via USUBJID. CODTC may be populated with the date/time the comment was written.\n\n2. **Comments related to a domain but not to specific records**  \n   RDOMAIN is set to the 2‑character domain code of the parent domain (e.g., `PE`). IDVAR and IDVARVAL remain null. CODTC should be populated if captured.\n\n3. **Comments related to specific parent record(s)**  \n   RDOMAIN contains the parent domain code. IDVAR holds the name of the key variable that uniquely identifies the record(s) – for example, `AESEQ` for a single record, or a grouping variable like `EXGRPID` for a group. IDVARVAL holds the corresponding value of that variable. In this case, CODTC should be null because the timing of the parent record is inherited by the comment.\n\n**[Source: ch08_relationships.md – 8.5 Relating Comments to a Parent Domain] [Source: domains/CO/assumptions.md – item 3]**\n\n---\n\n### Example Usage\n\n| Scenario | RDOMAIN | IDVAR | IDVARVAL | Meaning |\n|----------|---------|-------|----------|---------|\n| Stand‑alone comment page | (null) | (null) | (null) | Comment linked to subject only |\n| Comment at bottom of PE page, no specific record | `PE` | (null) | (null) | Comment applies to the whole Physical Examination domain for that visit |\n| Comment on AE record with AESEQ=7 | `AE` | `AESEQ` | `7` | Comment linked to a single adverse event |\n| Comment about a group of EX records with EXGRPID=`COMBO1` | `EX` | `EXGRPID` | `COMBO1` | Comment linked to all exposure records in that group |\n\n**[Source: domains/CO/examples.md – Example 1]**\n\n---\n\n### Additional Notes\n\n- When the comment text exceeds 200 characters, the overflow is stored in additional variables `COVAL1`, `COVAL2`, … , with the first 200 characters in `COVAL`.\n- The `COREF` variable can hold a human‑readable reference (e.g., “VISIT 7”, “PAGE 650”) to further qualify the relationship, but the formal link always relies on RDOMAIN/IDVAR/IDVARVAL.\n- Timing variables such as `VISITNUM` or `VISIT` may be added to CO to associate comments with specific visits.\n\n**[Source: domains/CO/assumptions.md – items 3,4,5] [Source: VARIABLE_INDEX.md – CO variables]**",
      "judge_fact_recall": 1.0,
      "judge_fact_hits": [
        "COVAL",
        "RDOMAIN",
        "IDVAR"
      ],
      "judge_fact_misses": [],
      "judge_parse_ok": true,
      "elapsed_s": 18.82
    },
    {
      "id": "q31",
      "category": "cross_domain",
      "question": "How are the EC (Exposure as Collected) and EX (Exposure) domains different in purpose, and when should each be used?",
      "source_recall": 1.0,
      "source_hits": [
        "domains/EC/assumptions.md"
      ],
      "source_misses": [],
      "top5_sources": [
        "domains/EC/spec.md",
        "domains/EX/spec.md",
        "domains/EX/assumptions.md",
        "domains/EC/assumptions.md",
        "domains/EX/assumptions.md"
      ],
      "top5_similarities": [
        0.5814,
        0.5963,
        0.7328,
        0.7317,
        0.5907
      ],
      "fact_recall": 1.0,
      "fact_hits": [
        "collected",
        "EX",
        "EC"
      ],
      "fact_misses": [],
      "answer_preview": "## EC vs. EX: Purpose and Usage\n\nThe EC and EX domains both capture study treatment exposure but serve fundamentally different roles in SDTM:\n\n### EC (Exposure as Collected)\n\n**Purpose**: Represents protocol-specified study treatment administrations **exactly as collected** on the CRF, before any derivation or standardization.\n\n**When to use EC**:\n- EC should be used in **all cases where collected exposure information cannot or should not be directly represented in EX**. For example, administrations collected in tablets when the protocol-specified unit is mg, or administrations collected in mL",
      "usage": {
        "prompt_tokens": 14382,
        "completion_tokens": 1145,
        "total_tokens": 15527
      },
      "model": "deepseek/deepseek-v4-pro",
      "answer": "## EC vs. EX: Purpose and Usage\n\nThe EC and EX domains both capture study treatment exposure but serve fundamentally different roles in SDTM:\n\n### EC (Exposure as Collected)\n\n**Purpose**: Represents protocol-specified study treatment administrations **exactly as collected** on the CRF, before any derivation or standardization.\n\n**When to use EC**:\n- EC should be used in **all cases where collected exposure information cannot or should not be directly represented in EX**. For example, administrations collected in tablets when the protocol-specified unit is mg, or administrations collected in mL when the protocol-specified unit is mg/kg **[Source: domains/EC/assumptions.md item 1a]**.\n- Collected exposure data are in most cases represented in a combination of one or more of EC, DA, or FA domains **[Source: domains/EC/assumptions.md item 1b]**.\n- If the entire EC dataset is an exact duplicate of the entire EX dataset, then EC is **optional** and at the sponsor's discretion **[Source: domains/EC/assumptions.md item 1b]**.\n- Collected exposure log data points typically reflect amounts at the **product-level** (e.g., number of tablets, number of mL) **[Source: domains/EC/assumptions.md item 1c]**.\n- Intended (scheduled) doses and actual (performed) doses can both be captured in EC, including doses not given (ECOCCUR = \"N\"), with reasons recorded in ECREASOC **[Source: domains/EX/examples.md Example 7]**.\n\n### EX (Exposure)\n\n**Purpose**: Represents protocol-specified study treatment administrations in the **protocol-specified unit**, typically as a **derived** dataset.\n\n**When to use EX**:\n- EX is **required for all studies** that include protocol-specified study treatment **[Source: domains/EX/assumptions.md item 1c]**.\n- EX is recognized in most cases as a **derived dataset** where EXDOSU reflects the protocol-specified unit per study treatment. Collected data points along with additional inputs (e.g., randomization file, concentration, dosage strength, product accountability) are used to derive EX records **[Source: domains/EX/assumptions.md item 1b]**.\n- EX should contain **1 record per constant-dosing interval** per subject. Sponsors define the constant-dosing interval, which may include any period of time that can be described in terms of a known treatment given at a consistent dose, frequency, infusion rate, and so on **[Source: domains/EX/assumptions.md item 1d]**.\n- When a study is still masked and protocol-specified study treatment doses cannot yet be reflected in the protocol-specified unit due to blinding requirements, **EX is not expected to be populated** **[Source: domains/EX/assumptions.md item 1c.5]**.\n- Treatments that are not protocol-specified should be represented in the Concomitant/Prior Medications (CM) or another Interventions domain as appropriate **[Source: domains/EX/assumptions.md item 1a]**.\n\n### Key Relationship\n\n- When the relationship between EC and EX records can be described in RELREC, then it **should be defined**. EX derivations must be described in the Define-XML document **[Source: domains/EX/assumptions.md item 5][Source: domains/EC/assumptions.md item 6]**.\n- The degree of summarization of records from EC to EX is **sponsor-defined** to support study purpose and analysis **[Source: domains/EC/assumptions.md item 6]**.\n- When EC is implemented in conjunction with EX, EXVAMT and EXVAMTU would **not** be used in EX; collected values instead would be represented in ECDOSE and ECDOSU (and ECVAMT and ECVAMTU as needed) **[Source: domains/EX/assumptions.md item 6c]**.\n\n### Practical Distinction\n\n| Aspect | EC | EX |\n|--------|----|----|\n| **Unit of measure** | As collected (e.g., tablets, mL) | Protocol-specified (e.g., mg, mg/kg) |\n| **Derivation** | Direct from CRF | Derived from EC + other inputs |\n| **Representation** | Multiple records per dose (intended + actual) | One record per constant-dosing interval |\n| **Doses not given** | Captured (ECOCCUR = \"N\") | Not captured (EX includes only treatments received) |\n| **Blinded studies** | Can be populated | Not populated when dose cannot be expressed in protocol unit |\n| **Required/Optional** | Required when collected data differ from protocol unit | Required for all studies with study treatment |",
      "judge_fact_recall": 1.0,
      "judge_fact_hits": [
        "collected",
        "EX",
        "EC"
      ],
      "judge_fact_misses": [],
      "judge_parse_ok": true,
      "elapsed_s": 15.7
    },
    {
      "id": "q32",
      "category": "cross_domain",
      "question": "How is VISIT and VISITNUM used consistently across observation-class domains, and what role does the SV (Subject Visits) domain play in tracking actual visit dates?",
      "source_recall": 1.0,
      "source_hits": [
        "domains/SV/spec.md",
        "domains/SV/assumptions.md"
      ],
      "source_misses": [],
      "top5_sources": [
        "VARIABLE_INDEX.md",
        "domains/SV/spec.md",
        "model/03_special_purpose_domains.md",
        "chapters/ch04_general_assumptions.md",
        "domains/SV/assumptions.md"
      ],
      "top5_similarities": [
        0.6554,
        0.6543,
        0.7044,
        0.6665,
        0.6646
      ],
      "fact_recall": 1.0,
      "fact_hits": [
        "VISIT",
        "VISITNUM",
        "SV"
      ],
      "fact_misses": [],
      "answer_preview": "## VISIT 与 VISITNUM 在观察类域中的一致使用\n\n**计划访视 (Planned Visits)**：在基于三大一般观察类的域（Events、Interventions、Findings）中，计划访视的 VISIT、VISITNUM 和 VISITDY 值必须与 Trial Visits（TV）数据集中的定义保持一致 **[Source: chapters/ch04_general_assumptions.md]**。\n\n- **VISITNUM**：数值型变量，用于排序。其值应尽可能匹配访视的计划时间顺序 **[Source: chapters/ch04_general_assumptions.md]**。\n- **VISIT**：字符型变量，来自方案定义的访视名称。VISIT 与 VISITNUM 之间必须是一一对应的关系 **[Source: chapters/ch04_general_assumptions.md]**。\n\n**非计划访视 (Unplanned Visits)**：对于计划外的访视，各申办方的填充实践可能有所不同：\n- VISITNUM 通常也应填充数值，即使是计划外访视，因为许多 Findings 域都期望有此变量。最简单的做法是给所有非计划访视分配相同的值（如 99），但这样做无法区分不同的非计划访视，也无法实现时间顺序排序 **[Sou",
      "usage": {
        "prompt_tokens": 14489,
        "completion_tokens": 972,
        "total_tokens": 15461
      },
      "model": "deepseek/deepseek-v4-pro",
      "answer": "## VISIT 与 VISITNUM 在观察类域中的一致使用\n\n**计划访视 (Planned Visits)**：在基于三大一般观察类的域（Events、Interventions、Findings）中，计划访视的 VISIT、VISITNUM 和 VISITDY 值必须与 Trial Visits（TV）数据集中的定义保持一致 **[Source: chapters/ch04_general_assumptions.md]**。\n\n- **VISITNUM**：数值型变量，用于排序。其值应尽可能匹配访视的计划时间顺序 **[Source: chapters/ch04_general_assumptions.md]**。\n- **VISIT**：字符型变量，来自方案定义的访视名称。VISIT 与 VISITNUM 之间必须是一一对应的关系 **[Source: chapters/ch04_general_assumptions.md]**。\n\n**非计划访视 (Unplanned Visits)**：对于计划外的访视，各申办方的填充实践可能有所不同：\n- VISITNUM 通常也应填充数值，即使是计划外访视，因为许多 Findings 域都期望有此变量。最简单的做法是给所有非计划访视分配相同的值（如 99），但这样做无法区分不同的非计划访视，也无法实现时间顺序排序 **[Source: chapters/ch04_general_assumptions.md]**。\n- VISIT 可以留空，也可以填充通用的值（如 \"Unscheduled\"），或为不同的非计划访视分配各自的值。\n- **VISITDY 绝对不能为非计划访视填充**，因为 VISITDY 的定义就是计划访视日。非计划访视的实际研究日应记录在 --DY 变量中 **[Source: chapters/ch04_general_assumptions.md]**。\n\n## SV（Subject Visits）域在跟踪实际访视日期中的作用\n\nSV 是**特殊用途域**，结构为每个受试者的每次实际或计划访视一条记录。它描述了每个受试者实际经历的访视情况 **[Source: model/03_special_purpose_domains.md]**。\n\n具体作用包括：\n\n1.  **记录实际访视日期**：SV 提供了实际访视的开始日期/时间（SVSTDTC）和结束日期/时间（SVENDTC），以及对应的研究日（SVSTDY、SVENDY）。这使得审阅者可以查看每个受试者访视的实际时间线 **[Source: model/03_special_purpose_domains.md]**。\n\n2.  **识别方案偏离**：将个体受试者的 SV 数据集与描述试验计划访视的 TV 数据集进行比较，有助于识别计划了但未完成的访视。比较 SVSTDY 和 SVENDY 与 VISIT/VISITDY 的值，常可突显与计划访视时间的偏离 **[Source: domains/SV/assumptions.md]**。\n\n3.  **处理非计划访视**：非计划访视的记录应包含在 SV 数据集中。对于非计划访视，可以用 SVUPDES 变量来描述访视原因。如果某场合被视为一次访视，其日期/时间就必须包含在 SV 表中，并且必须分配 VISITNUM 值 **[Source: domains/SV/assumptions.md]**。",
      "judge_fact_recall": 1.0,
      "judge_fact_hits": [
        "VISIT",
        "VISITNUM",
        "SV"
      ],
      "judge_fact_misses": [],
      "judge_parse_ok": true,
      "elapsed_s": 15.53
    },
    {
      "id": "q33",
      "category": "cross_domain",
      "question": "What is the RELSPEC domain and how does it define relationships between datasets at the study level, as opposed to RELREC which links individual records?",
      "source_recall": 1.0,
      "source_hits": [
        "domains/RELSPEC/spec.md"
      ],
      "source_misses": [],
      "top5_sources": [
        "domains/RELSPEC/spec.md",
        "domains/RELREC/spec.md",
        "domains/RELREC/assumptions.md",
        "chapters/ch08_relationships.md",
        "chapters/ch08_relationships.md"
      ],
      "top5_similarities": [
        0.5814,
        0.6533,
        0.7707,
        0.7621,
        0.7252
      ],
      "fact_recall": 1.0,
      "fact_hits": [
        "RELSPEC",
        "RELREC"
      ],
      "fact_misses": [],
      "answer_preview": "根据 SDTM 知识库，**RELSPEC（Related Specimens）** 并不是像 RELREC 那样用于定义**研究级别（study-level）的数据集间关系**的域。它的设计目的完全不同，是一个**专门表达生物样本（specimen）之间谱系/亲属关系**的关系型数据集。下面对照说明。\n\n---\n\n## 1. RELSPEC 是什么？\n\n- **域全称**：Related Specimens  \n- **类别**：Relationship（关系型数据集），与 RELREC、SUPPQUAL、RELSUB 等同属一类 [1]  \n- **结构**：每个受试者的每个样本标识（`REFID`）一条记录 [12]  \n- **用途**：**仅用于维护样本之间的关系**，例如从父样本（原始采集样本）到衍生的分装样本（aliquot）或处理后的样本，形成样本家系。\n\n### 主要变量（来自模型定义）[12]\n\n| 变量 | 标签 | 角色 | 说明 |\n|------|------|------|------|\n| `STUDYID` | Study Identifier | Identifier | 研究标识 |\n| `USUBJID` | Unique Subject Identifier | Identifier | 受试者标识 |\n| `REFID` | Refere",
      "usage": {
        "prompt_tokens": 15697,
        "completion_tokens": 1788,
        "total_tokens": 17485
      },
      "model": "deepseek/deepseek-v4-pro",
      "answer": "根据 SDTM 知识库，**RELSPEC（Related Specimens）** 并不是像 RELREC 那样用于定义**研究级别（study-level）的数据集间关系**的域。它的设计目的完全不同，是一个**专门表达生物样本（specimen）之间谱系/亲属关系**的关系型数据集。下面对照说明。\n\n---\n\n## 1. RELSPEC 是什么？\n\n- **域全称**：Related Specimens  \n- **类别**：Relationship（关系型数据集），与 RELREC、SUPPQUAL、RELSUB 等同属一类 [1]  \n- **结构**：每个受试者的每个样本标识（`REFID`）一条记录 [12]  \n- **用途**：**仅用于维护样本之间的关系**，例如从父样本（原始采集样本）到衍生的分装样本（aliquot）或处理后的样本，形成样本家系。\n\n### 主要变量（来自模型定义）[12]\n\n| 变量 | 标签 | 角色 | 说明 |\n|------|------|------|------|\n| `STUDYID` | Study Identifier | Identifier | 研究标识 |\n| `USUBJID` | Unique Subject Identifier | Identifier | 受试者标识 |\n| `REFID` | Reference ID | Identifier | 用于标识样本的唯一 ID（受控术语 C82531） |\n| `SPEC` | Specimen Type | Variable Qualifier (REFID) | 样本类型（C70713） |\n| `PARENT` | Specimen Parent | Identifier | 该样本的父样本的 `REFID` |\n| `LEVEL` | Specimen Level | Variable Qualifier (REFID) | 样本的代次（如采集样本为第 1 代） |\n\n**关键点**：`PARENT` 变量通过引用父样本的 `REFID` 来建立样本与样本之间的链条，因此 RELSPEC 是一个**样本级别的谱系跟踪工具**。\n\n---\n\n## 2. RELSPEC **不**用于数据集间的研究级关系\n\nSDTMIG 明确陈述 [10][8]：\n\n> **“The RELSPEC dataset is not used to manage relationships between any other datasets or domains.”**  \n> **“The RELSPEC dataset is only used to maintain relationships between specimens…”**\n\n所以，**RELSPEC 不能用来表示域与域之间、数据集与数据集之间的整体关系**（如 “AE 域与 CM 域之间是一对多关系”）。它只关心样本个体间的父子关联。\n\n---\n\n## 3. RELREC 才是处理研究级数据集关系的工具\n\n**RELREC** 的用途有两种 [3][4][13]：\n\n### 3.1 关联**同一受试者内**的个体记录（peer records）\n- 用 `IDVAR`（如 `AESEQ`）和 `IDVARVAL` 指定具体记录，`RELID` 将多个记录归入同一关系。\n- Example：一个不良事件（AE）与两个合并用药（CM）关联。\n\n### 3.2 关联**整个数据集**（study-level dataset relationship）\n- 此时 **`USUBJID` 和 `IDVARVAL` 均为空**，`IDVAR` 填入用于合并/联结两个数据集的关键变量名（如 `TULNKID`、`TRLNKID`），\n- `RELTYPE` 取值 `ONE` 或 `MANY`，描述数据集间的层级关系（一对一、一对多、多对一、多对多）[13]。\n- Example：表示 TU 域与 TR 域之间是一对多的关系。\n\n这正是 **“研究级别”** 的关系定义——即整个数据集的结构性关联，而不是单个记录。\n\n---\n\n## 总结：RELSPEC vs. RELREC\n\n| 特性 | RELSPEC | RELREC |\n|------|---------|--------|\n| **用途** | 样本谱系跟踪（父样本 → 衍生样本） | 1) 同一受试者内记录间的关系<br>2) 数据集级别的关系 |\n| **作用层级** | 个体样本 | 个体记录 / 整个数据集 |\n| **关键变量** | `PARENT`, `LEVEL` | `IDVAR`, `IDVARVAL`, `RELID`, `RELTYPE` |\n| **能否表达研究级数据集关系** | ❌ 不能 | ✅ 能（通过空 `USUBJID` + `RELTYPE`） |\n\n**因此，若需要描述数据集之间的研究级别关系，应使用 RELREC 而非 RELSPEC。** RELSPEC 仅用于样本家系，两者分工明确。\n\n---\n\n**参考文献**  \n- RELSPEC 假设与模型： [8] [10] [12]  \n- RELREC 描述与示例： [3] [4] [13] [15]  \n- 关系数据集总结： [6] [1]",
      "judge_fact_recall": 1.0,
      "judge_fact_hits": [
        "RELSPEC",
        "RELREC"
      ],
      "judge_fact_misses": [],
      "judge_parse_ok": true,
      "elapsed_s": 31.91
    },
    {
      "id": "q34",
      "category": "cross_domain",
      "question": "Which SDTM domains share the controlled terminology codelist for NY (No Yes Response, C66742), and what variable typically uses this codelist in those domains?",
      "source_recall": 1.0,
      "source_hits": [
        "VARIABLE_INDEX.md"
      ],
      "source_misses": [],
      "top5_sources": [
        "VARIABLE_INDEX.md",
        "terminology/core/general_part4.md",
        "chapters/ch04_general_assumptions.md",
        "chapters/ch04_general_assumptions.md",
        "model/01_concepts_and_terms.md"
      ],
      "top5_similarities": [
        0.4516,
        0.5903,
        0.6157,
        0.6351,
        0.5697
      ],
      "fact_recall": 1.0,
      "fact_hits": [
        "C66742",
        "NY"
      ],
      "fact_misses": [],
      "answer_preview": "Based on the provided knowledge base, the following SDTM domains explicitly reference the **No Yes Response (NY) codelist (C66742)** for specific variables:\n\n- **Subject Visits (SV)**: Variables `SVPRESP`, `SVOCCUR`, and `SVEPCHGI` all use C66742.  \n  **[Source: domains/SV/spec.md — Controlled Terminology]**\n- **Trial Disease Milestones (TM)**: Variable `TMRPT` uses C66742.  \n  **[Source: domains/TM/spec.md — Controlled Terminology]**\n\nAdditionally, the general SDTM assumptions note that **--PRESP** (prespecified) variables, which appear across many Intervention domains (e.g., CMPRESP, EXPRESP",
      "usage": {
        "prompt_tokens": 13047,
        "completion_tokens": 1602,
        "total_tokens": 14649
      },
      "model": "deepseek/deepseek-v4-pro",
      "answer": "Based on the provided knowledge base, the following SDTM domains explicitly reference the **No Yes Response (NY) codelist (C66742)** for specific variables:\n\n- **Subject Visits (SV)**: Variables `SVPRESP`, `SVOCCUR`, and `SVEPCHGI` all use C66742.  \n  **[Source: domains/SV/spec.md — Controlled Terminology]**\n- **Trial Disease Milestones (TM)**: Variable `TMRPT` uses C66742.  \n  **[Source: domains/TM/spec.md — Controlled Terminology]**\n\nAdditionally, the general SDTM assumptions note that **--PRESP** (prespecified) variables, which appear across many Intervention domains (e.g., CMPRESP, EXPRESP, PRPRESP) and some Event domains, are **associated with the NY codelist**, though only the value `\"Y\"` is allowed in those variables.  \n**[Source: chapters/ch04_general_assumptions.md — 4.3.3]**\n\nWhile the explicit domain-variable pairs above are the ones captured in the retrieved sources, any domain that contains a **--PRESP** variable or similar yes/no flags (e.g., occurrence, epoch change indicator) may also share the NY codelist. The definitive list of all domains using C66742 would be found in the full SDTM variable index (see VARIABLE_INDEX.md §三, not present in this retrieval).",
      "judge_fact_recall": 1.0,
      "judge_fact_hits": [
        "C66742",
        "NY"
      ],
      "judge_fact_misses": [],
      "judge_parse_ok": true,
      "elapsed_s": 24.12
    },
    {
      "id": "q11",
      "category": "concept",
      "question": "What are the three observation classes in the SDTM model?",
      "source_recall": 1.0,
      "source_hits": [
        "model/02_observation_classes.md"
      ],
      "source_misses": [],
      "top5_sources": [
        "model/01_concepts_and_terms.md",
        "model/02_observation_classes.md",
        "chapters/ch04_general_assumptions.md",
        "chapters/ch04_general_assumptions.md",
        "terminology/supplementary/supplementary_part5.md"
      ],
      "top5_similarities": [
        0.5632,
        0.7205,
        0.5452,
        0.5352,
        0.5473
      ],
      "fact_recall": 1.0,
      "fact_hits": [
        "Interventions",
        "Events",
        "Findings"
      ],
      "fact_misses": [],
      "answer_preview": "The SDTM model divides the majority of subject data observations into three general observation classes:\n\n1. **Interventions**\n2. **Events**\n3. **Findings**\n\nThese classes provide the framework for organizing clinical trial data according to the nature of the observation (e.g., treatments administered, spontaneous occurrences, or measurements/assessments). **[Source: model/02_observation_classes.md – Overview]** Additional context on variable roles and domain structure is provided in the SDTM v2.0 conceptual model. **[Source: model/01_concepts_and_terms.md – 2.1 Model Concepts and Terms — Vari",
      "usage": {
        "prompt_tokens": 14978,
        "completion_tokens": 447,
        "total_tokens": 15425
      },
      "model": "deepseek/deepseek-v4-pro",
      "answer": "The SDTM model divides the majority of subject data observations into three general observation classes:\n\n1. **Interventions**\n2. **Events**\n3. **Findings**\n\nThese classes provide the framework for organizing clinical trial data according to the nature of the observation (e.g., treatments administered, spontaneous occurrences, or measurements/assessments). **[Source: model/02_observation_classes.md – Overview]** Additional context on variable roles and domain structure is provided in the SDTM v2.0 conceptual model. **[Source: model/01_concepts_and_terms.md – 2.1 Model Concepts and Terms — Variables]**",
      "judge_fact_recall": 1.0,
      "judge_fact_hits": [
        "Interventions",
        "Events",
        "Findings"
      ],
      "judge_fact_misses": [],
      "judge_parse_ok": true,
      "elapsed_s": 9.23
    },
    {
      "id": "q12",
      "category": "concept",
      "question": "What do the Core designations Req, Exp, and Perm mean in SDTM?",
      "source_recall": 1.0,
      "source_hits": [
        "chapters/ch04"
      ],
      "source_misses": [],
      "top5_sources": [
        "chapters/ch04_general_assumptions.md",
        "VARIABLE_INDEX.md",
        "domains/SUPPQUAL/spec.md",
        "chapters/ch04_general_assumptions.md",
        "domains/CO/spec.md"
      ],
      "top5_similarities": [
        0.6571,
        0.5558,
        0.6055,
        5.7202,
        0.5926
      ],
      "fact_recall": 1.0,
      "fact_hits": [
        "Required",
        "Expected",
        "Permissible"
      ],
      "fact_misses": [],
      "answer_preview": "In SDTM, the **Core** column in domain specifications assigns each variable one of three designations that govern whether the variable must be present in the dataset and whether it must be populated. The definitions are:\n\n| Core | Meaning | Requirement & Behavior |\n|------|---------|------------------------|\n| **Req** (Required) | A Required variable is basic to the identification of a data record (e.g., essential key variables and the topic variable) or is necessary to make the record meaningful. | Must always be included in the dataset and **cannot be null for any record**. |\n| **Exp** (Expe",
      "usage": {
        "prompt_tokens": 13764,
        "completion_tokens": 598,
        "total_tokens": 14362
      },
      "model": "deepseek/deepseek-v4-pro",
      "answer": "In SDTM, the **Core** column in domain specifications assigns each variable one of three designations that govern whether the variable must be present in the dataset and whether it must be populated. The definitions are:\n\n| Core | Meaning | Requirement & Behavior |\n|------|---------|------------------------|\n| **Req** (Required) | A Required variable is basic to the identification of a data record (e.g., essential key variables and the topic variable) or is necessary to make the record meaningful. | Must always be included in the dataset and **cannot be null for any record**. |\n| **Exp** (Expected) | An Expected variable is any variable necessary to make a record useful in the context of a specific domain. It may contain some null values, but in most cases will not be null for every record. | Must be included in the dataset. If the study does not include the data item, the column must still be present (with nulls), and a comment must be added in the Define‑XML document stating that the study does not include that data item. |\n| **Perm** (Permissible) | A Permissible variable may be included if the study collected the corresponding data. | If the study collected the data, the variable must be included (even if all values are null) and declared in Define‑XML. If the study did not collect the data, the variable should not be included and should not be declared in Define‑XML. |\n\nAdditional general rules:\n- Although domain specification tables list only some identifier, timing, and general observation‑class variables, **all such variables are Permissible unless specifically restricted** by the SDTMIG or by domain assumptions.\n- When a domain assumption states that a Permissible variable is “generally not used,” it does **not prohibit** use of the variable.\n- If a Permissible variable is included but holds no data, the Define‑XML document should indicate that no data were available.\n\n**[Source: chapters/ch04_general_assumptions.md § 4.1.5 SDTM Core Designations]**",
      "judge_fact_recall": 1.0,
      "judge_fact_hits": [
        "Required",
        "Expected",
        "Permissible"
      ],
      "judge_fact_misses": [],
      "judge_parse_ok": true,
      "elapsed_s": 10.52
    },
    {
      "id": "q13",
      "category": "concept",
      "question": "What is the difference between Topic, Qualifier, and Identifier variable roles?",
      "source_recall": 1.0,
      "source_hits": [
        "model/01_concepts_and_terms.md"
      ],
      "source_misses": [],
      "top5_sources": [
        "model/01_concepts_and_terms.md",
        "model/06_relationship_datasets.md",
        "chapters/ch08_relationships.md",
        "chapters/ch04_general_assumptions.md",
        "domains/ML/assumptions.md"
      ],
      "top5_similarities": [
        0.4934,
        0.4564,
        0.4718,
        0.526,
        0.5227
      ],
      "fact_recall": 1.0,
      "fact_hits": [
        "Topic",
        "Qualifier",
        "Identifier"
      ],
      "fact_misses": [],
      "answer_preview": "In the SDTM model, variables are classified by **role** based on the type of information they convey about an observation. The three roles you asked about differ as follows:\n\n### Identifier Variables\n**Purpose:** Uniquely identify the study, subject, domain, and record within a domain. They hold the “keys” that locate a specific row.  \n**Examples:** `STUDYID`, `USUBJID`, `DOMAIN`, `--SEQ` (e.g., `AESEQ`), `APID` (for associated persons).  \n**Characteristic:** Without identifiers, you cannot pinpoint which subject or domain a record belongs to. They are always required.\n\n**[Source: model/01_con",
      "usage": {
        "prompt_tokens": 15520,
        "completion_tokens": 1268,
        "total_tokens": 16788
      },
      "model": "deepseek/deepseek-v4-pro",
      "answer": "In the SDTM model, variables are classified by **role** based on the type of information they convey about an observation. The three roles you asked about differ as follows:\n\n### Identifier Variables\n**Purpose:** Uniquely identify the study, subject, domain, and record within a domain. They hold the “keys” that locate a specific row.  \n**Examples:** `STUDYID`, `USUBJID`, `DOMAIN`, `--SEQ` (e.g., `AESEQ`), `APID` (for associated persons).  \n**Characteristic:** Without identifiers, you cannot pinpoint which subject or domain a record belongs to. They are always required.\n\n**[Source: model/01_concepts_and_terms.md § Variable Roles; chapters/ch02_fundamentals.md § 2.1 Observations and Variables]**\n\n### Topic Variables\n**Purpose:** Specify the *focus* of the observation – what the record is about. They answer “what” the measurement, event, or intervention is.  \n**Examples:** `AETERM`/`AEDECOD` (medical term for the adverse event), `CMTRT` (medication name), `LBTESTCD` (lab test code).  \n**Characteristic:** The topic variable is the core subject of the record. In a domain, the topic variable (and often its synonym qualifier) defines the domain’s main content.\n\n**[Source: model/01_concepts_and_terms.md; chapters/ch02_fundamentals.md]**\n\n### Qualifier Variables\n**Purpose:** Provide additional descriptive information that characterizes the observation or a specific variable within it. They add context such as results, units, severity, laterality, etc. Qualifier variables are further divided into five subclasses:\n\n| Subclass | Role | Examples |\n|----------|------|----------|\n| **Grouping Qualifiers** | Group records together | `--CAT`, `--SCAT` |\n| **Result Qualifiers** | Describe the result of a topic variable in Findings | `--ORRES`, `--STRESC`, `--STRESN` |\n| **Synonym Qualifiers** | Supply an alternative name or code for another variable | `--TEST` (for `--TESTCD`), `--DECOD` (for `--TRT`/`--TERM`), `--MODIFY` |\n| **Record Qualifiers** | Define attributes of the record as a whole | `AESER` (serious AE flag), `--SEV`, `--LOC`, `--BLFL`, `AGE`/`SEX` in DM |\n| **Variable Qualifiers** | Modify a specific variable (only meaningful in context of that variable) | `--ORRESU` (qualifies `--ORRES`), `--DOSU` (qualifies `--DOSE`) |\n\n**Characteristic:** Qualifiers add detail but do not change the identity or the topic of the observation. Not all qualifiers are required for every domain.\n\n**[Source: model/01_concepts_and_terms.md § Variable Roles; chapters/ch02_fundamentals.md § Qualifier Variable Subclasses; model/02_observation_classes.md § 3.1.3 Findings Observation Class]**\n\n### Summary of Differences\n- **Identifier** tells *who/which study/domain/record*.\n- **Topic** tells *what* the observation is about (the subject matter).\n- **Qualifier** tells *everything else* about the observation (results, context, additional properties). It never identifies the record or defines the primary topic, but instead enriches the description.\n\nNote that Timing variables (e.g., `--DTC`, `--DY`, `EPOCH`) form a separate role, not discussed in this question.",
      "judge_fact_recall": 1.0,
      "judge_fact_hits": [
        "Topic",
        "Qualifier",
        "Identifier"
      ],
      "judge_fact_misses": [],
      "judge_parse_ok": true,
      "elapsed_s": 20.35
    },
    {
      "id": "q14",
      "category": "concept",
      "question": "How should a sponsor create a new custom domain in SDTM?",
      "source_recall": 1.0,
      "source_hits": [
        "chapters/ch02"
      ],
      "source_misses": [],
      "top5_sources": [
        "chapters/ch04_general_assumptions.md",
        "chapters/ch02_fundamentals.md",
        "chapters/ch01_introduction.md",
        "chapters/ch04_general_assumptions.md",
        "chapters/ch03_submitting_data.md"
      ],
      "top5_similarities": [
        0.6011,
        0.4731,
        0.4777,
        0.4946,
        0.4894
      ],
      "fact_recall": 1.0,
      "fact_hits": [
        "observation class"
      ],
      "fact_misses": [],
      "answer_preview": "To create a new custom domain in SDTM, a sponsor should follow a systematic process based on the SDTM model and the implementation guide. Below is a step‑by‑step approach, grounded in the retrieved knowledge base.\n\n### 1. Determine whether a new domain is really needed\nBefore creating a new domain, check whether the data can be placed in an existing standard domain. Only create a custom domain if no existing domain is appropriate.\n\n### 2. Choose a two‑character domain code\n- Use a code that begins with **X, Y, or Z** to avoid future conflict with CDISC standard domains. Any letter or number ma",
      "usage": {
        "prompt_tokens": 15873,
        "completion_tokens": 1883,
        "total_tokens": 17756
      },
      "model": "deepseek/deepseek-v4-pro",
      "answer": "To create a new custom domain in SDTM, a sponsor should follow a systematic process based on the SDTM model and the implementation guide. Below is a step‑by‑step approach, grounded in the retrieved knowledge base.\n\n### 1. Determine whether a new domain is really needed\nBefore creating a new domain, check whether the data can be placed in an existing standard domain. Only create a custom domain if no existing domain is appropriate.\n\n### 2. Choose a two‑character domain code\n- Use a code that begins with **X, Y, or Z** to avoid future conflict with CDISC standard domains. Any letter or number may be used in the second position (e.g., XY, Z9).  \n  **[Source: chapters/ch04_general_assumptions.md §4.1.6]**\n- The code must be exactly two characters: the first character **A–Z**, the second character **A–Z or 0–9**. No other characters are allowed (for SAS transport and eCTD compatibility).  \n  **[Source: chapters/ch04_general_assumptions.md §4.2.2]**\n\n### 3. Assign the domain to a general observation class\nThe sponsor must decide whether the observation represents an **Intervention**, an **Event**, or a **Finding**. This classification drives the variable template to use.  \nGuidelines for making this determination:\n- **Interventions**: something done to a subject (possibly by the subject) that is expected to have a physiological effect.\n- **Events**: something that happens to a subject spontaneously (e.g., medical events).\n- **Findings**: measurements, tests, assessments, or examinations performed on a subject or on specimens.\n\nWhen a finding is **about** an event or intervention, consider the Findings About domain class.  \n**[Source: chapters/ch08_relationships.md §8.6.1]**\n\n### 4. Apply the SDTM variable template\nUse the General Observation Class variable tables from the SDTM model.  \n- Replace the generic `--` prefix in variable names (e.g., `--TESTCD`, `--ORRES`) with the chosen two‑character domain code (e.g., `XYTESTCD`, `XYORRES`).  \n  **[Source: chapters/ch04_general_assumptions.md §4.2.2]**\n- Include the required **Identifier** variables (`STUDYID`, `DOMAIN`, `USUBJID`) without prefixing. Prefix `--SEQ` and optional identifiers (`--GRPID`, `--REFID`) with the domain code.  \n  **[Source: chapters/ch04_general_assumptions.md §4.2.2]**\n- Select the Timing variables appropriate to the observation (e.g., `--DTC`, `--DY`).  \n- Add Qualifier variables as needed: grouping qualifiers (`--CAT`, `--SCAT`), result qualifiers (for Findings: `--ORRES`, `--STRESC`), record qualifiers, and any variable qualifiers.  \n  **[Source: model/01_concepts_and_terms.md; chapters/ch02_fundamentals.md (variable roles)]**\n\n### 5. Document the domain metadata\nCreate a domain specification table (similar to standard domains) that lists each variable with its Label, Type, Role, Core designation, and Controlled Terminology. This metadata will be included in the Define‑XML submission document.  \n**[Source: chapters/ch03_submitting_data.md §3.1–3.2]**\n\n### Important notes\n- The `DOMAIN` variable must contain the two‑character code.\n- The dataset file name should match the domain code (e.g., `xy.xpt`).\n- Sponsor‑defined variables may be added if existing SDTM variables do not suffice, but must be clearly described in the metadata.\n- Always consult the CDISC website for current controlled terminology and for any newly published standard domains that might later cover the same data.\n\nBy following these principles, a sponsor can build a custom domain that is consistent with SDTM standards and suitable for regulatory submission.",
      "judge_fact_recall": 1.0,
      "judge_fact_hits": [
        "observation class"
      ],
      "judge_fact_misses": [],
      "judge_parse_ok": true,
      "elapsed_s": 33.25
    },
    {
      "id": "q15",
      "category": "concept",
      "question": "What are the three SDTM Core designation categories for variables, and what are the rules for handling a Permissible variable when a study did not collect the corresponding data item?",
      "source_recall": 1.0,
      "source_hits": [
        "chapters/ch04_general_assumptions.md"
      ],
      "source_misses": [],
      "top5_sources": [
        "chapters/ch04_general_assumptions.md",
        "chapters/ch01_introduction.md",
        "chapters/ch04_general_assumptions.md",
        "chapters/ch04_general_assumptions.md",
        "model/01_concepts_and_terms.md"
      ],
      "top5_similarities": [
        0.7806,
        0.6228,
        0.5995,
        0.5964,
        0.6896
      ],
      "fact_recall": 1.0,
      "fact_hits": [
        "Req",
        "Exp",
        "Perm"
      ],
      "fact_misses": [],
      "answer_preview": "根据 SDTMIG v3.4，SDTM Core 指定分为三个类别，其规则如下 **[Source: chapters/ch04_general_assumptions.md]**：\n\n三种 Core 指定类别：\n\n1.  **Req（必需，Required）**\n    *   **定义**：对数据记录的识别至关重要（如关键标识变量和主题变量）或使记录有意义的变量。\n    *   **规则**：必须始终包含在数据集中，且任何记录都不能为空值。\n\n2.  **Exp（期望，Expected）**\n    *   **定义**：在特定域的上下文中使记录有用的变量。\n    *   **规则**：必须包含在数据集中。当有数据时应填充；当数据未收集或不适用时允许为空，但仍必须保留该列，并在 Define-XML 文档中添加注释说明研究未收集该数据项。\n\n3.  **Perm（允许，Permissible）**\n    *   **定义**：可能包含在数据集中、可选的变量。\n    *   **规则**：\n        *   如果研究收集了可以由 Permissible 变量表示的数据项，则**必须**包含该变量（即使值为空）并在 Define-XML 中声明。\n        *   **如果研究未收集该数据项，则不应包含该变量，也不应在 Define-XML 中声明。**\n\n因此",
      "usage": {
        "prompt_tokens": 16196,
        "completion_tokens": 491,
        "total_tokens": 16687
      },
      "model": "deepseek/deepseek-v4-pro",
      "answer": "根据 SDTMIG v3.4，SDTM Core 指定分为三个类别，其规则如下 **[Source: chapters/ch04_general_assumptions.md]**：\n\n三种 Core 指定类别：\n\n1.  **Req（必需，Required）**\n    *   **定义**：对数据记录的识别至关重要（如关键标识变量和主题变量）或使记录有意义的变量。\n    *   **规则**：必须始终包含在数据集中，且任何记录都不能为空值。\n\n2.  **Exp（期望，Expected）**\n    *   **定义**：在特定域的上下文中使记录有用的变量。\n    *   **规则**：必须包含在数据集中。当有数据时应填充；当数据未收集或不适用时允许为空，但仍必须保留该列，并在 Define-XML 文档中添加注释说明研究未收集该数据项。\n\n3.  **Perm（允许，Permissible）**\n    *   **定义**：可能包含在数据集中、可选的变量。\n    *   **规则**：\n        *   如果研究收集了可以由 Permissible 变量表示的数据项，则**必须**包含该变量（即使值为空）并在 Define-XML 中声明。\n        *   **如果研究未收集该数据项，则不应包含该变量，也不应在 Define-XML 中声明。**\n\n因此，当一个研究没有收集某个 Permissible 变量对应的数据时，处理规则是：**不要在 SDTM 数据集中创建这一列，也不要在 Define-XML 文档中声明它。**",
      "judge_fact_recall": 1.0,
      "judge_fact_hits": [
        "Req",
        "Exp",
        "Perm"
      ],
      "judge_fact_misses": [],
      "judge_parse_ok": true,
      "elapsed_s": 9.97
    },
    {
      "id": "q35",
      "category": "concept",
      "question": "What is Controlled Terminology (CT) in SDTM and how does it constrain the values that variables can contain?",
      "source_recall": 1.0,
      "source_hits": [
        "chapters/ch04"
      ],
      "source_misses": [],
      "top5_sources": [
        "chapters/ch04_general_assumptions.md",
        "chapters/ch04_general_assumptions.md",
        "model/01_concepts_and_terms.md",
        "model/01_concepts_and_terms.md",
        "chapters/ch10_appendices.md"
      ],
      "top5_similarities": [
        0.607,
        0.6771,
        0.6231,
        0.5926,
        0.6137
      ],
      "fact_recall": 1.0,
      "fact_hits": [
        "codelist",
        "Controlled Terms"
      ],
      "fact_misses": [],
      "answer_preview": "In SDTM, **Controlled Terminology (CT)** is a standardized, centrally managed catalog of permissible values for selected variables. It is published and maintained by the CDISC Controlled Terminology Team and is designed to ensure consistency, semantic clarity, and interoperability across studies and sponsors.  \n\nCT constrains variable values in several ways:\n\n*   **Codelist binding** – In a domain specification, the *Controlled Terms, Codelist or Format* column lists the codelist that applies to a variable. For example, a variable might reference a named codelist (e.g., “(NY)”) or an external ",
      "usage": {
        "prompt_tokens": 15668,
        "completion_tokens": 2001,
        "total_tokens": 17669
      },
      "model": "deepseek/deepseek-v4-pro",
      "answer": "In SDTM, **Controlled Terminology (CT)** is a standardized, centrally managed catalog of permissible values for selected variables. It is published and maintained by the CDISC Controlled Terminology Team and is designed to ensure consistency, semantic clarity, and interoperability across studies and sponsors.  \n\nCT constrains variable values in several ways:\n\n*   **Codelist binding** – In a domain specification, the *Controlled Terms, Codelist or Format* column lists the codelist that applies to a variable. For example, a variable might reference a named codelist (e.g., “(NY)”) or an external code system like “MedDRA” or “ISO 3166‑1 alpha‑3.” Submitted data for that variable must use terms drawn from the designated codelist, unless the study did not plan to collect that data item (in which case the variable may be omitted according to the Core designation rules).  \n    **[Source: chapters/ch04_general_assumptions.md, §4.3.1]**\n\n*   **Subset for planned collection** – Even when a codelist exists, not every term in the codelist is necessarily part of the study’s planned data collection. Only the terms that **were actually planned** for collection should be included in the Define‑XML document’s permissible value set. For instance, the codelist `NY` (Yes/No) is associated with `--PRESP`, but only the value `\"Y\"` is allowed in that specific context.  \n    **[Source: chapters/ch04_general_assumptions.md, §4.3.3]**\n\n*   **Cross‑variable associations** – CT frequently links a short “code” variable to a longer descriptive variable and, in findings domains, can also prescribe result codelists. For example:\n    *   In the **TR** domain, `TRTESTCD`/`TRTEST` values are published as CT, and for some of those tests CDISC CT includes dedicated codelists for `TRORRES`.  \n        **[Source: domains/TR/assumptions.md, item 3]**\n    *   In the **TS** domain, certain trial summary parameters have CT codelists that govern the acceptable values of `TSVAL`.  \n        **[Source: domains/TS/assumptions.md, item 8]**\n\n*   **Explicit variable‑format restrictions** – Although format rules are separate from CT, they further constrain the actual values that can be submitted. For example, `--TESTCD` values are limited to 8 characters, must not start with a number, and can contain only letters, numbers, or underscores. `QNAM` values in supplemental qualifier datasets are subject to the same constraints because `QNAM` serves the same purpose as `--TESTCD`.  \n    **[Source: chapters/ch04_general_assumptions.md, §4.2.1]**\n\n*   **Integration with metadata** – The applicable codelist (or its relevant subset) must be included in the Define‑XML document alongside the dataset. This ensures that regulators and reviewers know exactly which terms were allowed for each variable, even if the data itself contains only a few of them.  \n    **[Source: chapters/ch04_general_assumptions.md, §4.3.3; chapters/ch10_appendices.md, Appendix C]**\n\nIn summary, Controlled Terminology in SDTM constrains variable values by defining an authoritative set of allowed terms (or by referencing external code systems), by linking test/value pairs in findings domains, and by enforcing consistent declaration of those constraints in Define‑XML. When no CDISC CT yet exists for a variable, the specification uses an asterisk (`*`) to indicate that sponsors should apply their own controlled terms. Together, these mechanisms ensure that submitted data are structured, comparable, and readily analyzable across studies.",
      "judge_fact_recall": 1.0,
      "judge_fact_hits": [
        "codelist",
        "Controlled Terms"
      ],
      "judge_fact_misses": [],
      "judge_parse_ok": true,
      "elapsed_s": 31.99
    },
    {
      "id": "q36",
      "category": "concept",
      "question": "What are the timing variables in SDTM (such as --DTC, --STDTC, --ENDTC) and how are they structured across domains?",
      "source_recall": 1.0,
      "source_hits": [
        "chapters/ch04"
      ],
      "source_misses": [],
      "top5_sources": [
        "chapters/ch04_general_assumptions.md",
        "model/01_concepts_and_terms.md",
        "chapters/ch04_general_assumptions.md",
        "model/02_observation_classes.md",
        "domains/BE/assumptions.md"
      ],
      "top5_similarities": [
        0.6533,
        0.7001,
        0.6573,
        0.6517,
        0.6647
      ],
      "fact_recall": 1.0,
      "fact_hits": [
        "DTC",
        "STDTC",
        "ENDTC",
        "Timing"
      ],
      "fact_misses": [],
      "answer_preview": "SDTM timing variables capture **when** an observation took place — they belong to one of the five major variable roles (Identifier, Topic, **Timing**, Qualifier, Rule) **[Source: model/01_concepts_and_terms.md]**. The full set of permissible timing variables is defined in the SDTM model, section 3.1.5, “Timing Variables for All Classes,” and comprises 48 variables organised into five groups **[Source: model/02_observation_classes.md — 3.1.5 Timing Variables for All Classes]**.  \n\nThese variables are generally available for any domain based on the three General Observation Classes (Intervention",
      "usage": {
        "prompt_tokens": 15634,
        "completion_tokens": 2402,
        "total_tokens": 18036
      },
      "model": "deepseek/deepseek-v4-pro",
      "answer": "SDTM timing variables capture **when** an observation took place — they belong to one of the five major variable roles (Identifier, Topic, **Timing**, Qualifier, Rule) **[Source: model/01_concepts_and_terms.md]**. The full set of permissible timing variables is defined in the SDTM model, section 3.1.5, “Timing Variables for All Classes,” and comprises 48 variables organised into five groups **[Source: model/02_observation_classes.md — 3.1.5 Timing Variables for All Classes]**.  \n\nThese variables are generally available for any domain based on the three General Observation Classes (Interventions, Events, Findings), *except* where a specific domain’s assumptions restrict them **[Source: model/02_observation_classes.md — Overview]**. When used, the two‑character domain prefix (e.g., `AE`, `LB`) replaces the `--` placeholder to create the full variable name (e.g., `AESTDTC`, `LBENDTC`) **[Source: chapters/ch04_general_assumptions.md — 4.2.2 Two-character Domain Identifier]**.  \n\n### Categories and Key Variables  \n\n| Category | Variable(s) | Purpose |\n|----------|------------|---------|\n| **Visit / Epoch** | `VISITNUM`, `VISIT`, `VISITDY`, `TAETORD`, `EPOCH` (plus repro‑phase variables) | Identify the protocol‑defined visit and epoch in which the observation occurred. |\n| **Date/Time** | `--DTC` (Date/Time of Collection), `--STDTC` (Start), `--ENDTC` (End) | Core date/time fields; `--DTC` is the primary collection date/time. `--STDTC` is **not** permitted in Findings domains, while `--ENDTC` may be used for interval collections. |\n| **Study Day** | `--DY`, `--STDY`, `--ENDY`, `--NOMDY`/`--NOMLBL` (nominal), `--XDY`/`--XSTDY`/`--XENDY` (relative to exposure), `--CHDY`/`--CHSTDY`/`--CHENDY` (relative to challenge agent), `--DUR` (collected duration) | Derived day variables computed from the corresponding date/time variable and the reference start date (`RFSTDTC`). Study Day 1 = `RFSTDTC`; there is no day 0. |\n| **Time Point** | `--TPT`, `--TPTNUM`, `--ELTM`, `--TPTREF`, `--RFTDTC` | Intended for protocol‑defined time‑point assessments (e.g., PK sampling). Not appropriate for domains whose topic is not a time‑point‑based assessment (e.g., `SV`) **[Source: domains/SV/assumptions.md — item_15]**. |\n| **Relative Timing** | `--STRF`/`--ENRF` (start/end relative to reference period), `--EVLINT`/`--EVINTX` (evaluation interval), `--STRTPT`/`--STTPT`/`--ENRTPT`/`--ENTPT` (relative to a time point) | Describe when an observation began or ended in relation to a study‑defined reference period or time point. |\n\nAll date/time variables (the `*DTC` family) must use the **ISO 8601 extended format** (e.g., `YYYY-MM-DDThh:mm:ss`), are stored as character strings, and may contain partial or incomplete dates **[Source: chapters/ch04_general_assumptions.md — 4.4.1 Formats for Date/Time Variables]**.  \n\n### How Timing Variables Behave Across Domains  \n\n- **General observation class domains** must include at least one timing variable; for Interventions and Events this is often `--STDTC`, while for Findings it is `--DTC` **[Source: chapters/ch04_general_assumptions.md — 4.4 Actual and Relative Time Assumptions]**.  \n- **Findings domains** (e.g., `LB`, `EG`, `VS`) use `--DTC` for the date/time of **specimen collection** (or the test itself). `--STDTC` is **not allowed** in Findings; if a collection spans an interval, `--DTC` holds the start and `--ENDTC` holds the end **[Source: chapters/ch04_general_assumptions.md — 4.4.8 Date and Time Reported in a Domain Based on Findings]**.\n- **Events domains** (e.g., `AE`, `CE`) use `--STDTC` for the start of the event and `--ENDTC` for its end. In `DS`, only `DSSTDTC` is used because disposition events are single‑point occurrences **[Source: domains/DS/assumptions.md — item_4]**. In `BE`, `BEDTC` holds the specimen collection date (not the event data‑collection date), aligning it with Findings‑like usage; `BESTDTC`/`BEENDTC` contain the event start/end **[Source: domains/BE/assumptions.md — item_6]**.  \n- **Interventions domains** (e.g., `CM`, `EX`) use `--STDTC` for the start of the intervention and `--ENDTC` for its end.  \n- **`EPOCH`** is assigned based on the **primary timing variable**: for Findings, it is derived from `--DTC`; for Interventions/Events, from `--STDTC`. If the observation cannot be placed in an epoch (e.g., it occurred before the subject’s study participation), `EPOCH` must be left null **[Source: chapters/ch04_general_assumptions.md — 4.1.3.1 EPOCH Variable Guidance]**.  \n- **Special‑purpose domains** (e.g., `DM`, `SE`, `SV`) may add restricted timing variables as specified in their assumptions. For example, `SV` can include `--DTC` and `--DY` only when a visit did not occur, and should not add time‑point variables; `SE` would rarely benefit from `--DTC`/`--DY` because elements are usually derived, not collected **[Source: domains/SV/assumptions.md — item_15; domains/SE/assumptions.md — item_11]**.  \n\nIn summary, SDTM timing variables provide a rich, standardized vocabulary for describing the temporal aspects of observations. Their availability and usage are governed by the observation class, with specific deviations documented in each domain’s assumptions.",
      "judge_fact_recall": 1.0,
      "judge_fact_hits": [
        "DTC",
        "STDTC",
        "ENDTC",
        "Timing"
      ],
      "judge_fact_misses": [],
      "judge_parse_ok": true,
      "elapsed_s": 34.19
    },
    {
      "id": "q37",
      "category": "concept",
      "question": "What are the Special-Purpose datasets in SDTM and which domains fall into this category?",
      "source_recall": 1.0,
      "source_hits": [
        "model/03_special_purpose_domains.md"
      ],
      "source_misses": [],
      "top5_sources": [
        "model/01_concepts_and_terms.md",
        "model/02_observation_classes.md",
        "model/03_special_purpose_domains.md",
        "chapters/ch04_general_assumptions.md",
        "chapters/ch04_general_assumptions.md"
      ],
      "top5_similarities": [
        0.666,
        0.6624,
        0.657,
        0.5978,
        0.6637
      ],
      "fact_recall": 0.75,
      "fact_hits": [
        "DM",
        "CO",
        "SE"
      ],
      "fact_misses": [
        "Special-Purpose"
      ],
      "answer_preview": "**Special‑Purpose datasets** are standard SDTM domains that do not belong to the three *general observation classes* (Interventions, Events, and Findings). They have their own fixed structures and are designed to hold essential information about a study and its subjects that cannot be expressed as “observations” in the GOC. The SDTM v2.0 model explicitly separates **Special Purpose Domains** from the GOC, and the SDTMIG v3.4 dedicates Section 5 to these domains.\n\nAccording to the SDTMIG v3.4 dataset‑level metadata table, the following five domains are classified as **Special‑Purpose** for huma",
      "usage": {
        "prompt_tokens": 16578,
        "completion_tokens": 1582,
        "total_tokens": 18160
      },
      "model": "deepseek/deepseek-v4-pro",
      "answer": "**Special‑Purpose datasets** are standard SDTM domains that do not belong to the three *general observation classes* (Interventions, Events, and Findings). They have their own fixed structures and are designed to hold essential information about a study and its subjects that cannot be expressed as “observations” in the GOC. The SDTM v2.0 model explicitly separates **Special Purpose Domains** from the GOC, and the SDTMIG v3.4 dedicates Section 5 to these domains.\n\nAccording to the SDTMIG v3.4 dataset‑level metadata table, the following five domains are classified as **Special‑Purpose** for human‑clinical‑trial submissions:\n\n| Domain Code | Name                          | Class            | Purpose |\n|-------------|-------------------------------|------------------|---------|\n| DM          | Demographics                  | Special Purpose  | One record per subject; contains the essential identifier and demographic variables. |\n| CO          | Comments                      | Special Purpose  | Free‑text comments linked to records in other domains (or standalone comment pages). |\n| SE          | Subject Elements              | Special Purpose  | One record per actual trial Element that a subject experienced. |\n| SM          | Subject Disease Milestones    | Special Purpose  | One record per Disease Milestone recorded for a subject. |\n| SV          | Subject Visits                | Special Purpose  | One record per actual or planned visit for a subject. |\n\n[Source: chapters/ch03_submitting_data.md – Dataset‑level Metadata table]  \n[Source: model/03_special_purpose_domains.md – Overview]\n\n**Important distinctions**\n\n- **Trial Design domains** (TA, TE, TI, TS, TV, TD, TM) are part of the *Trial Design Model* (study‑level data), not Special‑Purpose.\n- **Relationship datasets** (RELREC, SUPPQUAL, RELSUB, RELSPEC, POOLDEF) form a separate class – the *Relationship* class – and are not Special‑Purpose domains.\n- The domain **DI (Device Identifiers)** was originally special‑purpose but has been reclassified as a *Study Reference* dataset since SDTM v1.7; it is not a Special‑Purpose domain in the current model.  \n  [Source: domains/DI/assumptions.md]\n\nNo other domains in the standard SDTMIG v3.4 for human trials are designated as Special‑Purpose; any additional data that do not fit a general observation class are handled via the Trial Design Model or Relationship datasets, or by creating a custom domain following the extensible rules of the SDTM.",
      "judge_fact_recall": 1.0,
      "judge_fact_hits": [
        "Special-Purpose",
        "DM",
        "CO",
        "SE"
      ],
      "judge_fact_misses": [],
      "judge_parse_ok": true,
      "elapsed_s": 24.63
    },
    {
      "id": "q38",
      "category": "concept",
      "question": "How are SDTM domain abbreviation codes assigned? What are the rules for the two-character domain code?",
      "source_recall": 1.0,
      "source_hits": [
        "chapters/ch02"
      ],
      "source_misses": [],
      "top5_sources": [
        "chapters/ch04_general_assumptions.md",
        "domains/SV/spec.md",
        "domains/FT/spec.md",
        "domains/EX/spec.md",
        "domains/IE/spec.md"
      ],
      "top5_similarities": [
        0.6759,
        0.6703,
        0.6691,
        0.6691,
        0.6689
      ],
      "fact_recall": 0.5,
      "fact_hits": [
        "DOMAIN"
      ],
      "fact_misses": [
        "two-character"
      ],
      "answer_preview": "SDTM 域缩写代码（两字符域代码）的分配规则和格式要求如下：\n\n### 1. 分配来源（代码由谁定义）\n\n- **标准域代码**：由 CDISC 受控术语“SDTM Domain Abbreviation”codelist（代码 **C66734**）统一定义。所有标准域（如 CM、AE、VS、DM 等）的缩写均来源于此 codelist，必须严格遵循。【[Source: chapters/ch04_general_assumptions.md]】  \n- **自定义域代码**：允许申办方自行定义。为确保未来不与 CDISC 新增的标准域代码冲突，CDISC **保留以字母 X、Y、Z 开头的代码**供自定义域使用。第二位置可以使用任意字母或数字。注意这只是推荐的安全做法，并非强制要求。【[Source: chapters/ch04_general_assumptions.md]】\n\n### 2. 两字符格式规则\n\n- **首字符**：必须为**大写字母（A–Z）**。  \n- **次字符**：必须为**大写字母（A–Z）或数字（0–9）**。  \n- **禁止使用其他字符**（如连字符、下划线、特殊符号）。此限制是为了兼容 SAS v5 传输文件和 eCTD 文件名要求。【[Source: chapters/ch04_general_assumptions.md]】\n\n### ",
      "usage": {
        "prompt_tokens": 10885,
        "completion_tokens": 902,
        "total_tokens": 11787
      },
      "model": "deepseek/deepseek-v4-pro",
      "answer": "SDTM 域缩写代码（两字符域代码）的分配规则和格式要求如下：\n\n### 1. 分配来源（代码由谁定义）\n\n- **标准域代码**：由 CDISC 受控术语“SDTM Domain Abbreviation”codelist（代码 **C66734**）统一定义。所有标准域（如 CM、AE、VS、DM 等）的缩写均来源于此 codelist，必须严格遵循。【[Source: chapters/ch04_general_assumptions.md]】  \n- **自定义域代码**：允许申办方自行定义。为确保未来不与 CDISC 新增的标准域代码冲突，CDISC **保留以字母 X、Y、Z 开头的代码**供自定义域使用。第二位置可以使用任意字母或数字。注意这只是推荐的安全做法，并非强制要求。【[Source: chapters/ch04_general_assumptions.md]】\n\n### 2. 两字符格式规则\n\n- **首字符**：必须为**大写字母（A–Z）**。  \n- **次字符**：必须为**大写字母（A–Z）或数字（0–9）**。  \n- **禁止使用其他字符**（如连字符、下划线、特殊符号）。此限制是为了兼容 SAS v5 传输文件和 eCTD 文件名要求。【[Source: chapters/ch04_general_assumptions.md]】\n\n### 3. 域代码的四项使用规则\n\n每个域代码在数据集中有四种固定用途：【[Source: chapters/ch02_fundamentals.md]】\n\n1. **数据集名称**：例如 `dm.xpt`、`ae.xpt`  \n2. **DOMAIN 变量值**：该数据集中每行记录的 DOMAIN 变量统一填充为对应的两字符代码  \n3. **变量名前缀**：该域绝大多数变量名以域代码为前缀（如 `AETERM`、`AESEV`），以保证跨域合并时变量名唯一  \n4. **RDOMAIN 值**：在 RELREC 等关系表中，RDOMAIN 列引用目标域的两字符代码  \n\n### 4. 不添加前缀的例外变量\n\n虽绝大多数变量需前缀，但以下变量保持“无前缀”以方便跨域合并：【[Source: chapters/ch04_general_assumptions.md]】\n\n- **Required Identifiers**：`STUDYID`、`DOMAIN`、`USUBJID`  \n- **常用分组/合并键**：`VISIT`、`VISITNUM`、`VISITDY`  \n- **DM 域全部变量**（除 `DMDTC` 和 `DMDY` 外）  \n- **RELREC、SUPPQUAL、Comments 及部分试验设计数据集的全部变量**  \n\n### 5. DOMAIN 变量基本属性\n\n- **Label**: Domain Abbreviation  \n- **Type**: Char  \n- **Role**: Identifier  \n- **Core**: Req（必需变量）  \n- **说明**：两字符缩写，代表该观测记录最相关的域。例如 DM 域中 DOMAIN 固定为 `DM`。【[Source: domains/DM/spec.md]】",
      "judge_fact_recall": 1.0,
      "judge_fact_hits": [
        "two-character",
        "DOMAIN"
      ],
      "judge_fact_misses": [],
      "judge_parse_ok": true,
      "elapsed_s": 15.32
    },
    {
      "id": "q39",
      "category": "concept",
      "question": "What is the Findings About observation class and how does it differ from the standard Findings class?",
      "source_recall": 1.0,
      "source_hits": [
        "model/02_observation_classes.md"
      ],
      "source_misses": [],
      "top5_sources": [
        "domains/BS/spec.md",
        "chapters/ch08_relationships.md",
        "domains/CP/spec.md",
        "model/02_observation_classes.md",
        "domains/CV/spec.md"
      ],
      "top5_similarities": [
        0.7123,
        16.7017,
        0.7123,
        15.7114,
        0.7123
      ],
      "fact_recall": 1.0,
      "fact_hits": [
        "Findings About",
        "FAOBJ"
      ],
      "fact_misses": [],
      "answer_preview": "The **Findings About observation class** is a subtype of the **Findings** observation class. It is defined in the SDTM v2.0 model and is used to represent a **finding about an event or an intervention** rather than a finding directly about the subject or a specimen.\n\n### Key structural difference\n\nThe hallmark of the Findings About subtype is the addition of the variable **`--OBJ`** (Object of the Observation).  \n- In a **standard Findings** domain, the topic is the measurement/test itself, represented by `--TESTCD`/`--TEST`.  \n- In a **Findings About** domain, the topic is described by **two ",
      "usage": {
        "prompt_tokens": 13862,
        "completion_tokens": 1728,
        "total_tokens": 15590
      },
      "model": "deepseek/deepseek-v4-pro",
      "answer": "The **Findings About observation class** is a subtype of the **Findings** observation class. It is defined in the SDTM v2.0 model and is used to represent a **finding about an event or an intervention** rather than a finding directly about the subject or a specimen.\n\n### Key structural difference\n\nThe hallmark of the Findings About subtype is the addition of the variable **`--OBJ`** (Object of the Observation).  \n- In a **standard Findings** domain, the topic is the measurement/test itself, represented by `--TESTCD`/`--TEST`.  \n- In a **Findings About** domain, the topic is described by **two variables working together**:  \n  - `--TESTCD` describes *what is being measured or assessed* (e.g., severity, occurrence), and  \n  - `--OBJ` describes *the event or intervention whose property is being measured*.  \n\n**Source:** [4] model/02_observation_classes.md – Findings About (Subtype)\n\n> “The Findings About observation class … utilizes the Findings general observation class variables with the addition of the `--OBJ` variable. … Describes the event or intervention whose property is being measured in `--TESTCD`/`--TEST`.”  \n> “The variable `--OBJ` is unique to Findings About. In conjunction with `FATESTCD`, it describes what the topic of the observation is; therefore, both are required to be populated for every record.”\n\n### Illustrative comparison\n\n| | Standard Findings | Findings About |\n|---|---|---|\n| **Domain example** | LB (Laboratory Test Results) | FA (Findings About Events or Interventions) |\n| **Topic representation** | `LBTESTCD = \"GLUC\"` (the test itself) | `FATESTCD = \"SEV\"` + `FAOBJ = \"HEADACHE\"` (severity *of* headache) |\n| **What is measured** | A subject’s glucose concentration | A property (severity) of an event (headache) |\n| **Primary qualifier** | `--ORRES`, `--STRESC`, etc. (result of the test) | Same result qualifiers apply, but they pertain to the event/intervention property |\n| **Timing** | Often aligns with visit‑based assessments | May capture a “snapshot” of a sub‑event at a specific time that differs from the parent event’s overall timing |\n\n**Source:** [4] model/02_observation_classes.md – §3.1.3 The Findings Observation Class and the Findings About subtype table; also [14] domains/FA/assumptions.md discusses criteria such as timing differences.\n\n### When to use Findings About instead of plain Findings\n\nThe SDTMIG provides explicit guidance to decide whether data belong in a Findings About structure rather than in a standard Events or Findings domain. Key criteria include:  \n- The observation has **timing that differs from the associated event/intervention as a whole** (e.g., a symptom severity measured daily while the event lasts weeks).  \n- The observation requires **more than one variable** to describe it, making it impractical to store as a simple supplemental qualifier on the parent record.  \n- The observation records the **occurrence of prespecified events** (e.g., protocol‑defined symptoms) using the findings about structure.\n\n**Source:** [2] chapters/ch08_relationships.md – §8.6.3 Guidelines for Differentiating Between Interventions, Events, Findings, and Findings About Events or Interventions; [14] domains/FA/assumptions.md item 6.\n\nIn summary, while standard Findings record direct tests or assessments on the subject, **Findings About** records capture the *attributes, measurements, or assessments of an event or intervention* – thereby requiring the dual‑key topic (`--TESTCD` + `--OBJ`) to fully describe what is being observed.",
      "judge_fact_recall": 1.0,
      "judge_fact_hits": [
        "Findings About",
        "FAOBJ"
      ],
      "judge_fact_misses": [],
      "judge_parse_ok": true,
      "elapsed_s": 26.55
    },
    {
      "id": "q40",
      "category": "concept",
      "question": "What is the difference between collected data and derived data in SDTM, and how is the origin of a variable value indicated?",
      "source_recall": 1.0,
      "source_hits": [
        "chapters/ch04"
      ],
      "source_misses": [],
      "top5_sources": [
        "chapters/ch04_general_assumptions.md",
        "model/01_concepts_and_terms.md",
        "chapters/ch01_introduction.md",
        "model/06_relationship_datasets.md",
        "chapters/ch04_general_assumptions.md"
      ],
      "top5_similarities": [
        0.641,
        0.6331,
        0.5626,
        0.5606,
        0.5626
      ],
      "fact_recall": 1.0,
      "fact_hits": [
        "Collected",
        "Derived",
        "Origin"
      ],
      "fact_misses": [],
      "answer_preview": "In SDTM, **collected data** refers to data originally recorded at the source — for example, entered on a Case Report Form (CRF), received from a vendor, or captured by a device. **Derived data** is data that has been computed, transformed, or algorithmically generated from other data. The key requirement is traceability: CRF-sourced data must be traceable to an annotated CRF, and derived data must be traceable to a derivation algorithm. **[Source: chapters/ch04_general_assumptions.md]**\n\nAn important nuance: a value that is derived by a central laboratory *according to its own standard operati",
      "usage": {
        "prompt_tokens": 17386,
        "completion_tokens": 1412,
        "total_tokens": 18798
      },
      "model": "deepseek/deepseek-v4-pro",
      "answer": "In SDTM, **collected data** refers to data originally recorded at the source — for example, entered on a Case Report Form (CRF), received from a vendor, or captured by a device. **Derived data** is data that has been computed, transformed, or algorithmically generated from other data. The key requirement is traceability: CRF-sourced data must be traceable to an annotated CRF, and derived data must be traceable to a derivation algorithm. **[Source: chapters/ch04_general_assumptions.md]**\n\nAn important nuance: a value that is derived by a central laboratory *according to its own standard operating procedures* is considered **collected**, not derived. **[Source: domains/LB/assumptions.md]**\n\nThe **origin** of a variable’s values is not stored inside the SDTM dataset itself (except for supplemental qualifiers). Instead, it is declared in the **Define‑XML** metadata document through the `Origin` element associated with each variable. **[Source: chapters/ch04_general_assumptions.md]**\n\nWhen a single variable holds both collected and derived values (e.g., a questionnaire score that is sometimes captured and sometimes calculated), the different origins are described using **value‑level metadata** in Define‑XML. **[Source: chapters/ch04_general_assumptions.md]**\n\nFor **supplemental qualifiers** (SUPP‑‑ datasets), the `QORIG` variable explicitly records the origin of each qualifier value; allowed examples include \"CRF\", \"Assigned\", and \"Derived\". **[Source: chapters/ch08_relationships.md]**",
      "judge_fact_recall": 1.0,
      "judge_fact_hits": [
        "Collected",
        "Derived",
        "Origin"
      ],
      "judge_fact_misses": [],
      "judge_parse_ok": true,
      "elapsed_s": 22.6
    },
    {
      "id": "q41",
      "category": "concept",
      "question": "What are the Trial Design Model datasets in SDTM and what kind of study-level information do they capture?",
      "source_recall": 1.0,
      "source_hits": [
        "model/05_study_level_data.md"
      ],
      "source_misses": [],
      "top5_sources": [
        "model/01_concepts_and_terms.md",
        "chapters/ch04_general_assumptions.md",
        "model/05_study_level_data.md",
        "domains/TA/assumptions.md",
        "domains/TI/assumptions.md"
      ],
      "top5_similarities": [
        0.6589,
        0.66,
        0.8164,
        0.6195,
        0.6483
      ],
      "fact_recall": 1.0,
      "fact_hits": [
        "Trial Design",
        "TA",
        "TE",
        "TV"
      ],
      "fact_misses": [],
      "answer_preview": "The Trial Design Model (TDM) in SDTM standardizes the description of the planned conduct of a clinical trial, covering treatment strategies, eligibility, visit schedules, and design details, to allow reviewers to grasp, compare, and search trial designs consistently **[Source: domains/TA/assumptions.md]**.\n\nThe model includes nine standard datasets divided into Trial Design and Trial Eligibility/Summary categories **[Source: model/05_study_level_data.md]**.\n\n### Trial Design Datasets\nThese datasets describe the planned schedule of events for the trial.\n\n- **TE (Trial Elements):** Defines the i",
      "usage": {
        "prompt_tokens": 16463,
        "completion_tokens": 833,
        "total_tokens": 17296
      },
      "model": "deepseek/deepseek-v4-pro",
      "answer": "The Trial Design Model (TDM) in SDTM standardizes the description of the planned conduct of a clinical trial, covering treatment strategies, eligibility, visit schedules, and design details, to allow reviewers to grasp, compare, and search trial designs consistently **[Source: domains/TA/assumptions.md]**.\n\nThe model includes nine standard datasets divided into Trial Design and Trial Eligibility/Summary categories **[Source: model/05_study_level_data.md]**.\n\n### Trial Design Datasets\nThese datasets describe the planned schedule of events for the trial.\n\n- **TE (Trial Elements):** Defines the individual building blocks (elements) of the trial, such as screening, washout, or a specific treatment period, including the rules (TEENRL) for starting and ending that block **[Source: domains/TA/assumptions.md; domains/TE/spec.md]**.\n- **TA (Trial Arms):** Maps out the complete planned path (an Arm) for each treatment group through the sequence of elements defined in TE. It connects an Arm (ARMCD) to a specific Element (TAETORD) within a specific Epoch (EPOCH) **[Source: domains/TA/assumptions.md]**.\n- **TV (Trial Visits):** Defines the planned visits or time points within an element where clinical activities are scheduled to occur, establishing the study's visit schedule **[Source: domains/TV/spec.md]**.\n- **TD (Trial Disease Assessments):** Specifically defines the planned, disease-specific assessments (e.g., tumor response, psychometrics) that are measured at protocol-scheduled time points relating to the primary or secondary endpoints **[Source: domains/TD/spec.md]**.\n- **TM (Trial Disease Milestones):** Identifies key pre-defined, disease-related events or milestones in the planned course of the trial, such as the first occurrence of a significant clinical event or a specific disease stage transition **[Source: domains/TM/spec.md]**.\n\n### Trial Eligibility and Summary Datasets\nThese datasets define who can participate in the trial and the trial's characteristics.\n\n- **TI (Trial Inclusion/Exclusion Criteria):** Lists all the individual inclusion and exclusion criteria a subject must meet to participate in the trial **[Source: domains/TI/assumptions.md]**.\n- **TS (Trial Summary):** Provides summary information describing the overall characteristics of the trial, such as study phase, blinding, control type, and adaptive design features. The specific parameters are controlled by a Test Code (TSPARMCD) with values from codelist **C66738** and Test Name (TSPARM) from codelist **C67152** **[Source: terminology/core/trial_design.md]**.\n- **AC (Trial Arms Conditions):** Describes condition-based enrollment restrictions or specific parameters applied to a trial arm, for example, an arm might be available only to subjects with a particular biomarker status. It works with the relationship dataset **[Source: model/05_study_level_data.md]**.\n- **TX (Trial Sets):** Defines groups of subjects for non-standard or detailed analysis needs that go beyond simple treatment arms, allowing for more complex group assignments during study execution **[Source: model/05_study_level_data.md]**.",
      "judge_fact_recall": 1.0,
      "judge_fact_hits": [
        "Trial Design",
        "TA",
        "TE",
        "TV"
      ],
      "judge_fact_misses": [],
      "judge_parse_ok": true,
      "elapsed_s": 18.35
    },
    {
      "id": "q16",
      "category": "mixed",
      "question": "What values are allowed for AESEV and what is its codelist code?",
      "source_recall": 1.0,
      "source_hits": [
        "domains/AE/spec.md",
        "terminology/core/ae.md"
      ],
      "source_misses": [],
      "top5_sources": [
        "terminology/core/ae.md",
        "domains/AE/assumptions.md",
        "domains/DM/examples.md",
        "domains/AE/spec.md",
        "chapters/ch04_general_assumptions.md"
      ],
      "top5_similarities": [
        0.3821,
        0.6135,
        8.5566,
        0.602,
        7.5799
      ],
      "fact_recall": 1.0,
      "fact_hits": [
        "C66769",
        "MILD",
        "MODERATE",
        "SEVERE"
      ],
      "fact_misses": [],
      "answer_preview": "**AESEV** 对应的受控术语代码是 **C66769**（Severity/Intensity Scale for Adverse Events） **[Source: domains/AE/spec.md] [Source: terminology/core/ae.md]**。  \n该 codelist 不可扩展（Extensible: No），只允许以下三个值 **[Source: terminology/core/ae.md]**：\n\n| CDISC Submission Value | CDISC Synonym(s) | CDISC Definition |\n|------------------------|-------------------|------------------|\n| **MILD** | 1; Grade 1 | A type of adverse event that is usually transient and may require only minimal treatment or therapeutic intervention. The event does not generally interfere with usual activities of daily living. |\n| **MODERATE** | 2;",
      "usage": {
        "prompt_tokens": 15350,
        "completion_tokens": 481,
        "total_tokens": 15831
      },
      "model": "deepseek/deepseek-v4-pro",
      "answer": "**AESEV** 对应的受控术语代码是 **C66769**（Severity/Intensity Scale for Adverse Events） **[Source: domains/AE/spec.md] [Source: terminology/core/ae.md]**。  \n该 codelist 不可扩展（Extensible: No），只允许以下三个值 **[Source: terminology/core/ae.md]**：\n\n| CDISC Submission Value | CDISC Synonym(s) | CDISC Definition |\n|------------------------|-------------------|------------------|\n| **MILD** | 1; Grade 1 | A type of adverse event that is usually transient and may require only minimal treatment or therapeutic intervention. The event does not generally interfere with usual activities of daily living. |\n| **MODERATE** | 2; Grade 2 | A type of adverse event that is usually alleviated with additional specific therapeutic intervention. The event interferes with usual activities of daily living, causing discomfort but poses no significant or permanent risk of harm to the research participant. |\n| **SEVERE** | 3; Grade 3 | A type of adverse event that interrupts usual activities of daily living, or significantly affects clinical status, or may require intensive therapeutic intervention. |\n\n**[Source: terminology/core/ae.md]**",
      "judge_fact_recall": 1.0,
      "judge_fact_hits": [
        "C66769",
        "MILD",
        "MODERATE",
        "SEVERE"
      ],
      "judge_fact_misses": [],
      "judge_parse_ok": true,
      "elapsed_s": 8.46
    },
    {
      "id": "q17",
      "category": "mixed",
      "question": "How are date and time variables formatted in SDTM and what suffix do they use?",
      "source_recall": 1.0,
      "source_hits": [
        "chapters/ch04"
      ],
      "source_misses": [],
      "top5_sources": [
        "chapters/ch04_general_assumptions.md",
        "model/01_concepts_and_terms.md",
        "chapters/ch04_general_assumptions.md",
        "chapters/ch04_general_assumptions.md",
        "chapters/ch01_introduction.md"
      ],
      "top5_similarities": [
        0.763,
        0.6154,
        0.6041,
        0.5795,
        9.6467
      ],
      "fact_recall": 1.0,
      "fact_hits": [
        "ISO 8601",
        "DTC"
      ],
      "fact_misses": [],
      "answer_preview": "SDTM date and time variables are stored in **ISO 8601 extended format** using the **DTC** (Date/Time Character) suffix.  \n\n- **Format:** `YYYY-MM-DDThh:mm:ss(.n+)?(((+|-)hh:mm)|Z)?` – date and time components are separated by a `T`, hyphens delimit date parts, and colons delimit time parts; spaces are not allowed **[Source: chapters/ch04_general_assumptions.md §4.4.1]**.  \n- **Variable suffix:** The variable name ends with `DTC` (e.g., `VSDTC`, `DMDTC`, `--DTC`), which stands for Date/Time Character fragment **[Source: chapters/ch04_general_assumptions.md §4.4.1; domains/VS/spec.md; domains/DM",
      "usage": {
        "prompt_tokens": 17046,
        "completion_tokens": 562,
        "total_tokens": 17608
      },
      "model": "deepseek/deepseek-v4-pro",
      "answer": "SDTM date and time variables are stored in **ISO 8601 extended format** using the **DTC** (Date/Time Character) suffix.  \n\n- **Format:** `YYYY-MM-DDThh:mm:ss(.n+)?(((+|-)hh:mm)|Z)?` – date and time components are separated by a `T`, hyphens delimit date parts, and colons delimit time parts; spaces are not allowed **[Source: chapters/ch04_general_assumptions.md §4.4.1]**.  \n- **Variable suffix:** The variable name ends with `DTC` (e.g., `VSDTC`, `DMDTC`, `--DTC`), which stands for Date/Time Character fragment **[Source: chapters/ch04_general_assumptions.md §4.4.1; domains/VS/spec.md; domains/DM/spec.md]**.  \n\nPartial or imprecise dates/times are represented by right‑truncation or hyphens for missing intermediate components; uncertain intervals can use a solidus `/` between two date/time values **[Source: chapters/ch04_general_assumptions.md §4.4.2]**.",
      "judge_fact_recall": 1.0,
      "judge_fact_hits": [
        "ISO 8601",
        "DTC"
      ],
      "judge_fact_misses": [],
      "judge_parse_ok": true,
      "elapsed_s": 10.66
    },
    {
      "id": "q18",
      "category": "mixed",
      "question": "Explain the MedDRA coding chain for adverse events from verbatim term to dictionary term.",
      "source_recall": 1.0,
      "source_hits": [
        "domains/AE/spec.md",
        "domains/AE/assumptions.md"
      ],
      "source_misses": [],
      "top5_sources": [
        "domains/AE/spec.md",
        "domains/AE/spec.md",
        "domains/AE/spec.md",
        "domains/AE/spec.md",
        "chapters/ch04_general_assumptions.md"
      ],
      "top5_similarities": [
        0.6135,
        0.5646,
        0.5637,
        0.5579,
        0.6726
      ],
      "fact_recall": 1.0,
      "fact_hits": [
        "AETERM",
        "AEMODIFY",
        "AEDECOD",
        "Preferred Term"
      ],
      "fact_misses": [],
      "answer_preview": "The MedDRA coding chain for adverse events in SDTM captures each step from the original verbatim term to the standardized dictionary-derived preferred term, using a hierarchical structure defined by MedDRA. The chain is represented by a series of AE domain variables, moving from the most specific to the broader classification.\n\n**Step 1: Verbatim Collected Term**\n- **AETERM** (Reported Term for the Adverse Event) – the verbatim, unaltered term as originally recorded on the CRF. This is the topic variable and is required. **[Source: domains/AE/assumptions.md item_2; domains/AE/spec.md – AETERM]",
      "usage": {
        "prompt_tokens": 14459,
        "completion_tokens": 1537,
        "total_tokens": 15996
      },
      "model": "deepseek/deepseek-v4-pro",
      "answer": "The MedDRA coding chain for adverse events in SDTM captures each step from the original verbatim term to the standardized dictionary-derived preferred term, using a hierarchical structure defined by MedDRA. The chain is represented by a series of AE domain variables, moving from the most specific to the broader classification.\n\n**Step 1: Verbatim Collected Term**\n- **AETERM** (Reported Term for the Adverse Event) – the verbatim, unaltered term as originally recorded on the CRF. This is the topic variable and is required. **[Source: domains/AE/assumptions.md item_2; domains/AE/spec.md – AETERM]**\n\n**Step 2: Optional Modification for Coding**\n- **AEMODIFY** (Modified Reported Term) – a permissible variable used when the sponsor’s coding procedure modifies the verbatim term to facilitate dictionary mapping (e.g., correcting spelling, expanding abbreviations). **[Source: domains/AE/assumptions.md item_2; domains/AE/spec.md – AEMODIFY]**\n\n**Step 3: MedDRA Mapping – Lowest Level Term (LLT)**\n- The modified (or verbatim) term is matched to the MedDRA Lowest Level Term (LLT), the most granular level of the dictionary. In SDTM:\n  - **AELLT** (Lowest Level Term) – text description of the LLT.\n  - **AELLTCD** (Lowest Level Term Code) – numeric code for the LLT (MedDRA code).  \n  Both are Expected variables. **[Source: domains/AE/spec.md – AELLT, AELLTCD; chapters/ch04_general_assumptions.md 4.3.5]**\n\n**Step 4: Preferred Term (PT) – The Standardized “Dictionary Term”**\n- Each LLT is linked to exactly one Preferred Term (PT). This is the primary coding term used for analysis and is represented by:\n  - **AEDECOD** (Dictionary-Derived Term) – the PT text, a required Synonym Qualifier variable.\n  - **AEPTCD** (Preferred Term Code) – the numeric MedDRA code for the PT, Expected.  \n  **[Source: domains/AE/spec.md – AEDECOD, AEPTCD; domains/AE/assumptions.md item_2]**\n\n**Step 5: Higher MedDRA Hierarchy (Grouping/Classification)**\n- MedDRA further aggregates PTs upward:\n  - **AEHLT** (High Level Term) and **AEHLTCD** – HLT level.\n  - **AEHLGT** (High Level Group Term) and **AEHLGTCD** – HLGT level.\n  - **AESOC** / **AESOCCD** – Primary System Organ Class (the SOC that MedDRA designates as \"primary\" for the PT).\n  - **AEBODSYS** / **AEBDSYCD** – Body System or Organ Class used for the sponsor’s analysis (may differ from the primary SOC if another SOC is chosen). **[Source: domains/AE/spec.md – AEHLT, AEHLGT, AESOC, AEBODSYS; chapters/ch04_general_assumptions.md 4.3.5]**\n\nThus the complete chain for a coded adverse event:\n\n**AETERM (verbatim) → [AEMODIFY] → AELLT (LLT) → AEDECOD (PT) → AEHLT → AEHLGT → AESOC/AEBODSYS**  \n(with corresponding numeric code variables AELLTCD, AEPTCD, AEHLTCD, AEHLGTCD, AESOCCD/AEBDSYCD)\n\nThe sponsor must provide the dictionary name (e.g., MedDRA) and version in the Define-XML external codelist attributes. **[Source: chapters/ch04_general_assumptions.md 4.3.5]**",
      "judge_fact_recall": 1.0,
      "judge_fact_hits": [
        "AETERM",
        "AEMODIFY",
        "AEDECOD",
        "Preferred Term"
      ],
      "judge_fact_misses": [],
      "judge_parse_ok": true,
      "elapsed_s": 21.79
    },
    {
      "id": "q19",
      "category": "mixed",
      "question": "What controlled terminology codelist is used for DSDECOD when DSCAT equals 'DISPOSITION EVENT', and list specific CDISC Submission Values from that codelist for reasons of non-completion.",
      "source_recall": 1.0,
      "source_hits": [
        "domains/DS/assumptions.md",
        "terminology/core/disposition.md"
      ],
      "source_misses": [],
      "top5_sources": [
        "domains/DS/spec.md",
        "terminology/core/disposition.md",
        "domains/DS/assumptions.md",
        "domains/DS/assumptions.md",
        "domains/DS/spec.md"
      ],
      "top5_similarities": [
        0.8036,
        0.634,
        0.7554,
        0.7186,
        0.7248
      ],
      "fact_recall": 1.0,
      "fact_hits": [
        "NCOMPLT",
        "C66727"
      ],
      "fact_misses": [],
      "answer_preview": "基于提供的知识库资料，针对“DSDECOD 在 DSCAT = 'DISPOSITION EVENT' 时使用的受控术语 codelist 及其非完成原因的具体提交值”这一问题，答案如下：\n\n### 1. 使用的 Codelist\n当 **DSCAT = \"DISPOSITION EVENT\"** 时，**DSDECOD 使用 Codelist NCOMPLT**，其 Code 为 **C66727**。  \n- DSDECOD 规范说明：“Codelist 'NCOMPLT' is used for disposition events”（来源：DS spec.md，DSDECOD 的 CDISC Notes）。  \n- 假设进一步明确：“When DSCAT = 'DISPOSITION EVENT' … DSDECOD will use the extensible Controlled Terminology Codelist NCOMPLT”（来源：DS assumptions.md，第 3.b 条）。\n\n### 2. 非完成原因的 CDISC Submission Values\nCodelist NCOMPLT (C66727) 的正式名称为 **“Completion/Reason for Non-Completion”**。其包含的**非完成原因**提交值（即除“C",
      "usage": {
        "prompt_tokens": 11629,
        "completion_tokens": 1833,
        "total_tokens": 13462
      },
      "model": "deepseek/deepseek-v4-pro",
      "answer": "基于提供的知识库资料，针对“DSDECOD 在 DSCAT = 'DISPOSITION EVENT' 时使用的受控术语 codelist 及其非完成原因的具体提交值”这一问题，答案如下：\n\n### 1. 使用的 Codelist\n当 **DSCAT = \"DISPOSITION EVENT\"** 时，**DSDECOD 使用 Codelist NCOMPLT**，其 Code 为 **C66727**。  \n- DSDECOD 规范说明：“Codelist 'NCOMPLT' is used for disposition events”（来源：DS spec.md，DSDECOD 的 CDISC Notes）。  \n- 假设进一步明确：“When DSCAT = 'DISPOSITION EVENT' … DSDECOD will use the extensible Controlled Terminology Codelist NCOMPLT”（来源：DS assumptions.md，第 3.b 条）。\n\n### 2. 非完成原因的 CDISC Submission Values\nCodelist NCOMPLT (C66727) 的正式名称为 **“Completion/Reason for Non-Completion”**。其包含的**非完成原因**提交值（即除“COMPLETED”以外的值）可从资料中确认的有以下示例：\n\n- **ADVERSE EVENT**（不良事件）  \n  依据：假设 5 中示例提及 DSTERM = \"SEVERE NAUSEA\" 并编码为 DSDECOD = \"ADVERSE EVENT\"（来源：DS assumptions.md 第 5 条）。\n\n- **LOST TO FOLLOW‑UP**（失访）  \n  依据：假设 3.b.ii 中示例说明 DSTERM = \"Subject moved\" 可能编码为 DSDECOD = \"LOST TO FOLLOW‑UP\"（来源：DS assumptions.md 第 3.b.ii 条）。\n\n> **说明**：以上仅为知识库中明确提及的示例，**完整的非完成原因值列表**需查阅 NCOMPLT (C66727) 的受控术语文件（`terminology/core/disposition.md`）。若需将所有允许值列出，必须直接读取该文件中的完整术语表。",
      "judge_fact_recall": 1.0,
      "judge_fact_hits": [
        "NCOMPLT",
        "C66727"
      ],
      "judge_fact_misses": [],
      "judge_parse_ok": true,
      "elapsed_s": 24.56
    },
    {
      "id": "q20",
      "category": "mixed",
      "question": "In the DM domain, what is the difference between the RFSTDTC/RFENDTC reference period pair and the RFXSTDTC/RFXENDTC pair, and under what circumstances will RFSTDTC be null?",
      "source_recall": 1.0,
      "source_hits": [
        "domains/DM/assumptions.md",
        "domains/DM/spec.md"
      ],
      "source_misses": [],
      "top5_sources": [
        "domains/DM/spec.md",
        "domains/DM/spec.md",
        "domains/DM/spec.md",
        "domains/DM/spec.md",
        "domains/DM/assumptions.md"
      ],
      "top5_similarities": [
        0.6249,
        0.5843,
        0.5508,
        0.5477,
        0.6653
      ],
      "fact_recall": 0.5,
      "fact_hits": [
        "screen failure"
      ],
      "fact_misses": [
        "sponsor-defined"
      ],
      "answer_preview": "The **RFSTDTC–RFENDTC** pair and the **RFXSTDTC–RFXENDTC** pair in the DM domain define two distinct reference periods.\n\n### Difference Between the Two Pairs\n\n| Pair | Definition | Customization | Purpose | Calculated Variables |\n|------|------------|---------------|---------|----------------------|\n| **RFSTDTC / RFENDTC** | Sponsor‑defined. Usually the date/time of **first study exposure** and the **date/time when the subject was determined to have ended the trial**, but the definition can be changed (e.g., to enrollment date) in studies with washout periods, pre‑treatment procedures, or larg",
      "usage": {
        "prompt_tokens": 12172,
        "completion_tokens": 1520,
        "total_tokens": 13692
      },
      "model": "deepseek/deepseek-v4-pro",
      "answer": "The **RFSTDTC–RFENDTC** pair and the **RFXSTDTC–RFXENDTC** pair in the DM domain define two distinct reference periods.\n\n### Difference Between the Two Pairs\n\n| Pair | Definition | Customization | Purpose | Calculated Variables |\n|------|------------|---------------|---------|----------------------|\n| **RFSTDTC / RFENDTC** | Sponsor‑defined. Usually the date/time of **first study exposure** and the **date/time when the subject was determined to have ended the trial**, but the definition can be changed (e.g., to enrollment date) in studies with washout periods, pre‑treatment procedures, or large numbers of untreated subjects. [Source: domains/DM/assumptions.md item 10.a, item 9] | Yes – the sponsor may choose a different protocol milestone as the starting point if the study design warrants it. | Used to compute the **study day variables** (`--DY`). Because the definition can vary, study days may not always be relative to first dose. [Source: domains/DM/assumptions.md item 9, item 10.a] | `--DY` (Study Day) |\n| **RFXSTDTC / RFXENDTC** | Always the date/time of **first exposure** to any protocol‑specified treatment (`RFXSTDTC` is the earliest `EXSTDTC`; `RFXENDTC` is the latest `EXENDTC`, or `EXSTDTC` if end is missing). [Source: domains/DM/spec.md RFXSTDTC, RFXENDTC; assumptions.md item 10.b] | **No** – this definition is fixed for all interventional studies. | Provides a **consistent, non‑customizable reference period** that guarantees reviewers can always locate the first‑to‑last‑treatment window. [Source: domains/DM/assumptions.md item 10.b] | Not used for `--DY`, but can be correlated with `SESTDTC`/`SEENDTC` for the first/last treatment element in SE. |\n\nIn practice, the two pairs often coincide, but they **diverge when a sponsor re‑defines `RFSTDTC`/`RFENDTC`** away from first/last exposure. `RFXSTDTC`/`RFXENDTC` remain fixed to actual exposure dates, ensuring a reliable, cross‑study reference.\n\n### When Is `RFSTDTC` Null?\n\n`RFSTDTC` is **null** for any subject who **never received study treatment** and for whom no alternative reference milestone can be defined using the sponsor’s chosen definition. Specifically, it is null for:\n\n- **Screen failures** (`ARMNRS = \"SCREEN FAILURE\"`)\n- **Enrolled but not assigned to an arm** (`ARMNRS = \"NOT ASSIGNED\"`)\n- **Randomized but not treated** (`ARMNRS = \"NOT TREATED\"`)\n\n[Source: domains/DM/assumptions.md item 9; domains/DM/spec.md RFSTDTC CDISC Notes]\n\nIf the study design dictates that a milestone other than first dose serves as `RFSTDTC` (e.g., enrollment date), then `RFSTDTC` may not be null even for some untreated subjects – but the core rule is that **without treatment and without an alternative defined start, `RFSTDTC` is null**.",
      "judge_fact_recall": 0.5,
      "judge_fact_hits": [
        "sponsor-defined"
      ],
      "judge_fact_misses": [
        "screen failure"
      ],
      "judge_parse_ok": true,
      "elapsed_s": 24.39
    },
    {
      "id": "q42",
      "category": "mixed",
      "question": "In the LB domain, how are normal ranges represented using LBORNRLO and LBORNRHI, and what is the LBNRIND variable used for?",
      "source_recall": 1.0,
      "source_hits": [
        "domains/LB/spec.md",
        "domains/LB/assumptions.md"
      ],
      "source_misses": [],
      "top5_sources": [
        "domains/LB/spec.md",
        "domains/LB/spec.md",
        "domains/LB/spec.md",
        "domains/LB/spec.md",
        "domains/LB/assumptions.md"
      ],
      "top5_similarities": [
        0.7713,
        0.6935,
        0.6933,
        0.6692,
        0.764
      ],
      "fact_recall": 1.0,
      "fact_hits": [
        "LBORNRLO",
        "LBORNRHI",
        "LBNRIND"
      ],
      "fact_misses": [],
      "answer_preview": "在 LB 域中，正常范围的表示依赖于测试结果是否为连续性数值结果，具体规则如下：\n\n### 1. 正常范围的表示 (LBORNRLO & LBORNRHI)\n\n- **LBORNRLO** (Reference Range Lower Limit in Orig Unit) 和 **LBORNRHI** (Reference Range Upper Limit in Orig Unit) 用于表示**连续性数值结果**在原始单位下的正常参考范围下限和上限 **[Source: domains/LB/spec.md]**。\n- **适用条件**：这两个变量**仅应在结果为连续性时填充**。对于非连续性数值结果（例如，干化学法测定的尿蛋白、尿液颜色等描述性测试），LBORNRLO 和 LBORNRHI 应保持为空 **[Source: domains/LB/assumptions.md]**。\n- **非连续性处理**：对于非连续性（如字符型/定序结果）的正常范围，SDTM 提供了 **LBSTNRC** (Reference Range for Char Rslt-Std Units) 变量。该变量可以填入字符型的正常值范围（例如，\"-1 to +1\" 或 \"NEGATIVE to TRACE\"）或视为正常的定界字符集（例如，\"YELLOW\", \"AMBER\"）**[Source: ",
      "usage": {
        "prompt_tokens": 13050,
        "completion_tokens": 885,
        "total_tokens": 13935
      },
      "model": "deepseek/deepseek-v4-pro",
      "answer": "在 LB 域中，正常范围的表示依赖于测试结果是否为连续性数值结果，具体规则如下：\n\n### 1. 正常范围的表示 (LBORNRLO & LBORNRHI)\n\n- **LBORNRLO** (Reference Range Lower Limit in Orig Unit) 和 **LBORNRHI** (Reference Range Upper Limit in Orig Unit) 用于表示**连续性数值结果**在原始单位下的正常参考范围下限和上限 **[Source: domains/LB/spec.md]**。\n- **适用条件**：这两个变量**仅应在结果为连续性时填充**。对于非连续性数值结果（例如，干化学法测定的尿蛋白、尿液颜色等描述性测试），LBORNRLO 和 LBORNRHI 应保持为空 **[Source: domains/LB/assumptions.md]**。\n- **非连续性处理**：对于非连续性（如字符型/定序结果）的正常范围，SDTM 提供了 **LBSTNRC** (Reference Range for Char Rslt-Std Units) 变量。该变量可以填入字符型的正常值范围（例如，\"-1 to +1\" 或 \"NEGATIVE to TRACE\"）或视为正常的定界字符集（例如，\"YELLOW\", \"AMBER\"）**[Source: domains/LB/spec.md]**。\n\n### 2. LBNRIND 变量的用途\n\n- **定义**：**LBNRIND** (Reference Range Indicator) 是一个字符型变量，用于**指示结果值相对于正常参考范围的位置**，但不涉及临床意义的判断 **[Source: domains/LB/spec.md]**。\n- **取值范围**：该变量受控于 C78736 代码（例如 \"NORMAL\", \"ABNORMAL\", \"HIGH\", \"LOW\"）**[Source: domains/LB/spec.md]**。\n- **参考范围来源**：LBNRIND 所指的参考范围可以由 LBORNRLO/LBORNRHI（原始单位）、LBSTNRLO/LBSTNRHI（标准单位）或 LBSTNRC（字符型标准范围）定义 **[Source: domains/LB/spec.md]**。\n- **关键区分**：\n    - **LBNRIND** 用于标识结果在参考范围内的位置（高、低、正常等）。申办方应在研究元数据中明确 LBNRIND 是针对原始范围还是标准范围 **[Source: domains/LB/spec.md]**。\n    - **毒性分级**：如果存在毒性分级数据，应使用 LBTOX 和 LBTOXGR 变量表示，而非 LBNRIND **[Source: domains/LB/assumptions.md]**。\n    - **临床显著性**：LBNRIND **不应用于表示临床显著性**。临床显著性应使用 LBCLSIG 变量表示（参见第 4.5.5 章节）**[Source: domains/LB/assumptions.md]**。",
      "judge_fact_recall": 1.0,
      "judge_fact_hits": [
        "LBORNRLO",
        "LBORNRHI",
        "LBNRIND"
      ],
      "judge_fact_misses": [],
      "judge_parse_ok": true,
      "elapsed_s": 16.06
    },
    {
      "id": "q43",
      "category": "mixed",
      "question": "What is the controlled terminology codelist for the SEX variable in the DM domain? Provide the codelist code and describe the Core designation.",
      "source_recall": 1.0,
      "source_hits": [
        "domains/DM/spec.md"
      ],
      "source_misses": [],
      "top5_sources": [
        "domains/DM/spec.md",
        "terminology/core/dm.md",
        "chapters/ch04_general_assumptions.md",
        "domains/DM/spec.md",
        "chapters/ch04_general_assumptions.md"
      ],
      "top5_similarities": [
        0.6578,
        0.5551,
        0.633,
        0.6311,
        0.5852
      ],
      "fact_recall": 1.0,
      "fact_hits": [
        "SEX",
        "C66731",
        "Req"
      ],
      "fact_misses": [],
      "answer_preview": "The controlled terminology codelist for the SEX variable in the DM domain is **C66731** (Sex). The Core designation is **Req** (Required), meaning the variable must be present in every record and cannot be null **[Source: domains/DM/spec.md — SEX]**. The codelist itself is defined in the terminology file and includes the permissible values F, M, U, and UNDIFFERENTIATED **[Source: terminology/core/dm.md — Sex (C66731)]**.",
      "usage": {
        "prompt_tokens": 12321,
        "completion_tokens": 344,
        "total_tokens": 12665
      },
      "model": "deepseek/deepseek-v4-pro",
      "answer": "The controlled terminology codelist for the SEX variable in the DM domain is **C66731** (Sex). The Core designation is **Req** (Required), meaning the variable must be present in every record and cannot be null **[Source: domains/DM/spec.md — SEX]**. The codelist itself is defined in the terminology file and includes the permissible values F, M, U, and UNDIFFERENTIATED **[Source: terminology/core/dm.md — Sex (C66731)]**.",
      "judge_fact_recall": 1.0,
      "judge_fact_hits": [
        "SEX",
        "C66731",
        "Req"
      ],
      "judge_fact_misses": [],
      "judge_parse_ok": true,
      "elapsed_s": 7.07
    },
    {
      "id": "q44",
      "category": "mixed",
      "question": "In the VS domain, what is the controlled terminology codelist code for VSTESTCD, and give examples of standard vital signs test codes like systolic and diastolic blood pressure.",
      "source_recall": 1.0,
      "source_hits": [
        "domains/VS/spec.md"
      ],
      "source_misses": [],
      "top5_sources": [
        "domains/VS/spec.md",
        "terminology/core/vs.md",
        "domains/VS/spec.md",
        "domains/VS/spec.md",
        "VARIABLE_INDEX.md"
      ],
      "top5_similarities": [
        0.7284,
        0.4981,
        0.6737,
        0.6183,
        0.5512
      ],
      "fact_recall": 1.0,
      "fact_hits": [
        "C66741",
        "SYSBP",
        "DIABP"
      ],
      "fact_misses": [],
      "answer_preview": "The controlled terminology codelist for **VSTESTCD** in the VS domain is **C66741** (Vital Signs Test Code). **[Source: domains/VS/spec.md]**\n\nExamples of standard vital signs test codes from this codelist include:\n\n- **SYSBP** — Systolic Blood Pressure\n- **DIABP** — Diastolic Blood Pressure\n\nThese are among the commonly used submission values. For instance, DIABP is listed with code C25299 in the terminology **[Source: terminology/core/vs.md]**, and both SYSBP and DIABP appear in the VS implementation example **[Source: domains/VS/examples.md]**.",
      "usage": {
        "prompt_tokens": 14904,
        "completion_tokens": 513,
        "total_tokens": 15417
      },
      "model": "deepseek/deepseek-v4-pro",
      "answer": "The controlled terminology codelist for **VSTESTCD** in the VS domain is **C66741** (Vital Signs Test Code). **[Source: domains/VS/spec.md]**\n\nExamples of standard vital signs test codes from this codelist include:\n\n- **SYSBP** — Systolic Blood Pressure\n- **DIABP** — Diastolic Blood Pressure\n\nThese are among the commonly used submission values. For instance, DIABP is listed with code C25299 in the terminology **[Source: terminology/core/vs.md]**, and both SYSBP and DIABP appear in the VS implementation example **[Source: domains/VS/examples.md]**.",
      "judge_fact_recall": 1.0,
      "judge_fact_hits": [
        "C66741",
        "SYSBP",
        "DIABP"
      ],
      "judge_fact_misses": [],
      "judge_parse_ok": true,
      "elapsed_s": 8.84
    },
    {
      "id": "q45",
      "category": "mixed",
      "question": "What is the RACE variable in the DM domain, what codelist does it use, and what is its Core designation?",
      "source_recall": 1.0,
      "source_hits": [
        "domains/DM/spec.md"
      ],
      "source_misses": [],
      "top5_sources": [
        "domains/DM/spec.md",
        "terminology/core/dm.md",
        "domains/DM/examples.md",
        "domains/DM/examples.md",
        "domains/DM/assumptions.md"
      ],
      "top5_similarities": [
        0.6135,
        0.469,
        0.5662,
        0.5707,
        0.6038
      ],
      "fact_recall": 1.0,
      "fact_hits": [
        "RACE",
        "C74457",
        "Exp"
      ],
      "fact_misses": [],
      "answer_preview": "## RACE 变量\n\n**RACE** 是 DM (Demographics) 域中的一个变量，用于描述受试者的种族信息。\n\n- **Label:** Race\n- **Type:** Char\n- **Role:** Record Qualifier\n- **Core:** Exp (期望变量)\n- **CDISC Notes:** Race of the subject. Sponsors should refer to the FDA guidance regarding the collection of race. **[Source: domains/DM/spec.md]**\n\n---\n\n## 使用的 Codelist\n\nRACE 使用受控术语 codelist **C74457** (Race)，该 codelist 为 **不可扩展 (Extensible: No)**，包含以下允许值:\n\n| CDISC Submission Value |\n|------------------------|\n| AMERICAN INDIAN OR ALASKA NATIVE |\n| ASIAN |\n| BLACK OR AFRICAN AMERICAN |\n| NATIVE HAWAIIAN OR OTHER PACIFIC ISLANDER |\n| NOT REPORT",
      "usage": {
        "prompt_tokens": 16429,
        "completion_tokens": 697,
        "total_tokens": 17126
      },
      "model": "deepseek/deepseek-v4-pro",
      "answer": "## RACE 变量\n\n**RACE** 是 DM (Demographics) 域中的一个变量，用于描述受试者的种族信息。\n\n- **Label:** Race\n- **Type:** Char\n- **Role:** Record Qualifier\n- **Core:** Exp (期望变量)\n- **CDISC Notes:** Race of the subject. Sponsors should refer to the FDA guidance regarding the collection of race. **[Source: domains/DM/spec.md]**\n\n---\n\n## 使用的 Codelist\n\nRACE 使用受控术语 codelist **C74457** (Race)，该 codelist 为 **不可扩展 (Extensible: No)**，包含以下允许值:\n\n| CDISC Submission Value |\n|------------------------|\n| AMERICAN INDIAN OR ALASKA NATIVE |\n| ASIAN |\n| BLACK OR AFRICAN AMERICAN |\n| NATIVE HAWAIIAN OR OTHER PACIFIC ISLANDER |\n| NOT REPORTED |\n| OTHER |\n| UNKNOWN |\n| WHITE |\n\n**[Source: terminology/core/dm.md]**\n\n---\n\n## Core 指定\n\nRACE 的 Core 指定为 **Exp (Expected)**，意味着该变量在 DM 域中是建议提交的变量。在实际临床试验数据中，种族信息通常都需要按 FDA 指南进行收集和提交。\n\n**[Source: domains/DM/spec.md]**\n\n---\n\n## 补充说明\n\n根据 DM 域的假设文档，当收集到多种族响应时:\n\n- 如果收集到**多个种族**，RACE 应填入 `MULTIPLE`，额外信息记录在 SUPPDM 数据集中\n- 如果多个种族中有一个被指定为**主要种族**，则 RACE 应填入该主要种族，其他种族记录在 SUPPDM 中\n- 如果受试者通过 \"Other, specify\" 提供了自由文本描述，且申办方选择不按 FDA 指南映射，则 RACE 应填入 `OTHER`\n- 如果受试者**拒绝提供**或**不知道**自己的种族信息，RACE 可填入 `UNKNOWN`\n\n**[Source: domains/DM/assumptions.md]**",
      "judge_fact_recall": 1.0,
      "judge_fact_hits": [
        "RACE",
        "C74457",
        "Exp"
      ],
      "judge_fact_misses": [],
      "judge_parse_ok": true,
      "elapsed_s": 13.11
    },
    {
      "id": "q46",
      "category": "mixed",
      "question": "What is the AEOUT (Outcome of Adverse Event) variable in the AE domain and what controlled terminology codelist code does it use?",
      "source_recall": 1.0,
      "source_hits": [
        "domains/AE/spec.md"
      ],
      "source_misses": [],
      "top5_sources": [
        "domains/AE/spec.md",
        "terminology/core/ae.md",
        "domains/AE/spec.md",
        "VARIABLE_INDEX.md",
        "domains/AE/assumptions.md"
      ],
      "top5_similarities": [
        0.7992,
        0.5705,
        0.6582,
        0.6157,
        0.7025
      ],
      "fact_recall": 1.0,
      "fact_hits": [
        "AEOUT",
        "C66768",
        "Perm"
      ],
      "fact_misses": [],
      "answer_preview": "**AEOUT** (Outcome of Adverse Event) is a Record Qualifier variable in the AE domain:\n\n- **Label:** Outcome of Adverse Event  \n- **Type:** Char  \n- **Role:** Record Qualifier  \n- **Core:** Perm  \n- **Description:** “Description of the outcome of an event.” [Source: domains/AE/spec.md, AEOUT]  \n\n**Controlled Terminology Codelist Code:** C66768 – *Outcome of Event* (Extensible: No).  \nThe codelist contains the following valid values:\n\n| Code    | CDISC Submission Value          |\n|---------|---------------------------------|\n| C48275  | FATAL                           |\n| C49494  | NOT RECOVERED",
      "usage": {
        "prompt_tokens": 15102,
        "completion_tokens": 789,
        "total_tokens": 15891
      },
      "model": "deepseek/deepseek-v4-pro",
      "answer": "**AEOUT** (Outcome of Adverse Event) is a Record Qualifier variable in the AE domain:\n\n- **Label:** Outcome of Adverse Event  \n- **Type:** Char  \n- **Role:** Record Qualifier  \n- **Core:** Perm  \n- **Description:** “Description of the outcome of an event.” [Source: domains/AE/spec.md, AEOUT]  \n\n**Controlled Terminology Codelist Code:** C66768 – *Outcome of Event* (Extensible: No).  \nThe codelist contains the following valid values:\n\n| Code    | CDISC Submission Value          |\n|---------|---------------------------------|\n| C48275  | FATAL                           |\n| C49494  | NOT RECOVERED/NOT RESOLVED     |\n| C49495  | RECOVERED/RESOLVED WITH SEQUELAE |\n| C49498  | RECOVERED/RESOLVED              |\n| C49496  | RECOVERING/RESOLVING            |\n| C17998  | UNKNOWN                         |\n\n[Source: terminology/core/ae.md – Outcome of Event (C66768)]  \n\nThe use of **AEOUT** in the AE domain is also referenced in the domain’s controlled terminology summary under “Outcome of Event (C66768)”. [Source: domains/AE/spec.md – Controlled Terminology section]",
      "judge_fact_recall": 1.0,
      "judge_fact_hits": [
        "AEOUT",
        "C66768",
        "Perm"
      ],
      "judge_fact_misses": [],
      "judge_parse_ok": true,
      "elapsed_s": 12.83
    },
    {
      "id": "q47",
      "category": "mixed",
      "question": "How do QS (Questionnaires) domains handle instrument-specific variables using QSCAT, and what role does QSTESTCD play in organizing question-level data?",
      "source_recall": 1.0,
      "source_hits": [
        "domains/QS/spec.md",
        "domains/QS/assumptions.md"
      ],
      "source_misses": [],
      "top5_sources": [
        "VARIABLE_INDEX.md",
        "domains/QS/spec.md",
        "chapters/ch04_general_assumptions.md",
        "chapters/ch08_relationships.md",
        "domains/SUPPQUAL/examples.md"
      ],
      "top5_similarities": [
        0.6339,
        0.6923,
        0.6635,
        0.5798,
        0.6612
      ],
      "fact_recall": 1.0,
      "fact_hits": [
        "QSTESTCD",
        "QSCAT",
        "Topic"
      ],
      "fact_misses": [],
      "answer_preview": "## QS 域中 QSCAT 与 QSTESTCD 的作用\n\nQS 域通过两个关键变量实现对问卷数据的组织和标准化管理：\n\n### 1. QSCAT — 问卷级别（instrument-level）分类\n\nQSCAT（Category of Question）是一个 **Grouping Qualifier**，其受控术语来自 codelist **C100129**。它用于标识观测记录所属的具体量表/问卷名称，例如 “ADAS-COG”、“MDS-UPDRS” 等 **[Source: domains/QS/spec.md]**。\n\nQSCAT 的 Core 级别为 **Req**（必填），其作用包括：\n\n- **将同一域内的不同问卷数据逻辑分组**：所有问卷数据统一放在 QS 域中，通过 QSCAT 区分具体是哪份量表的数据，而非为每份量表单独建域 **[Source: chapters/ch08_relationships.md]**\n- **支持拆分数据集**：若 sponsor 决定将 QS 域按问卷拆分为多个物理数据集（如 QSSF36 对应 SF-36），拆分依据正是 QSCAT 的值。拆分后的数据集 DOMAIN 必须保持一致（仍为 QS），且 QSCAT 不可为空 **[Source: chapters/ch04_general_assumptions.md]**",
      "usage": {
        "prompt_tokens": 16714,
        "completion_tokens": 1293,
        "total_tokens": 18007
      },
      "model": "deepseek/deepseek-v4-pro",
      "answer": "## QS 域中 QSCAT 与 QSTESTCD 的作用\n\nQS 域通过两个关键变量实现对问卷数据的组织和标准化管理：\n\n### 1. QSCAT — 问卷级别（instrument-level）分类\n\nQSCAT（Category of Question）是一个 **Grouping Qualifier**，其受控术语来自 codelist **C100129**。它用于标识观测记录所属的具体量表/问卷名称，例如 “ADAS-COG”、“MDS-UPDRS” 等 **[Source: domains/QS/spec.md]**。\n\nQSCAT 的 Core 级别为 **Req**（必填），其作用包括：\n\n- **将同一域内的不同问卷数据逻辑分组**：所有问卷数据统一放在 QS 域中，通过 QSCAT 区分具体是哪份量表的数据，而非为每份量表单独建域 **[Source: chapters/ch08_relationships.md]**\n- **支持拆分数据集**：若 sponsor 决定将 QS 域按问卷拆分为多个物理数据集（如 QSSF36 对应 SF-36），拆分依据正是 QSCAT 的值。拆分后的数据集 DOMAIN 必须保持一致（仍为 QS），且 QSCAT 不可为空 **[Source: chapters/ch04_general_assumptions.md]**\n- **作为 SUPPQUAL 的关联键**：当需要补充非标准变量信息（如问卷语言版本 QSLANG）时，SUPPQUAL 数据集中可以将 IDVAR 设为 QSCAT，按问卷级别附加额外信息 **[Source: domains/SUPPQUAL/examples.md]**\n\n> QRS instrument 的名称缩写规范由 CDISC Controlled Terminology 统一管理，sponsor 在建模前应查阅已发布的术语和 QRS supplement **[Source: domains/QS/assumptions.md]**。\n\n### 2. QSTESTCD — 题目级别（question-level）标识\n\nQSTESTCD（Question Short Name）是 QS 域的 **Topic 变量**，Core 级别为 **Req**。其作用是标识每条记录对应的具体问题/测验项目 **[Source: domains/QS/spec.md]**。\n\n关键规格：\n\n| 属性 | 值 |\n|------|-----|\n| **Label** | Question Short Name |\n| **Type** | Char |\n| **Role** | Topic |\n| **Core** | Req |\n| **长度限制** | 不超过 8 个字符，不能以数字开头，只允许字母、数字和下划线 |\n\n- QSTESTCD 是 QSTEST（Question Name，Synonym Qualifier）的短名，用于将数据集从垂直格式转换为水平格式时作为列名\n- QSTESTCD 的受控术语以**每份问卷为单位**单独发布为独立 codelist，而非一个全局统一的列表。例如，ADAS-COG 的题目码与 PODCI 的题目码分别属于各自的 codelist **[Source: domains/QS/spec.md]**\n- 典型值示例：`\"ADCCMD01\"`、`\"BPR0103\"`\n\n### 3. 两者的协作关系\n\nQSCAT 和 QSTESTCD 形成了两层组织层次：\n\n1. **QSCAT** 在 **domain 内部按问卷进行水平切分** — 区分不同的 instrument\n2. **QSTESTCD** 在 **每份问卷内部标识各道题目** — 区分单个观测点\n\n这种结构使得 QS 域可以用一份统一的扁平表容纳所有问卷数据，同时保持每道题目的标准化语义标识。所有 QRS 相关域（FT、QS、RS）均遵循相同的命名和分类原则，并由 CDISC SDS QRS Subteam 统一协调制定补充规范和术语 **[Source: domains/QS/assumptions.md]**。",
      "judge_fact_recall": 1.0,
      "judge_fact_hits": [
        "QSTESTCD",
        "QSCAT",
        "Topic"
      ],
      "judge_fact_misses": [],
      "judge_parse_ok": true,
      "elapsed_s": 22.46
    },
    {
      "id": "q48",
      "category": "mixed",
      "question": "What is the FATESTCD variable's controlled terminology codelist code in the FA domain, and give examples of standard FA test codes?",
      "source_recall": 1.0,
      "source_hits": [
        "domains/FA/spec.md"
      ],
      "source_misses": [],
      "top5_sources": [
        "domains/FA/spec.md",
        "terminology/core/findings_about.md",
        "domains/FA/assumptions.md",
        "domains/FA/spec.md",
        "chapters/ch04_general_assumptions.md"
      ],
      "top5_similarities": [
        0.678,
        0.4042,
        0.6327,
        0.6766,
        0.5692
      ],
      "fact_recall": 1.0,
      "fact_hits": [
        "FATESTCD",
        "C101832"
      ],
      "fact_misses": [],
      "answer_preview": "The FATESTCD variable in the FA domain uses controlled terminology codelist **C101832** — \"Findings About Test Code\" **[Source: domains/FA/spec.md — Controlled Terminology]**. This codelist is extensible, meaning sponsors may add their own terms as needed **[Source: terminology/core/findings_about.md]**.\n\nExamples of standard FA test codes visible in the codelist include:\n\n| CDISC Submission Value | CDISC Definition | NCI Code |\n|------------------------|------------------|----------|\n| ABSCNUM | Number of Abscesses | C181313 |\n| ACMITYPE | Acute Myocardial Infarction Type | C118936 |\n| ACNDEV",
      "usage": {
        "prompt_tokens": 15905,
        "completion_tokens": 1353,
        "total_tokens": 17258
      },
      "model": "deepseek/deepseek-v4-pro",
      "answer": "The FATESTCD variable in the FA domain uses controlled terminology codelist **C101832** — \"Findings About Test Code\" **[Source: domains/FA/spec.md — Controlled Terminology]**. This codelist is extensible, meaning sponsors may add their own terms as needed **[Source: terminology/core/findings_about.md]**.\n\nExamples of standard FA test codes visible in the codelist include:\n\n| CDISC Submission Value | CDISC Definition | NCI Code |\n|------------------------|------------------|----------|\n| ABSCNUM | Number of Abscesses | C181313 |\n| ACMITYPE | Acute Myocardial Infarction Type | C118936 |\n| ACNDEV | Action Taken With Device | C117037 |\n| ACNSBJ | Action Taken With Subject | C163412 |\n| ACUTSTRS | Most Severe Acute Stressor | C124437 |\n| AGEEPSD1 | Age At First Episode | C124438 |\n\n**[Source: terminology/core/findings_about.md]**\n\nAdditionally, when FA records capture findings about a *part* of an event or intervention (i.e., snapshot assessments at a specific time point, rather than for the event/intervention as a whole), the **FATESTCD value should match the corresponding variable name** from the parent Events or Interventions domain. Common examples cited in the specification include **SEV** (Severity/Intensity) and **OCCUR** (Occurrence Indicator) **[Source: domains/FA/spec.md — FATESTCD; domains/FA/assumptions.md — item 4; model/02_observation_classes.md §6.4.3]**. Note that controlled terminology also exists in several therapeutic area-specific codelists beyond the general FATESTCD codelist **[Source: domains/FA/spec.md — FATESTCD CDISC Notes]**.",
      "judge_fact_recall": 1.0,
      "judge_fact_hits": [
        "FATESTCD",
        "C101832"
      ],
      "judge_fact_misses": [],
      "judge_parse_ok": true,
      "elapsed_s": 21.01
    },
    {
      "id": "s01",
      "category": "single_domain",
      "question": "In the DM domain, what is the controlled terminology codelist code for the SEX variable, and what are its four permitted submission values?",
      "source_recall": 1.0,
      "source_hits": [
        "terminology/core/dm.md",
        "domains/DM/spec.md"
      ],
      "source_misses": [],
      "top5_sources": [
        "domains/DM/spec.md",
        "terminology/core/dm.md",
        "domains/DM/assumptions.md",
        "domains/DM/spec.md",
        "chapters/ch04_general_assumptions.md"
      ],
      "top5_similarities": [
        0.6528,
        0.5864,
        0.556,
        0.5862,
        0.5688
      ],
      "fact_recall": 1.0,
      "fact_hits": [
        "C66731",
        "F",
        "M",
        "U",
        "UNDIFFERENTIATED"
      ],
      "fact_misses": [],
      "answer_preview": "根据 SDTM 知识库，在 DM（人口统计学）域中，变量 **SEX** 使用的受控术语 codelist 代码是 **C66731** **[Source: domains/DM/spec.md]**。\n\n该 codelist 包含以下四个允许的提交值 **[Source: terminology/core/dm.md]**：\n\n- **F** — Female（女性）\n- **M** — Male（男性）\n- **U** — Unknown（未知）\n- **UNDIFFERENTIATED** — 未分化（指出生时生殖器或第二性征不确定或兼具两性特征的人）",
      "usage": {
        "prompt_tokens": 14139,
        "completion_tokens": 382,
        "total_tokens": 14521
      },
      "model": "deepseek/deepseek-v4-pro",
      "answer": "根据 SDTM 知识库，在 DM（人口统计学）域中，变量 **SEX** 使用的受控术语 codelist 代码是 **C66731** **[Source: domains/DM/spec.md]**。\n\n该 codelist 包含以下四个允许的提交值 **[Source: terminology/core/dm.md]**：\n\n- **F** — Female（女性）\n- **M** — Male（男性）\n- **U** — Unknown（未知）\n- **UNDIFFERENTIATED** — 未分化（指出生时生殖器或第二性征不确定或兼具两性特征的人）",
      "judge_fact_recall": 1.0,
      "judge_fact_hits": [
        "C66731",
        "F",
        "M",
        "U",
        "UNDIFFERENTIATED"
      ],
      "judge_fact_misses": [],
      "judge_parse_ok": true,
      "elapsed_s": 8.02
    },
    {
      "id": "s02",
      "category": "concept",
      "question": "What is the SUPPQUAL variable QNAM and what character constraints apply to it? What is the maximum length and what characters are allowed?",
      "source_recall": 1.0,
      "source_hits": [
        "domains/SUPPQUAL/spec.md",
        "model/06_relationship_datasets.md"
      ],
      "source_misses": [],
      "top5_sources": [
        "domains/SUPPQUAL/spec.md",
        "domains/SUPPQUAL/spec.md",
        "domains/SUPPQUAL/spec.md",
        "domains/SUPPQUAL/spec.md",
        "chapters/ch04_general_assumptions.md"
      ],
      "top5_similarities": [
        0.6726,
        0.6267,
        0.5758,
        0.4786,
        0.5437
      ],
      "fact_recall": 0.4,
      "fact_hits": [
        "QNAM",
        "Qualifier Variable Name"
      ],
      "fact_misses": [
        "8 characters",
        "letters, numbers, or underscores",
        "cannot start with a number"
      ],
      "answer_preview": "QNAM (Qualifier Variable Name) 是 SUPP-- 数据集中的 Topic 变量，用于为补充限定符命名，在创建与父域关联的“宽表”视图时会作为列名使用。其取值受到严格的字符限制，以兼容 SAS V5 传输格式：  \n\n- **最大长度**：不得超过 **8** 个字符。  \n- **开头限制**：不能以数字开头（例如 “1TEST” 无效）。  \n- **允许字符**：只能包含**字母（A‑Z, a‑z）、数字（0‑9）和下划线 “_”**，不允许其他特殊字符。  \n\n这些约束与 Findings 类中 --TESTCD 变量的规则一致，因为 QNAM 在 SUPP-- 数据集中扮演与 --TESTCD 相同的角色。  \n【信息来源：**QNAM 定义** ([1] domains/SUPPQUAL/spec.md)；**字符限制详细说明** ([1] 及 [10] chapters/ch08_relationships.md §8.4.1)；**与 --TESTCD 规则的对标** ([6] chapters/ch04_general_assumptions.md §4.2.1)】",
      "usage": {
        "prompt_tokens": 15412,
        "completion_tokens": 1010,
        "total_tokens": 16422
      },
      "model": "deepseek/deepseek-v4-pro",
      "answer": "QNAM (Qualifier Variable Name) 是 SUPP-- 数据集中的 Topic 变量，用于为补充限定符命名，在创建与父域关联的“宽表”视图时会作为列名使用。其取值受到严格的字符限制，以兼容 SAS V5 传输格式：  \n\n- **最大长度**：不得超过 **8** 个字符。  \n- **开头限制**：不能以数字开头（例如 “1TEST” 无效）。  \n- **允许字符**：只能包含**字母（A‑Z, a‑z）、数字（0‑9）和下划线 “_”**，不允许其他特殊字符。  \n\n这些约束与 Findings 类中 --TESTCD 变量的规则一致，因为 QNAM 在 SUPP-- 数据集中扮演与 --TESTCD 相同的角色。  \n【信息来源：**QNAM 定义** ([1] domains/SUPPQUAL/spec.md)；**字符限制详细说明** ([1] 及 [10] chapters/ch08_relationships.md §8.4.1)；**与 --TESTCD 规则的对标** ([6] chapters/ch04_general_assumptions.md §4.2.1)】",
      "judge_fact_recall": 1.0,
      "judge_fact_hits": [
        "QNAM",
        "8 characters",
        "letters, numbers, or underscores",
        "cannot start with a number",
        "Qualifier Variable Name"
      ],
      "judge_fact_misses": [],
      "judge_parse_ok": true,
      "elapsed_s": 18.12
    },
    {
      "id": "s03",
      "category": "cross_domain",
      "question": "The DM variable RFXSTDTC is defined as equal to the earliest value of which variable in the EX domain? Similarly, RFXENDTC is equal to the latest value of which EX variable (or which fallback variable if that is not collected)?",
      "source_recall": 1.0,
      "source_hits": [
        "domains/DM/spec.md",
        "domains/EX/spec.md"
      ],
      "source_misses": [],
      "top5_sources": [
        "domains/DM/spec.md",
        "domains/EX/spec.md",
        "domains/DM/assumptions.md",
        "domains/DM/spec.md",
        "domains/DM/spec.md"
      ],
      "top5_similarities": [
        0.6568,
        0.5803,
        0.6371,
        0.6269,
        0.5537
      ],
      "fact_recall": 1.0,
      "fact_hits": [
        "EXSTDTC",
        "RFXSTDTC",
        "EXENDTC",
        "RFXENDTC",
        "earliest",
        "latest"
      ],
      "fact_misses": [],
      "answer_preview": "Based on the definitions in the DM domain specification:\n\n- **RFXSTDTC** is defined as the earliest value of **EXSTDTC** in the EX domain **[Source: domains/DM/spec.md – RFXSTDTC]**.\n- **RFXENDTC** is defined as the latest value of **EXENDTC** in the EX domain; if EXENDTC was not collected or is missing, the fallback is the latest value of **EXSTDTC** **[Source: domains/DM/spec.md – RFXENDTC]**.",
      "usage": {
        "prompt_tokens": 14665,
        "completion_tokens": 481,
        "total_tokens": 15146
      },
      "model": "deepseek/deepseek-v4-pro",
      "answer": "Based on the definitions in the DM domain specification:\n\n- **RFXSTDTC** is defined as the earliest value of **EXSTDTC** in the EX domain **[Source: domains/DM/spec.md – RFXSTDTC]**.\n- **RFXENDTC** is defined as the latest value of **EXENDTC** in the EX domain; if EXENDTC was not collected or is missing, the fallback is the latest value of **EXSTDTC** **[Source: domains/DM/spec.md – RFXENDTC]**.",
      "judge_fact_recall": 1.0,
      "judge_fact_hits": [
        "EXSTDTC",
        "RFXSTDTC",
        "EXENDTC",
        "RFXENDTC",
        "earliest",
        "latest"
      ],
      "judge_fact_misses": [],
      "judge_parse_ok": true,
      "elapsed_s": 7.38
    },
    {
      "id": "s04",
      "category": "mixed",
      "question": "In the AE domain, what is the controlled terminology codelist code for the AEACN (Action Taken with Study Treatment) variable, and what ICH E2B example values does the CDISC Notes field list for this variable?",
      "source_recall": 1.0,
      "source_hits": [
        "domains/AE/spec.md",
        "terminology/core/ae.md"
      ],
      "source_misses": [],
      "top5_sources": [
        "domains/AE/spec.md",
        "terminology/core/ae.md",
        "domains/AE/spec.md",
        "domains/AE/assumptions.md",
        "domains/AE/spec.md"
      ],
      "top5_similarities": [
        0.7624,
        0.5456,
        0.681,
        0.6761,
        0.6263
      ],
      "fact_recall": 1.0,
      "fact_hits": [
        "C66767",
        "DRUG WITHDRAWN",
        "DOSE REDUCED",
        "DOSE INCREASED",
        "DOSE NOT CHANGED",
        "UNKNOWN",
        "NOT APPLICABLE"
      ],
      "fact_misses": [],
      "answer_preview": "AEACN 变量的受控术语 codelist 代码为 **C66767**。  \nCDISC Notes 中列出的 ICH E2B 示例值包括：**DRUG WITHDRAWN, DOSE REDUCED, DOSE INCREASED, DOSE NOT CHANGED, UNKNOWN, NOT APPLICABLE**。\n\n**[Source: domains/AE/spec.md – AEACN]**",
      "usage": {
        "prompt_tokens": 14147,
        "completion_tokens": 343,
        "total_tokens": 14490
      },
      "model": "deepseek/deepseek-v4-pro",
      "answer": "AEACN 变量的受控术语 codelist 代码为 **C66767**。  \nCDISC Notes 中列出的 ICH E2B 示例值包括：**DRUG WITHDRAWN, DOSE REDUCED, DOSE INCREASED, DOSE NOT CHANGED, UNKNOWN, NOT APPLICABLE**。\n\n**[Source: domains/AE/spec.md – AEACN]**",
      "judge_fact_recall": 1.0,
      "judge_fact_hits": [
        "C66767",
        "DRUG WITHDRAWN",
        "DOSE REDUCED",
        "DOSE INCREASED",
        "DOSE NOT CHANGED",
        "UNKNOWN",
        "NOT APPLICABLE"
      ],
      "judge_fact_misses": [],
      "judge_parse_ok": true,
      "elapsed_s": 6.5
    },
    {
      "id": "s05",
      "category": "single_domain",
      "question": "In the VS domain, what is the controlled terminology codelist code for the VSTESTCD variable? Name the codelist, state whether it is extensible, and give three example TESTCD values listed for blood pressure and heart rate.",
      "source_recall": 1.0,
      "source_hits": [
        "domains/VS/spec.md",
        "terminology/core/vs.md"
      ],
      "source_misses": [],
      "top5_sources": [
        "domains/VS/spec.md",
        "terminology/core/vs.md",
        "chapters/ch04_general_assumptions.md",
        "chapters/ch04_general_assumptions.md",
        "domains/IS/assumptions.md"
      ],
      "top5_similarities": [
        0.6639,
        0.4761,
        0.5932,
        0.5578,
        0.5883
      ],
      "fact_recall": 0.6667,
      "fact_hits": [
        "C66741",
        "Vital Signs Test Code",
        "SYSBP",
        "DIABP"
      ],
      "fact_misses": [
        "Extensible: Yes",
        "HR"
      ],
      "answer_preview": "The controlled terminology codelist for VSTESTCD is **Vital Signs Test Code (C66741)** **[Source: domains/VS/spec.md – Controlled Terminology]**.  \n\nThe extensibility of this codelist cannot be confirmed from the retrieved context because the file that contains the full codelist details (`terminology/core/vs.md`) was not included in the information provided.  \n\nExample TESTCD values for blood pressure and heart rate, drawn from the VS domain documentation and examples, are:\n\n- **SYSBP** (Systolic Blood Pressure) **[Source: domains/VS/spec.md – VSTESTCD]**  \n- **DIABP** (Diastolic Blood Pressur",
      "usage": {
        "prompt_tokens": 14024,
        "completion_tokens": 1976,
        "total_tokens": 16000
      },
      "model": "deepseek/deepseek-v4-pro",
      "answer": "The controlled terminology codelist for VSTESTCD is **Vital Signs Test Code (C66741)** **[Source: domains/VS/spec.md – Controlled Terminology]**.  \n\nThe extensibility of this codelist cannot be confirmed from the retrieved context because the file that contains the full codelist details (`terminology/core/vs.md`) was not included in the information provided.  \n\nExample TESTCD values for blood pressure and heart rate, drawn from the VS domain documentation and examples, are:\n\n- **SYSBP** (Systolic Blood Pressure) **[Source: domains/VS/spec.md – VSTESTCD]**  \n- **DIABP** (Diastolic Blood Pressure) **[Source: domains/VS/spec.md – VSTESTCD]**  \n- **PULSE** (Pulse Rate) **[Source: domains/VS/examples.md – Example 1, Row 5]**  \n\nThese values represent commonly used vital signs tests; the code itself must be verified in the corresponding controlled terminology file for the full permissible set and extensibility property.",
      "judge_fact_recall": 0.6667,
      "judge_fact_hits": [
        "C66741",
        "Vital Signs Test Code",
        "SYSBP",
        "DIABP"
      ],
      "judge_fact_misses": [
        "Extensible: Yes",
        "HR"
      ],
      "judge_parse_ok": true,
      "elapsed_s": 34.41
    },
    {
      "id": "q54",
      "category": "single_domain",
      "question": "In the DV (Protocol Deviations) domain, which observation class does it belong to and what is the Topic variable DVTERM?",
      "source_recall": 1.0,
      "source_hits": [
        "domains/DV/spec.md"
      ],
      "source_misses": [],
      "top5_sources": [
        "domains/DV/spec.md",
        "domains/DV/spec.md",
        "domains/DV/spec.md",
        "domains/DV/spec.md",
        "domains/DV/assumptions.md"
      ],
      "top5_similarities": [
        0.7536,
        0.664,
        0.6494,
        0.5789,
        0.7551
      ],
      "fact_recall": 1.0,
      "fact_hits": [
        "Events",
        "DVTERM",
        "Protocol Deviation Term",
        "Topic"
      ],
      "fact_misses": [],
