- id: ah01
  category: aggregate_threshold
  question: Which SDTM variables show up in two or more different domains?
  expected_facts:
  - STUDYID
  - DOMAIN
  - USUBJID
  - EPOCH
  - TAETORD
  - VISIT
  - VISITDY
  - VISITNUM
  - SPDEVID
  - NHOID
  - ARM
  - ARMCD
  - ELEMENT
  - ETCD
  - FOCID
  - IDVAR
  - IDVARVAL
  - RDOMAIN
  - IECAT
  - IESCAT
  - IETEST
  - IETESTCD
  - MIDS
  - MIDSTYPE
  expect_count: 24
  card_applies: true
  gold_reading: inclusive
- id: ah02
  category: aggregate_threshold
  question: Are there any SDTM variables that appear in at least six separate domains?
  expected_facts:
  - STUDYID
  - DOMAIN
  - USUBJID
  - EPOCH
  - TAETORD
  - VISIT
  - VISITDY
  - VISITNUM
  - SPDEVID
  expect_count: 9
  card_applies: true
  gold_reading: inclusive
- id: ah03
  category: aggregate_threshold
  question: Which variables are shared across nine or more SDTM domains?
  expected_facts:
  - STUDYID
  - DOMAIN
  - USUBJID
  - EPOCH
  - TAETORD
  - VISIT
  - VISITDY
  - VISITNUM
  expect_count: 8
  card_applies: true
  gold_reading: inclusive
- id: ah04
  category: aggregate_threshold
  question: Can you list the SDTM variables that turn up in a dozen or more domains?
  expected_facts:
  - STUDYID
  - DOMAIN
  - USUBJID
  - EPOCH
  - TAETORD
  - VISIT
  - VISITDY
  - VISITNUM
  expect_count: 8
  card_applies: true
  gold_reading: inclusive
- id: ah05
  category: aggregate_threshold
  question: Which SDTM variables show up in at least 18 different domains?
  expected_facts:
  - STUDYID
  - DOMAIN
  - USUBJID
  - EPOCH
  - TAETORD
  - VISIT
  - VISITDY
  - VISITNUM
  expect_count: 8
  card_applies: true
  gold_reading: inclusive
- id: ah06
  category: aggregate_threshold
  question: Can you list the SDTM variables that appear across 25 or more domains?
  expected_facts:
  - STUDYID
  - DOMAIN
  - USUBJID
  - EPOCH
  - TAETORD
  - VISIT
  - VISITDY
  - VISITNUM
  expect_count: 8
  card_applies: true
  gold_reading: inclusive
- id: ah07
  category: aggregate_threshold
  question: Which variables are used in a minimum of 30 domains throughout the SDTM
    standard?
  expected_facts:
  - STUDYID
  - DOMAIN
  - USUBJID
  - EPOCH
  - TAETORD
  - VISIT
  - VISITDY
  - VISITNUM
  expect_count: 8
  card_applies: true
  gold_reading: inclusive
- id: ah08
  category: aggregate_threshold
  question: Are there any SDTM variables that span 38 or more domains, and if so which
    ones?
  expected_facts:
  - STUDYID
  - DOMAIN
  - USUBJID
  - EPOCH
  - TAETORD
  expect_count: 5
  card_applies: true
  gold_reading: inclusive
- id: as01
  category: aggregate_superlative
  question: Which single codelist gets attached to the greatest number of variables?
  expected_facts:
  - C66742
  expect_count: null
  card_applies: false
- id: as02
  category: aggregate_superlative
  question: Which codelist is reused across the widest range of SDTM domains?
  expected_facts:
  - C66742
  expect_count: null
  card_applies: false
- id: as03
  category: aggregate_superlative
  question: Which controlled terminology set gets shared between variables most often?
  expected_facts:
  - C66742
  expect_count: null
  card_applies: false
- id: as04
  category: aggregate_superlative
  question: What are the top few codelists when you rank them by how many variables
    reference each one?
  expected_facts:
  - C66742
  - C71620
  - C66789
  - C66728
  - C74456
  expect_count: null
  card_applies: false
- id: as05
  category: aggregate_superlative
  question: What are the top three codelists in terms of how many variables point
    to them?
  expected_facts:
  - C66742
  - C71620
  - C66789
  expect_count: null
  card_applies: false
- id: as06
  category: aggregate_superlative
  question: Which four codelists get reused by the largest number of variables?
  expected_facts:
  - C66742
  - C71620
  - C66789
  - C66728
  expect_count: null
  card_applies: false
- id: as07
  category: aggregate_superlative
  question: Which codelist would you call the workhorse of the standard—the one tied
    to more variables than any other?
  expected_facts:
  - C66742
  expect_count: null
  card_applies: false
- id: as08
  category: aggregate_superlative
  question: What's the single most-used codelist across all the variables, the real
    champion in terms of adoption?
  expected_facts:
  - C66742
  expect_count: null
  card_applies: false
- id: ag01
  category: aggregate
  question: Which SDTM variables are used across 3 or more different domains?
  expected_facts:
  - ARM
  - ARMCD
  - DOMAIN
  - ELEMENT
  - EPOCH
  - ETCD
  - FOCID
  - IDVAR
  - IDVARVAL
  - NHOID
  - RDOMAIN
  - SPDEVID
  - STUDYID
  - TAETORD
  - USUBJID
  - VISIT
  - VISITDY
  - VISITNUM
  expect_count: 18
  card_applies: true
  subtype: threshold
  expected_sources:
  - VARIABLE_INDEX.md
  regression: true
- id: ag02
  category: aggregate
  question: Can you list the SDTM variables that appear in at least 4 separate domains?
  expected_facts:
  - DOMAIN
  - EPOCH
  - NHOID
  - SPDEVID
  - STUDYID
  - TAETORD
  - USUBJID
  - VISIT
  - VISITDY
  - VISITNUM
  expect_count: 10
  card_applies: true
  subtype: threshold
  expected_sources:
  - VARIABLE_INDEX.md
  regression: true
- id: ag03
  category: aggregate
  question: Which variables show up in 5 or more domains throughout the SDTM model?
  expected_facts:
  - DOMAIN
  - EPOCH
  - SPDEVID
  - STUDYID
  - TAETORD
  - USUBJID
  - VISIT
  - VISITDY
  - VISITNUM
  expect_count: 9
  card_applies: true
  subtype: threshold
  expected_sources:
  - VARIABLE_INDEX.md
  regression: true
- id: ag04
  category: aggregate
  question: I'm looking for the SDTM variables that are reused across 10 or more domains
    — which ones are they?
  expected_facts:
  - DOMAIN
  - EPOCH
  - STUDYID
  - TAETORD
  - USUBJID
  - VISIT
  - VISITDY
  - VISITNUM
  expect_count: 8
  card_applies: true
  subtype: threshold
  expected_sources:
  - VARIABLE_INDEX.md
  regression: true
- id: ag05
  category: aggregate
  question: Which SDTM variables are so common that they appear in 40+ domains?
  expected_facts:
  - DOMAIN
  - EPOCH
  - STUDYID
  - TAETORD
  - USUBJID
  expect_count: 5
  card_applies: true
  subtype: threshold
  expected_sources:
  - VARIABLE_INDEX.md
  regression: true
- id: ms01
  category: aggregate
  question: Across all of SDTM, which controlled terminology codelist is the most
    reused?
  expected_facts:
  - C66742
  - No Yes Response
  expect_count: null
  card_applies: false
  subtype: most_shared
  expected_sources:
  - VARIABLE_INDEX.md
  regression: true
- id: ms02
  category: aggregate
  question: Which single codelist is referenced by the greatest number of variables
    in SDTM?
  expected_facts:
  - C66742
  - No Yes Response
  expect_count: null
  card_applies: false
  subtype: most_shared
  expected_sources:
  - VARIABLE_INDEX.md
  regression: true
- id: ms03
  category: aggregate
  question: What is the most widely shared codelist across SDTM domains?
  expected_facts:
  - C66742
  - No Yes Response
  expect_count: null
  card_applies: false
  subtype: most_shared
  expected_sources:
  - VARIABLE_INDEX.md
  regression: true
- id: ms04
  category: aggregate
  question: What are the three most frequently reused controlled terminology codelists
    in SDTM?
  expected_facts:
  - C66742
  - C71620
  - C66789
  expect_count: 3
  card_applies: false
  subtype: most_shared_list
  expected_sources:
  - VARIABLE_INDEX.md
  regression: true
- id: ms05
  category: aggregate
  question: Could you name several of the most commonly shared codelists used throughout
    the SDTM domains?
  expected_facts:
  - C66742
  - C71620
  - C66789
  - C66728
  - C74456
  expect_count: 5
  card_applies: false
  subtype: most_shared_list
  expected_sources:
  - VARIABLE_INDEX.md
  regression: true
