# Test Set v2 — 102 questions (= v1's 53 preserved verbatim + 49 new)
# Format: id / category / question / expected_facts (substring match) / expected_sources (partial path match)
# Category totals (v2): single_domain (27) / cross_domain (25) / concept (25) / mixed (25)
# v1 block (q01-q48, s01-s05) is unchanged below; new questions (q54-q102) appended at the end.
# Every new expected_sources path was opened and content-verified against the KB (see audit note at EOF).
# mixed purity (v2 revision): all mixed questions require a value/term that lives ONLY in a
#   terminology file (not the codelist code printed in spec.md), forcing a genuine ≥2-source answer.
# Original v1 header (Phase 1D): overall ≥ 85%, RELATION (cross_domain) recall → Phase 2 KG gate
# Scientist-authored questions (s01-s05) merged separately for Rule A 4.c

# ════════════════════════════════════════════════════════════════════════
# Single Domain (12) — specific variable/domain lookups
# ════════════════════════════════════════════════════════════════════════

- id: q01
  category: single_domain
  question: "What is AETERM and what are its variable attributes in the AE domain?"
  expected_facts:
    - "Topic"
    - "Char"
    - "Req"
    - "Verbatim"
  expected_sources:
    - "domains/AE/spec.md"

- id: q02
  category: single_domain
  question: "What are the required (Core=Req) variables in the DM domain?"
  expected_facts:
    - "STUDYID"
    - "USUBJID"
    - "RFSTDTC"
    - "AGE"
    - "SEX"
    - "ARM"
  expected_sources:
    - "domains/DM/spec.md"

- id: q03
  category: single_domain
  question: "What are the key assumptions for adverse event data collection and coding?"
  expected_facts:
    - "AETERM"
    - "MedDRA"
    - "AEDECOD"
  expected_sources:
    - "domains/AE/assumptions.md"

- id: q04
  category: single_domain
  question: "What is the purpose of the TV (Trial Visits) domain and what variables does it contain?"
  expected_facts:
    - "VISITNUM"
    - "VISIT"
  expected_sources:
    - "domains/TV/spec.md"

- id: q05
  category: single_domain
  question: "In the PE (Physical Examination) domain, what is the structure of the dataset, what is the role of the PETESTCD variable, and what value should PETESTCD have when the results of the entire physical examination are represented in one record?"
  expected_facts:
    - "PETESTCD"
    - "Topic"
    - "PHYSEXAM"
  expected_sources:
    - "domains/PE/spec.md"

- id: q21
  category: single_domain
  question: "What is the LBTESTCD variable in the LB (Laboratory Test Results) domain? Describe its role, controlled terminology codelist code, and naming constraints."
  expected_facts:
    - "Topic"
    - "C65047"
    - "8 characters"
  expected_sources:
    - "domains/LB/spec.md"

- id: q22
  category: single_domain
  question: "What is the VS (Vital Signs) domain and what are some examples of VSTESTCD values? Include the codelist code."
  expected_facts:
    - "Findings"
    - "VSTESTCD"
    - "C66741"
  expected_sources:
    - "domains/VS/spec.md"

- id: q23
  category: single_domain
  question: "In the CM (Concomitant Medications) domain, what is the CMTRT variable and what observation class does CM belong to?"
  expected_facts:
    - "CMTRT"
    - "Interventions"
    - "Topic"
    - "Req"
  expected_sources:
    - "domains/CM/spec.md"

- id: q24
  category: single_domain
  question: "What is the EX (Exposure) domain used for and what is the Topic variable EXTRT?"
  expected_facts:
    - "EXTRT"
    - "Interventions"
    - "protocol-specified"
  expected_sources:
    - "domains/EX/spec.md"

- id: q25
  category: single_domain
  question: "In the MH (Medical History) domain, what is the role of MHTERM and what assumptions guide medical history data collection?"
  expected_facts:
    - "MHTERM"
    - "Topic"
    - "Verbatim"
  expected_sources:
    - "domains/MH/assumptions.md"

- id: q26
  category: single_domain
  question: "Describe the EG (ECG Test Results) domain structure and the EGTESTCD variable, including its controlled terminology codelist codes."
  expected_facts:
    - "EGTESTCD"
    - "Findings"
    - "C71153"
  expected_sources:
    - "domains/EG/spec.md"

- id: q27
  category: single_domain
  question: "What is the IE (Inclusion/Exclusion) domain and what is the role and maximum length of the IETEST variable?"
  expected_facts:
    - "IETEST"
    - "200"
    - "Synonym Qualifier"
  expected_sources:
    - "domains/IE/spec.md"

# ════════════════════════════════════════════════════════════════════════
# Cross Domain (12) — relationships across domains (Phase 2 KG decision gate)
# ════════════════════════════════════════════════════════════════════════

- id: q06
  category: cross_domain
  question: "What is SUPPQUAL and when should supplemental qualifiers be used instead of adding variables to a domain?"
  expected_facts:
    - "QNAM"
    - "QVAL"
    - "non-standard"
  expected_sources:
    - "domains/SUPPQUAL/spec.md"

- id: q07
  category: cross_domain
  question: "Which SDTM domains use the EPOCH variable and what is its purpose?"
  expected_facts:
    - "EPOCH"
    - "Timing"
  expected_sources:
    - "VARIABLE_INDEX.md"

- id: q08
  category: cross_domain
  question: "How does USUBJID serve as a linking key across SDTM domains?"
  expected_facts:
    - "USUBJID"
    - "Identifier"
    - "unique"
  expected_sources:
    - "domains/DM/spec.md"

- id: q09
  category: cross_domain
  question: "How are adverse events linked to concomitant medications using RELREC?"
  expected_facts:
    - "RELREC"
    - "IDVAR"
    - "IDVARVAL"
  expected_sources:
    - "domains/RELREC/spec.md"

- id: q10
  category: cross_domain
  question: "In oncology studies, how are the TR (Tumor/Lesion Results) domain and RS (Disease Response) domain linked together, and which specific identifier variables are used for each linkage direction?"
  expected_facts:
    - "TRLNKID"
    - "TRLNKGRP"
  expected_sources:
    - "domains/TR/assumptions.md"
    - "domains/TR/spec.md"

- id: q28
  category: cross_domain
  question: "What is the FA (Findings About Events or Interventions) domain and how does it link to parent domains like AE or CM using FAOBJ?"
  expected_facts:
    - "Findings About"
    - "FAOBJ"
    - "FATESTCD"
  expected_sources:
    - "domains/FA/spec.md"

- id: q29
  category: cross_domain
  question: "How do the four Trial Design domains TA (Trial Arms), TE (Trial Elements), TV (Trial Visits), and TI (Trial Inclusion/Exclusion) work together to define a study design?"
  expected_facts:
    - "TA"
    - "TE"
    - "TV"
    - "TI"
  expected_sources:
    - "domains/TA/assumptions.md"
    - "domains/TE/assumptions.md"

- id: q30
  category: cross_domain
  question: "What is the CO (Comments) domain and how does it reference records in other SDTM domains? Describe the RDOMAIN and IDVAR mechanism."
  expected_facts:
    - "COVAL"
    - "RDOMAIN"
    - "IDVAR"
  expected_sources:
    - "domains/CO/spec.md"
    - "domains/CO/assumptions.md"

- id: q31
  category: cross_domain
  question: "How are the EC (Exposure as Collected) and EX (Exposure) domains different in purpose, and when should each be used?"
  expected_facts:
    - "collected"
    - "EX"
    - "EC"
  expected_sources:
    - "domains/EC/assumptions.md"

- id: q32
  category: cross_domain
  question: "How is VISIT and VISITNUM used consistently across observation-class domains, and what role does the SV (Subject Visits) domain play in tracking actual visit dates?"
  expected_facts:
    - "VISIT"
    - "VISITNUM"
    - "SV"
  expected_sources:
    - "domains/SV/spec.md"
    - "domains/SV/assumptions.md"

- id: q33
  category: cross_domain
  question: "What is the RELSPEC domain and how does it define relationships between datasets at the study level, as opposed to RELREC which links individual records?"
  expected_facts:
    - "RELSPEC"
    - "RELREC"
  expected_sources:
    - "domains/RELSPEC/spec.md"

- id: q34
  category: cross_domain
  question: "Which SDTM domains share the controlled terminology codelist for NY (No Yes Response, C66742), and what variable typically uses this codelist in those domains?"
  expected_facts:
    - "C66742"
    - "NY"
  expected_sources:
    - "VARIABLE_INDEX.md"

# ════════════════════════════════════════════════════════════════════════
# Concept (12) — SDTM model concepts, rules, and structural patterns
# ════════════════════════════════════════════════════════════════════════

- id: q11
  category: concept
  question: "What are the three observation classes in the SDTM model?"
  expected_facts:
    - "Interventions"
    - "Events"
    - "Findings"
  expected_sources:
    - "model/02_observation_classes.md"

- id: q12
  category: concept
  question: "What do the Core designations Req, Exp, and Perm mean in SDTM?"
  expected_facts:
    - "Required"
    - "Expected"
    - "Permissible"
  expected_sources:
    - "chapters/ch04"

- id: q13
  category: concept
  question: "What is the difference between Topic, Qualifier, and Identifier variable roles?"
  expected_facts:
    - "Topic"
    - "Qualifier"
    - "Identifier"
  expected_sources:
    - "model/01_concepts_and_terms.md"

- id: q14
  category: concept
  question: "How should a sponsor create a new custom domain in SDTM?"
  expected_facts:
    - "observation class"
  expected_sources:
    - "chapters/ch02"

- id: q15
  category: concept
  question: "What are the three SDTM Core designation categories for variables, and what are the rules for handling a Permissible variable when a study did not collect the corresponding data item?"
  expected_facts:
    - "Req"
    - "Exp"
    - "Perm"
  expected_sources:
    - "chapters/ch04_general_assumptions.md"

- id: q35
  category: concept
  question: "What is Controlled Terminology (CT) in SDTM and how does it constrain the values that variables can contain?"
  expected_facts:
    - "codelist"
    - "Controlled Terms"
  expected_sources:
    - "chapters/ch04"

- id: q36
  category: concept
  question: "What are the timing variables in SDTM (such as --DTC, --STDTC, --ENDTC) and how are they structured across domains?"
  expected_facts:
    - "DTC"
    - "STDTC"
    - "ENDTC"
    - "Timing"
  expected_sources:
    - "chapters/ch04"

- id: q37
  category: concept
  question: "What are the Special-Purpose datasets in SDTM and which domains fall into this category?"
  expected_facts:
    - "Special-Purpose"
    - "DM"
    - "CO"
    - "SUPPQUAL"
  expected_sources:
    # fixed 2026-06-08 (T1 gold-label audit): "model/04_special_purpose.md" does not
    # exist in KB; correct file is model/03_special_purpose_domains.md. See eval/ablation_t1/review_T1.md
    - "model/03_special_purpose_domains.md"

- id: q38
  category: concept
  question: "How are SDTM domain abbreviation codes assigned? What are the rules for the two-character domain code?"
  expected_facts:
    - "two-character"
    - "DOMAIN"
  expected_sources:
    - "chapters/ch02"

- id: q39
  category: concept
  question: "What is the Findings About observation class and how does it differ from the standard Findings class?"
  expected_facts:
    - "Findings About"
    - "FAOBJ"
  expected_sources:
    - "model/02_observation_classes.md"

- id: q40
  category: concept
  question: "What is the difference between collected data and derived data in SDTM, and how is the origin of a variable value indicated?"
  expected_facts:
    - "Collected"
    - "Derived"
    - "Origin"
  expected_sources:
    - "chapters/ch04"

- id: q41
  category: concept
  question: "What are the Trial Design Model datasets in SDTM and what kind of study-level information do they capture?"
  expected_facts:
    - "Trial Design"
    - "TA"
    - "TE"
    - "TV"
  expected_sources:
    - "model/05_study_level_data.md"

# ════════════════════════════════════════════════════════════════════════
# Mixed (12) — combining domain facts + terminology/concepts
# ════════════════════════════════════════════════════════════════════════

- id: q16
  category: mixed
  question: "What values are allowed for AESEV and what is its codelist code?"
  expected_facts:
    - "C66769"
    - "MILD"
    - "MODERATE"
    - "SEVERE"
  expected_sources:
    - "domains/AE/spec.md"
    - "terminology/core/ae.md"

- id: q17
  category: mixed
  question: "How are date and time variables formatted in SDTM and what suffix do they use?"
  expected_facts:
    - "ISO 8601"
    - "DTC"
  expected_sources:
    - "chapters/ch04"

- id: q18
  category: mixed
  question: "Explain the MedDRA coding chain for adverse events from verbatim term to dictionary term."
  expected_facts:
    - "AETERM"
    - "AEMODIFY"
    - "AEDECOD"
    - "Preferred Term"
  expected_sources:
    - "domains/AE/spec.md"
    - "domains/AE/assumptions.md"

- id: q19
  category: mixed
  question: "What controlled terminology codelist is used for DSDECOD when DSCAT equals 'DISPOSITION EVENT', and list specific CDISC Submission Values from that codelist for reasons of non-completion."
  expected_facts:
    - "NCOMPLT"
    - "C66727"
  expected_sources:
    - "domains/DS/assumptions.md"
    - "terminology/core/disposition.md"

- id: q20
  category: mixed
  question: "In the DM domain, what is the difference between the RFSTDTC/RFENDTC reference period pair and the RFXSTDTC/RFXENDTC pair, and under what circumstances will RFSTDTC be null?"
  expected_facts:
    - "sponsor-defined"
    - "screen failure"
  expected_sources:
    - "domains/DM/assumptions.md"
    - "domains/DM/spec.md"

- id: q42
  category: mixed
  question: "In the LB domain, how are normal ranges represented using LBORNRLO and LBORNRHI, and what is the LBNRIND variable used for?"
  expected_facts:
    - "LBORNRLO"
    - "LBORNRHI"
    - "LBNRIND"
  expected_sources:
    - "domains/LB/spec.md"
    - "domains/LB/assumptions.md"

- id: q43
  category: mixed
  question: "What is the controlled terminology codelist for the SEX variable in the DM domain? Provide the codelist code and describe the Core designation."
  expected_facts:
    - "SEX"
    - "C66731"
    - "Req"
  expected_sources:
    - "domains/DM/spec.md"

- id: q44
  category: mixed
  question: "In the VS domain, what is the controlled terminology codelist code for VSTESTCD, and give examples of standard vital signs test codes like systolic and diastolic blood pressure."
  expected_facts:
    - "C66741"
    - "SYSBP"
    - "DIABP"
  expected_sources:
    - "domains/VS/spec.md"

- id: q45
  category: mixed
  question: "What is the RACE variable in the DM domain, what codelist does it use, and what is its Core designation?"
  expected_facts:
    - "RACE"
    - "C74457"
    - "Exp"
  expected_sources:
    - "domains/DM/spec.md"

- id: q46
  category: mixed
  question: "What is the AEOUT (Outcome of Adverse Event) variable in the AE domain and what controlled terminology codelist code does it use?"
  expected_facts:
    - "AEOUT"
    - "C66768"
    - "Perm"
  expected_sources:
    - "domains/AE/spec.md"

- id: q47
  category: mixed
  question: "How do QS (Questionnaires) domains handle instrument-specific variables using QSCAT, and what role does QSTESTCD play in organizing question-level data?"
  expected_facts:
    - "QSTESTCD"
    - "QSCAT"
    - "Topic"
  expected_sources:
    - "domains/QS/spec.md"
    - "domains/QS/assumptions.md"

- id: q48
  category: mixed
  question: "What is the FATESTCD variable's controlled terminology codelist code in the FA domain, and give examples of standard FA test codes?"
  expected_facts:
    - "FATESTCD"
    - "C101832"
  expected_sources:
    - "domains/FA/spec.md"

# ════════════════════════════════════════════════════════════════════════
# Scientist-authored (5) — Rule A 4.c independence check
# Written by scientist subagent WITHOUT seeing main's 48 questions above
# Topic overlap: 5/5 = 100% ≥ 50% threshold → PASS
# ════════════════════════════════════════════════════════════════════════

- id: s01
  category: single_domain
  question: "In the DM domain, what is the controlled terminology codelist code for the SEX variable, and what are its four permitted submission values?"
  expected_facts:
    - "C66731"
    - "F"
    - "M"
    - "U"
    - "UNDIFFERENTIATED"
  expected_sources:
    - "terminology/core/dm.md"
    - "domains/DM/spec.md"

- id: s02
  category: concept
  question: "What is the SUPPQUAL variable QNAM and what character constraints apply to it? What is the maximum length and what characters are allowed?"
  expected_facts:
    - "QNAM"
    - "8 characters"
    - "letters, numbers, or underscores"
    - "cannot start with a number"
    - "Qualifier Variable Name"
  expected_sources:
    - "domains/SUPPQUAL/spec.md"
    - "model/06_relationship_datasets.md"

- id: s03
  category: cross_domain
  question: "The DM variable RFXSTDTC is defined as equal to the earliest value of which variable in the EX domain? Similarly, RFXENDTC is equal to the latest value of which EX variable (or which fallback variable if that is not collected)?"
  expected_facts:
    - "EXSTDTC"
    - "RFXSTDTC"
    - "EXENDTC"
    - "RFXENDTC"
    - "earliest"
    - "latest"
  expected_sources:
    - "domains/DM/spec.md"
    - "domains/EX/spec.md"

- id: s04
  category: mixed
  question: "In the AE domain, what is the controlled terminology codelist code for the AEACN (Action Taken with Study Treatment) variable, and what ICH E2B example values does the CDISC Notes field list for this variable?"
  expected_facts:
    - "C66767"
    - "DRUG WITHDRAWN"
    - "DOSE REDUCED"
    - "DOSE INCREASED"
    - "DOSE NOT CHANGED"
    - "UNKNOWN"
    - "NOT APPLICABLE"
  expected_sources:
    - "domains/AE/spec.md"
    - "terminology/core/ae.md"

- id: s05
  category: single_domain
  question: "In the VS domain, what is the controlled terminology codelist code for the VSTESTCD variable? Name the codelist, state whether it is extensible, and give three example TESTCD values listed for blood pressure and heart rate."
  expected_facts:
    - "C66741"
    - "Vital Signs Test Code"
    - "Extensible: Yes"
    - "SYSBP"
    - "DIABP"
    - "HR"
  expected_sources:
    - "domains/VS/spec.md"
    - "terminology/core/vs.md"

# ════════════════════════════════════════════════════════════════════════
# v2 NEW QUESTIONS (q54-q101) — 12 per category, all gold paths content-verified
# ════════════════════════════════════════════════════════════════════════

# ──────────────────────────────────────────────────────────────────────
# Single Domain (new: q54-q65) — single-domain variable/structure lookups
# ──────────────────────────────────────────────────────────────────────

- id: q54
  category: single_domain
  question: "In the DV (Protocol Deviations) domain, which observation class does it belong to and what is the Topic variable DVTERM?"
  expected_facts:
    - "Events"
    - "DVTERM"
    - "Protocol Deviation Term"
    - "Topic"
  expected_sources:
    - "domains/DV/spec.md"

- id: q55
  category: single_domain
  question: "What is the structure and observation class of the DS (Disposition) domain, and what is the role of the DSTERM variable?"
  expected_facts:
    - "Events"
    - "DSTERM"
    - "Topic"
    - "disposition"
  expected_sources:
    - "domains/DS/spec.md"

- id: q56
  category: single_domain
  question: "In the SU (Substance Use) domain, what observation class is it and what is the SUTRT variable?"
  expected_facts:
    - "Interventions"
    - "SUTRT"
    - "Reported Name of Substance"
    - "Topic"
  expected_sources:
    - "domains/SU/spec.md"

- id: q57
  category: single_domain
  question: "What is the PR (Procedures) domain used for, and what is the PRTRT topic variable along with its Core designation?"
  expected_facts:
    - "Interventions"
    - "PRTRT"
    - "Reported Name of Procedure"
    - "Req"
  expected_sources:
    - "domains/PR/spec.md"

- id: q58
  category: single_domain
  question: "Describe the TS (Trial Summary) domain structure and the TSPARMCD variable, including its controlled terminology codelist code and length limit."
  expected_facts:
    - "Trial Summary"
    - "TSPARMCD"
    - "C66738"
    - "8 characters"
  expected_sources:
    - "domains/TS/spec.md"

- id: q59
  category: single_domain
  question: "In the DD (Death Details) domain, what is the DDTESTCD variable and its controlled terminology codelist code?"
  expected_facts:
    - "DDTESTCD"
    - "C116108"
    - "Topic"
  expected_sources:
    - "domains/DD/spec.md"

- id: q60
  category: single_domain
  question: "What is the CE (Clinical Events) domain, which observation class does it belong to, and what is the CETERM variable?"
  expected_facts:
    - "Events"
    - "CETERM"
    - "Topic"
    - "Clinical Event"
  expected_sources:
    - "domains/CE/spec.md"

- id: q61
  category: single_domain
  question: "In the MB (Microbiology Specimen) domain, what is the MBTESTCD variable, what observation class is MB, and what is the codelist code for MBTESTCD?"
  expected_facts:
    - "Findings"
    - "MBTESTCD"
    - "C120527"
    - "Topic"
  expected_sources:
    - "domains/MB/spec.md"

- id: q62
  category: single_domain
  question: "What is the SS (Subject Status) domain, what is the SSTESTCD variable, and what controlled terminology codelist does it use?"
  expected_facts:
    - "SSTESTCD"
    - "C124305"
    - "Findings"
    - "Topic"
  expected_sources:
    - "domains/SS/spec.md"

- id: q63
  category: single_domain
  question: "In the SC (Subject Characteristics) domain, what observation class is it and what is its dataset structure?"
  expected_facts:
    - "Findings"
    - "one record per characteristic"
    - "Subject Characteristics"
  expected_sources:
    - "domains/SC/spec.md"

- id: q64
  category: single_domain
  question: "What is the PC (Pharmacokinetics Concentrations) domain used for and what is the structure of one record in this dataset?"
  expected_facts:
    - "Findings"
    - "concentration"
    - "analyte"
  expected_sources:
    - "domains/PC/spec.md"

- id: q65
  category: single_domain
  question: "In the DA (Product Accountability) domain, what observation class does it belong to and what is the structure of the dataset?"
  expected_facts:
    - "Findings"
    - "Product Accountability"
    - "per subject"
  expected_sources:
    - "domains/DA/spec.md"

# ──────────────────────────────────────────────────────────────────────
# Cross Domain (new: q66-q77) — relationships / distribution across domains
# ──────────────────────────────────────────────────────────────────────

- id: q66
  category: cross_domain
  question: "Which SDTM domains include the VISITNUM timing variable?"
  expected_facts:
    - "VISITNUM"
    - "Visit Number"
    - "LB"
    - "VS"
  expected_sources:
    - "VARIABLE_INDEX.md"

- id: q67
  category: cross_domain
  question: "Many SDTM variables use the No Yes Response codelist C66742. How many variables reference it and give some examples of AE seriousness variables that use it."
  expected_facts:
    - "C66742"
    - "AESER"
    - "AESDTH"
  expected_sources:
    - "VARIABLE_INDEX.md"

- id: q68
  category: cross_domain
  question: "Which domains use the Completion Status codelist (C66789) for their --STAT variable, and what does --STAT indicate?"
  expected_facts:
    - "C66789"
    - "STAT"
    - "Completion Status"
  expected_sources:
    - "VARIABLE_INDEX.md"

- id: q69
  category: cross_domain
  question: "The dose units codelist C71620 is shared across many Intervention and Findings domains. Which variables such as EXDOSU and CMDOSU reference it?"
  expected_facts:
    - "C71620"
    - "EXDOSU"
    - "CMDOSU"
  expected_sources:
    - "VARIABLE_INDEX.md"

- id: q70
  category: cross_domain
  question: "How is the RELSUB (Related Subjects) dataset used to represent relationships between two subjects, and what does the RSUBJID variable hold?"
  expected_facts:
    - "RSUBJID"
    - "USUBJID"
    - "SREL"
  expected_sources:
    - "domains/RELSUB/spec.md"

- id: q71
  category: cross_domain
  question: "What is the EVAL (Evaluator) codelist C78735 and which domains' --EVAL variables share it?"
  expected_facts:
    - "C78735"
    - "EVAL"
    - "PE"
  expected_sources:
    - "VARIABLE_INDEX.md"

- id: q72
  category: cross_domain
  question: "How do the PC (Pharmacokinetics Concentrations) and PP (Pharmacokinetic Parameters) domains relate to each other, and why are they kept as two separate domains?"
  expected_facts:
    - "PC"
    - "PP"
    - "parameter"
  expected_sources:
    - "chapters/ch08_relationships.md"

- id: q73
  category: cross_domain
  question: "Which special-purpose and relationship domains carry the RDOMAIN variable, and what does RDOMAIN identify?"
  expected_facts:
    - "RDOMAIN"
    - "parent"
    - "2-character"
  expected_sources:
    - "model/06_relationship_datasets.md"

- id: q74
  category: cross_domain
  question: "How are Supplemental Qualifier datasets named per parent domain (for example for AE and CM), and what variable ties each SUPP-- record back to its parent domain?"
  expected_facts:
    - "suppae"
    - "RDOMAIN"
    - "supp--"
  expected_sources:
    - "model/06_relationship_datasets.md"

- id: q75
  category: cross_domain
  question: "In SDTM, which identifier variables besides USUBJID can identify the source of a record across the general observation classes (for example for pooled or device data)?"
  expected_facts:
    - "USUBJID"
    - "POOLID"
    - "SPDEVID"
  expected_sources:
    - "model/02_observation_classes.md"

- id: q76
  category: cross_domain
  question: "How do the AP (Associated Persons) domains link non-subject persons back to study subjects, and what role do RSUBJID and SREL play?"
  expected_facts:
    - "APID"
    - "RSUBJID"
    - "SREL"
  expected_sources:
    - "model/04_associated_persons.md"

- id: q77
  category: cross_domain
  question: "The EPOCH timing variable appears in many domains. List several domains where EPOCH is used and state what kind of variable it is."
  expected_facts:
    - "EPOCH"
    - "Timing"
    - "AE"
    - "EX"
  expected_sources:
    - "VARIABLE_INDEX.md"

# ──────────────────────────────────────────────────────────────────────
# Concept (new: q78-q89) — SDTM model concepts, rules, structural patterns
# ──────────────────────────────────────────────────────────────────────

- id: q78
  category: concept
  question: "What are the rules for values of --TESTCD variables in SDTM? Describe the maximum length and which characters are allowed."
  expected_facts:
    - "8 characters"
    - "cannot start with a number"
    - "letters, numbers, or underscores"
  expected_sources:
    - "chapters/ch04_general_assumptions.md"

- id: q79
  category: concept
  question: "How does SDTM represent a missing value, and what should be done when a test is not performed?"
  expected_facts:
    - "null"
    - "NOT DONE"
    - "STAT"
    - "REASND"
  expected_sources:
    - "chapters/ch04_general_assumptions.md"

- id: q80
  category: concept
  question: "What is the convention for using 'Yes' and 'No' values in SDTM variables, and when is it acceptable to populate only one value?"
  expected_facts:
    - "Yes"
    - "No"
    - "single checkbox"
  expected_sources:
    - "chapters/ch04_general_assumptions.md"

- id: q81
  category: concept
  question: "What rules govern the two-character DOMAIN code in SDTM? What characters are allowed for the first and second characters?"
  expected_facts:
    - "2-character"
    - "A-Z"
    - "0-9"
  expected_sources:
    - "chapters/ch04_general_assumptions.md"

- id: q82
  category: concept
  question: "Which identifier variables are required in all domains based on the three general observation classes, and which subject-level identifier must each include?"
  expected_facts:
    - "STUDYID"
    - "DOMAIN"
    - "SEQ"
    - "USUBJID"
  expected_sources:
    - "model/02_observation_classes.md"

- id: q83
  category: concept
  question: "What is RELREC and how is it used to relate records or datasets to one another in SDTM? What does the RDOMAIN variable do in RELREC?"
  expected_facts:
    - "RELREC"
    - "RDOMAIN"
    - "Identifier"
  expected_sources:
    - "model/06_relationship_datasets.md"

- id: q84
  category: concept
  question: "When deciding whether data belong to the Events, Interventions, or Findings observation class, what is the definition of an intervention versus an event?"
  expected_facts:
    - "intervention"
    - "event"
    - "physiological effect"
  expected_sources:
    - "chapters/ch08_relationships.md"

- id: q85
  category: concept
  question: "What are Associated Persons in SDTM, and how are AP domains named relative to the standard domain codes?"
  expected_facts:
    - "Associated Persons"
    - "AP"
    - "APDM"
  expected_sources:
    - "model/04_associated_persons.md"

- id: q86
  category: concept
  question: "What is an Expected (Exp) Core variable in SDTM, and what must be done in the Define-XML when a study does not collect the data item for an Expected variable?"
  expected_facts:
    - "Expected"
    - "null"
    - "Define-XML"
  expected_sources:
    - "chapters/ch04_general_assumptions.md"

- id: q87
  category: concept
  question: "How does SDTM decide whether assessments of an event should be stored as Supplemental Qualifiers versus in the Findings About (FA) domain?"
  expected_facts:
    - "Findings About"
    - "supplemental qualifier"
    - "event"
  expected_sources:
    - "chapters/ch08_relationships.md"

- id: q88
  category: concept
  question: "What distinguishes ETCD, TSPARMCD, and ARMCD from --TESTCD with respect to character restrictions and maximum lengths in SDTM?"
  expected_facts:
    - "ETCD"
    - "TSPARMCD"
    - "ARMCD"
    - "20 characters"
  expected_sources:
    - "chapters/ch04_general_assumptions.md"

- id: q89
  category: concept
  question: "What are the timing variables grouped under Relative Timing in SDTM (such as --STRF, --ENRF, --STRTPT, --ENRTPT) and what kinds of values do they take?"
  expected_facts:
    - "STRF"
    - "ENRF"
    - "STRTPT"
    - "BEFORE"
  expected_sources:
    - "model/02_observation_classes.md"
    - "chapters/ch04_general_assumptions.md"

# ──────────────────────────────────────────────────────────────────────
# Mixed (new: q90-q99, q101-q102) — domain spec + terminology value combined (genuine >=2 source)
# NOTE: q100 lives physically here but is categorized single_domain (TA ARMCD/ETCD: no CT codelist).
# ──────────────────────────────────────────────────────────────────────

- id: q90
  category: mixed
  question: "In the EX (Exposure) domain, what is the EXROUTE variable and its controlled terminology codelist code, and list some parenteral route-of-administration values from that codelist (for example routes administered under the skin or into a muscle)."
  expected_facts:
    - "EXROUTE"
    - "C66729"
    - "SUBCUTANEOUS"
    - "INTRAMUSCULAR"
  expected_sources:
    - "domains/EX/spec.md"
    - "terminology/core/interventions.md"

- id: q91
  category: mixed
  question: "In the DS (Disposition) domain, which codelist does DSDECOD use for disposition events, and what are some reason-for-non-completion values from that codelist (for example a subject-initiated withdrawal or a physician's decision)?"
  expected_facts:
    - "DSDECOD"
    - "C66727"
    - "WITHDRAWAL BY SUBJECT"
    - "PHYSICIAN DECISION"
  expected_sources:
    - "domains/DS/spec.md"
    - "terminology/core/disposition.md"

- id: q92
  category: mixed
  question: "What is the ETHNIC variable in the DM domain, what controlled terminology codelist code does it use, and what are its permitted values?"
  expected_facts:
    - "ETHNIC"
    - "C66790"
    - "HISPANIC OR LATINO"
  expected_sources:
    - "domains/DM/spec.md"
    - "terminology/core/dm.md"

- id: q93
  category: mixed
  question: "In the EX domain, what is the EXDOSFRM (Dose Form) variable and its controlled terminology codelist code, and give some dose-form values from that codelist (for example a solid oral shell form or a sterile parenteral form)?"
  expected_facts:
    - "EXDOSFRM"
    - "C66726"
    - "CAPSULE"
    - "INJECTION"
  expected_sources:
    - "domains/EX/spec.md"
    - "terminology/core/interventions.md"

- id: q94
  category: mixed
  question: "How does the LB domain distinguish the original result LBORRES from the standardized result LBSTRESC, what codelist does LBSTRESC reference, and what are some of the standard result values in that codelist (for example for positive/negative findings)?"
  expected_facts:
    - "LBORRES"
    - "LBSTRESC"
    - "C102580"
    - "NEGATIVE"
    - "POSITIVE"
  expected_sources:
    - "domains/LB/spec.md"
    - "terminology/core/lb_part4.md"

- id: q95
  category: mixed
  question: "In the DD (Death Details) domain, what is the DDTEST variable and its controlled terminology codelist code, and what are some of the test names defined in that codelist (for example relating to cause of death or age at death)?"
  expected_facts:
    - "DDTEST"
    - "C116107"
    - "Primary Cause of Death"
    - "Age at Death"
  expected_sources:
    - "domains/DD/spec.md"
    - "terminology/core/other_part4.md"

- id: q96
  category: mixed
  question: "In the FA (Findings About) domain, what is the FATEST variable and its controlled terminology codelist code, and give some example test names from that codelist (such as Diameter or Cumulative Exposure)?"
  expected_facts:
    - "FATEST"
    - "C101833"
    - "Diameter"
    - "Cumulative Exposure"
  expected_sources:
    - "domains/FA/spec.md"
    - "terminology/core/findings_about.md"

- id: q97
  category: mixed
  question: "In the SS (Subject Status) domain, what is the SSSTRESC variable, what controlled terminology codelist does it use, and what are the standard subject-status result values in that codelist (such as for a living versus deceased subject)?"
  expected_facts:
    - "SSSTRESC"
    - "C124304"
    - "ALIVE"
    - "DEAD"
  expected_sources:
    - "domains/SS/spec.md"
    - "terminology/core/other_part5.md"

- id: q98
  category: mixed
  question: "In the CM (Concomitant Medications) domain, what is the CMDOSU (Dose Units) variable, what controlled terminology codelist does it use, and give some unit values from that codelist (for example an international unit or a milliequivalent)?"
  expected_facts:
    - "CMDOSU"
    - "C71620"
    - "IU"
    - "mEq"
  expected_sources:
    - "domains/CM/spec.md"
    - "terminology/core/general_part5.md"

- id: q99
  category: mixed
  question: "In the QS (Questionnaires) domain, what is the QSCAT variable used for, what controlled terminology codelist does it reference, and give some example questionnaire short names from that codelist."
  expected_facts:
    - "QSCAT"
    - "C100129"
    - "ACQ"
    - "ACT"
  expected_sources:
    - "domains/QS/spec.md"
    - "terminology/core/qs_part1.md"

- id: q100
  category: single_domain
  question: "In the TA (Trial Arms) domain, what is the ARMCD variable's role and Core designation, and what is the ETCD variable used for?"
  expected_facts:
    - "ARMCD"
    - "Topic"
    - "ETCD"
    - "Element Code"
  expected_sources:
    - "domains/TA/spec.md"

- id: q101
  category: mixed
  question: "What is the TSPARM variable in the TS domain, what is its controlled terminology codelist code, and give some example trial summary parameter names defined in that codelist."
  expected_facts:
    - "TSPARM"
    - "C67152"
    - "Actual Number of Subjects"
    - "Clinical Study Sponsor"
  expected_sources:
    - "domains/TS/spec.md"
    - "terminology/core/trial_design.md"

- id: q102
  category: mixed
  question: "In the VS (Vital Signs) domain, what is the VSPOS variable, what controlled terminology codelist does it use, and list some subject-position values from that codelist (for example a face-down position or a semi-sitting bed position)?"
  expected_facts:
    - "VSPOS"
    - "C71148"
    - "PRONE"
    - "FOWLERS"
  expected_sources:
    - "domains/VS/spec.md"
    - "terminology/core/interventions.md"

# ════════════════════════════════════════════════════════════════════════
# v2 GOLD AUDIT NOTE (self-check per Rule A)
# Each new question's expected_sources file was opened and the expected_facts
# were grep-confirmed present in that file. Flagged-for-recheck items:
#  - q63/q64/q65/q72: facts are lowercased substrings of the structure line /
#    prose (e.g. "one record per characteristic", "concentration", "parameter").
#    Match is case-insensitive per format spec; confirmed present but phrasing-
#    dependent, so re-verify if the matcher becomes case-sensitive.
#  - q92: "HISPANIC OR LATINO" lives in terminology/core/dm.md (codelist C66790);
#    DM/spec.md supplies ETHNIC + C66790 only. Both gold files needed together.
#
# MIXED-PURITY REVISION (post audit feedback): mixed questions previously asked
# only for the codelist *code*, which is printed in spec.md's "Controlled Terms:"
# field → single-source answerable (false mixed). Each mixed question now also asks
# for an actual codelist *value/term*, and — critically — that value was chosen so it
# does NOT appear in the domain spec.md (many spec CDISC Notes leak example values like
# 'Examples: "ORAL", "INTRAVENOUS"'; those leaking values were deliberately avoided).
# A second-source-forcing value lives ONLY in the terminology file. All values were
# opened against the actual codelist table before use:
#   q90 EXROUTE  C66729  -> terminology/core/interventions.md (SUBCUTANEOUS, INTRAMUSCULAR)  [spec leaks ORAL/INTRAVENOUS -> avoided]
#   q91 DSDECOD  C66727  -> terminology/core/disposition.md (WITHDRAWAL BY SUBJECT, PHYSICIAN DECISION)  [spec leaks LOST TO FOLLOW-UP -> avoided]
#   q92 ETHNIC   C66790  -> terminology/core/dm.md (HISPANIC OR LATINO)
#   q93 EXDOSFRM C66726  -> terminology/core/interventions.md (CAPSULE, INJECTION)  [spec leaks TABLET/LOTION -> avoided]
#   q94 LBSTRESC C102580 -> terminology/core/lb_part4.md (NEGATIVE, POSITIVE)
#   q95 DDTEST   C116107 -> terminology/core/other_part4.md (Primary Cause of Death, Age at Death)
#   q96 FATEST   C101833 -> terminology/core/findings_about.md (Diameter, Cumulative Exposure)
#   q97 SSSTRESC C124304 -> terminology/core/other_part5.md (ALIVE, DEAD)  [re-angled from TI/IECAT, whose only 2 values INCLUSION/EXCLUSION are unavoidable substrings of TI spec prose]
#   q98 CMDOSU   C71620  -> terminology/core/general_part5.md (IU, mEq)  [spec leaks ng/mg/mg-per-kg -> avoided]
#   q99 QSCAT    C100129 -> terminology/core/qs_part1.md (ACQ, ACT)  [re-angled from QSORRESU to avoid duplicating q98's C71620]
#   q101 TSPARM  C67152  -> terminology/core/trial_design.md (Actual Number of Subjects, Clinical Study Sponsor)
# q100 (TA ARMCD/ETCD: sponsor-defined, no CT codelist) reclassified mixed -> single_domain.
# q102 (VS VSPOS C71148 -> terminology/core/interventions.md, PRONE, FOWLERS) added new to
#   keep mixed at 25 after moving q100 out  [spec leaks SUPINE/STANDING/SITTING -> avoided].
# ════════════════════════════════════════════════════════════════════════
