{
  "summary": {
    "n_questions": 102,
    "n_scored": 102,
    "n_total": 102,
    "n_out_of_scope": 0,
    "retrieval_only": false,
    "n_answered": 102,
    "model": "bedrock/converse/global.anthropic.claude-opus-5",
    "threshold": 0.85,
    "source_recall_avg": 0.8578,
    "source_recall_by_category": {
      "concept": 0.88,
      "cross_domain": 0.8,
      "mixed": 0.8,
      "single_domain": 0.9444
    },
    "fact_recall_avg": 0.9555,
    "fact_recall_by_category": {
      "concept": 0.9533,
      "cross_domain": 0.9867,
      "mixed": 0.94,
      "single_domain": 0.9431
    },
    "total_tokens": 2127221,
    "overall": 0.9067,
    "overall_metric": "substring",
    "verdict": "PASS",
    "top_k": 15,
    "prompt_guardrail": true,
    "web_search": false,
    "structured_answer": false,
    "graph_answer": false,
    "aggregate_answer": false
  },
  "results": [
    {
      "id": "q01",
      "category": "single_domain",
      "question": "What is AETERM and what are its variable attributes in the AE domain?",
      "out_of_scope": false,
      "source_recall": 1.0,
      "source_hits": [
        "domains/AE/spec.md"
      ],
      "source_misses": [],
      "top5_sources": [
        "domains/AE/assumptions.md",
        "domains/AE/assumptions.md",
        "domains/AE/spec.md",
        "domains/AE/assumptions.md",
        "domains/AE/spec.md"
      ],
      "top5_similarities": [
        0.6641,
        0.6105,
        0.5895,
        0.579,
        0.5779
      ],
      "fact_recall": 1.0,
      "fact_hits": [
        "Topic",
        "Char",
        "Req",
        "Verbatim"
      ],
      "fact_misses": [],
      "answer_preview": "## AETERM — Reported Term for the Adverse Event\n\nAETERM captures the **verbatim term collected for the event** and is the **topic variable** for the AE dataset. It is a required variable and must have a value. [Source: domains/AE/assumptions.md -- item_2]\n\n### Variable attributes\n\n| Attribute | Value |\n|---|---|\n| **Order** | 9 |\n| **Label** | Reported Term for the Adverse Event |\n| **Type** | Char |\n| **Controlled Terms** | (none) |\n| **Role** | Topic |\n| **Core** | Req |\n| **CDISC Notes** | Verbatim name of the event. |\n\n[Source: domains/AE/spec.md -- AETERM] [Source: VARIABLE_INDEX.md -- AE",
      "usage": {
        "prompt_tokens": 17665,
        "completion_tokens": 610,
        "total_tokens": 18275
      },
      "model": "bedrock/converse/global.anthropic.claude-opus-5",
      "answer": "## AETERM — Reported Term for the Adverse Event\n\nAETERM captures the **verbatim term collected for the event** and is the **topic variable** for the AE dataset. It is a required variable and must have a value. [Source: domains/AE/assumptions.md -- item_2]\n\n### Variable attributes\n\n| Attribute | Value |\n|---|---|\n| **Order** | 9 |\n| **Label** | Reported Term for the Adverse Event |\n| **Type** | Char |\n| **Controlled Terms** | (none) |\n| **Role** | Topic |\n| **Core** | Req |\n| **CDISC Notes** | Verbatim name of the event. |\n\n[Source: domains/AE/spec.md -- AETERM] [Source: VARIABLE_INDEX.md -- AE — Adverse Events (Events)]\n\n### Related usage notes\n\n- **AEMODIFY** (Char, Synonym Qualifier, Perm): if AETERM is modified to facilitate coding, AEMODIFY contains the modified text. It should be included if the sponsor's procedures permit modification of a verbatim term for coding. [Source: domains/AE/spec.md -- AEMODIFY] [Source: domains/AE/assumptions.md -- item_2]\n- **AEDECOD** (Char, Synonym Qualifier, Req, CT = MedDRA): dictionary-derived text description of AETERM or AEMODIFY, equivalent to the MedDRA Preferred Term (PT). The reported term (AETERM) is expected to be coded using a standard dictionary such as MedDRA, with the dictionary name and version provided via the external codelist element in the Define-XML document. [Source: domains/AE/spec.md -- AEDECOD] [Source: domains/AE/assumptions.md -- item_2]",
      "elapsed_s": 11.47
    },
    {
      "id": "q02",
      "category": "single_domain",
      "question": "What are the required (Core=Req) variables in the DM domain?",
      "out_of_scope": false,
      "source_recall": 0.0,
      "source_hits": [],
      "source_misses": [
        "domains/DM/spec.md"
      ],
      "top5_sources": [
        "domains/DM/assumptions.md",
        "chapters/ch04_general_assumptions.md",
        "VARIABLE_INDEX.md",
        "VARIABLE_INDEX.md",
        "chapters/ch04_general_assumptions.md"
      ],
      "top5_similarities": [
        0.608,
        0.5671,
        0.5396,
        0.5148,
        0.5056
      ],
      "fact_recall": 0.7143,
      "fact_hits": [
        "STUDYID",
        "DOMAIN",
        "USUBJID",
        "SUBJID",
        "COUNTRY"
      ],
      "fact_misses": [
        "SITEID",
        "SEX"
      ],
      "answer_preview": "## Answer: partially available — the DM variable specification table was not retrieved\n\nThe retrieved context does **not** include `domains/DM/spec.md`, which is the authoritative table listing Order / Label / Type / Role / **Core** for each DM variable. I therefore cannot give you the complete, verified list of Core=Req variables for DM without reading that file.\n\n**What the retrieved context does support:**\n\n- **STUDYID, DOMAIN, USUBJID** are the \"Required Identifiers,\" and they are explicitly exempted from the domain-prefix naming convention precisely because they serve as merge/join keys. ",
      "usage": {
        "prompt_tokens": 19616,
        "completion_tokens": 1370,
        "total_tokens": 20986
      },
      "model": "bedrock/converse/global.anthropic.claude-opus-5",
      "answer": "## Answer: partially available — the DM variable specification table was not retrieved\n\nThe retrieved context does **not** include `domains/DM/spec.md`, which is the authoritative table listing Order / Label / Type / Role / **Core** for each DM variable. I therefore cannot give you the complete, verified list of Core=Req variables for DM without reading that file.\n\n**What the retrieved context does support:**\n\n- **STUDYID, DOMAIN, USUBJID** are the \"Required Identifiers,\" and they are explicitly exempted from the domain-prefix naming convention precisely because they serve as merge/join keys. The same section notes that \"All Demographics (DM) domain variables other than DMDTC and DMDY\" are also exceptions to the prefixing rule — i.e., DM variables are unprefixed. [Source: chapters/ch04_general_assumptions.md — 4.2.2 Two-character Domain Identifier]\n- **DOMAIN** (Label: Domain Abbreviation; Type: Char; Role: Identifier; **Core: Req**) appears in 59 SDTM domains — all except RELREC, RELSPEC, RELSUB, SUPPQUAL — which includes DM. [Source: VARIABLE_INDEX.md — §一 通用变量: DOMAIN]\n- Definition of the Core value: a **Req** (Required) variable \"is any variable that is basic to the identification of a data record ... or is necessary to make the record meaningful. Required variables must always be included in the dataset and cannot be null for any record.\" [Source: chapters/ch04_general_assumptions.md — 4.1.5 SDTM Core Designations]\n- Conformance requires \"Including all Required and Expected variables as columns in standard domains, and ensuring that all Required variables are populated.\" [Source: chapters/ch03_submitting_data.md — 3.2.2 Conformance]\n\n**Important caveat on a rule that is often misapplied to DM:** the rule \"The Identifier variables STUDYID, DOMAIN, USUBJID, and --SEQ are required in all domains\" applies to **domains based on a general observation class** [Source: chapters/ch02_fundamentals.md — 2.5 The SDTM Standard Domain Models]. DM is a special-purpose domain [Source: INDEX.md — Special-purpose Domains; domains/DM/assumptions.md — Description/Overview], so that rule cannot be used to derive DM's Req list (notably, DM has no --SEQ, since it is one record per subject).\n\n**To get the definitive list**, read `domains/DM/spec.md` and filter on Core = Req. I have deliberately not enumerated the remaining candidates (e.g., subject/site/arm/country-type variables) from memory, since their Core designations must be read from the DM specification table rather than inferred.",
      "elapsed_s": 18.75
    },
    {
      "id": "q03",
      "category": "single_domain",
      "question": "What are the key assumptions for adverse event data collection and coding?",
      "out_of_scope": false,
      "source_recall": 1.0,
      "source_hits": [
        "domains/AE/assumptions.md"
      ],
      "source_misses": [],
      "top5_sources": [
        "domains/AE/assumptions.md",
        "domains/AE/assumptions.md",
        "domains/AE/assumptions.md",
        "domains/AE/assumptions.md",
        "domains/CE/assumptions.md"
      ],
      "top5_similarities": [
        0.5919,
        0.5758,
        0.5714,
        0.5608,
        0.5365
      ],
      "fact_recall": 1.0,
      "fact_hits": [
        "AETERM",
        "MedDRA",
        "AEDECOD"
      ],
      "fact_misses": [],
      "answer_preview": "## Key Assumptions for Adverse Event Data Collection & Coding (SDTMIG v3.4, AE domain)\n\n### 1. Scope of what belongs in AE\n\n- The AE dataset contains clinical data describing \"any untoward medical occurrence in a patient or clinical investigation subject administered a pharmaceutical product and which does not necessarily have to have a causal relationship with this treatment\" (ICH E2A). In consultation with regulatory authorities, sponsors may extend or limit the scope of collection (e.g., collecting pre-treatment events related to trial conduct, not collecting events assessed as efficacy end",
      "usage": {
        "prompt_tokens": 26228,
        "completion_tokens": 3141,
        "total_tokens": 29369
      },
      "model": "bedrock/converse/global.anthropic.claude-opus-5",
      "answer": "## Key Assumptions for Adverse Event Data Collection & Coding (SDTMIG v3.4, AE domain)\n\n### 1. Scope of what belongs in AE\n\n- The AE dataset contains clinical data describing \"any untoward medical occurrence in a patient or clinical investigation subject administered a pharmaceutical product and which does not necessarily have to have a causal relationship with this treatment\" (ICH E2A). In consultation with regulatory authorities, sponsors may extend or limit the scope of collection (e.g., collecting pre-treatment events related to trial conduct, not collecting events assessed as efficacy endpoints); the events included must be consistent with protocol requirements. Events may be captured either as free text or via a prespecified list of terms. [Source: domains/AE/assumptions.md -- item_1]\n- Events of clinical interest defined by the protocol that are **not** considered AEs are reflected in CE instead; sponsors must ensure that all adverse events are recorded in the AE domain, and write-in events on a CE CRF should be treated with caution. [Source: domains/CE/assumptions.md -- item_1] [Source: domains/CE/assumptions.md -- item_3]\n\n### 2. Description and coding (AE assumption 2)\n\n| Variable | Rule |\n|---|---|\n| AETERM | Captures the **verbatim** term collected for the event; it is the **Topic** variable, is Required, and must have a value. |\n| AEMODIFY | Permissible; include if the sponsor's procedure permits modification of a verbatim term for coding, populated per sponsor procedures. |\n| AEDECOD | Preferred term derived by the sponsor from the coding dictionary; **Required** and must have a value. AETERM is expected to be coded with a standard dictionary such as MedDRA; the dictionary name and version must be provided via the external codelist element in Define-XML. |\n| AEBODSYS | The system organ class (SOC) from the coding dictionary assigned by the sponsor; **may differ** from the primary SOC in the dictionary's standard hierarchy. Expected to be populated. |\n\n[Source: domains/AE/assumptions.md -- item_2]\n\nCorresponding metadata: AETERM (Char, Topic, Req), AEMODIFY (Char, Synonym Qualifier, Perm), AEDECOD (Char, Synonym Qualifier, Req, MedDRA), AEBODSYS (Char, Record Qualifier, Exp); the MedDRA hierarchy code variables AELLT/AELLTCD/AEPTCD/AEHLT/AEHLTCD/AEHLGT/AEHLGTCD/AEBDSYCD/AESOC/AESOCCD are Expected Variable Qualifiers coded to MedDRA. [Source: VARIABLE_INDEX.md -- AE — Adverse Events (Events)]\n\n### 3. Prespecified terms; presence vs. absence of events (AE assumption 4)\n\n- AEPRESP = \"Y\" indicates the term in AETERM was **prespecified on the CRF** (Char, Variable Qualifier, Perm, CT **C66742** = No Yes Response). Solicitation of specific AEs can affect reporting frequency, so the fact an event was solicited may be of interest to reviewers. [Source: domains/AE/assumptions.md -- item_4] [Source: domains/AE/spec.md -- Controlled Terminology]\n- If it matters which prespecified AEs were **not** reported, those data go into a Findings-class dataset such as **FA** (Findings About Events or Interventions), with one record per prespecified term; events that actually occurred also exist in AE with AEPRESP=\"Y\". [Source: domains/AE/assumptions.md -- item_4]\n- In studies mixing prespecified and free-text collection: AEPRESP=\"Y\" for prespecified events, **null** for free-text events. AEPRESP is Permissible and may be omitted entirely if all AEs were free text. [Source: domains/AE/assumptions.md -- item_4]\n- A \"no adverse events\" record in the sponsor's data management system must **not** be carried into the submission AE dataset — only records for AEs that actually occurred are included. [Source: domains/AE/assumptions.md -- item_4]\n- Practical illustration: prespecified probing questions (\"Did the following occur?\") are represented in FA with FATESTCD=\"OCCUR\" (including FASTAT=\"NOT DONE\" when not asked), while only the \"Y\" responses generate AE records with AEPRESP=\"Y\". [Source: domains/FA/examples.md -- Example 4]\n\n### 4. Disallowed Events-class qualifiers (AE assumption 10)\n\n- **--OCCUR, --STAT, and --REASND are not used in AE** — they are the only SDTM Events-class qualifiers absent from AE, because AE contains only records for events that actually occurred. Negative/missing responses to probing questions are handled per assumption 4b (i.e., in FA). [Source: domains/AE/assumptions.md -- item_10]\n\n### 5. Seriousness, severity and other qualifiers (AE assumption 7)\n\n- If seriousness categories are collected secondarily to a leading \"Serious?\" question, the category variables (e.g., AESCAN, AESCONG) may be null when the answer is \"No\"; when \"Yes\", **at least one** must be \"Y\" and others may be \"N\" or null per sponsor convention. If instead the CRF collects a response for each category (e.g., AESDTH, AESHOSP), all category variables are populated and **AESER is derived**. [Source: domains/AE/assumptions.md -- item_7]\n- AESCAN (\"Involves cancer\") and AESOD (\"Occurred with overdose\") are **not** part of the ICH definition of a serious AE but remain available for studies conducted under pre-ICH-adoption guidelines. [Source: domains/AE/assumptions.md -- item_7]\n- A collected free-text description for \"Other Medically Important Serious Adverse Events\" goes to **SUPPAE** using the standard QNAM **AEOSOSP** (see Section 8.4 and Appendix C1). [Source: domains/AE/assumptions.md -- item_7]\n- When a standard toxicity scale is used (e.g., NCI **CTCAE**), **AETOXGR** is used instead of AESEV; normally only one of the two is populated, though both may be populated in some cases. The dictionary name/version must be provided via the external codelist element in Define-XML. [Source: domains/AE/assumptions.md -- item_7]\n- The seriousness flags and AEPRESP/AECONTRT use codelist **C66742** (No Yes Response); AESEV uses **C66769** (Severity/Intensity Scale for Adverse Events); AEACN uses **C66767**; AEOUT uses **C66768**; AEACNDEV uses **C111110**; AELOC uses **C74456**. [Source: domains/AE/spec.md -- Controlled Terminology]\n\n### 6. Domain structure / definition of an \"event\" (AE assumption 7e)\n\n- Structure is **one record per adverse event per subject**; it is the **sponsor's responsibility to define an event**, and this definition may vary and is usually described in the protocol. Options include one record spanning the event start-to-finish, or a new record when severity/causality/seriousness changes or worsens (each such record then represents a different event). [Source: domains/AE/assumptions.md -- item_7]\n- The submission structure may differ from the collection structure — e.g., data collected per visit but submitted as summary records \"collapsed\" to the highest severity/causality/seriousness and final outcome; alternatively, changes over time may be submitted in an FA-based dataset. [Source: domains/AE/assumptions.md -- item_7] [Source: domains/FA/examples.md -- Example 6]\n\n### 7. Related conventions seen in examples\n\n- Timing: AESTDTC/AEENDTC are Expected (ISO 8601 datetime or interval); relative timing variables such as AEENRF are used when an AE is \"Continuing\" at the end of the study reference period. Times as well as dates may be collected to compare AE timing to start of treatment. [Source: VARIABLE_INDEX.md -- AE — Adverse Events (Events)] [Source: domains/AE/examples.md -- Example 1]\n- With very sparse prespecified-only collection, AE may carry only the term, AEPRESP, AEBODSYS and a collection date (AEDTC), with RELREC optionally relating AE and FA records. [Source: domains/AE/examples.md -- Example 3]\n\n*Note on related domains:* MH follows parallel coding rules (MHTERM topic/Required, MHMODIFY permissible, MHDECOD/MHBODSYS from the dictionary, with MHCAT/MHSCAT used for prespecified body systems), which is useful when aligning AE and MH coding conventions. [Source: domains/MH/assumptions.md -- item_2]",
      "elapsed_s": 37.51
    },
    {
      "id": "q04",
      "category": "single_domain",
      "question": "What is the purpose of the TV (Trial Visits) domain and what variables does it contain?",
      "out_of_scope": false,
      "source_recall": 1.0,
      "source_hits": [
        "domains/TV/spec.md"
      ],
      "source_misses": [],
      "top5_sources": [
        "VARIABLE_INDEX.md",
        "domains/SV/assumptions.md",
        "domains/TV/examples.md",
        "domains/TV/assumptions.md",
        "domains/TA/spec.md"
      ],
      "top5_similarities": [
        0.7202,
        0.6873,
        0.6648,
        0.6385,
        0.6362
      ],
      "fact_recall": 1.0,
      "fact_hits": [
        "VISITNUM",
        "VISIT"
      ],
      "fact_misses": [],
      "answer_preview": "## Purpose of TV\n\nThe Trial Visits (TV) dataset is a **Trial Design** domain that describes the **protocol-defined planned schedule of subject encounters** at the healthcare facility where the study is conducted [Source: domains/TV/assumptions.md -- overview]. Visits are defined as \"clinical encounters\" and are described using the timing variables **VISIT, VISITNUM, and VISITDY** [Source: domains/TV/assumptions.md -- overview].\n\nKey roles it plays:\n\n- **Provides the planned schedule against which actual subject activity is compared.** TV (together with TD) \"provide the planned scheduling of as",
      "usage": {
        "prompt_tokens": 18429,
        "completion_tokens": 2379,
        "total_tokens": 20808
      },
      "model": "bedrock/converse/global.anthropic.claude-opus-5",
      "answer": "## Purpose of TV\n\nThe Trial Visits (TV) dataset is a **Trial Design** domain that describes the **protocol-defined planned schedule of subject encounters** at the healthcare facility where the study is conducted [Source: domains/TV/assumptions.md -- overview]. Visits are defined as \"clinical encounters\" and are described using the timing variables **VISIT, VISITNUM, and VISITDY** [Source: domains/TV/assumptions.md -- overview].\n\nKey roles it plays:\n\n- **Provides the planned schedule against which actual subject activity is compared.** TV (together with TD) \"provide the planned scheduling of assessments to which a subject's actual visits and disease assessments can be compared\" [Source: domains/TV/assumptions.md -- overview]. The companion special-purpose domain SV captures the timing of the visits a subject *actually* passed through, plus visits that did not occur, and explicitly refers back to TV as the dataset that \"defines the planned visits for the trial\" [Source: domains/SV/assumptions.md -- item_1].\n- **Governs controlled values of visit variables in all collected-data domains.** For planned visits, the values of VISIT, VISITNUM, and VISITDY used in any domain \"must be those defined in the Trial Visits (TV) dataset,\" and there must be a one-to-one relationship between VISIT and VISITNUM [Source: chapters/ch04_general_assumptions.md -- 4.4.5 Clinical Encounters and Visits].\n- **Scope of \"visit\" is flexible.** A protocol-defined trial visit need not equal one physical visit — it may span multiple clinic visits (e.g., screening recorded under one VISIT/VISITNUM) or represent only part of an extended in-patient stay. Diary and other out-of-clinic collection times may be described as \"visits\" in TV if desired [Source: domains/TV/examples.md -- Trial Visits Issues].\n- **Contingent visits** (data collection triggered by an event or disease milestone) may be included in TV with a rule describing the circumstances; because VISITNUM must be populated for all TV records, a contingent visit's VISITNUM may not be chronological [Source: domains/TV/examples.md -- Trial Visits Issues].\n\n## Structure\n\nThe general structure is **\"One Record per Planned Visit per Arm.\"** For many trials (especially blinded ones) the schedule is identical across arms, so the structure becomes \"One Record per Planned Visit\" and **ARMCD should be left blank** on all records. If visits differ by arm, **ARMCD and ARM must be populated on all records**; if only some visits differ, populate ARMCD/ARM on all records for clarity, even though this creates near-duplicate records [Source: domains/TV/assumptions.md -- item_1].\n\n## Variables\n\nThe two TV-specific (Rule) variables are:\n\n| Variable | Label | Type | Role | Core | CT |\n|---|---|---|---|---|---|\n| TVSTRL | Visit Start Rule | Char | Rule | Req | — |\n| TVENRL | Visit End Rule | Char | Rule | Perm | — |\n\n[Source: VARIABLE_INDEX.md -- TV — Trial Visits (Trial Design)]\n\nAdditional variables evidenced in the retrieved TV content:\n\n- **STUDYID, DOMAIN, VISITNUM, TVSTRL, TVENRL** — shown populated in the tv.xpt examples [Source: domains/TV/examples.md -- Example 1]\n- **VISIT, VISITDY** — the timing variables used to describe visits in TV [Source: domains/TV/assumptions.md -- overview]; VISITDY is \"in effect, a special case representation of TVSTRL\" and is useful when all visits are scheduled relative to study day 1 (RFSTDTC) [Source: domains/TV/assumptions.md -- item_3]\n- **ARMCD, ARM** — populated when the visit schedule differs by arm [Source: domains/TV/assumptions.md -- item_1]\n- **TAETORD** — referenced as sometimes needed together with an element name to specify when a visit is to occur, when an arm repeats the same element [Source: domains/TV/examples.md -- Example 1]\n\n*Caveat:* the full TV variable specification table (domains/TV/spec.md) was not part of the retrieved context, so Type/Role/Core attributes are confirmed above only for TVSTRL and TVENRL. Consult domains/TV/spec.md for the complete ordered variable list with all attributes.\n\n## Rule-writing guidance (TVSTRL / TVENRL)\n\n- **TVSTRL** describes *when the visit should occur* and should reflect the protocol wording [Source: domains/TV/assumptions.md -- item_3]. This differs from element start rules, which describe the moment an element is considered to start; because gaps normally exist between visits, it is usually unnecessary to define the transition moment between visits — though trials of hospitalized subjects that divide time into visits like elements may need a transition event [Source: domains/TV/examples.md -- Trial Visits Issues].\n- Start rules are usually expressed **relative to the start or end of an element or epoch** (e.g., \"1-2 hours before end of First Wash-out\", \"8 weeks after end of 2nd Treatment Epoch\"); the visit need not occur *during* the referenced element [Source: domains/TV/examples.md -- Trial Visits Issues].\n- **TVENRL** describes when the visit should end, expressed relative to the start/end of an element or epoch, or relative to the start of the visit [Source: domains/TV/examples.md -- Trial Visits Issues].\n- Rules may be non-quantifiable, e.g., TVSTRL = \"On the day of, but before, the start of the Treatment Epoch\" [Source: domains/TV/examples.md -- Trial Visits Issues].\n- **Ranges** may be used (e.g., \"12-16 days after the start of 2nd Element\"); these are distinct from analysis \"windows\" used to select data points for a visit [Source: domains/TV/examples.md -- Trial Visits Issues].\n\n## Related domains\n\nSame class (Trial Design): TA, TD, TE, TI, TM, TS — with TA linked because \"visits reference arms,\" and SE linked as \"planned visits vs actual subject elements\" [Source: domains/TV/spec.md -- Related Domains].",
      "elapsed_s": 29.85
    },
    {
      "id": "q05",
      "category": "single_domain",
      "question": "In the PE (Physical Examination) domain, what is the structure of the dataset, what is the role of the PETESTCD variable, and what value should PETESTCD have when the results of the entire physical examination are represented in one record?",
      "out_of_scope": false,
      "source_recall": 1.0,
      "source_hits": [
        "domains/PE/spec.md"
      ],
      "source_misses": [],
      "top5_sources": [
        "domains/PE/spec.md",
        "VARIABLE_INDEX.md",
        "domains/PE/spec.md",
        "domains/PE/examples.md",
        "domains/PE/assumptions.md"
      ],
      "top5_similarities": [
        0.731,
        0.7191,
        0.7026,
        0.6542,
        0.6235
      ],
      "fact_recall": 1.0,
      "fact_hits": [
        "PETESTCD",
        "Topic",
        "PHYSEXAM"
      ],
      "fact_misses": [],
      "answer_preview": "## PE Domain — Structure, PETESTCD Role, and Whole-Exam Value\n\n### 1. Dataset structure\nThe retrieved context does **not** contain the authoritative dataset-level metadata row for PE (the Dataset-level Metadata table in Chapter 3 is truncated before the Findings-class domains), so I cannot quote the normative structure statement (e.g., \"one record per ... per subject\") for pe.xpt. **[Source: chapters/ch03_submitting_data.md § 3.2.1 Dataset-level Metadata]**\n\nWhat can be observed from the domain's own example is the record granularity in practice: each record represents one body system examined",
      "usage": {
        "prompt_tokens": 27496,
        "completion_tokens": 1149,
        "total_tokens": 28645
      },
      "model": "bedrock/converse/global.anthropic.claude-opus-5",
      "answer": "## PE Domain — Structure, PETESTCD Role, and Whole-Exam Value\n\n### 1. Dataset structure\nThe retrieved context does **not** contain the authoritative dataset-level metadata row for PE (the Dataset-level Metadata table in Chapter 3 is truncated before the Findings-class domains), so I cannot quote the normative structure statement (e.g., \"one record per ... per subject\") for pe.xpt. **[Source: chapters/ch03_submitting_data.md § 3.2.1 Dataset-level Metadata]**\n\nWhat can be observed from the domain's own example is the record granularity in practice: each record represents one body system examined (with location/laterality qualifiers) at one visit for one subject, and separate records are used for each abnormality found within a body system (distinguished by PESPID, PELOC, PELAT). **[Source: domains/PE/examples.md -- Example 1]** For the definitive structure string, confirm against the SDTMIG v3.4 dataset-level metadata / Define-XML specification.\n\nNote that PE is classified as a **Findings** domain. **[Source: VARIABLE_INDEX.md -- PE — Physical Examination (Findings)]**\n\n### 2. PETESTCD\n- **Label:** Body System Examined Short Name\n- **Type:** Char\n- **Role:** Topic\n- **Core:** Req\n- **Controlled Terms:** none specified\n- **Order:** 7\n\n**CDISC Notes:** Short name of a part of the body examined in a physical examination. It can be used as a column name when converting a dataset from a vertical to a horizontal format. The value cannot be longer than 8 characters, cannot start with a number (e.g., \"1TEST\" is not valid), and cannot contain characters other than letters, numbers, or underscores. Examples: \"HEAD\", \"ENT\". **[Source: domains/PE/spec.md -- PETESTCD]**\n\nAs the Topic variable, PETESTCD carries the subject of the observation (the body system examined), while PEORRES/PESTRESC carry the result. **[Source: VARIABLE_INDEX.md -- PE — Physical Examination (Findings)]**\n\n### 3. Value when the entire physical examination is one record\n- **PETESTCD = \"PHYSEXAM\"** **[Source: domains/PE/spec.md -- PETESTCD]**\n- Correspondingly, **PETEST = \"Physical Examination\"** (PETEST: Body System Examined, Char, Synonym Qualifier, Req, max 40 characters). **[Source: domains/PE/spec.md -- PETEST]**",
      "elapsed_s": 18.34
    },
    {
      "id": "q21",
      "category": "single_domain",
      "question": "What is the LBTESTCD variable in the LB (Laboratory Test Results) domain? Describe its role, controlled terminology codelist code, and naming constraints.",
      "out_of_scope": false,
      "source_recall": 1.0,
      "source_hits": [
        "domains/LB/spec.md"
      ],
      "source_misses": [],
      "top5_sources": [
        "domains/LB/spec.md",
        "domains/LB/spec.md",
        "domains/LB/assumptions.md",
        "VARIABLE_INDEX.md",
        "VARIABLE_INDEX.md"
      ],
      "top5_similarities": [
        0.7836,
        0.7576,
        0.7497,
        0.7479,
        0.7178
      ],
      "fact_recall": 1.0,
      "fact_hits": [
        "Topic",
        "C65047",
        "8 characters"
      ],
      "fact_misses": [],
      "answer_preview": "## LBTESTCD — Lab Test or Examination Short Name\n\n| Attribute | Value |\n|---|---|\n| **Domain** | LB — Laboratory Test Results (Findings class) |\n| **Order** | 8 |\n| **Label** | Lab Test or Examination Short Name |\n| **Type** | Char |\n| **Controlled Terms** | C65047 — *Laboratory Test Code* |\n| **Role** | Topic |\n| **Core** | Req (Required) |\n\n[Source: domains/LB/spec.md -- LBTESTCD] [Source: VARIABLE_INDEX.md -- LB — Laboratory Test Results (Findings)]\n\n### Role\n\nLBTESTCD is the **Topic** variable of the LB domain — i.e., it carries the focus of the observation (which lab test was performed). ",
      "usage": {
        "prompt_tokens": 19905,
        "completion_tokens": 1054,
        "total_tokens": 20959
      },
      "model": "bedrock/converse/global.anthropic.claude-opus-5",
      "answer": "## LBTESTCD — Lab Test or Examination Short Name\n\n| Attribute | Value |\n|---|---|\n| **Domain** | LB — Laboratory Test Results (Findings class) |\n| **Order** | 8 |\n| **Label** | Lab Test or Examination Short Name |\n| **Type** | Char |\n| **Controlled Terms** | C65047 — *Laboratory Test Code* |\n| **Role** | Topic |\n| **Core** | Req (Required) |\n\n[Source: domains/LB/spec.md -- LBTESTCD] [Source: VARIABLE_INDEX.md -- LB — Laboratory Test Results (Findings)]\n\n### Role\n\nLBTESTCD is the **Topic** variable of the LB domain — i.e., it carries the focus of the observation (which lab test was performed). Because it is **Required**, it must be present and populated on every record. Its companion variable **LBTEST** (Lab Test or Examination Name, Char, Synonym Qualifier, Req, CT **C67154**) carries the corresponding long/verbatim test name, limited to 40 characters. [Source: domains/LB/spec.md -- LBTEST]\n\n### Controlled terminology\n\n- Codelist code **C65047** (Laboratory Test Code), located in `terminology/core/lb_part2.md`; it is referenced only by LB.LBTESTCD. [Source: domains/LB/spec.md -- Controlled Terminology] [Source: VARIABLE_INDEX.md -- §三 CT 交叉引用: C65047]\n- The paired name codelist is **C67154** (Laboratory Test Name) in `terminology/core/lb_part3.md`, used by LBTEST. [Source: domains/LB/spec.md -- Controlled Terminology] [Source: VARIABLE_INDEX.md -- §三 CT 交叉引用: C67154]\n- Note: CDISC publishes a **LOINC to LB Mapping Codetable** (at https://www.cdisc.org/standards/terminology/controlled-terminology) that can be used to identify the appropriate CDISC CT value for a test with a given LOINC code (LBLOINC). [Source: domains/LB/assumptions.md -- item_8]\n\n### Naming constraints\n\nPer the CDISC Notes for LBTESTCD [Source: domains/LB/spec.md -- LBTESTCD]:\n\n1. It is the **short name** of the measurement, test, or examination described in LBTEST.\n2. **Maximum 8 characters.**\n3. **Cannot start with a number** (e.g., \"1TEST\" is invalid).\n4. **Cannot contain characters other than letters, numbers, or underscores.**\n5. It is designed so it can serve as a **column name** when transposing a dataset from vertical (normalized) to horizontal format.\n\nExamples: `ALT`, `LDH` (with LBTEST values \"Alanine Aminotransferase\", \"Lactate Dehydrogenase\" respectively). [Source: domains/LB/spec.md -- LBTESTCD] [Source: domains/LB/spec.md -- LBTEST]",
      "elapsed_s": 14.27
    },
    {
      "id": "q22",
      "category": "single_domain",
      "question": "What is the VS (Vital Signs) domain and what are some examples of VSTESTCD values? Include the codelist code.",
      "out_of_scope": false,
      "source_recall": 1.0,
      "source_hits": [
        "domains/VS/spec.md"
      ],
      "source_misses": [],
      "top5_sources": [
        "domains/VS/spec.md",
        "domains/VS/assumptions.md",
        "domains/VS/spec.md",
        "VARIABLE_INDEX.md",
        "domains/VS/spec.md"
      ],
      "top5_similarities": [
        0.7384,
        0.6914,
        0.67,
        0.6527,
        0.6468
      ],
      "fact_recall": 1.0,
      "fact_hits": [
        "Findings",
        "VSTESTCD",
        "C66741"
      ],
      "fact_misses": [],
      "answer_preview": "## VS — Vital Signs Domain\n\n**Class:** Findings [Source: VARIABLE_INDEX.md -- VS — Vital Signs (Findings)]\n\nVS captures vital signs measurements. Its records follow the Findings observation class structure — e.g., if a reference range is available for a vital signs test, the Findings-class variables VSORNRLO, VSORNRHI, and VSNRIND may be added; toxicity is represented in VSTOX/VSTOXGR, and clinical significance in VSCLSIG (per Section 4.5.5) [Source: domains/VS/assumptions.md -- item_2].\n\n### VSTESTCD (the topic variable)\n\n| Attribute | Value |\n|---|---|\n| Order | 7 |\n| Label | Vital Signs Tes",
      "usage": {
        "prompt_tokens": 18312,
        "completion_tokens": 1579,
        "total_tokens": 19891
      },
      "model": "bedrock/converse/global.anthropic.claude-opus-5",
      "answer": "## VS — Vital Signs Domain\n\n**Class:** Findings [Source: VARIABLE_INDEX.md -- VS — Vital Signs (Findings)]\n\nVS captures vital signs measurements. Its records follow the Findings observation class structure — e.g., if a reference range is available for a vital signs test, the Findings-class variables VSORNRLO, VSORNRHI, and VSNRIND may be added; toxicity is represented in VSTOX/VSTOXGR, and clinical significance in VSCLSIG (per Section 4.5.5) [Source: domains/VS/assumptions.md -- item_2].\n\n### VSTESTCD (the topic variable)\n\n| Attribute | Value |\n|---|---|\n| Order | 7 |\n| Label | Vital Signs Test Short Name |\n| Type | Char |\n| Controlled Terms | **C66741** (Vital Signs Test Code) |\n| Role | Topic |\n| Core | Req |\n\nCDISC Notes: Short name of the measurement, test, or examination described in VSTEST. It can be used as a column name when converting a dataset from a vertical to a horizontal format. The value cannot be longer than 8 characters, cannot start with a number (e.g., \"1TEST\" is not valid), and cannot contain characters other than letters, numbers, or underscores [Source: domains/VS/spec.md -- VSTESTCD].\n\n### Example VSTESTCD values (codelist C66741)\n\n- SYSBP\n- DIABP\n- BMI\n\n[Source: domains/VS/spec.md -- VSTESTCD] · [Source: domains/VS/spec.md -- Controlled Terminology]\n\nThe corresponding VSTEST values (codelist **C67153**, Vital Signs Test Name, Req, Synonym Qualifier, max 40 characters) are, respectively: \"Systolic Blood Pressure\", \"Diastolic Blood Pressure\", \"Body Mass Index\" [Source: domains/VS/spec.md -- VSTEST]. Note that the individual NCI concept codes for these specific test-code values are not shown in the retrieved context and must be confirmed in the terminology file `terminology/core/vs.md`.\n\n### Related VS controlled terminology\n\n| Codelist | Code | Variable(s) |\n|---|---|---|\n| Vital Signs Test Code | C66741 | VSTESTCD |\n| Vital Signs Test Name | C67153 | VSTEST |\n| Units for Vital Signs Results | C66770 | VSORRESU, VSSTRESU |\n| No Yes Response | C66742 | VSLOBXFL, VSBLFL, VSDRVFL, VSCLSIG |\n| Not Done | C66789 | VSSTAT |\n| Position | C71148 | VSPOS |\n| Anatomical Location | C74456 | VSLOC |\n| Laterality | C99073 | VSLAT |\n| Epoch | C99079 | EPOCH |\n\n[Source: domains/VS/spec.md -- Controlled Terminology]\n\nC66770 (Units for Vital Signs Results) is extensible and includes units such as %, beats/min, breaths/min, C, F, cm, cmHg, kg, kg/m2, mm, m, m2 [Source: terminology/core/vs.md -- Units for Vital Signs Results].\n\nAdditional note: associations between some vital signs tests and their qualifier codelists are documented in the VS codetable published at https://www.cdisc.org/standards/terminology/controlled-terminology [Source: domains/VS/assumptions.md -- item_3].",
      "elapsed_s": 19.14
    },
    {
      "id": "q23",
      "category": "single_domain",
      "question": "In the CM (Concomitant Medications) domain, what is the CMTRT variable and what observation class does CM belong to?",
      "out_of_scope": false,
      "source_recall": 1.0,
      "source_hits": [
        "domains/CM/spec.md"
      ],
      "source_misses": [],
      "top5_sources": [
        "domains/CM/spec.md",
        "domains/CM/assumptions.md",
        "VARIABLE_INDEX.md",
        "domains/CM/assumptions.md",
        "domains/CM/spec.md"
      ],
      "top5_similarities": [
        0.6741,
        0.6597,
        0.6347,
        0.6279,
        0.6041
      ],
      "fact_recall": 1.0,
      "fact_hits": [
        "CMTRT",
        "Interventions",
        "Topic",
        "Req"
      ],
      "fact_misses": [],
      "answer_preview": "## CMTRT\n\n| Attribute | Value |\n|---|---|\n| **Variable** | CMTRT |\n| **Order** | 7 |\n| **Label** | Reported Name of Drug, Med, or Therapy |\n| **Type** | Char |\n| **Controlled Terms** | (none) |\n| **Role** | Topic |\n| **Core** | Req |\n\n**CDISC Notes:** Verbatim medication name that is either preprinted or collected on a CRF. [Source: domains/CM/spec.md -- CMTRT]\n\n### Usage rules\n\n- CMTRT is the **topic variable** of the domain and captures the name of the concomitant medication/therapy, or the prespecified term used to collect information about the occurrence of any of a group of medications/th",
      "usage": {
        "prompt_tokens": 18260,
        "completion_tokens": 1130,
        "total_tokens": 19390
      },
      "model": "bedrock/converse/global.anthropic.claude-opus-5",
      "answer": "## CMTRT\n\n| Attribute | Value |\n|---|---|\n| **Variable** | CMTRT |\n| **Order** | 7 |\n| **Label** | Reported Name of Drug, Med, or Therapy |\n| **Type** | Char |\n| **Controlled Terms** | (none) |\n| **Role** | Topic |\n| **Core** | Req |\n\n**CDISC Notes:** Verbatim medication name that is either preprinted or collected on a CRF. [Source: domains/CM/spec.md -- CMTRT]\n\n### Usage rules\n\n- CMTRT is the **topic variable** of the domain and captures the name of the concomitant medication/therapy, or the prespecified term used to collect information about the occurrence of any of a group of medications/therapies. It is a required variable and must have a value. [Source: domains/CM/assumptions.md -- item_2]\n- CMTRT contains **only** the medication/therapy name — no dosage, formulation, or other qualifying information. E.g., \"ASPIRIN 100MG TABLET\" is not valid; it should be split as CMTRT = \"ASPIRIN\", CMDOSE = \"100\", CMDOSU = \"MG\", CMDOSFRM = \"TABLET\". [Source: domains/CM/assumptions.md -- item_2]\n- When referring to a prespecified group of medications/therapies, CMTRT contains the description of the group used to solicit the occurrence response; CMPRESP and CMOCCUR are then used together to indicate that the intervention in CMTRT was prespecified and whether it occurred. [Source: domains/CM/assumptions.md -- item_2] [Source: domains/CM/assumptions.md -- item_3]\n- Related qualifiers: CMMODIFY (modified verbatim term, if the sponsor's procedure permits modification for coding) and CMDECOD (standardized/dictionary-derived text description of CMTRT or CMMODIFY, equivalent to the generic drug name in WHO Drug; left blank if no decode value exists). [Source: domains/CM/assumptions.md -- item_2] [Source: domains/CM/spec.md -- CMDECOD]\n\n## Observation class of CM\n\nCM belongs to the **Interventions** general observation class. The domain is described as \"an interventions domain that contains concomitant and prior medications used by the subject,\" and the dataset specification reads: \"cm.xpt, Concomitant/Prior Medications — Interventions. One record per recorded intervention occurrence or constant-dosing interval per subject, Tabulation.\" [Source: domains/CM/assumptions.md -- overview] The variable index likewise designates it \"CM — Concomitant/Prior Medications (Interventions)\". [Source: VARIABLE_INDEX.md -- CM — Concomitant/Prior Medications (Interventions)]\n\nAs an Interventions-class domain, any identifier, timing, or interventions general-observation-class qualifiers may be added to CM, though --MOOD and --LOT would generally not be used. [Source: domains/CM/assumptions.md -- item_5]",
      "elapsed_s": 15.51
    },
    {
      "id": "q24",
      "category": "single_domain",
      "question": "What is the EX (Exposure) domain used for and what is the Topic variable EXTRT?",
      "out_of_scope": false,
      "source_recall": 1.0,
      "source_hits": [
        "domains/EX/spec.md"
      ],
      "source_misses": [],
      "top5_sources": [
        "domains/EX/assumptions.md",
        "domains/EX/assumptions.md",
        "domains/EX/assumptions.md",
        "VARIABLE_INDEX.md",
        "domains/EC/spec.md"
      ],
      "top5_similarities": [
        0.6559,
        0.6203,
        0.6116,
        0.6061,
        0.5973
      ],
      "fact_recall": 1.0,
      "fact_hits": [
        "EXTRT",
        "Interventions",
        "protocol-specified"
      ],
      "fact_misses": [],
      "answer_preview": "## EX (Exposure) Domain — Purpose\n\n**Class:** Interventions [Source: domains/EX/spec.md -- Related Domains]\n\n**What it captures:** EX represents protocol-specified study treatment administrations. Examples of treatments represented in EX include, but are not limited to, placebo, active comparators, and investigational products. Treatments that are **not** protocol-specified belong in CM (Concomitant/Prior Medications) or another Interventions domain as appropriate. [Source: domains/EX/assumptions.md -- item_1]\n\n**Key structural/usage rules:**\n- EX is generally recognized as a **derived** datas",
      "usage": {
        "prompt_tokens": 17865,
        "completion_tokens": 1822,
        "total_tokens": 19687
      },
      "model": "bedrock/converse/global.anthropic.claude-opus-5",
      "answer": "## EX (Exposure) Domain — Purpose\n\n**Class:** Interventions [Source: domains/EX/spec.md -- Related Domains]\n\n**What it captures:** EX represents protocol-specified study treatment administrations. Examples of treatments represented in EX include, but are not limited to, placebo, active comparators, and investigational products. Treatments that are **not** protocol-specified belong in CM (Concomitant/Prior Medications) or another Interventions domain as appropriate. [Source: domains/EX/assumptions.md -- item_1]\n\n**Key structural/usage rules:**\n- EX is generally recognized as a **derived** dataset, where EXDOSU reflects the protocol-specified unit per study treatment. Collected data points (e.g., number of tablets, total volume infused) plus additional inputs (randomization file, concentration, dosage strength, product accountability) are used to derive EX records. [Source: domains/EX/assumptions.md -- item_1]\n- EX is **required for all studies that include protocol-specified study treatment**. Exposure records may be directly or indirectly determined; metadata must describe the derivation. Methods, from most to least direct: actual observation of administration by the investigator; automated dispensing device records; subject recall; product accountability data; derived from the protocol (and when a study is still masked such that protocol-specified doses cannot yet be expressed in the protocol-specified unit, EX is not expected to be populated). [Source: domains/EX/assumptions.md -- item_1]\n- Structure: **1 record per constant-dosing interval per subject**. The sponsor defines the constant-dosing interval — any period describable by a known treatment at a consistent dose, frequency, infusion rate, etc. E.g., for once-weekly dosing over 6 weeks, EX may be a single record spanning the 6-week treatment phase (if per-dose information is not collected) or up to 6 records (1 per weekly administration, if each administration is monitored). [Source: domains/EX/assumptions.md -- item_1]\n- Timing is captured by start/end date/time of each constant-dosing interval. VISITNUM may be added only when exposure occurs entirely within a clinical encounter (then VISIT/VISITDY also become permissible); it must not be used to signal \"start visit\"/\"end visit\" of a longer dosing interval, since EX captures timing of *exposure*, not dispensing. For point-in-time administrations where only one date/time is collected, EXSTDTC should be copied to EXENDTC. [Source: domains/EX/assumptions.md -- item_4; domains/EX/spec.md -- EXENDTC]\n- **Relationship to EC:** Collected exposure data points are represented in the Exposure as Collected (EC) domain; where the EC↔EX record relationship can be described, it should be defined in RELREC, and EX derivations must be described in the Define-XML document. [Source: domains/EX/assumptions.md -- item_5; domains/EC/assumptions.md -- item_1]\n- EX contains medications **received** only, so --MOOD generally would not be used, and the qualifiers --PRESP, --OCCUR, --STAT, and --REASND would generally not be used. Any Identifier, Timing, or Findings-class qualifiers may be added as needed. [Source: domains/EX/assumptions.md -- item_6]\n\n## EXTRT — the Topic variable\n\n| Attribute | Value |\n|---|---|\n| Variable | EXTRT |\n| Label | Name of Treatment |\n| Type | Char |\n| Role | Topic |\n| Core | Req |\n| Controlled Terms | — (none specified) |\n\n[Source: VARIABLE_INDEX.md -- EX — Exposure (Interventions)]\n\n**Usage rules:**\n- EXTRT captures the name of the **protocol-specified study treatment** and is the topic variable of the domain. It is a Required variable and must have a value. [Source: domains/EX/assumptions.md -- item_2]\n- EXTRT must contain **only the treatment name** — no dosage, formulation, or other qualifying information. For example, \"ASPIRIN 100MG TABLET\" is *not* valid; it should be split as EXTRT = \"ASPIRIN\", EXDOSE = \"100\", EXDOSU = \"mg\", EXDOSFRM = \"TABLET\". [Source: domains/EX/assumptions.md -- item_2]\n- Placebo doses are represented as EXTRT = \"PLACEBO\" with EXDOSE = \"0\" (indicating 0 mg of active ingredient taken/administered). [Source: domains/EX/assumptions.md -- item_2]\n- As with other Interventions domains, the topic variable is --TRT (i.e., EXTRT for EX). [Source: chapters/ch04_general_assumptions.md -- 4.3.6]\n- EXCAT/EXSCAT can be used to group EXTRT values (EXCAT is \"Used to define a category of EXTRT values\"). [Source: domains/EX/spec.md -- EXCAT]",
      "elapsed_s": 23.14
    },
    {
      "id": "q25",
      "category": "single_domain",
      "question": "In the MH (Medical History) domain, what is the role of MHTERM and what assumptions guide medical history data collection?",
      "out_of_scope": false,
      "source_recall": 1.0,
      "source_hits": [
        "domains/MH/assumptions.md"
      ],
      "source_misses": [],
      "top5_sources": [
        "domains/MH/assumptions.md",
        "VARIABLE_INDEX.md",
        "domains/MH/assumptions.md",
        "domains/MH/spec.md",
        "domains/MH/assumptions.md"
      ],
      "top5_similarities": [
        0.7367,
        0.7079,
        0.6768,
        0.6764,
        0.6714
      ],
      "fact_recall": 1.0,
      "fact_hits": [
        "MHTERM",
        "Topic",
        "Verbatim"
      ],
      "fact_misses": [],
      "answer_preview": "## MHTERM — Variable Definition\n\n| Attribute | Value |\n|---|---|\n| **Order** | 8 |\n| **Label** | Reported Term for the Medical History |\n| **Type** | Char |\n| **Role** | **Topic** |\n| **Core** | **Req** (Required) |\n| **Controlled Terms** | (none) |\n| **CDISC Notes** | Verbatim or preprinted CRF term for the medical condition or event. |\n\n[Source: domains/MH/spec.md -- MHTERM] [Source: VARIABLE_INDEX.md -- MH — Medical History (Events)]\n\nAs the **Topic** variable of this Events-class domain, MHTERM is the subject of the observation — it captures either the verbatim term collected for the condi",
      "usage": {
        "prompt_tokens": 22125,
        "completion_tokens": 2286,
        "total_tokens": 24411
      },
      "model": "bedrock/converse/global.anthropic.claude-opus-5",
      "answer": "## MHTERM — Variable Definition\n\n| Attribute | Value |\n|---|---|\n| **Order** | 8 |\n| **Label** | Reported Term for the Medical History |\n| **Type** | Char |\n| **Role** | **Topic** |\n| **Core** | **Req** (Required) |\n| **Controlled Terms** | (none) |\n| **CDISC Notes** | Verbatim or preprinted CRF term for the medical condition or event. |\n\n[Source: domains/MH/spec.md -- MHTERM] [Source: VARIABLE_INDEX.md -- MH — Medical History (Events)]\n\nAs the **Topic** variable of this Events-class domain, MHTERM is the subject of the observation — it captures either the verbatim term collected for the condition/event, or the prespecified term used to solicit whether any of a group of conditions/events occurred. It is Required and must always be populated. [Source: domains/MH/assumptions.md -- item_2]\n\nMH is described as \"an events domain that contains data that includes the subject's prior medical history at the start of the trial.\" [Source: domains/MH/assumptions.md -- overview]\n\n---\n\n## Assumptions Guiding MH Data Collection\n\n### 1. Description and coding (Assumption 2)\n- **MHMODIFY** (Perm) should be included if the sponsor's procedures permit modification of the verbatim term for coding; populate per sponsor procedure — null values permitted.\n- **MHDECOD** is populated with the dictionary preferred term when MHTERM is coded to a standard dictionary; the sponsor must provide dictionary name and version via the external codelist element in Define-XML.\n- **MHBODSYS** holds the system organ class (SOC) from the coding dictionary assigned by the sponsor; it may differ from the primary SOC in the dictionary's standard hierarchy. It is expected to be populated.\n- If the CRF collects medical history by prespecified body systems *and* the sponsor also codes terms, then MHDECOD/MHBODSYS come from the dictionary, while **MHCAT/MHSCAT** carry the prespecified body systems.\n\n[Source: domains/MH/assumptions.md -- item_2]\n\n### 2. Categorization and grouping (Assumption 3)\n- **MHCAT/MHSCAT**: sponsor-defined categorization, often prespecified on the CRF. MHBODSYS is derived from the coding system whereas MHCAT is effectively assigned when the investigator records the condition under a prespecified category, so the two may differ.\n  - Do **not** group all MH records into one generic category (e.g., \"General Medical History\") since that duplicates the domain code; if no finer categorization exists, omit the variable. If \"General Medical History\" is used as an MHCAT value, other MHCAT values should also exist (e.g., \"Allergy Medical History,\" \"Reproductive Medical History\").\n- **MHGRPID**: links related records *within a subject* in MH (e.g., a group of syndromes related to one disease). It must not substitute for MHCAT/MHSCAT, which group data *across* subjects.\n\n[Source: domains/MH/assumptions.md -- item_3]\n\n### 3. Prespecified terms; presence or absence of events (Assumption 4)\nMedical history is generally collected either as free text or from a prespecified list of terms. Because solicitation can affect reporting frequency, the fact that an event was solicited is of reviewer interest. **MHPRESP** and **MHOCCUR** (both CT C66742, No Yes Response) are used together:\n\n| Situation | MHPRESP | MHOCCUR | MHSTAT |\n|---|---|---|---|\n| Spontaneously reported event occurred | | | |\n| Pre-specified event occurred | Y | Y | |\n| Pre-specified event did not occur | Y | N | |\n| Pre-specified event has no response | Y | | NOT DONE |\n\n- MHPRESP = \"Y\" indicates the term was prespecified; MHOCCUR = \"Y\"/\"N\" indicates whether the prespecified condition occurred.\n- For free-text events, MHPRESP and MHOCCUR should be **null**; both are Permissible and may be omitted entirely if all events were free text.\n- **MHSTAT** (CT C66789, Not Done) and **MHREASND** describe prespecified questions with no collected response; both are Permissible and may be omitted if all data were free text or all prespecified conditions had MHOCCUR responses.\n- When free text is used, do **not** create a record to indicate \"no medical history\" for a subject or a prespecified body system category.\n\n[Source: domains/MH/assumptions.md -- item_4] [Source: domains/MH/spec.md -- MHOCCUR] [Source: domains/MH/spec.md -- Controlled Terminology]\n\n### 4. Timing variables (Assumption 5)\n- Relative timing assessments such as \"Ongoing\"/\"Active\" are common. **MHENRF** is used when the assessment is coincident with the start of the subject's study reference period (DM.RFSTDTC); **MHENRTPT** with **MHENTPT** are used when \"Ongoing\" is relative to another date (e.g., the screening visit date). See Section 4.4.7, Use of Relative Timing Variables.\n- Additional timing variables (e.g., MHSTRF) may be used when appropriate.\n\n[Source: domains/MH/assumptions.md -- item_5]\n\n---\n\n## Illustration from the examples\n- Example 1: MHENRTPT = \"ONGOING\"/\"BEFORE\" from the \"Ongoing at Study Start\" question; two start-date types for congestive heart failure produce two records distinguished by MHEVDTYP = \"SYMPTOM ONSET\" vs. \"DIAGNOSIS\", grouped with MHGRPID = \"CHF\". [Source: domains/MH/examples.md -- Example 1]\n- Example 2: MHCAT set to the CRF module (GENERAL MEDICAL HISTORY, STROKE HISTORY, RISK FACTORS); MHPRESP/MHOCCUR populated only for prespecified terms, per Assumption 4. [Source: domains/MH/examples.md -- Example 2]\n- Example 3: MHPRESP = \"Y\" for all solicited conditions; for the unasked asthma question MHOCCUR is null, MHSTAT = \"NOT DONE\", MHREASND = \"FORGOT TO ASK\". [Source: domains/MH/examples.md -- Example 3]\n\n*Note: MHEVDTYP uses codelist C124301 (Medical History Event Date Type); individual term codes must be confirmed in the terminology file.* [Source: domains/MH/spec.md -- Controlled Terminology]",
      "elapsed_s": 24.4
    },
    {
      "id": "q26",
      "category": "single_domain",
      "question": "Describe the EG (ECG Test Results) domain structure and the EGTESTCD variable, including its controlled terminology codelist codes.",
      "out_of_scope": false,
      "source_recall": 1.0,
      "source_hits": [
        "domains/EG/spec.md"
      ],
      "source_misses": [],
      "top5_sources": [
        "domains/EG/spec.md",
        "domains/EG/spec.md",
        "domains/EG/spec.md",
        "VARIABLE_INDEX.md",
        "VARIABLE_INDEX.md"
      ],
      "top5_similarities": [
        0.7263,
        0.7253,
        0.7226,
        0.6977,
        0.6789
      ],
      "fact_recall": 1.0,
      "fact_hits": [
        "EGTESTCD",
        "Findings",
        "C71153"
      ],
      "fact_misses": [],
      "answer_preview": "## EG — ECG Test Results\n\n**Class:** Findings [Source: VARIABLE_INDEX.md -- EG — ECG Test Results (Findings)]\n\n### Domain Structure (variables, in Order)\n\n| Variable | Label | Type | Role | Core | CT |\n|--------|-------|------|------|------|----|\n| EGSEQ | Sequence Number | Num | Identifier | Req | — |\n| EGGRPID | Group ID | Char | Identifier | Perm | — |\n| EGREFID | ECG Reference ID | Char | Identifier | Perm | — |\n| EGSPID | Sponsor-Defined Identifier | Char | Identifier | Perm | — |\n| EGBEATNO | ECG Beat Number | Num | Identifier | Perm | — |\n| EGTESTCD | ECG Test or Examination Short Name ",
      "usage": {
        "prompt_tokens": 18020,
        "completion_tokens": 2989,
        "total_tokens": 21009
      },
      "model": "bedrock/converse/global.anthropic.claude-opus-5",
      "answer": "## EG — ECG Test Results\n\n**Class:** Findings [Source: VARIABLE_INDEX.md -- EG — ECG Test Results (Findings)]\n\n### Domain Structure (variables, in Order)\n\n| Variable | Label | Type | Role | Core | CT |\n|--------|-------|------|------|------|----|\n| EGSEQ | Sequence Number | Num | Identifier | Req | — |\n| EGGRPID | Group ID | Char | Identifier | Perm | — |\n| EGREFID | ECG Reference ID | Char | Identifier | Perm | — |\n| EGSPID | Sponsor-Defined Identifier | Char | Identifier | Perm | — |\n| EGBEATNO | ECG Beat Number | Num | Identifier | Perm | — |\n| EGTESTCD | ECG Test or Examination Short Name | Char | Topic | Req | C71153; C120523 |\n| EGTEST | ECG Test or Examination Name | Char | Synonym Qualifier | Req | C71152; C120524 |\n| EGCAT | Category for ECG | Char | Grouping Qualifier | Perm | — |\n| EGSCAT | Subcategory for ECG | Char | Grouping Qualifier | Perm | — |\n| EGPOS | ECG Position of Subject | Char | Record Qualifier | Perm | C71148 |\n| EGORRES | Result or Finding in Original Units | Char | Result Qualifier | Exp | — |\n| EGORRESU | Original Units | Char | Variable Qualifier | Perm | C71620 |\n| EGSTRESC | Character Result/Finding in Std Format | Char | Result Qualifier | Exp | C71150; C120522; C101834 |\n| EGSTRESN | Numeric Result/Finding in Standard Units | Num | Result Qualifier | Perm | — |\n| EGSTRESU | Standard Units | Char | Variable Qualifier | Perm | C71620 |\n| EGSTAT | Completion Status | Char | Record Qualifier | Perm | C66789 |\n| EGREASND | Reason ECG Not Done | Char | Record Qualifier | Perm | — |\n| EGXFN | ECG External File Path | Char | Record Qualifier | Perm | — |\n| EGNAM | Vendor Name | Char | Record Qualifier | Perm | — |\n| EGMETHOD | Method of Test or Examination | Char | Record Qualifier | Perm | C71151 |\n| EGLEAD | Lead Location Used for Measurement | Char | Record Qualifier | Perm | C90013 |\n| EGLOBXFL | Last Observation Before Exposure Flag | Char | Record Qualifier | Exp | C66742 |\n| EGBLFL | Baseline Flag | Char | Record Qualifier | Perm | C66742 |\n| EGDRVFL | Derived Flag | Char | Record Qualifier | Perm | C66742 |\n| EGEVAL | Evaluator | Char | Record Qualifier | Perm | C78735 |\n| EGEVALID | Evaluator Identifier | Char | Variable Qualifier | Perm | C96777 |\n| EGCLSIG | Clinically Significant, Collected | Char | Record Qualifier | Perm | C66742 |\n| EGREPNUM | Repetition Number | Num | Record Qualifier | Perm | — |\n| EGDTC | Date/Time of ECG | Char | Timing | Exp | ISO 8601 datetime or interval |\n| EGDY | Study Day of ECG | Num | Timing | Perm | — |\n| EGTPT | Planned Time Point Name | Char | Timing | Perm | — |\n| EGTPTNUM | Planned Time Point Number | Num | Timing | Perm | — |\n| EGELTM | Planned Elapsed Time from Time Point Ref | Char | Timing | Perm | ISO 8601 duration |\n| EGTPTREF | Time Point Reference | Char | Timing | Perm | — |\n| EGRFTDTC | Date/Time of Reference Time Point | Char | Timing | Perm | ISO 8601 datetime or interval |\n\n[Source: VARIABLE_INDEX.md -- EG — ECG Test Results (Findings)]\n\n(Standard Identifiers STUDYID/DOMAIN/USUBJID and additional Timing variables such as VISIT/EPOCH also apply; EPOCH uses codelist C99079 [Source: domains/EG/spec.md -- Controlled Terminology].)\n\n### EGTESTCD\n\n- **Order:** 10\n- **Label:** ECG Test or Examination Short Name\n- **Type:** Char\n- **Controlled Terms:** C71153; C120523\n- **Role:** Topic\n- **Core:** Req\n- **CDISC Notes:** Short name of the measurement, test, or examination described in EGTEST. It can be used as a column name when converting a dataset from a vertical to a horizontal format. The value in EGTESTCD cannot be longer than 8 characters, nor can it start with a number (e.g., \"1TEST\" is not valid). EGTESTCD cannot contain characters other than letters, numbers, or underscores. Examples: \"PRAG\", \"QRSAG\". Test codes are in 2 separate codelists, 1 for tests based on regular 10-second ECGs (EGTESTCD) and 1 for tests based on Holter monitoring (HETESTCD).\n\n[Source: domains/EG/spec.md -- EGTESTCD]\n\n### Controlled terminology for EGTESTCD\n\n| Codelist code | Codelist name | Terminology file |\n|---|---|---|\n| C71153 | ECG Test Code | terminology/core/eg_part2.md |\n| C120523 | Holter ECG Test Code (Extensible: Yes) | terminology/core/eg_part3.md |\n\n[Source: domains/EG/spec.md -- Controlled Terminology] [Source: VARIABLE_INDEX.md -- §三 CT 交叉引用: C71153] [Source: VARIABLE_INDEX.md -- §三 CT 交叉引用: C120523] [Source: terminology/core/eg_part3.md -- Holter ECG Test Code]\n\nThe two-codelist arrangement is confirmed in the domain assumptions: separate codelists exist for tests and results based on regular 10-second ECGs versus Holter monitoring; associations between certain ECG abnormality tests and their response codelists are documented in the CDISC ECG codetable [Source: domains/EG/assumptions.md -- item_2]. The paired name variable EGTEST uses codelists C71152 (ECG Test Name) and C120524 (Holter ECG Test Name) [Source: domains/EG/spec.md -- EGTEST] [Source: domains/EG/spec.md -- Controlled Terminology].\n\nValues visible in the retrieved Holter ECG Test Code (C120523) rows include, for example: AVCOND (C111131), AXISVOLT (C111132), CHYPTENL (C111155), EGCOMP (C117761), INTP (C41255), IVTIACD (C111238), MI (C111280), PACEMAKR (C111285), RHYNOS (C111307), SNRARRY (C111312), SPRARRY (C111320), SPRTARRY (C111321), STSTWUW (C111363), TECHQUAL (C117807), VTARRY (C111330), VTTARRY (C111331) [Source: terminology/core/eg_part3.md -- Holter ECG Test Code]. Values of the regular ECG codelist C71153 (e.g., PRAG, QRSAG as cited in the CDISC Notes) are name-only here — their individual NCI codes must be confirmed in terminology/core/eg_part2.md.\n\n### Related notes on EGTESTCD usage\nWhen EG is used together with the ECG QT Correction Model Data (QT) domain, EGTESTCD/EGTEST values for each QT correction method are assigned at the study level, and the sponsor must document what each test code represents (e.g., QTCIAG1 for the best-fit model, QTCIAG2 for the second best-fit model) [Source: domains/EG/assumptions.md -- item_10].",
      "elapsed_s": 32.52
    },
    {
      "id": "q27",
      "category": "single_domain",
      "question": "What is the IE (Inclusion/Exclusion) domain and what is the role and maximum length of the IETEST variable?",
      "out_of_scope": false,
      "source_recall": 1.0,
      "source_hits": [
        "domains/IE/spec.md"
      ],
      "source_misses": [],
      "top5_sources": [
        "domains/TI/spec.md",
        "VARIABLE_INDEX.md",
        "VARIABLE_INDEX.md",
        "domains/IE/spec.md",
        "domains/TI/assumptions.md"
      ],
      "top5_similarities": [
        0.716,
        0.7093,
        0.6908,
        0.6769,
        0.6678
      ],
      "fact_recall": 1.0,
      "fact_hits": [
        "IETEST",
        "200",
        "Synonym Qualifier"
      ],
      "fact_misses": [],
      "answer_preview": "## IE Domain — Inclusion/Exclusion Criteria Not Met\n\n**Purpose/scope:** The IE domain captures **only** the responses to those inclusion/exclusion criteria that the subject **did not meet** — it is not intended to hold responses to all criteria [Source: domains/IE/assumptions.md -- item_1]. The complete list of entry criteria for the trial belongs in the Trial Inclusion/Exclusion Criteria (TI) dataset, referenced in Section 7.4.1 [Source: domains/IE/assumptions.md -- item_1].\n\n**Class:** IE is listed as a **Findings** domain [Source: VARIABLE_INDEX.md -- IE — Inclusion/Exclusion Criteria Not M",
      "usage": {
        "prompt_tokens": 15373,
        "completion_tokens": 1320,
        "total_tokens": 16693
      },
      "model": "bedrock/converse/global.anthropic.claude-opus-5",
      "answer": "## IE Domain — Inclusion/Exclusion Criteria Not Met\n\n**Purpose/scope:** The IE domain captures **only** the responses to those inclusion/exclusion criteria that the subject **did not meet** — it is not intended to hold responses to all criteria [Source: domains/IE/assumptions.md -- item_1]. The complete list of entry criteria for the trial belongs in the Trial Inclusion/Exclusion Criteria (TI) dataset, referenced in Section 7.4.1 [Source: domains/IE/assumptions.md -- item_1].\n\n**Class:** IE is listed as a **Findings** domain [Source: VARIABLE_INDEX.md -- IE — Inclusion/Exclusion Criteria Not Met (Findings)].\n\nKey IE variables include IESEQ, IESPID (Identifiers), IETESTCD (Topic), IETEST (Synonym Qualifier), IECAT/IESCAT (Grouping Qualifiers), IEORRES/IESTRESC (Result Qualifiers, CT **C66742**), IEDTC and IEDY (Timing) [Source: VARIABLE_INDEX.md -- IE — Inclusion/Exclusion Criteria Not Met (Findings)][Source: domains/IE/spec.md -- IEORRES].\n\n## IETEST\n\n| Attribute | Value (IE domain) |\n|---|---|\n| Order | 7 |\n| Label | Inclusion/Exclusion Criterion |\n| Type | Char |\n| Controlled Terms | (none) |\n| **Role** | **Synonym Qualifier** |\n| Core | Req |\n\n[Source: domains/IE/spec.md -- IETEST]\n\n**Maximum length:** IETEST **cannot be longer than 200 characters** [Source: domains/IE/spec.md -- IETEST]. It is to be used only for the verbatim description of the inclusion or exclusion criterion; if the text is ≤200 characters it goes in IETEST, and if it exceeds 200 characters, put meaningful text in IETEST and describe the full text in the study metadata (see Section 4.5.3.1, Test Name (--TEST) Greater than 40 Characters) [Source: domains/IE/assumptions.md -- item_3].\n\n**Related:** the Topic variable IETESTCD (short name of the criterion) is limited to 8 characters, cannot start with a number, and may contain only letters, numbers, or underscores (e.g., \"IN01\", \"EX01\") [Source: domains/IE/spec.md -- IETESTCD].\n\n**Note on TI:** IETEST also appears in TI (Order 4, Char, Synonym Qualifier, Req), where it holds the **full text** of the inclusion or exclusion criterion; the \"IE\" prefix is used for consistency with the IE domain [Source: domains/TI/spec.md -- IETEST]. Because entry criteria are rules, TI additionally includes TIRL in anticipation of computer-executable rules [Source: domains/TI/assumptions.md -- item_4]. IETEST appears in exactly 2 domains: IE and TI [Source: VARIABLE_INDEX.md -- §一 通用变量: IETEST].",
      "elapsed_s": 16.94
    },
    {
      "id": "q06",
      "category": "cross_domain",
      "question": "What is SUPPQUAL and when should supplemental qualifiers be used instead of adding variables to a domain?",
      "out_of_scope": false,
      "source_recall": 1.0,
      "source_hits": [
        "domains/SUPPQUAL/spec.md"
      ],
      "source_misses": [],
      "top5_sources": [
        "chapters/ch08_relationships.md",
        "domains/SUPPQUAL/assumptions.md",
        "VARIABLE_INDEX.md",
        "chapters/ch08_relationships.md",
        "model/06_relationship_datasets.md"
      ],
      "top5_similarities": [
        0.7412,
        0.741,
        0.7332,
        0.7305,
        0.7295
      ],
      "fact_recall": 1.0,
      "fact_hits": [
        "QNAM",
        "QVAL",
        "non-standard"
      ],
      "fact_misses": [],
      "answer_preview": "## SUPPQUAL — Purpose and Definition\n\n**SUPPQUAL** (Supplemental Qualifiers) is the mechanism SDTM provides for representing **non-standard variables (NSVs)**. The SDTM does not allow the addition of new variables to a domain, so the Supplemental Qualifiers dataset model is used to capture NSVs and their association to parent records in general-observation class datasets (Events, Findings, Interventions), Demographics (DM), and Subject Visits (SV) [Source: domains/SUPPQUAL/assumptions.md]. \n\n- **Dataset name/structure:** `supp--.xpt`, \"Supplemental Qualifiers for [domain name]\" — Class **Relat",
      "usage": {
        "prompt_tokens": 25023,
        "completion_tokens": 2874,
        "total_tokens": 27897
      },
      "model": "bedrock/converse/global.anthropic.claude-opus-5",
      "answer": "## SUPPQUAL — Purpose and Definition\n\n**SUPPQUAL** (Supplemental Qualifiers) is the mechanism SDTM provides for representing **non-standard variables (NSVs)**. The SDTM does not allow the addition of new variables to a domain, so the Supplemental Qualifiers dataset model is used to capture NSVs and their association to parent records in general-observation class datasets (Events, Findings, Interventions), Demographics (DM), and Subject Visits (SV) [Source: domains/SUPPQUAL/assumptions.md]. \n\n- **Dataset name/structure:** `supp--.xpt`, \"Supplemental Qualifiers for [domain name]\" — Class **Relationship**; structure is **one record per supplemental qualifier per related parent domain record(s)**, Tabulation [Source: chapters/ch08_relationships.md -- 8.4.1].\n- **Naming:** There is a one-to-one correspondence between a domain dataset and its SUPP-- dataset. The single combined SUPPQUAL dataset option from SDTMIG v3.1 was **deprecated**; e.g., DM qualifiers go in `suppdm.xpt`, AE in `suppae.xpt`. For split domains, longer names such as SUPPFAMH / SUPPQS36 / SUPPFACM are used, with RDOMAIN holding the 2-character domain code [Source: chapters/ch08_relationships.md -- 8.4.2; chapters/ch04_general_assumptions.md -- 4.1.7]. For associated-persons FA data where \"SUPPAPFAMH\" would be too long, the \"SUPP\" fragment is shortened to \"SQ\" (e.g., SQAPFAMH) [Source: chapters/ch08_relationships.md -- 8.4.2].\n\n## Variables (SUPP-- / SDTMIG v3.4)\n\n| Variable | Label | Type | Role | Core | CT |\n|---|---|---|---|---|---|\n| STUDYID | Study Identifier | Char | Identifier | Req | — |\n| RDOMAIN | Related Domain Abbreviation | Char | Identifier | Req | (DOMAIN) |\n| USUBJID | Unique Subject Identifier | Char | Identifier | Req | — |\n| IDVAR | Identifying Variable | Char | Identifier | Exp | * |\n| IDVARVAL | Identifying Variable Value | Char | Identifier | Exp | — |\n| QNAM | Qualifier Variable Name | Char | Topic | Req | * |\n| QLABEL | Qualifier Variable Label | Char | Synonym Qualifier | Req | — |\n| QVAL | Data Value | Char | Result Qualifier | Req | — |\n| QORIG | Origin | Char | Record Qualifier | Req | — |\n| QEVAL | Evaluator | Char | Record Qualifier | Exp | (EVAL) |\n\n[Source: chapters/ch08_relationships.md -- 8.4.1]\n\nQEVAL is associated with codelist **C78735** per the variable index [Source: VARIABLE_INDEX.md -- SUPPQUAL]. The SDTM v2.0 model form of SUPP-- additionally includes APID, POOLID, and SPDEVID as Identifiers (13 variables total) [Source: model/06_relationship_datasets.md -- 6.2].\n\nKey constraints:\n- QNAM ≤ 8 characters, cannot start with a number, and may contain only letters, numbers, or underscores; QLABEL ≤ 40 characters [Source: chapters/ch08_relationships.md -- 8.4.1].\n- The combination STUDYID…QNAM (first 6 columns) must be unique for every record — no duplicate QNAM for the same IDVAR/IDVARVAL within USUBJID in a domain. Where two evaluators supply the same concept, use distinct QNAM values (e.g., AETRTEMI vs. AETRTEMA) so reviewers can merge/transpose without loss [Source: domains/SUPPQUAL/assumptions.md].\n- Linkage is via STUDYID, RDOMAIN, USUBJID, IDVAR/IDVARVAL. **Exception:** for DM parent records, IDVAR and IDVARVAL are null because STUDYID + RDOMAIN + USUBJID uniquely identify the DM record (one record per USUBJID) [Source: chapters/ch08_relationships.md -- Key Rules].\n- **QVAL must never be null** — records generated with null QVAL (e.g., from transposing missing source values) must be deleted before submission [Source: domains/SUPPQUAL/assumptions.md].\n- QORIG indicates the origin of the value (e.g., \"CRF\", \"Assigned\", \"Derived\") per Section 4.1.8, Origin Metadata; QEVAL is used only for subjective results (e.g., \"ADJUDICATION COMMITTEE\", \"SPONSOR\") and is null for objectively collected or derived data [Source: chapters/ch08_relationships.md -- 8.4.1; domains/SUPPQUAL/assumptions.md].\n- Controlled terminology for common QNAM/QLABEL values is in **Appendix C1, Supplemental Qualifiers Name Codes**; additional QNAM values may be created as needed [Source: chapters/ch08_relationships.md -- Key Rules].\n\n## When to Use Supplemental Qualifiers\n\n1. **Whenever a sponsor-defined qualifier has no standard SDTM variable** — since new variables cannot be added to a domain, the NSV must go to SUPP-- [Source: domains/SUPPQUAL/assumptions.md].\n2. **Attributions** — an interpretation or subjective classification of one or more observations by a specific evaluator (e.g., a flag indicating whether an observation was clinically significant). SUPP-- allows as many attributions as needed, and can hold both objective and subjective data [Source: domains/SUPPQUAL/assumptions.md].\n3. **Secondary evaluations** — for observations with primary and secondary evaluations of specific qualifier variables, put the primary evaluation in the standard domain and the secondary in SUPP--. QNAM is formed by appending \"1\" to the standard variable name; if that name is already 8 characters, replace the last character with \"1\" (e.g., AERELNST → AERELNS1); increment for further attributions [Source: chapters/ch04_general_assumptions.md -- 4.5.4].\n4. **Evaluator identification for Interventions/Events**, which lack --EVAL — QEVAL can describe the evaluator for any data item in SUPP--, though it is not required for objective data [Source: chapters/ch04_general_assumptions.md -- 4.5.4].\n\nExample (suppae.xpt): AESOSP \"Other Medically Important SAE\" (QORIG = CRF) and AETRTEM \"Treatment Emergent Flag\" (QORIG = Derived, QEVAL = SPONSOR) linked to AE via IDVAR = AESEQ, IDVARVAL = 1 [Source: chapters/ch08_relationships.md -- 8.4.3].\n\n## When NOT to Use Supplemental Qualifiers\n\nData that represent **separate observations** should be treated as separate observations, not as supplemental qualifiers [Source: domains/SUPPQUAL/assumptions.md]. Specifically, do **not** submit as SUPP--:\n\n- Subject-level objective data that fit in **Subject Characteristics (SC)** (e.g., national origin, twin type).\n- **Findings interpretations** that belong as an additional test code and result — e.g., an ECG interpretation record with EGTESTCD = \"INTP\", sharing the same EGGRPID or EGREFID as the other records for that ECG.\n- **Comments** related to a record or records in a parent dataset — these belong in the **CO** special-purpose domain, even if collected on the same CRF record.\n- Data **not directly related** to records in a parent domain — these belong in a separate general-observation-class or special-purpose domain.\n\n[Source: chapters/ch08_relationships.md -- 8.4.4]\n\nAlso note that for long text, Section 4.5.3 (Text Strings that Exceed the Maximum Length) governs representation of values greater than 200 characters [Source: chapters/ch08_relationships.md -- Key Rules].",
      "elapsed_s": 31.44
    },
    {
      "id": "q07",
      "category": "cross_domain",
      "question": "Which SDTM domains use the EPOCH variable and what is its purpose?",
      "out_of_scope": false,
      "source_recall": 1.0,
      "source_hits": [
        "VARIABLE_INDEX.md"
      ],
      "source_misses": [],
      "top5_sources": [
        "VARIABLE_INDEX.md",
        "chapters/ch04_general_assumptions.md",
        "domains/SR/spec.md",
        "domains/TA/assumptions.md",
        "domains/CP/spec.md"
      ],
      "top5_similarities": [
        0.7585,
        0.7,
        0.6839,
        0.6823,
        0.6779
      ],
      "fact_recall": 1.0,
      "fact_hits": [
        "EPOCH",
        "Timing"
      ],
      "fact_misses": [],
      "answer_preview": "## EPOCH — Variable Definition\n\n| Attribute | Value |\n|---|---|\n| **Label** | Epoch |\n| **Type** | Char |\n| **Controlled Terms** | C99079 (EPOCH codelist) |\n| **Role** | Timing |\n| **Core** | Perm (marked Perm\\* in the cross-domain index) |\n\n[Source: domains/SR/spec.md] [Source: VARIABLE_INDEX.md]\n\n## Domains That Include EPOCH\n\nEPOCH appears in **44 domains**: AE, AG, CE, CM, CP, CV, DA, DS, DV, EC, EG, EX, FA, FT, HO, IE, IS, LB, MB, MH, MI, MK, ML, MS, NV, OE, PC, PE, PP, PR, QS, RE, RP, RS, SC, SE, SR, SS, SU, TA, TR, TU, UR, VS. [Source: VARIABLE_INDEX.md]\n\nThis spans the Interventions do",
      "usage": {
        "prompt_tokens": 15572,
        "completion_tokens": 1651,
        "total_tokens": 17223
      },
      "model": "bedrock/converse/global.anthropic.claude-opus-5",
      "answer": "## EPOCH — Variable Definition\n\n| Attribute | Value |\n|---|---|\n| **Label** | Epoch |\n| **Type** | Char |\n| **Controlled Terms** | C99079 (EPOCH codelist) |\n| **Role** | Timing |\n| **Core** | Perm (marked Perm\\* in the cross-domain index) |\n\n[Source: domains/SR/spec.md] [Source: VARIABLE_INDEX.md]\n\n## Domains That Include EPOCH\n\nEPOCH appears in **44 domains**: AE, AG, CE, CM, CP, CV, DA, DS, DV, EC, EG, EX, FA, FT, HO, IE, IS, LB, MB, MH, MI, MK, ML, MS, NV, OE, PC, PE, PP, PR, QS, RE, RP, RS, SC, SE, SR, SS, SU, TA, TR, TU, UR, VS. [Source: VARIABLE_INDEX.md]\n\nThis spans the Interventions domains (AG, CM, EC, EX, ML, PR, SU), Events domains (AE, CE, DS, DV, HO, MH), the bulk of the Findings domains, the special-purpose domain SE, and the Trial Design domain TA (where the epoch is a defining element of the arm path rather than an observation timing attribute). [Source: VARIABLE_INDEX.md] [Source: domains/TA/assumptions.md]\n\n## Purpose\n\nEPOCH records the **trial epoch (study-design period) with which an observation is associated** — e.g., \"SCREENING\", \"TREATMENT\", \"FOLLOW-UP\". [Source: domains/SR/spec.md] [Source: domains/FA/spec.md]\n\nWhich date/time it is anchored to depends on the observation class:\n\n- **Findings class:** base EPOCH on **--DTC**, since that is the date/time of the test or, for tests on specimens, the date/time of specimen collection. A rare exception is an interval specimen collection spanning two epochs, where **--ENDTC** may be the more appropriate basis. [Source: chapters/ch04_general_assumptions.md §4.1.3.1]\n- **Interventions/Events classes:** base EPOCH on **--STDTC**, the start of the intervention or event. [Source: chapters/ch04_general_assumptions.md §4.1.3.1]\n\nIndividual domain specs reflect this, e.g. LB/PC/PP/IS/CP: \"Epoch associated with the start date/time of the observation, or the date/time of collection if start date/time is not collected\"; EG/RE: \"Epoch associated with the date/time at which the assessment was made\". [Source: domains/LB/spec.md] [Source: domains/PC/spec.md] [Source: domains/EG/spec.md] [Source: domains/RE/spec.md]\n\n## Key Usage Rules\n\n1. **Do not impute EPOCH.** Assign values where possible on the basis of CRF instructions and structure, even when date/time was not collected with sufficient precision to derive the epoch. If the epoch cannot be determined, EPOCH must be null. Assignment methods may be documented in the Define-XML document. [Source: chapters/ch04_general_assumptions.md §4.1.3.1]\n2. **Not applicable before study participation.** Because EPOCH is a study-design construct, it does not apply to interventions/events that started, or findings performed, before the subject's participation in the study; EPOCH should be null for such records. Note that participation includes screening, which generally precedes DM.RFSTDTC. [Source: chapters/ch04_general_assumptions.md §4.1.3.1]\n3. **Epoch values must be unique per epoch.** EPOCH values used in datasets such as EX and DS must differ across epochs — e.g., in a 3-period crossover trial the three treatment epochs must each have a distinct name; they cannot all be \"TREATMENT\". [Source: domains/TA/assumptions.md]\n4. **Placement limits.** As a Timing variable, EPOCH may be added to domains based on the 3 general observation classes; it may be added to special-purpose domains only where the SDTMIG domain assumptions specify it, and Timing variables cannot be added to SUPPQUAL datasets or to RELREC. [Source: chapters/ch04_general_assumptions.md §4.1.3]",
      "elapsed_s": 22.03
    },
    {
      "id": "q08",
      "category": "cross_domain",
      "question": "How does USUBJID serve as a linking key across SDTM domains?",
      "out_of_scope": false,
      "source_recall": 1.0,
      "source_hits": [
        "domains/DM/spec.md"
      ],
      "source_misses": [],
      "top5_sources": [
        "domains/SUPPQUAL/spec.md",
        "VARIABLE_INDEX.md",
        "domains/DM/spec.md",
        "domains/PP/spec.md",
        "domains/RELSPEC/spec.md"
      ],
      "top5_similarities": [
        0.7074,
        0.7061,
        0.6923,
        0.6854,
        0.6844
      ],
      "fact_recall": 1.0,
      "fact_hits": [
        "USUBJID",
        "Identifier",
        "unique"
      ],
      "fact_misses": [],
      "answer_preview": "## USUBJID as the cross-domain linking key\n\n### 1. Definition and attributes\n\n| Attribute | Value |\n|---|---|\n| Label | Unique Subject Identifier |\n| Type | Char |\n| Role | Identifier |\n| Core | Req (in most domains) |\n| Controlled Terms | (none) |\n\nThe definition is deliberately identical across domains: \"Identifier used to uniquely identify a subject across all studies for all applications or submissions involving the product.\" [Source: domains/DM/spec.md -- USUBJID] [Source: domains/VS/spec.md -- USUBJID] [Source: domains/CO/spec.md -- USUBJID]\n\n### 2. Uniqueness scope is broader than a sin",
      "usage": {
        "prompt_tokens": 15085,
        "completion_tokens": 1850,
        "total_tokens": 16935
      },
      "model": "bedrock/converse/global.anthropic.claude-opus-5",
      "answer": "## USUBJID as the cross-domain linking key\n\n### 1. Definition and attributes\n\n| Attribute | Value |\n|---|---|\n| Label | Unique Subject Identifier |\n| Type | Char |\n| Role | Identifier |\n| Core | Req (in most domains) |\n| Controlled Terms | (none) |\n\nThe definition is deliberately identical across domains: \"Identifier used to uniquely identify a subject across all studies for all applications or submissions involving the product.\" [Source: domains/DM/spec.md -- USUBJID] [Source: domains/VS/spec.md -- USUBJID] [Source: domains/CO/spec.md -- USUBJID]\n\n### 2. Uniqueness scope is broader than a single study\n\nThe key point that makes USUBJID a linking key rather than just a within-study ID is that its uniqueness is defined **across all studies for all applications or submissions involving the product** — not merely within STUDYID. DM adds the construction guidance: \"This must be a unique value, and could be a compound identifier formed by concatenating STUDYID-SITEID-SUBJID.\" [Source: domains/DM/spec.md -- USUBJID]\n\nThis means the same subject carries the same USUBJID value in every dataset of a study, and (for the same person) across studies in the submission, which allows integrated/pooled analysis datasets to be assembled by joining on USUBJID.\n\n### 3. Near-universal presence in subject-level domains\n\nUSUBJID appears in 55 SDTM domains — all domains except OI, TA, TD, TE, TI, TM, TS, TV. [Source: VARIABLE_INDEX.md -- §一 通用变量: USUBJID]\n\nThe exclusions are exactly the study-level/trial-design and study-reference datasets (trial design domains and Non-host Organism Identifiers), which describe the trial rather than individual subjects — so there is nothing to link to a subject. Consequently, every subject-level observation record in Interventions, Events, Findings, and Special-Purpose domains carries USUBJID, and DM acts as the demographic \"anchor\" record for each USUBJID value. [Source: domains/DM/spec.md -- USUBJID]\n\nPosition in the record: USUBJID is normally Order 3 (immediately after STUDYID and DOMAIN) in observation domains, e.g. DM, VS, CV, GF, UR, HO, CP, IS, MK, PP. [Source: domains/VS/spec.md -- USUBJID] [Source: domains/PP/spec.md -- USUBJID] [Source: domains/MK/spec.md -- USUBJID]\n\n### 4. Role in relationship datasets\n\nUSUBJID is also the join column used by the relationship datasets, which is where its \"linking key\" function is most explicit:\n\n- **SUPPQUAL / SUPP--**: USUBJID is Order 3, Core Req, and is defined as \"the value of USUBJID in the parent record(s)\" — i.e. it is part of the key (with RDOMAIN, IDVAR/IDVARVAL) that ties a supplemental qualifier back to the parent domain record. [Source: domains/SUPPQUAL/spec.md -- USUBJID]\n- **RELSPEC**: USUBJID at Order 2, Core Req, identifying the subject whose specimens are being related. [Source: domains/RELSPEC/spec.md -- USUBJID]\n- **RELSUB**: USUBJID at Order 2, but Core **Exp** rather than Req, with the note \"Either USUBJID or POOLID must be populated\" — because a related \"subject\" may be a pool rather than an individual. [Source: domains/RELSUB/spec.md -- USUBJID]\n\n### 5. Practical implications\n\n- Joining any two subject-level domains (e.g. AE ↔ CM, LB ↔ EX) is done on STUDYID + USUBJID, with domain-specific sequence/timing variables used to refine to the record level.\n- Because USUBJID is Char with no controlled terminology, the sponsor must define and apply a consistent value-construction convention (e.g. the STUDYID-SITEID-SUBJID concatenation suggested in DM) uniformly in every domain; any inconsistency breaks all cross-domain joins. [Source: domains/DM/spec.md -- USUBJID]\n- USUBJID alone is not a record-level key; for record-to-record relationships across domains, the relationship datasets (SUPP--, RELREC, RELSUB, RELSPEC) combine USUBJID with domain and identifier-variable references. [Source: domains/SUPPQUAL/spec.md -- USUBJID]\n\n**Note on scope of this answer:** the retrieved context covers the variable definitions and the relationship-dataset usage of USUBJID. For the full normative rules on record-level linking mechanisms (RELREC key structures, IDVAR/IDVARVAL usage) see chapters/ch08_relationships.md and chapters/ch04_general_assumptions.md, which were not part of the retrieved context here.",
      "elapsed_s": 26.62
    },
    {
      "id": "q09",
      "category": "cross_domain",
      "question": "How are adverse events linked to concomitant medications using RELREC?",
      "out_of_scope": false,
      "source_recall": 0.0,
      "source_hits": [],
      "source_misses": [
        "domains/RELREC/spec.md"
      ],
      "top5_sources": [
        "chapters/ch08_relationships.md",
        "domains/RELREC/examples.md",
        "chapters/ch08_relationships.md",
        "domains/RELREC/assumptions.md",
        "domains/CM/assumptions.md"
      ],
      "top5_similarities": [
        0.6174,
        0.583,
        0.5828,
        0.5376,
        0.5367
      ],
      "fact_recall": 1.0,
      "fact_hits": [
        "RELREC",
        "IDVAR",
        "IDVARVAL"
      ],
      "fact_misses": [],
      "answer_preview": "## Linking AE Records to CM Records with RELREC\n\n### Principle\n\nThe RELREC special-purpose dataset describes relationships between records for a subject. A relationship is defined by **adding one record to RELREC for each record (or group of records) to be related**, and assigning a common relationship identifier in RELID. The value of RELID is sponsor-chosen but **must be identical for all related records within USUBJID**; a standard naming convention is recommended (e.g., all letters, all numbers, capitalized) [Source: domains/RELREC/assumptions.md -- overview].\n\nRELREC should be used to rep",
      "usage": {
        "prompt_tokens": 27357,
        "completion_tokens": 1980,
        "total_tokens": 29337
      },
      "model": "bedrock/converse/global.anthropic.claude-opus-5",
      "answer": "## Linking AE Records to CM Records with RELREC\n\n### Principle\n\nThe RELREC special-purpose dataset describes relationships between records for a subject. A relationship is defined by **adding one record to RELREC for each record (or group of records) to be related**, and assigning a common relationship identifier in RELID. The value of RELID is sponsor-chosen but **must be identical for all related records within USUBJID**; a standard naming convention is recommended (e.g., all letters, all numbers, capitalized) [Source: domains/RELREC/assumptions.md -- overview].\n\nRELREC should be used to represent **explicit relationships, such as concomitant medications taken as a result of an adverse event** — i.e., relationships that were actually collected (explicit references/checkboxes on the CRF, or by CRF design), not relationships inferred analytically [Source: domains/RELREC/assumptions.md -- overview; Source: chapters/ch08_relationships.md -- 8.1.1 --GRPID Example].\n\n### Key variables used\n\nRecords expressing the relationship are specified with STUDYID, RDOMAIN (the domain code of the record in the relationship, e.g., \"AE\" or \"CM\"), and USUBJID, together with IDVAR and IDVARVAL:\n\n- **IDVAR** = the name of the identifying variable in the referenced domain; **IDVARVAL** = its value.\n- **Single records** are related using a unique-record identifier such as --SEQ (AESEQ, CMSEQ). --SEQ uniquely identifies a record for a given USUBJID within a domain and is required in all domains except DM.\n- **Groups of records** are related using a grouping variable such as --GRPID (CMGRPID). Using --GRPID \"can be a more efficient method of representing relationships in RELREC, such as when relating an adverse event (or events) to a group of concomitant medications taken to treat the adverse event(s).\"\n- **--REFID** (sponsor-defined or external identifier) is another candidate for IDVAR, though it is never required.\n- **RELTYPE** is left null for peer-record relationships; it is used only for dataset-to-dataset (ONE/MANY) relationships [Source: domains/RELREC/assumptions.md -- overview].\n\n### Example — one AE related to two concomitant medications\n\nTwo distinct collected relationships for USUBJID = \"123456\": the AE with 2 CM records (RELID=1), and the same AE with 2 LB records (RELID=2). Each relationship gets its own RELID; the AE record is repeated once per relationship.\n\n**relrec.xpt**\n\n| Row | STUDYID | RDOMAIN | USUBJID | IDVAR | IDVARVAL | RELTYPE | RELID |\n|-----|---------|---------|---------|-------|----------|---------|-------|\n| 1 | EFC1234 | AE | 123456 | AESEQ | 5 | | 1 |\n| 2 | EFC1234 | CM | 123456 | CMSEQ | 11 | | 1 |\n| 3 | EFC1234 | CM | 123456 | CMSEQ | 12 | | 1 |\n| 4 | EFC1234 | AE | 123456 | AESEQ | 5 | | 2 |\n| 5 | EFC1234 | LB | 123456 | LBSEQ | 47 | | 2 |\n| 6 | EFC1234 | LB | 123456 | LBSEQ | 48 | | 2 |\n\n[Source: domains/RELREC/examples.md -- Peer Record Examples; Source: chapters/ch08_relationships.md -- 8.2.2 RELREC Dataset Examples]\n\n### Example — collapsing the CM records with CMGRPID\n\nIf the sponsor grouped the 2 concomitant medications in CM with CMGRPID (e.g., \"COMBO 1\"), the same relationship among 5 records is represented with 4 RELREC rows instead of 5, by using IDVAR=\"CMGRPID\":\n\n| Row | STUDYID | RDOMAIN | USUBJID | IDVAR | IDVARVAL | RELTYPE | RELID |\n|-----|---------|---------|---------|-------|----------|---------|-------|\n| 1 | EFC1234 | AE | 123456 | AESEQ | 5 | | 1 |\n| 2 | EFC1234 | CM | 123456 | CMGRPID | COMBO1 | | 1 |\n| 3 | EFC1234 | LB | 123456 | LBSEQ | 47 | | 1 |\n| 4 | EFC1234 | LB | 123456 | LBSEQ | 48 | | 1 |\n\n[Source: chapters/ch08_relationships.md -- 8.2.2 RELREC Dataset Examples; Source: domains/RELREC/examples.md -- Peer Record Examples]\n\nNote that CMGRPID groups records only **within a subject within a domain** — identical CMGRPID values in different subjects denote unrelated groupings [Source: chapters/ch08_relationships.md -- 8.1.1 --GRPID Example].\n\n### Related notes\n\n- AE itself carries **AECONTRT** (Concomitant or Additional Trtmnt Given; Char, Record Qualifier, Perm, Controlled Terms C66742, values \"Y\"/\"N\") to flag that another treatment was given because of the event — this is a record-level flag, not a link; the actual record-to-record link requires RELREC [Source: domains/AE/spec.md -- AECONTRT].\n- The CM spec cross-references AE as \"adverse events treated by concomitant medication\" [Source: domains/CM/spec.md -- Related Domains].\n- RELREC is not needed to associate SUPP-- or CO records with their parent records, since those datasets already carry the parent's key identifiers [Source: domains/RELREC/assumptions.md -- overview].",
      "elapsed_s": 25.45
    },
    {
      "id": "q10",
      "category": "cross_domain",
      "question": "In oncology studies, how are the TR (Tumor/Lesion Results) domain and RS (Disease Response) domain linked together, and which specific identifier variables are used for each linkage direction?",
      "out_of_scope": false,
      "source_recall": 0.5,
      "source_hits": [
        "domains/TR/assumptions.md"
      ],
      "source_misses": [
        "domains/TR/spec.md"
      ],
      "top5_sources": [
        "domains/RS/assumptions.md",
        "domains/TR/assumptions.md",
        "domains/RS/assumptions.md",
        "domains/TR/assumptions.md",
        "domains/RS/assumptions.md"
      ],
      "top5_similarities": [
        0.7131,
        0.7055,
        0.7032,
        0.6927,
        0.6699
      ],
      "fact_recall": 1.0,
      "fact_hits": [
        "TRLNKID",
        "TRLNKGRP"
      ],
      "fact_misses": [],
      "answer_preview": "## Linking TR and RS in the Oncology Multi-domain Model\n\nThe oncology data model deliberately splits the information across TU (identification), TR (measurements/assessments), and RS (response evaluation), and relies on the **`--LNKID` / `--LNKGRP` identifier variables plus a RELREC relationship** to reconnect the records. Existing ID variables (`--GRPID`, `--REFID`, `--SPID`) cannot be used for this purpose because the SDTM reserves them for other uses [Source: domains/TR/assumptions.md -- item_1], [Source: domains/TR/assumptions.md -- item_2].\n\n### 1. TR ↔ RS (measurements → response assessm",
      "usage": {
        "prompt_tokens": 25506,
        "completion_tokens": 2398,
        "total_tokens": 27904
      },
      "model": "bedrock/converse/global.anthropic.claude-opus-5",
      "answer": "## Linking TR and RS in the Oncology Multi-domain Model\n\nThe oncology data model deliberately splits the information across TU (identification), TR (measurements/assessments), and RS (response evaluation), and relies on the **`--LNKID` / `--LNKGRP` identifier variables plus a RELREC relationship** to reconnect the records. Existing ID variables (`--GRPID`, `--REFID`, `--SPID`) cannot be used for this purpose because the SDTM reserves them for other uses [Source: domains/TR/assumptions.md -- item_1], [Source: domains/TR/assumptions.md -- item_2].\n\n### 1. TR ↔ RS (measurements → response assessment): `TRLNKGRP` / `RSLNKGRP`\n\n- **`TRLNKGRP`** is used to relate records in the TR domain to a response assessment record in the RS domain. The organization of data across TR and RS **requires a RELREC relationship** to link the related data rows, and a **dataset-to-dataset link** is the most appropriate linking mechanism. The `--LNKGRP` variable holds the values that support that RELREC dataset-to-dataset relationship and provides a unique code for each response and its associated tumor/lesion measurements/assessments [Source: domains/TR/assumptions.md -- item_2].\n- On the RS side, the corresponding variable is **`RSLNKGRP`**, which \"is used to provide a link between the records in a findings domain (e.g., Tumor/Lesion Results, TR; Laboratory Test Results, LB) that contribute to a record in the RS domain. Records should exist in the RELREC dataset to support this relationship.\" [Source: domains/RS/assumptions.md -- item_4]\n- Importantly, the linkage is not TR-specific: the domain in which the contributing data reside (e.g., LB for lab-based criteria) does not affect whether a RELREC link to the RS record is created [Source: domains/RS/assumptions.md -- item_4]. Source data must still be represented in the topic-based domain to which they pertain (e.g., a lab value scored for a response goes in LB) [Source: domains/RS/assumptions.md -- item_5].\n- **`RSLNKID`** may alternatively be used to define a RELREC relationship when a response evaluation or clinical classification measure relates back to another source dataset (e.g., a tumor assessment in TR) [Source: domains/RS/assumptions.md -- item_4].\n\nIn the published RS examples, `RSLNKGRP` is populated only on the summarizing record (e.g., `RSTESTCD = \"OVRLRESP\"` with `RSLNKGRP = \"A2\"`, `\"A3\"`), while the component target/non-target response rows are left blank — illustrating that the link group ties the overall response to its supporting measurement set [Source: domains/RS/examples.md -- RS — Examples - Disease Response].\n\n### 2. TU ↔ TR (lesion identification → lesion results): `TULNKID` / `TRLNKID`\n\n- **`TRLNKID`** relates records in the TR domain to an identification record in the TU domain; again this requires a RELREC relationship, best implemented as a dataset-to-dataset link, with `--LNKID` providing a unique code for each identified tumor/lesion/location of interest [Source: domains/TR/assumptions.md -- item_1].\n- **`TULNKID`** is the TU-side counterpart, providing the unique code for each identified tumor/lesion; its values are compound and may encode the assessor role, target vs. non-target status, a tracking number, and lesion-split information. \"A RELREC relationship record can be created to describe the link, probably as a dataset-to-dataset link.\" [Source: domains/TU/assumptions.md -- item_2]\n- TR deliberately omits anatomical location, because that would duplicate what TU carries — this multi-domain approach exists to reduce duplicated stored information, which is exactly why the link variables are needed [Source: domains/TR/assumptions.md -- overview].\n- Example of the identifier pairing in practice: for a new unequivocal tumor, the TR record carries `TRLNKID = \"NEW0\"` with `TRTESTCD = \"TUMSTATE\"`, `TRORRES = \"PRESENT\"`, and the TU record populates `TULNKID` to link to the associated TR information [Source: domains/TU/assumptions.md -- item_6].\n\n### 3. RS ↔ other Interventions domains: `CMLNKGRP` / `PRLNKGRP`\n\nWhen best response, duration of response, or progression on prior/follow-up therapies is represented in RS, the RS record may be related and linked to record(s) in CM using **`CMLNKGRP`** and **`RSLNKGRP`**; the analogous link to PR (e.g., radiotherapy, surgery) uses **`PRLNKGRP`** [Source: domains/RS/assumptions.md -- item_6].\n\n### Summary table\n\n| Linkage direction | Identifier in source domain | Identifier in target domain | Mechanism |\n|---|---|---|---|\n| TU → TR (lesion ID → results) | `TULNKID` | `TRLNKID` | RELREC, dataset-to-dataset [Source: domains/TU/assumptions.md -- item_2], [Source: domains/TR/assumptions.md -- item_1] |\n| TR → RS (measurements → response) | `TRLNKGRP` | `RSLNKGRP` | RELREC, dataset-to-dataset [Source: domains/TR/assumptions.md -- item_2], [Source: domains/RS/assumptions.md -- item_4] |\n| Other findings (e.g., LB) → RS | `--LNKGRP` (e.g., `LBLNKGRP`) | `RSLNKGRP` | RELREC [Source: domains/RS/assumptions.md -- item_4] |\n| RS → source dataset (record-level alternative) | — | `RSLNKID` | RELREC [Source: domains/RS/assumptions.md -- item_4] |\n| RS → CM / PR | `CMLNKGRP` / `PRLNKGRP` | `RSLNKGRP` | RELREC [Source: domains/RS/assumptions.md -- item_6] |\n\n### Variable attributes (TR domain)\n\n| Variable | Label | Type | Role | Core | CT |\n|---|---|---|---|---|---|\n| TRLNKID | Link ID | Char | Identifier | Exp | — |\n| TRLNKGRP | Link Group | Char | Identifier | Perm | — |\n\n[Source: VARIABLE_INDEX.md -- TR — Tumor/Lesion Results (Findings)]",
      "elapsed_s": 29.33
    },
    {
      "id": "q28",
      "category": "cross_domain",
      "question": "What is the FA (Findings About Events or Interventions) domain and how does it link to parent domains like AE or CM using FAOBJ?",
      "out_of_scope": false,
      "source_recall": 1.0,
      "source_hits": [
        "domains/FA/spec.md"
      ],
      "source_misses": [],
      "top5_sources": [
        "domains/FA/assumptions.md",
        "chapters/ch02_fundamentals.md",
        "domains/FA/assumptions.md",
        "model/02_observation_classes.md",
        "domains/FA/assumptions.md"
      ],
      "top5_similarities": [
        0.6934,
        0.6707,
        0.6555,
        0.653,
        0.6459
      ],
      "fact_recall": 1.0,
      "fact_hits": [
        "Findings About",
        "FAOBJ",
        "FATESTCD"
      ],
      "fact_misses": [],
      "answer_preview": "## 1. What the FA Domain Is\n\n**Findings About (FA)** is a **subtype of the Findings general observation class**, with structure **One Record per Finding**, used to record findings that are *about* an observation belonging to the Interventions or Events classes [Source: model/02_observation_classes.md -- 3.1.3 The Findings Observation Class].\n\nIt uses the standard Findings general observation-class variables **plus the `--OBJ` variable**, which is positioned immediately after `--TEST` in the qualifier order [Source: model/02_observation_classes.md -- 3.1.3 The Findings Observation Class].\n\nKey ",
      "usage": {
        "prompt_tokens": 23901,
        "completion_tokens": 3924,
        "total_tokens": 27825
      },
      "model": "bedrock/converse/global.anthropic.claude-opus-5",
      "answer": "## 1. What the FA Domain Is\n\n**Findings About (FA)** is a **subtype of the Findings general observation class**, with structure **One Record per Finding**, used to record findings that are *about* an observation belonging to the Interventions or Events classes [Source: model/02_observation_classes.md -- 3.1.3 The Findings Observation Class].\n\nIt uses the standard Findings general observation-class variables **plus the `--OBJ` variable**, which is positioned immediately after `--TEST` in the qualifier order [Source: model/02_observation_classes.md -- 3.1.3 The Findings Observation Class].\n\nKey structural rules:\n\n- The presence of `--OBJ` is what *defines* a domain as a Findings About domain: \"`--OBJ` cannot be added to a standard Findings domain. A domain is either a Findings domain or a Findings About domain... When the `--OBJ` variable is included in a domain, this identifies it as an FA domain, and the `--OBJ` variable must be populated for all records.\" [Source: chapters/ch02_fundamentals.md -- Findings About — Naming Findings About Domains (Reference Material)]\n- Any Identifier, Timing, or Findings qualifier variables may be added to FA, **but these should generally not be used: `--BODSYS`, `--MODIFY`, `--SEV`, `--TOXGR`** [Source: domains/FA/assumptions.md -- item_6].\n\n### When to use FA (three criteria)\n1. Data/observations that have **different timing** from the associated event or intervention *as a whole* (e.g., severity of an individual symptom at a point in time; repeated assessments of intermittent symptoms; a summary such as maximum severity of headache after each dose) [Source: domains/FA/assumptions.md -- item_6].\n2. An observation about an event/intervention that **requires more than one variable** for its representation, preventing it from being a supplemental qualifier [Source: domains/FA/assumptions.md -- item_6].\n3. Data or information that **indicate the occurrence of prespecified AEs** [Source: domains/FA/assumptions.md -- item_6].\n\nAssessments of *parts* of events (\"snapshots or slices\") go in FA and **may or may not have parent records**, depending on whether the overall event was also recorded [Source: domains/FA/assumptions.md -- item_6]. For choosing between Events/Interventions/Findings/Findings About, see the decision questions in [Source: chapters/ch08_relationships.md -- 8.6.3 Guidelines for Differentiating Between Interventions, Events, Findings, and Findings About Events or Interventions] and [Source: domains/FA/assumptions.md -- item_2].\n\n## 2. FAOBJ Specification\n\n| Attribute | Value |\n|---|---|\n| **Order** | 9 |\n| **Label** | Object of the Observation |\n| **Type** | Char |\n| **Role** | Record Qualifier |\n| **Core** | Req |\n| **Controlled Terms** | (none) |\n\n**CDISC Notes:** \"Used to describe the object or focal point of the findings observation that is represented by `--TEST`. Examples: the term (e.g., 'Acne') describing a clinical sign or symptom that is being measured by a severity test; an event (e.g., 'VOMIT', where the volume of vomit is being measured by a VOLUME test).\" [Source: domains/FA/spec.md -- FAOBJ]\n\n**FAOBJ + FATESTCD jointly form the topic:** \"`--OBJ` is unique to Findings About. In conjunction with FATESTCD, it describes what the topic of the observation is; therefore, both are required to be populated for every record. FATESTCD describes the measurement/evaluation and FAOBJ describes the event or intervention that the measurement/evaluation is about.\" [Source: model/02_observation_classes.md -- 3.1.3 The Findings Observation Class]\n\nFATESTCD is Req with codelist **C101832**; FATEST is Req with codelist **C101833**; FAOBJ is Req with no codelist [Source: VARIABLE_INDEX.md -- FA — Findings About Events or Interventions (Findings About)].\n\n## 3. How FA Links to Parent Domains (AE, CM, etc.)\n\nThere are **three distinct linkage mechanisms**, and they are complementary:\n\n### (a) FAOBJ — semantic pointer, not a key\nFAOBJ names the event/intervention the finding is about. In practice it is populated with the parent's topic value — e.g., in FA Example 6 \"The values in FAOBJ are the values from AEDECOD\" for the associated AE records (FAOBJ=Nausea for AETERM \"Morning queasiness\"/AEDECOD \"Nausea\") [Source: domains/FA/examples.md -- Example 6].\n\n**Critical limitation:** \"The FAOBJ variable alone is **not sufficient** to establish a relationship, because an events or interventions dataset may have multiple records for the same topic (e.g., `--TERM` or `--DECOD`, `--TRT` or `--DECOD`).\" [Source: domains/FA/assumptions.md -- item_5]\n\n### (b) RELREC — the formal record/dataset linkage\n\"When data collection establishes a relationship between FA records and an events or interventions record, the relationship should be represented in RELREC.\" [Source: domains/FA/assumptions.md -- item_5]\n\nConversely, when no relationship was collected, no RELREC is created — in FA Example 4 (prespecified AEs), \"No relationship was collected to link the FAAE record for the occurrence indicator test with the AE entries, so no RELREC was created\"; instead the corresponding AE records carry AEPRESP=\"Y\" [Source: domains/FA/examples.md -- Example 4]. This matches the documented AE↔FA association for prespecified AE findings [Source: domains/AE/spec.md -- Related Domains].\n\nFor a **dataset-level** RELREC (e.g., between CE and FACE), \"RDOMAIN may contain up to 4 characters to effectively describe the relationship between the CE parent records and the FACE child records\" [Source: chapters/ch02_fundamentals.md -- Findings About — Naming Findings About Domains (Reference Material)].\n\n### (c) Sponsor identifiers (FASPID)\nExample 6 uses FASPID to carry the parent AE identifier: \"The values in FASPID are the AE identifiers from AESPID\" [Source: domains/FA/examples.md -- Example 6].\n\n## 4. Naming/Splitting FA by Parent Domain\n\nFA data may be kept in a single FA dataset, split, or moved to a custom domain [Source: chapters/ch02_fundamentals.md -- Findings About — Naming Findings About Domains (Reference Material)]:\n\n1. **Single FA domain**, differentiated by FACAT/FASCAT values.\n2. **Split FA domain** (per §4.1.7): DOMAIN = \"FA\"; prefixed variables use \"FA\"; dataset names = domain + up to 2 characters indicating the **parent** domain, e.g. **FAAE**, **FACE** (Findings About Clinical Events), **FAMH** (Findings About Medical History) — this convention may be used even for a single unsplit FA dataset that has a parent domain. FASEQ must be unique within USUBJID **across all split datasets**. Supplemental qualifiers are managed at split-file level (suppface.xpt, suppfamh.xpt) with RDOMAIN = \"FA\".\n3. **Separate custom domain**, with a sponsor-defined DOMAIN not beginning with FA (the published example being **SR**, Skin Response) — all FA rules still apply, and prefixed variables use the chosen 2-character code.\n\nSee also [Source: domains/FA/assumptions.md -- item_3] and [Source: domains/SR/spec.md -- Related Domains].\n\n## 5. Naming FATESTCD Consistently With the Parent Domain\n\nSome Events/Interventions variables (e.g., OCCUR, SEV, TOXGR) describe the event/intervention *as a whole*. \"When FA is used to represent findings about a part of the event or intervention (i.e., the assessment has different timing from the event as a whole), the FATESTCD and FATEST values should be the same as the variable name and variable label in the corresponding event or intervention domain.\" [Source: domains/FA/assumptions.md -- item_4]\n\n| FATESTCD | FATEST |\n|---|---|\n| OCCUR | Occurrence Indicator |\n| SEV | Severity/Intensity |\n| TOXGR | Toxicity Grade |\n\n[Source: model/02_observation_classes.md -- 3.1.3 The Findings Observation Class]\n\nIllustration (Example 6): AESEV holds the maximum severity over the whole event, while per-visit maximum severity slices are FATESTCD=\"SEV\", FATEST=\"Severity/Intensity\", FAOBJ=\"Nausea\", FAORRES=MILD/MODERATE, with FACOLSRT=\"MAXIMUM\" and FAEVINTX=\"SINCE LAST VISIT\" [Source: domains/FA/examples.md -- Example 6].\n\nNote: associations between certain findings about cardiovascular interventions/events and their response codelists are described in the CV codetable on the CDISC controlled terminology page [Source: domains/FA/assumptions.md -- item_4].\n\n## 6. FA vs. Supplemental Qualifier\n\nIf the data item has its own timing separate from the event/intervention (Criterion 1), FA is indicated; if a RELMIDS relationship to a disease milestone is needed, \"it can be represented in FA, but not as a supplemental qualifier to the parent record\" [Source: chapters/ch02_fundamentals.md -- Findings About — Naming Findings About Domains (Reference Material)]. Data requiring more than one variable also cannot be a supplemental qualifier (Criterion 2) [Source: domains/FA/assumptions.md -- item_6].",
      "elapsed_s": 45.57
    },
    {
      "id": "q29",
      "category": "cross_domain",
      "question": "How do the four Trial Design domains TA (Trial Arms), TE (Trial Elements), TV (Trial Visits), and TI (Trial Inclusion/Exclusion) work together to define a study design?",
      "out_of_scope": false,
      "source_recall": 1.0,
      "source_hits": [
        "domains/TA/assumptions.md",
        "domains/TE/assumptions.md"
      ],
      "source_misses": [],
      "top5_sources": [
        "domains/TV/spec.md",
        "domains/TA/spec.md",
        "domains/TE/assumptions.md",
        "domains/TE/spec.md",
        "domains/TA/assumptions.md"
      ],
      "top5_similarities": [
        0.7528,
        0.7523,
        0.7357,
        0.7351,
        0.7245
      ],
      "fact_recall": 1.0,
      "fact_hits": [
        "TA",
        "TE",
        "TV",
        "TI"
      ],
      "fact_misses": [],
      "answer_preview": "## Overview\n\nThe Trial Design Model (TDM) provides a standardized representation of the *planned* conduct of a trial — the same information that ICH E3 study‑schema diagrams and schedule‑of‑assessment tables convey. Its purpose is to let reviewers \"clearly and quickly grasp the design of a clinical trial,\" compare designs across trials, search a warehouse for design features, and \"compare planned and actual treatments and visits for subjects\" [Source: domains/TA/assumptions.md]. TA, TE, TV, and TI each cover a different axis of that plan, and they are linked by shared key variables. All four a",
      "usage": {
        "prompt_tokens": 22950,
        "completion_tokens": 3801,
        "total_tokens": 26751
      },
      "model": "bedrock/converse/global.anthropic.claude-opus-5",
      "answer": "## Overview\n\nThe Trial Design Model (TDM) provides a standardized representation of the *planned* conduct of a trial — the same information that ICH E3 study‑schema diagrams and schedule‑of‑assessment tables convey. Its purpose is to let reviewers \"clearly and quickly grasp the design of a clinical trial,\" compare designs across trials, search a warehouse for design features, and \"compare planned and actual treatments and visits for subjects\" [Source: domains/TA/assumptions.md]. TA, TE, TV, and TI each cover a different axis of that plan, and they are linked by shared key variables. All four are of class **Trial Design**, together with TD, TM, and TS [Source: domains/TA/spec.md; domains/TI/spec.md; domains/TV/spec.md; domains/TE/spec.md].\n\n---\n\n## 1. TE — the building blocks (vocabulary of elements)\n\n**Structure:** One record per planned Element [Source: model/05_study_level_data.md]\n\n| # | Variable | Label | Type | Role |\n|---|----------|-------|------|------|\n| 1 | STUDYID | Study Identifier | Char | Identifier |\n| 2 | DOMAIN | Domain Abbreviation | Char | Identifier |\n| 3 | ETCD | Element Code | Char | Topic |\n| 4 | ELEMENT | Description of Element | Char | Synonym Qualifier |\n| 5 | TESTRL | Rule for Start of Element | Char | Rule |\n| 6 | TEENRL | Rule for End of Element | Char | Rule |\n| 7 | TEDUR | Planned Duration of Element | Char | Timing |\n\nTE \"describes the basic building blocks of a trial design — discrete periods of time during which a specific type of treatment or activity is planned\" [Source: model/05_study_level_data.md]. It contains **the definitions of the elements that appear in the TA dataset**; an element may appear multiple times in TA (in multiple arms, multiple times within an arm, or both) but appears **only once in TE** — analogous to \"unique CRF pages.\" E.g., the Example Trial 1 matrix has 9 study cells but only 5 unique elements, so TE has 5 records [Source: domains/TE/assumptions.md]. TE also supplies the operational start/end rules and planned duration, including for elements of variable length [Source: domains/TE/examples.md].\n\n## 2. TA — how elements are assembled into arms and epochs\n\n**Structure:** One record per planned Element per Arm [Source: model/05_study_level_data.md]\n\n| # | Variable | Label | Type | Role |\n|---|----------|-------|------|------|\n| 1 | STUDYID | Study Identifier | Char | Identifier |\n| 2 | DOMAIN | Domain Abbreviation | Char | Identifier |\n| 3 | ARMCD | Planned Arm Code | Char | Topic |\n| 4 | ARM | Description of Planned Arm | Char | Synonym Qualifier |\n| 5 | TAETORD | Planned Order of Element within Arm | Num | Timing |\n| 6 | ETCD | Element Code | Char | Record Qualifier |\n| 7 | ELEMENT | Description of Element | Char | Synonym Qualifier |\n| 8 | TABRANCH | Branch | Char | Rule |\n| 9 | TATRANS | Transition Rule | Char | Rule |\n| 10 | EPOCH | Epoch | Char | Timing |\n\n\"An arm is an ordered sequence of elements; the same element may occur more than once in a given arm,\" and TA carries rules for branching when a choice exists and for transitions that let a subject skip ahead rather than proceed linearly [Source: model/05_study_level_data.md]. Conceptually: the planned participation period is divided into **epochs**; each **arm** is a planned path through the entire trial; each arm × epoch intersection is a **study cell**, populated with element(s) [Source: domains/TA/assumptions.md].\n\n**The TE↔TA join:** `ETCD` is the Topic variable in TE and a Record Qualifier in TA — this is the key that links each arm position back to its element definition [Source: model/05_study_level_data.md]. TA/TE cross‑references state it directly: \"TE — arms use elements\" and \"TA — elements compose arms\" [Source: domains/TA/spec.md; domains/TE/spec.md].\n\n**Sequencing logic is split across the two domains** as a 3‑step transition process [Source: domains/TE/examples.md]:\n\n| Step | Question | Answered by |\n|---|---|---|\n| 1 | Should the subject leave the current element? | `TEENRL` (TE) |\n| 2 | Which element comes next? | `TABRANCH` (TA) if there is a branch; otherwise `TATRANS` (TA) |\n| 3 | (subsequent element entry) | governed with `TESTRL` (TE) / `TAETORD` ordering |\n\nTA Example 3 shows this in practice: `TABRANCH` populated on two records per arm for two branch points (randomization at screening, plus response‑based assignment), with `EPOCH` labeling SCREENING / BLINDED TREATMENT / OPEN LABEL TREATMENT [Source: domains/TA/examples.md]. Note that element ≠ epoch: in a crossover trial, \"treatment effect\" derives from element (placebo, 5 mg, 10 mg) whereas \"period effect\" derives from epoch [Source: domains/TE/examples.md].\n\n## 3. TV — the planned visit schedule laid over the arms\n\nTV represents the planned schedule of visits, and it is arm‑aware: \"arms define visit schedules\" / \"visits reference arms,\" so a visit schedule can differ by arm [Source: domains/TA/spec.md; domains/TV/spec.md]. In TDM terms, TA/TE answer *what treatment/activity periods are planned and in what order*, while TV answers *when subjects are seen and data are collected* — corresponding to the schedule‑of‑assessments table (as opposed to the study‑schema diagram) called for by ICH E3 §9.1 [Source: domains/TA/assumptions.md; model/05_study_level_data.md §5.1.4 \"Planned schedules for activities and data collection\"].\n\n*(The retrieved context does not include the TV variable specification table, so I am not listing TV variables; consult domains/TV/spec.md for VISITNUM/VISIT and the TV start/end rule variables.)*\n\n## 4. TI — eligibility criteria for entering the design\n\nTI \"contains all the inclusion and exclusion criteria for the trial, and thus provides information that may not be present in the subject‑level data on inclusion and exclusion criteria\" [Source: domains/TI/assumptions.md]. It is one of the two \"tabular synopses of parts of the study protocol\" (with TS) that describe subject eligibility for trial participation [Source: domains/TI/assumptions.md; model/05_study_level_data.md §5.1.5]. `TIRL` was included in anticipation of a computer‑executable representation of criteria, but no such method was developed [Source: domains/TI/assumptions.md].\n\nTI defines the *entry gate*: which subjects may be assigned to an arm at all. It is the trial‑level counterpart of the subject‑level IE domain, which \"contains records only for inclusion and exclusion criteria that subjects did not meet\" [Source: domains/TI/assumptions.md].\n\n---\n\n## How they fit together (data flow)\n\n```\nTI  →  eligibility gate: full protocol criteria (subject-level exceptions land in IE)\nTE  →  defines each unique Element: ETCD/ELEMENT + TESTRL/TEENRL/TEDUR\n        │  (ETCD)\n        ▼\nTA  →  assembles Elements into Arms (ARMCD/ARM) ordered by TAETORD,\n       grouped into EPOCHs (= study cells), with TABRANCH / TATRANS logic\n        │  (ARMCD)\n        ▼\nTV  →  planned Visit schedule, which may be arm-specific\n```\n\n* **Shared keys:** `STUDYID` throughout; `ETCD` links TE→TA; `ARMCD`/`ARM` link TA→TV.\n* **Planned vs. actual:** these planned structures are the benchmark against which subject‑level data are compared — TV planned visits vs. SE actual subject elements [Source: domains/TV/spec.md], enabling the TDM goal of comparing \"planned and actual treatments and visits for subjects\" [Source: domains/TA/assumptions.md].\n* **Reuse downstream:** \"Many Trial Design domains define study‑specific terminology, and variables and variable values from these domains are used in subject‑level domains\" — e.g., `ARM`/`ARMCD`, `ETCD`/`ELEMENT`, `EPOCH`, and `VISIT`/`VISITNUM` appear in DM, SE, SV, and observation domains [Source: model/05_study_level_data.md].\n* **Design judgment:** the granularity of elements (and hence the TE/TA content) is a modeling decision driven by analysis needs — e.g., a titration can be modeled as several fixed‑dose weekly elements, as titration + constant‑dosing elements, or as a single element [Source: domains/TE/examples.md].",
      "elapsed_s": 45.99
    },
    {
      "id": "q30",
      "category": "cross_domain",
      "question": "What is the CO (Comments) domain and how does it reference records in other SDTM domains? Describe the RDOMAIN and IDVAR mechanism.",
      "out_of_scope": false,
      "source_recall": 1.0,
      "source_hits": [
        "domains/CO/spec.md",
        "domains/CO/assumptions.md"
      ],
      "source_misses": [],
      "top5_sources": [
        "domains/CO/assumptions.md",
        "domains/CO/assumptions.md",
        "model/03_special_purpose_domains.md",
        "VARIABLE_INDEX.md",
        "chapters/ch08_relationships.md"
      ],
      "top5_similarities": [
        0.7155,
        0.6876,
        0.682,
        0.6783,
        0.6728
      ],
      "fact_recall": 1.0,
      "fact_hits": [
        "COVAL",
        "RDOMAIN",
        "IDVAR"
      ],
      "fact_misses": [],
      "answer_preview": "## CO — Comments Domain\n\n### Definition and structure\n\nCO is a **special-purpose domain** that contains free-text comments collected alongside other data: `co.xpt, Comments — Special Purpose. One record per comment per subject, Tabulation.` [Source: domains/CO/assumptions.md] The model states the structure as \"One record per comment per subject (or per study)\" and notes comments are normally supplied by a principal investigator but may come from other sources such as central reviewers; when collected, comments should be submitted in a single Comments domain [Source: model/03_special_purpose_do",
      "usage": {
        "prompt_tokens": 18586,
        "completion_tokens": 2038,
        "total_tokens": 20624
      },
      "model": "bedrock/converse/global.anthropic.claude-opus-5",
      "answer": "## CO — Comments Domain\n\n### Definition and structure\n\nCO is a **special-purpose domain** that contains free-text comments collected alongside other data: `co.xpt, Comments — Special Purpose. One record per comment per subject, Tabulation.` [Source: domains/CO/assumptions.md] The model states the structure as \"One record per comment per subject (or per study)\" and notes comments are normally supplied by a principal investigator but may come from other sources such as central reviewers; when collected, comments should be submitted in a single Comments domain [Source: model/03_special_purpose_domains.md].\n\nComments are generally **not** responses to specific questions; they usually consist of voluntary free-text or unsolicited observations, either related to data in one or more SDTM domains or collected on a separate CRF page dedicated to comments [Source: domains/CO/assumptions.md].\n\nCO has 15 variables: STUDYID, DOMAIN, RDOMAIN, USUBJID, POOLID, SPDEVID, COSEQ, IDVAR, IDVARVAL, COREF, COVAL (Topic), COEVAL, COEVALID, CODTC, CODY [Source: model/03_special_purpose_domains.md].\n\nImportantly, comments related to records in a parent dataset must **not** be submitted as supplemental qualifiers, even if collected in the same CRF record — they belong in CO [Source: chapters/ch08_relationships.md].\n\n### The referencing mechanism\n\nCO is structured similarly to the SUPP-- dataset: it uses the same set of keys — **STUDYID, RDOMAIN, USUBJID, IDVAR, IDVARVAL** — to identify related records. STUDYID, USUBJID, and DOMAIN (= \"CO\") must always be populated [Source: chapters/ch08_relationships.md].\n\n**RDOMAIN**\n- Order: 3; Label: Related Domain Abbreviation; Type: Char; Role: Record Qualifier; Core: **Perm**; Controlled Terms: **C66734** (SDTM Domain Abbreviation)\n- CDISC Notes: \"Two-character abbreviation for the domain of the parent record(s). Null for comments collected on a general comments or additional information CRF page.\" [Source: domains/CO/spec.md]\n- The codelist link is given as SDTM Domain Abbreviation (C66734) for RDOMAIN [Source: domains/CO/spec.md]\n- Note the role differs from the other relationship datasets: in RELREC and SUPPQUAL, RDOMAIN is an **Identifier** with Core **Req** [Source: domains/RELREC/spec.md] [Source: domains/SUPPQUAL/spec.md]. RDOMAIN appears in 3 domains: CO, RELREC, SUPPQUAL [Source: VARIABLE_INDEX.md]\n\n**IDVAR / IDVARVAL** (Order 8 and 9; Char; Record Qualifier) hold the *name* of the key variable of the parent record and its *value*, respectively [Source: model/03_special_purpose_domains.md]. The 2-character domain code is used as \"a value in the RDOMAIN variable in relationship tables\" [Source: chapters/ch02_fundamentals.md].\n\n### Three levels of granularity\n\nCO accommodates 3 sources of comments [Source: domains/CO/assumptions.md] [Source: chapters/ch08_relationships.md]:\n\n| Case | RDOMAIN | IDVAR / IDVARVAL | CODTC |\n|---|---|---|---|\n| a. Comment unrelated to any domain or parent record (e.g., log-style general-comments page); relationship to the subject is conveyed by USUBJID alone | Null | Null | Populate if captured |\n| b. Comment related to a domain but not to specific records | DOMAIN code of the parent domain | Null | Populate if captured |\n| c. Comment related to a specific parent record or group of parent records | DOMAIN code of the parent record(s) | Key variable **name** and **value** of the parent record(s) | Null — the timing of the parent record(s) is inherited by the comment record |\n\n### Grouping several parent records\n\nAs with SUPP-- and RELREC, **--GRPID** (or other grouping variables) can be used as the value of IDVAR to relate a comment to multiple parent records. The limitation is that a single comment can only be related to a group of records in **one** domain, because RDOMAIN can hold only 1 value; if a single comment relates to records in multiple domains, the comment may need to be repeated in CO [Source: chapters/ch08_relationships.md].\n\n### Supporting variables\n\n- **COREF** (Comment Reference) may hold additional information describing the relationship that cannot be represented by RDOMAIN/IDVAR/IDVARVAL, e.g., CRF page number or name [Source: chapters/ch08_relationships.md].\n- Timing variables (e.g., VISITNUM, VISIT) may be added to CO; see CO assumption 5 for the complete list of permissible Identifier and Timing variables [Source: chapters/ch08_relationships.md].\n- **COVAL** is the Topic variable. When the comment text exceeds 200 characters, the first 200 characters go in COVAL, the next 200 in COVAL1, and further text in COVALn as needed [Source: domains/CO/assumptions.md] [Source: model/03_special_purpose_domains.md].\n- **COEVAL** (Evaluator) and **COEVALID** (Evaluator Identifier) are subject to controlled terminology: Evaluator (C78735) and Medical Evaluator Identifier (C96777) [Source: domains/CO/spec.md].",
      "elapsed_s": 25.0
    },
    {
      "id": "q31",
      "category": "cross_domain",
      "question": "How are the EC (Exposure as Collected) and EX (Exposure) domains different in purpose, and when should each be used?",
      "out_of_scope": false,
      "source_recall": 1.0,
      "source_hits": [
        "domains/EC/assumptions.md"
      ],
      "source_misses": [],
      "top5_sources": [
        "domains/EX/assumptions.md",
        "domains/EC/assumptions.md",
        "domains/EX/spec.md",
        "domains/EX/assumptions.md",
        "domains/EX/assumptions.md"
      ],
      "top5_similarities": [
        0.7328,
        0.7316,
        0.5962,
        0.5907,
        0.5854
      ],
      "fact_recall": 1.0,
      "fact_hits": [
        "collected",
        "EX",
        "EC"
      ],
      "fact_misses": [],
      "answer_preview": "## Purpose Distinction\n\n**EC — Exposure as Collected**\n- The EC domain model reflects **protocol-specified study treatment administrations, as collected** [Source: domains/EC/assumptions.md]\n- Collected exposure log data points descriptive of administrations typically reflect amounts at the **product level** (e.g., number of tablets, number of mL) [Source: domains/EC/assumptions.md]\n\n**EX — Exposure**\n- EX is recognized in most cases as a **derived dataset** where EXDOSU reflects the **protocol-specified unit** per study treatment. Collected data points (e.g., number of tablets, total volume i",
      "usage": {
        "prompt_tokens": 22970,
        "completion_tokens": 1845,
        "total_tokens": 24815
      },
      "model": "bedrock/converse/global.anthropic.claude-opus-5",
      "answer": "## Purpose Distinction\n\n**EC — Exposure as Collected**\n- The EC domain model reflects **protocol-specified study treatment administrations, as collected** [Source: domains/EC/assumptions.md]\n- Collected exposure log data points descriptive of administrations typically reflect amounts at the **product level** (e.g., number of tablets, number of mL) [Source: domains/EC/assumptions.md]\n\n**EX — Exposure**\n- EX is recognized in most cases as a **derived dataset** where EXDOSU reflects the **protocol-specified unit** per study treatment. Collected data points (e.g., number of tablets, total volume infused) plus additional inputs (randomization file, concentration, dosage strength, product accountability) are used to derive EX records [Source: domains/EX/assumptions.md]\n- EX contains **medications received** only; it is not used for administrations not taken, not given, or missed. Consequently --MOOD would generally not be used in EX, and --PRESP, --OCCUR, --STAT, --REASND would generally not be used [Source: domains/EX/assumptions.md]\n- Both are Interventions-class domains, and they are designated a **shared dataset** pair: EX — \"exposure vs exposure as collected\"; EC — \"exposure as collected vs exposure\" [Source: domains/EX/spec.md] [Source: domains/EC/spec.md]\n\n## When to Use Each\n\n**Use EX:**\n- EX is **required for all studies that include protocol-specified study treatment** [Source: domains/EX/assumptions.md]\n- Treatments represented include placebo, active comparators, and investigational products; treatments **not** protocol-specified go to CM or another Interventions domain [Source: domains/EX/assumptions.md]\n- Structure: **1 record per constant-dosing interval per subject** (sponsor-defined interval of known treatment at consistent dose, frequency, infusion rate, etc.) [Source: domains/EX/assumptions.md]\n- Exposure may be directly or indirectly determined; metadata must describe the derivation method (from most to least direct: observed administration by investigator; automated dispensing device; subject recall; product accountability data; from the protocol). When a study is still masked and doses cannot yet be expressed in the protocol-specified unit, EX is not expected to be populated [Source: domains/EX/assumptions.md]\n\n**Use EC:**\n- EC should be used in **all cases where collected exposure information cannot or should not be directly represented in EX** — e.g., administrations collected in tablets when the protocol-specified unit is mg, or collected in mL when the protocol-specified unit is mg/kg [Source: domains/EC/assumptions.md]\n- Collected exposure data are in most cases represented in a combination of one or more of **EC, DA, or FA**. If the entire EC dataset is an exact duplicate of the entire EX dataset, **EC is optional and at the sponsor's discretion** [Source: domains/EC/assumptions.md]\n- Product accountability details (amount dispensed, amount returned) belong in **DA, not EC** [Source: domains/EC/assumptions.md]\n- Collected exposure data points are to be represented in EC [Source: domains/EX/assumptions.md]\n\n## Relating EC to EX\n\n- The degree of summarization of records from EC to EX is **sponsor-defined** to support study purpose and analysis. When the relationship between EC and EX records can be described in RELREC, it **should** be defined, and EX derivations **must** be described in the Define-XML document [Source: domains/EC/assumptions.md] [Source: domains/EX/assumptions.md]\n- Linking is typically done via --LNKID / --LNKGRP with a dataset-level RELREC entry — e.g., a ONE-to-ONE relationship (ECLNKID ↔ EXLNKID) when records map 1:1 [Source: domains/EX/examples.md], or a MANY-to-ONE relationship when several collected administrations (e.g., 3 injections in mL) are summarized into a single EX record in the protocol-specified unit (mg/kg) [Source: domains/EX/examples.md]\n\n## Variable-level Interactions\n\n- When EC is implemented in conjunction with EX, **EXVAMT and EXVAMTU would not be used in EX**; collected values instead go in ECDOSE and ECDOSU (and ECVAMT/ECVAMTU as needed) [Source: domains/EX/assumptions.md]\n- Non-occurrence of a dose is captured in EC via ECOCCUR = \"N\" with the reason in ECREASOC; there is **no corresponding EX record** — the non-occurrence is reflected as a gap between EX records [Source: domains/EX/examples.md]\n- Intended vs. actual dosing can be distinguished in EC using ECMOOD (\"SCHEDULED\" vs \"PERFORMED\"); intended doses in EC (ECMOOD = \"SCHEDULED\") can then be compared with actual doses in EX [Source: domains/EX/examples.md]. ECMOOD is a Perm Record Qualifier with CT C125923 [Source: VARIABLE_INDEX.md]\n\n## Contrast with Neighboring Domains\n\n- Substances administered as part of a testing procedure do **not** belong in EX (although the procedure may be protocol-specified, such data would not be used or analyzed like study-treatment data); the **AG** domain was created for this purpose [Source: domains/AG/assumptions.md]",
      "elapsed_s": 22.08
    },
    {
      "id": "q32",
      "category": "cross_domain",
      "question": "How is VISIT and VISITNUM used consistently across observation-class domains, and what role does the SV (Subject Visits) domain play in tracking actual visit dates?",
      "out_of_scope": false,
      "source_recall": 0.5,
      "source_hits": [
        "domains/SV/assumptions.md"
      ],
      "source_misses": [
        "domains/SV/spec.md"
      ],
      "top5_sources": [
        "model/03_special_purpose_domains.md",
        "domains/TV/assumptions.md",
        "VARIABLE_INDEX.md",
        "domains/FA/spec.md",
        "domains/AG/spec.md"
      ],
      "top5_similarities": [
        0.7047,
        0.7003,
        0.6871,
        0.6682,
        0.6666
      ],
      "fact_recall": 1.0,
      "fact_hits": [
        "VISIT",
        "VISITNUM",
        "SV"
      ],
      "fact_misses": [],
      "answer_preview": "## 1. VISIT / VISITNUM in the three general observation classes\n\n**Variable attributes (typical Findings/Interventions domain, e.g., FA, AG, PE, TR, BS, DA, FT, RP):**\n\n| Variable | Label | Type | Role | Core | Controlled Terms |\n|---|---|---|---|---|---|\n| VISITNUM | Visit Number | Num | Timing | Exp | (none) |\n| VISIT | Visit Name | Char | Timing | Perm | (none) |\n\n- VISITNUM = \"Clinical encounter number. Numeric version of VISIT, used for sorting.\" [Source: domains/FA/spec.md -- VISITNUM] [Source: domains/PE/spec.md -- VISITNUM] [Source: domains/TR/spec.md -- VISITNUM]\n- VISIT = \"Protocol-d",
      "usage": {
        "prompt_tokens": 17053,
        "completion_tokens": 3489,
        "total_tokens": 20542
      },
      "model": "bedrock/converse/global.anthropic.claude-opus-5",
      "answer": "## 1. VISIT / VISITNUM in the three general observation classes\n\n**Variable attributes (typical Findings/Interventions domain, e.g., FA, AG, PE, TR, BS, DA, FT, RP):**\n\n| Variable | Label | Type | Role | Core | Controlled Terms |\n|---|---|---|---|---|---|\n| VISITNUM | Visit Number | Num | Timing | Exp | (none) |\n| VISIT | Visit Name | Char | Timing | Perm | (none) |\n\n- VISITNUM = \"Clinical encounter number. Numeric version of VISIT, used for sorting.\" [Source: domains/FA/spec.md -- VISITNUM] [Source: domains/PE/spec.md -- VISITNUM] [Source: domains/TR/spec.md -- VISITNUM]\n- VISIT = \"Protocol-defined description of clinical encounter. May be used in addition to VISITNUM and/or VISITDY.\" [Source: domains/AG/spec.md -- VISIT] [Source: domains/FA/spec.md -- VISIT]\n\nNote that the Order position differs by domain (e.g., VISITNUM is Order 21 in DA, 24 in FA/PE/RP, 26 in AG/TR/BS, 27 in FT), but the Label/Type/Role/Core are consistent. [Source: domains/DA/spec.md -- VISITNUM] [Source: domains/FT/spec.md -- VISITNUM]\n\n## 2. Consistency rules (cross-domain)\n\nFrom the general timing assumptions:\n\n- Every domain based on the 3 general observation classes should have at least 1 timing variable; in Findings, where data are collected at multiple visits, at least 1 timing variable **must** be used. [Source: chapters/ch04_general_assumptions.md -- 4.4.5 Clinical Encounters and Visits]\n- For **planned visits**, the values of VISIT, VISITNUM, and VISITDY must be those defined in the Trial Visits (TV) dataset. [Source: chapters/ch04_general_assumptions.md -- 4.4.5 Clinical Encounters and Visits]\n- There must be a **one-to-one relationship between VISIT and VISITNUM**. VISITNUM values should, wherever possible, match the planned chronological order of visits (exceptions exist for protocol-defined visits with unpredictable timing, e.g., triggered by an AE or threshold lab value). [Source: chapters/ch04_general_assumptions.md -- 4.4.5 Clinical Encounters and Visits]\n- VISITDY is the **planned** study day of the *start* of the visit — not the actual study day; do not use --DY for it. [Source: chapters/ch04_general_assumptions.md -- 4.4.5 Clinical Encounters and Visits]\n- TV defines the valid VISITNUM values: any VISITNUM appearing in a subject-level dataset that is not in TV is assumed to be an **unplanned** visit. If a subject-level dataset contains both VISITNUM and VISIT, records whose VISITNUM is in TV should also carry the corresponding TV value of VISIT. [Source: domains/TV/assumptions.md -- item_6]\n\n**Unplanned visits** (sponsor practice may vary):\n- VISITNUM should generally still be populated (it is Exp in many Findings domains). The simplest approach assigns one value (e.g., 99) to all unplanned visits, but this gives no differentiation and no chronological sort; schemes that preserve one-to-one VISIT/VISITNUM mapping and chronological sorting across domains require more effort and can only be applied once all of a subject's unplanned visits are known.\n- VISIT may be null, a generic value (e.g., \"Unscheduled\"), or individually assigned values.\n- VISITDY must **not** be populated; the actual study day goes in a --DY variable. [Source: chapters/ch04_general_assumptions.md -- 4.4.5 Clinical Encounters and Visits]\n\nIllustration from the same section (lb.xpt):\n\n| USUBJID | VISIT | VISITNUM | VISITDY | LBDY |\n|---|---|---|---|---|\n| 001 | Week 1 | 2 | | |\n| 001 | Week 2 | 3 | 14 | 13 |\n| 001 | Week 2 Unscheduled | 3.1 | | 17 |\n\n[Source: chapters/ch04_general_assumptions.md -- 4.4.5 Clinical Encounters and Visits]\n\n## 3. Role of SV (Subject Visits)\n\n**Class:** Special Purpose. **Structure:** one record per actual or planned visit per subject; dataset sv.xpt, Tabulation. [Source: model/03_special_purpose_domains.md -- Subject Visits (SV)] [Source: domains/SV/assumptions.md -- overview]\n\nSV describes the **actual** study visits experienced by each subject, whereas planned visits are described in the Trial Design Model (TV); because actual data does not always follow the plan, SDTM allows description of unplanned visits via SVUPDES. [Source: model/03_special_purpose_domains.md -- Subject Visits (SV)]\n\nKey point on variable roles: within SV itself, VISITNUM is the **Topic** variable and VISIT is a **Synonym Qualifier of VISITNUM** — in contrast to their Timing role in the general-observation-class domains. VISITDY is Timing in SV. [Source: model/03_special_purpose_domains.md -- Subject Visits (SV)]\n\n**Actual date/time tracking variables:**\n\n| Variable | Label | Type | Role | Core | CT |\n|---|---|---|---|---|---|\n| SVSTDTC | Start Date/Time of Observation (Visit) | Char | Timing | Exp | ISO 8601 datetime or interval |\n| SVENDTC | End Date/Time of Observation (Visit) | Char | Timing | Exp | ISO 8601 datetime or interval |\n| SVSTDY | Study Day of Start of Observation (Visit) | Num | Timing | Perm | — |\n| SVENDY | Study Day of End of Observation (Visit) | Num | Timing | Perm | — |\n| SVUPDES | Description of Unplanned Visit | Char | Record Qualifier | Perm | — |\n| SVPRESP | Pre-specified | Char | Variable Qualifier | Exp | C66742 |\n| SVOCCUR | Occurrence | Char | Record Qualifier | Exp | C66742 |\n| SVREASOC | Reason for Occur Value | Char | Record Qualifier | Perm | — |\n| SVCNTMOD | Contact Mode | Char | Record Qualifier | Perm | C171445 |\n| SVEPCHGI | Epi/Pandemic Related Change Indicator | Char | Record Qualifier | Perm | C66742 |\n\n[Source: VARIABLE_INDEX.md -- SV — Subject Visits (Special-Purpose)] [Source: model/03_special_purpose_domains.md -- Subject Visits (SV)]\n\n**How SV is used analytically:**\n- The method for deriving SV values should be consistent with the visit definitions in TV (Section 7.3.1). A \"visit\" may be a single-day clinic encounter in one study and a multiday data-collection period in another. [Source: domains/SV/assumptions.md -- overview]\n- SV gives reviewers a summary of a subject's visits over their whole participation; comparing a subject's SV records against TV (the planned visits) supports identification of **planned but not completed** visits. [Source: domains/SV/assumptions.md -- overview]\n- Comparing SVSTDY / SVENDY against VISIT and/or VISITDY highlights **departures from the planned timing** of visits. [Source: domains/SV/assumptions.md -- overview]\n- Because SVPRESP/SVOCCUR are Expected, SV can also record pre-specified visits that did not occur (with SVREASOC giving the reason), and SVUPDES documents unplanned visits. [Source: VARIABLE_INDEX.md -- SV — Subject Visits (Special-Purpose)] [Source: model/03_special_purpose_domains.md -- Subject Visits (SV)]\n\n## 4. Practical implication\n\nTogether, TV (planned), the general-observation-class domains (VISIT/VISITNUM as Timing on each observation record), and SV (one record per actual/planned visit with SVSTDTC/SVENDTC) form a consistent chain: TV fixes the valid VISIT/VISITNUM pairs, observation domains reference those pairs to place each record in a clinical encounter, and SV supplies the actual start/end dates and study days of those encounters so that visit-level timing does not have to be inferred from the observation records themselves. [Source: domains/TV/assumptions.md -- item_6] [Source: chapters/ch04_general_assumptions.md -- 4.4.5 Clinical Encounters and Visits] [Source: domains/SV/assumptions.md -- overview]",
      "elapsed_s": 39.25
    },
    {
      "id": "q33",
      "category": "cross_domain",
      "question": "What is the RELSPEC domain and how does it define relationships between datasets at the study level, as opposed to RELREC which links individual records?",
      "out_of_scope": false,
      "source_recall": 0.0,
      "source_hits": [],
      "source_misses": [
        "domains/RELSPEC/spec.md"
      ],
      "top5_sources": [
        "chapters/ch08_relationships.md",
        "domains/RELSPEC/assumptions.md",
        "domains/RELSPEC/assumptions.md",
        "domains/RELREC/assumptions.md",
        "chapters/ch08_relationships.md"
      ],
      "top5_similarities": [
        0.7982,
        0.7932,
        0.7814,
        0.7707,
        0.7621
      ],
      "fact_recall": 1.0,
      "fact_hits": [
        "RELSPEC",
        "RELREC"
      ],
      "fact_misses": [],
      "answer_preview": "## Correction of the premise\n\nThe question inverts the two datasets' roles. **RELSPEC does not represent dataset-level or study-level relationships at all** — it is restricted to relationships *between specimens*. It is **RELREC** that carries both record-to-record and dataset-to-dataset (study-level) relationships.\n\nExplicitly from the RELSPEC assumptions:\n\n- \"The RELSPEC dataset is not used to manage relationships between any other datasets or domains.\" [Source: domains/RELSPEC/assumptions.md]\n- \"The RELSPEC dataset is only used to maintain relationships between specimens, therefore it does ",
      "usage": {
        "prompt_tokens": 21201,
        "completion_tokens": 2654,
        "total_tokens": 23855
      },
      "model": "bedrock/converse/global.anthropic.claude-opus-5",
      "answer": "## Correction of the premise\n\nThe question inverts the two datasets' roles. **RELSPEC does not represent dataset-level or study-level relationships at all** — it is restricted to relationships *between specimens*. It is **RELREC** that carries both record-to-record and dataset-to-dataset (study-level) relationships.\n\nExplicitly from the RELSPEC assumptions:\n\n- \"The RELSPEC dataset is not used to manage relationships between any other datasets or domains.\" [Source: domains/RELSPEC/assumptions.md]\n- \"The RELSPEC dataset is only used to maintain relationships between specimens, therefore it does not require any additional variables such as those used in RELREC.\" [Source: domains/RELSPEC/assumptions.md]\n\n---\n\n## RELSPEC — Related Specimens\n\n**Description:** A dataset used to represent relationships between specimens. [Source: chapters/ch08_relationships.md]\n\n**Class:** Relationship [Source: VARIABLE_INDEX.md]\n\n**Structure:** One record per specimen identifier per subject. Its purpose is specimen lineage — e.g., a parent specimen to derived aliquots or processed specimens. [Source: model/06_relationship_datasets.md]\n\n**Variables:**\n\n| # | Variable | Label | Type | Role | Core | Notes |\n|---|----------|-------|------|------|------|-------|\n| 1 | STUDYID | Study Identifier | Char | Identifier | — | [Source: model/06_relationship_datasets.md] |\n| 2 | USUBJID | Unique Subject Identifier | Char | Identifier | — | |\n| 3 | REFID | Specimen ID / Reference ID | Char | Identifier | Req | |\n| 4 | SPEC | Specimen Type | Char | Variable Qualifier (REFID) | Perm | CT: C78734; C111114 |\n| 5 | PARENT | Specimen Parent | Char | Identifier | Exp | REFID of the parent specimen, to support tracking its genealogy |\n| 6 | LEVEL | Specimen Level | Num | Variable Qualifier (REFID) | Req | Generation number of the sample; the collected sample is the first generation |\n\n[Source: model/06_relationship_datasets.md] [Source: VARIABLE_INDEX.md]\n\nSo the \"relationship\" in RELSPEC is expressed structurally, via PARENT (pointing to another REFID) and LEVEL (generation depth) — not via an identifier/keys mechanism.\n\n**Controlled terminology for SPEC:** Three CDISC codelists may be applicable: SPEC (C77529), SPECTYPE (C78734), and GENSMP (C111114). Sponsors are responsible for determining the most appropriate codelist(s) for their submission. [Source: chapters/ch08_relationships.md]\n\n**Provenance note:** BE, BS, and RELSPEC specifications/assumptions/examples were copied and minimally updated from the provisional SDTMIG-PGx (published 2015-05-26) in preparation for its retirement upon publication of SDTMIG v3.4; these domains are under extensive revision for a future SDTMIG. [Source: domains/RELSPEC/assumptions.md] RELSPEC was added new in SDTM v2.0. [Source: model/06_relationship_datasets.md]\n\n---\n\n## RELREC — the dataset that does handle both levels\n\n**Description:** A dataset used to describe relationships between records for a subject within or across domains, **and relationships of records across datasets**. Structure: one record per related record, group of records or dataset. [Source: chapters/ch08_relationships.md]\n\n**Key variables:** STUDYID (Req), RDOMAIN (Req, CT (DOMAIN)), USUBJID (Exp), IDVAR (Req), IDVARVAL (Exp), RELTYPE (Exp, CT (RELTYPE) = C78737), RELID (Req). [Source: chapters/ch08_relationships.md] [Source: VARIABLE_INDEX.md]\n\n**Record-level (peer) relationships:** defined by adding one RELREC record per record to be related, all sharing the same sponsor-chosen RELID value, which must be identical for all related records within USUBJID. Single records are related via a unique-record identifier in IDVAR (e.g., --SEQ); groups of records via a grouping variable (e.g., --GRPID); IDVARVAL holds the value. [Source: chapters/ch08_relationships.md] [Source: domains/RELREC/assumptions.md]\n\n**Dataset-level relationships:** RELREC identifies relationships between datasets (e.g., one-to-many / parent-child) by including a **single record for each related dataset** that identifies the key(s) usable to relate the respective records. RELTYPE identifies the hierarchical level, with allowable values ONE and MANY; RELTYPE is used *only* when identifying a relationship between datasets. Combinations are ONE–ONE, ONE–MANY, MANY–ONE, MANY–MANY. [Source: chapters/ch08_relationships.md] [Source: model/06_relationship_datasets.md]\n\nDataset-level relationships should only be recorded when the sponsor has found it necessary to split information between related datasets that may need to be examined together for analysis or proper interpretation. RELREC is *not* needed to associate SUPP-- or CO records to their parent records, since those datasets already carry the parent record's key identifiers. [Source: chapters/ch08_relationships.md]\n\nNote also that in the SDTM v2.0 model, RELREC carries additional identifiers not shown in the SDTMIG spec above — APID, POOLID, and SPDEVID — and USUBJID is null for dataset-level relationships; RELID should be unique within the ID variable that is the subject of the relationship. [Source: model/06_relationship_datasets.md]\n\n---\n\n## Summary contrast\n\n| Aspect | RELSPEC | RELREC |\n|---|---|---|\n| Scope | Relationships between specimens only; explicitly *not* between datasets or domains | Records within/across domains **and** across datasets |\n| Structure | One record per specimen identifier per subject | One record per related record, group of records, or dataset |\n| Linking mechanism | PARENT (parent REFID) + LEVEL (generation) | RELID (shared identifier) + RDOMAIN/IDVAR/IDVARVAL; RELTYPE (ONE/MANY) for dataset-level |\n| Study/dataset-level use | None | Yes — one record per related dataset, RELTYPE required |\n\n[Source: domains/RELSPEC/assumptions.md] [Source: model/06_relationship_datasets.md] [Source: chapters/ch08_relationships.md]\n\nIf what you actually need is dataset-level specimen splitting (e.g., relating BS or MB findings datasets), that would be handled through RELREC's dataset-relating mechanism, not RELSPEC — the retrieved context does not provide a worked example of that combination.",
      "elapsed_s": 32.7
    },
    {
      "id": "q34",
      "category": "cross_domain",
      "question": "Which SDTM domains share the controlled terminology codelist for NY (No Yes Response, C66742), and what variable typically uses this codelist in those domains?",
      "out_of_scope": false,
      "source_recall": 1.0,
      "source_hits": [
        "VARIABLE_INDEX.md"
      ],
      "source_misses": [],
      "top5_sources": [
        "chapters/ch04_general_assumptions.md",
        "VARIABLE_INDEX.md",
        "chapters/ch04_general_assumptions.md",
        "VARIABLE_INDEX.md",
        "VARIABLE_INDEX.md"
      ],
      "top5_similarities": [
        0.6352,
        0.6213,
        0.6157,
        0.6103,
        0.6077
      ],
      "fact_recall": 1.0,
      "fact_hits": [
        "C66742",
        "NY"
      ],
      "fact_misses": [],
      "answer_preview": "## Short answer\n\nThe retrieved context does **not** include the full cross-reference entry for codelist **NY — No Yes Response (C66742)**, so I cannot give the complete list of domains that reference it. What *is* grounded in the context is the following.\n\n### Domains explicitly shown as using C66742\n\n| Domain | Variables mapped to NY (C66742) | Source |\n|---|---|---|\n| SV (Subject Visits) | SVPRESP, SVOCCUR, SVEPCHGI | [Source: domains/SV/spec.md -- Controlled Terminology] |\n| TM (Trial Disease Milestones) | TMRPT | [Source: domains/TM/spec.md -- Controlled Terminology] |\n\n### The typical var",
      "usage": {
        "prompt_tokens": 14829,
        "completion_tokens": 1238,
        "total_tokens": 16067
      },
      "model": "bedrock/converse/global.anthropic.claude-opus-5",
      "answer": "## Short answer\n\nThe retrieved context does **not** include the full cross-reference entry for codelist **NY — No Yes Response (C66742)**, so I cannot give the complete list of domains that reference it. What *is* grounded in the context is the following.\n\n### Domains explicitly shown as using C66742\n\n| Domain | Variables mapped to NY (C66742) | Source |\n|---|---|---|\n| SV (Subject Visits) | SVPRESP, SVOCCUR, SVEPCHGI | [Source: domains/SV/spec.md -- Controlled Terminology] |\n| TM (Trial Disease Milestones) | TMRPT | [Source: domains/TM/spec.md -- Controlled Terminology] |\n\n### The typical variable pattern\n\nThe general-assumptions text confirms that the NY codelist is the standard codelist for the **`--PRESP`** class of variables (the \"pre-specified\" flags) across domains, and it adds an important implementation constraint: although `--PRESP` variables are *associated* with the NY codelist, **only the value \"Y\" is allowed** in `--PRESP`, so the Define-XML permissible value set should contain only the values actually part of planned data collection [Source: chapters/ch04_general_assumptions.md -- 4.3.3 Controlled Terminology Values].\n\nBy the same paired-variable convention visible in SV, the companion **`--OCCUR`** variable also takes NY (both \"Y\" and \"N\" being meaningful there) [Source: domains/SV/spec.md -- Controlled Terminology].\n\nAlso note how the codelist is referenced in the spec tables: the Controlled Terms, Codelist or Format column shows the CDISC codelist name as a hyperlink in parentheses — e.g. \"(NY)\" [Source: chapters/ch04_general_assumptions.md -- 4.3.1 Controlled Terms, Codelist or Format Column].\n\n### How to get the authoritative complete list\n\nQuery **VARIABLE_INDEX.md § 三 (CT 交叉引用)** for entry **C66742**; that section enumerates, per CT code, every variable/domain that references it (the same way the retrieved entries do for C66734 → CO.RDOMAIN, RELREC.RDOMAIN, SUPPQUAL.RDOMAIN, and C66726 → AG.AGDOSFRM, CM.CMDOSFRM, EC.ECDOSFRM, EX.EXDOSFRM, ML.MLDOSFRM, PR.PRDOSFRM, SU.SUDOSFRM) [Source: VARIABLE_INDEX.md -- §三 CT 交叉引用: C66734] [Source: VARIABLE_INDEX.md -- §三 CT 交叉引用: C66726]. The value list itself resides in [Source: terminology/core/general_part4.md].\n\nI should not speculate beyond SV and TM — NY is one of the most widely reused codelists in SDTMIG (many Events, Interventions, and Findings domains carry `--PRESP`/`--OCCUR` pairs), but the specific domain list must be confirmed from the C66742 cross-reference entry rather than inferred.",
      "elapsed_s": 17.84
    },
    {
      "id": "q11",
      "category": "concept",
      "question": "What are the three observation classes in the SDTM model?",
      "out_of_scope": false,
      "source_recall": 1.0,
      "source_hits": [
        "model/02_observation_classes.md"
      ],
      "source_misses": [],
      "top5_sources": [
        "chapters/ch02_fundamentals.md",
        "model/02_observation_classes.md",
        "chapters/ch02_fundamentals.md",
        "chapters/ch02_fundamentals.md",
        "chapters/ch01_introduction.md"
      ],
      "top5_similarities": [
        0.7222,
        0.7205,
        0.6501,
        0.6139,
        0.5872
      ],
      "fact_recall": 1.0,
      "fact_hits": [
        "Interventions",
        "Events",
        "Findings"
      ],
      "fact_misses": [],
      "answer_preview": "The SDTM organizes the majority of subject-level observations into **3 general observation classes (GOC)**:\n\n| Class | What it captures | Example domains |\n|-------|-----------------|-----------------|\n| **Interventions** | Investigational, therapeutic, and other treatments administered to or used by a subject (with some actual or expected physiological effect), including self-administered treatments (e.g., use of alcohol, tobacco, or caffeine) | EX, CM, PR |\n| **Events** | Planned protocol milestones and occurrences, conditions, or incidents independent of planned evaluations | AE, DS, MH |\n|",
      "usage": {
        "prompt_tokens": 21397,
        "completion_tokens": 791,
        "total_tokens": 22188
      },
      "model": "bedrock/converse/global.anthropic.claude-opus-5",
      "answer": "The SDTM organizes the majority of subject-level observations into **3 general observation classes (GOC)**:\n\n| Class | What it captures | Example domains |\n|-------|-----------------|-----------------|\n| **Interventions** | Investigational, therapeutic, and other treatments administered to or used by a subject (with some actual or expected physiological effect), including self-administered treatments (e.g., use of alcohol, tobacco, or caffeine) | EX, CM, PR |\n| **Events** | Planned protocol milestones and occurrences, conditions, or incidents independent of planned evaluations | AE, DS, MH |\n| **Findings** | Observations from planned evaluations to address specific tests or questions, including questionnaires | LB, VS, EG |\n\n[Source: chapters/ch02_fundamentals.md -- 2.3 The General Observation Classes]\n\nAdditional points:\n\n- Most data (measurements or responses at specific visits/time points) fit the **Findings** class. Guidance on choosing the appropriate GOC is in Section 8.6.1, Guidelines for Determining the General Observation Class [Source: chapters/ch02_fundamentals.md -- 2.3 The General Observation Classes].\n- **Findings About Events or Interventions** is a subtype of the Findings class, not a fourth class [Source: model/01_concepts_and_terms.md -- 2.1 Model Concepts and Terms — Variables].\n- Domains based on the general observation classes share a common set of Identifier and Timing variables (SDTM Sections 3.1.4, Identifiers for All Classes, and 3.1.5, Timing Variables for All Classes); as a general rule any valid identifier or timing variable is permissible in any GOC-based dataset [Source: model/02_observation_classes.md -- Overview].\n- Variables in GOC datasets must be ordered: Identifiers, then Topic, Qualifiers, and Timing [Source: chapters/ch04_general_assumptions.md -- 4.1.4 Order of the Variables].\n- Datasets that do **not** follow a general observation class include Special-purpose domains, Trial Design Model datasets, Relationship datasets, and Study Reference datasets [Source: chapters/ch02_fundamentals.md -- 2.4 Datasets Other than General Observation Class Domains].",
      "elapsed_s": 12.79
    },
    {
      "id": "q12",
      "category": "concept",
      "question": "What do the Core designations Req, Exp, and Perm mean in SDTM?",
      "out_of_scope": false,
      "source_recall": 1.0,
      "source_hits": [
        "chapters/ch04"
      ],
      "source_misses": [],
      "top5_sources": [
        "chapters/ch04_general_assumptions.md",
        "domains/SUPPQUAL/spec.md",
        "domains/CO/spec.md",
        "terminology/supplementary/supplementary_part5.md",
        "VARIABLE_INDEX.md"
      ],
      "top5_similarities": [
        0.6572,
        0.6055,
        0.5926,
        0.5856,
        0.5685
      ],
      "fact_recall": 1.0,
      "fact_hits": [
        "Required",
        "Expected",
        "Permissible"
      ],
      "fact_misses": [],
      "answer_preview": "## SDTM Core Designations\n\nThe **Core** column in the domain specification tables takes one of three values [Source: chapters/ch04_general_assumptions.md -- 4.1.5 SDTM Core Designations]:\n\n| Core Value | Meaning | Rule |\n|------------|---------|------|\n| **Req** (Required) | A Required variable is any variable that is basic to the identification of a data record (i.e., essential key variables and a topic variable) or is necessary to make the record meaningful. | Must always be included in the dataset and must always be populated — cannot be null for any record. |\n| **Exp** (Expected) | Any var",
      "usage": {
        "prompt_tokens": 21286,
        "completion_tokens": 924,
        "total_tokens": 22210
      },
      "model": "bedrock/converse/global.anthropic.claude-opus-5",
      "answer": "## SDTM Core Designations\n\nThe **Core** column in the domain specification tables takes one of three values [Source: chapters/ch04_general_assumptions.md -- 4.1.5 SDTM Core Designations]:\n\n| Core Value | Meaning | Rule |\n|------------|---------|------|\n| **Req** (Required) | A Required variable is any variable that is basic to the identification of a data record (i.e., essential key variables and a topic variable) or is necessary to make the record meaningful. | Must always be included in the dataset and must always be populated — cannot be null for any record. |\n| **Exp** (Expected) | Any variable necessary to make a record useful in the context of a specific domain. | Must be included in the dataset. Populate when available; null values are allowed when the data were not collected/not applicable. If the study does not include the data item at all, a **null column must still be included** and a comment must be added in the Define-XML document stating that the study does not include the data item. |\n| **Perm** (Permissible) | May be included in the dataset, at the sponsor's discretion, depending on whether the study collected the data item. | If the study includes a data item that would be represented in a Permissible variable, the variable **must** be included (even if null) and declared in Define-XML. If the study did not collect the data item, the variable should **not** be included in the dataset and should **not** be declared in Define-XML. |\n\n[Source: chapters/ch04_general_assumptions.md -- 4.1.5 SDTM Core Designations]\n\n### Additional points\n\n- Although domain specification tables list only *some* of the Identifier, Timing, and general observation class variables defined in the SDTM, **all** of them are Permissible unless specifically restricted by the implementation guide (see Section 2.7, SDTM Variables Not Allowed in the SDTMIG) or by specific domain assumptions. [Source: chapters/ch04_general_assumptions.md -- 4.1.5 SDTM Core Designations]\n- Domain assumptions stating that a Permissible variable is \"generally not used\" do **not** prohibit use of that variable. [Source: chapters/ch04_general_assumptions.md -- 4.1.5 SDTM Core Designations]\n- A domain specification table includes rows for all Required and Expected variables plus a selected set of Permissible variables — the Permissible rows shown are only those the SDS Team considered likely to be used, not the full set allowed for the domain. [Source: chapters/ch01_introduction.md -- 1.4.1 How to Read a Domain Specification]\n- Core designations can change between IG versions; e.g., MSRESCAT's core designation was changed from Expected to Permissible in SDTMIG v3.4. [Source: domains/MS/spec.md -- MSRESCAT]",
      "elapsed_s": 14.02
    },
    {
      "id": "q13",
      "category": "concept",
      "question": "What is the difference between Topic, Qualifier, and Identifier variable roles?",
      "out_of_scope": false,
      "source_recall": 0.0,
      "source_hits": [],
      "source_misses": [
        "model/01_concepts_and_terms.md"
      ],
      "top5_sources": [
        "chapters/ch02_fundamentals.md",
        "VARIABLE_INDEX.md",
        "VARIABLE_INDEX.md",
        "chapters/ch04_general_assumptions.md",
        "domains/ML/assumptions.md"
      ],
      "top5_similarities": [
        0.5542,
        0.5466,
        0.5325,
        0.5259,
        0.5228
      ],
      "fact_recall": 1.0,
      "fact_hits": [
        "Topic",
        "Qualifier",
        "Identifier"
      ],
      "fact_misses": [],
      "answer_preview": "## Variable Roles in SDTM\n\nThe SDTM classifies each variable in an observation according to its **role**. Of the five major roles, three are the ones asked about [Source: chapters/ch02_fundamentals.md -- 2.1 Observations and Variables]:\n\n| Role | Definition | Typical variables |\n|------|-----------|-------------------|\n| **Identifier** | Identify the study, subject, domain, and sequence number of the record | STUDYID, DOMAIN, USUBJID, --SEQ, --GRPID, --REFID |\n| **Topic** | Specify the **focus** of the observation (e.g., the name of a lab test) | --TESTCD/--TEST (Findings), --TERM (Events), --",
      "usage": {
        "prompt_tokens": 16711,
        "completion_tokens": 1866,
        "total_tokens": 18577
      },
      "model": "bedrock/converse/global.anthropic.claude-opus-5",
      "answer": "## Variable Roles in SDTM\n\nThe SDTM classifies each variable in an observation according to its **role**. Of the five major roles, three are the ones asked about [Source: chapters/ch02_fundamentals.md -- 2.1 Observations and Variables]:\n\n| Role | Definition | Typical variables |\n|------|-----------|-------------------|\n| **Identifier** | Identify the study, subject, domain, and sequence number of the record | STUDYID, DOMAIN, USUBJID, --SEQ, --GRPID, --REFID |\n| **Topic** | Specify the **focus** of the observation (e.g., the name of a lab test) | --TESTCD/--TEST (Findings), --TERM (Events), --TRT (Interventions) |\n| **Qualifier** | Additional illustrative text or numeric values that **describe the results or additional traits** of the observation | --ORRES, --SEV, --CAT, --DOSU, etc. |\n\nThe remaining two roles are **Timing** variables (describe the timing of an observation, e.g., start and end date) and **Rule** variables (describe the condition to start, end, branch, or loop in the Trial Design Model) [Source: chapters/ch02_fundamentals.md -- 2.1 Observations and Variables].\n\n### Qualifier is subdivided into 5 subclasses\n\n| Subclass | Purpose | Examples |\n|----------|---------|----------|\n| **Grouping Qualifiers** | Group together a collection of observations within the same domain | --CAT, --SCAT |\n| **Result Qualifiers** | Describe the specific results associated with the topic variable (Findings only) | --ORRES, --STRESC, --STRESN |\n| **Synonym Qualifiers** | Specify an alternative name for a particular variable | --MODIFY, --DECOD (for --TRT/--TERM); --TEST, --LOINC (for --TESTCD) |\n| **Record Qualifiers** | Define additional attributes of the observation record **as a whole**, rather than describing a particular variable within the record | --REASND, AESLIFE and other SAE flags (AE); AGE, SEX, RACE (DM); --BLFL, --POS, --LOC, --SPEC, --NAM (Findings) |\n| **Variable Qualifiers** | Modify or describe a **specific variable** within an observation; meaningful only in the context of the variable they qualify | --ORRESU, --ORNRHI, --ORNRLO (qualify --ORRES); --DOSU (qualifies --DOSE) |\n\n[Source: chapters/ch02_fundamentals.md -- 2.1 Observations and Variables]\n\n### Illustrative example\n\nFor the observation \"Subject 101 had mild nausea starting on study day 6\":\n- **Topic** value = \"NAUSEA\" (the focus of the observation)\n- **Identifier** = subject identifier \"101\"\n- **Timing** = \"starting on study day 6\"\n- **Record Qualifier** = severity \"MILD\"\n\n[Source: chapters/ch02_fundamentals.md -- 2.1 Observations and Variables]\n\n### Practical implications\n\n1. **Ordering:** For the 3 general observation classes, variables must be ordered **Identifiers first, then Topic, then Qualifiers, then Timing**, and within each role in the order shown in the SDTM model sections [Source: chapters/ch04_general_assumptions.md -- 4.1.4 Order of the Variables].\n2. **Naming:** Required Identifiers (STUDYID, DOMAIN, USUBJID) are not prefixed with the 2-character domain code because they are used as merge keys; --SEQ, --GRPID, and --REFID are prefixed because they may be used to relate observations across domains [Source: chapters/ch04_general_assumptions.md -- 4.2.2 Two-character Domain Identifier].\n3. **Extending domains:** Domain assumptions typically permit adding \"any identifier variables, timing variables, or [class] general observation-class qualifiers,\" while excluding specific qualifiers that are not meaningful for that domain — e.g., PR excludes --MOOD and --LOT [Source: domains/PR/assumptions.md -- item_4]; DS excludes --PRESP, --OCCUR, --STAT, --REASND, --BODSYS, --LOC, --SEV, --SER, etc. [Source: domains/DS/assumptions.md -- item_6]. Note that the **Topic** variable is fixed by the domain and is not something you add.\n4. **Same variable, different role by dataset:** Roles are assigned per dataset. IDVAR/IDVARVAL are **Identifier** role in RELREC and SUPPQUAL [Source: domains/RELREC/spec.md -- IDVAR; domains/SUPPQUAL/spec.md -- IDVAR; domains/RELREC/spec.md -- IDVARVAL], but **Record Qualifier** role in CO [Source: domains/CO/spec.md -- IDVARVAL]. Similarly, in SUPPQUAL, QNAM is the **Topic**, QLABEL is a **Synonym Qualifier**, QVAL is a **Result Qualifier**, and QORIG/QEVAL are **Record Qualifiers** [Source: VARIABLE_INDEX.md -- SUPPQUAL].",
      "elapsed_s": 21.78
    },
    {
      "id": "q14",
      "category": "concept",
      "question": "How should a sponsor create a new custom domain in SDTM?",
      "out_of_scope": false,
      "source_recall": 1.0,
      "source_hits": [
        "chapters/ch02"
      ],
      "source_misses": [],
      "top5_sources": [
        "chapters/ch02_fundamentals.md",
        "chapters/ch04_general_assumptions.md",
        "chapters/ch02_fundamentals.md",
        "model/01_concepts_and_terms.md",
        "chapters/ch02_fundamentals.md"
      ],
      "top5_similarities": [
        0.6333,
        0.6007,
        0.5951,
        0.5033,
        0.5016
      ],
      "fact_recall": 1.0,
      "fact_hits": [
        "observation class"
      ],
      "fact_misses": [],
      "answer_preview": "## Creating a Custom Domain in SDTM\n\nA custom domain **must be based on one of the 3 general observation classes (GOC)** — Interventions, Events, or Findings — and is assembled from Identifier variables + Timing variables + the Topic/Qualifier variables of the chosen class [Source: chapters/ch02_fundamentals.md -- 2.6 Creating a New Domain].\n\n### Step 1 — Confirm a custom domain is actually needed\n- Confirm that **none of the existing published domains** fits. A custom domain may only be created if the data are different in nature and do not fit into an existing published domain (e.g., microbi",
      "usage": {
        "prompt_tokens": 22656,
        "completion_tokens": 2249,
        "total_tokens": 24905
      },
      "model": "bedrock/converse/global.anthropic.claude-opus-5",
      "answer": "## Creating a Custom Domain in SDTM\n\nA custom domain **must be based on one of the 3 general observation classes (GOC)** — Interventions, Events, or Findings — and is assembled from Identifier variables + Timing variables + the Topic/Qualifier variables of the chosen class [Source: chapters/ch02_fundamentals.md -- 2.6 Creating a New Domain].\n\n### Step 1 — Confirm a custom domain is actually needed\n- Confirm that **none of the existing published domains** fits. A custom domain may only be created if the data are different in nature and do not fit into an existing published domain (e.g., microbiology, tumor measurements, pathology/histology, vital signs, physical exam results are examples of distinct topics warranting separate domains).\n- Group data **by topic and nature, not by collection method**. `--CAT`, `--SCAT`, `--METHOD`, `--SPEC`, and `--LOC` can distinguish data within a single domain.\n- Data collected on separate CRF modules/pages may still belong in one existing domain (e.g., separate questionnaires → QS; prior and concomitant medications → CM) [Source: chapters/ch02_fundamentals.md -- 2.6 Creating a New Domain].\n\n### Step 2 — Check for existing proposals\nCheck the **SDTM Draft Domains** area of the CDISC wiki for proposed domains [Source: chapters/ch02_fundamentals.md -- 2.6 Creating a New Domain; chapters/ch02_fundamentals.md -- 2.5 The SDTM Standard Domain Models].\n\n### Step 3 — Build the domain using an existing relevant domain model as a prototype\na. Select the required Identifier variables: **STUDYID, DOMAIN, USUBJID, --SEQ**\nb. Include the **Topic variable** from the identified GOC (e.g., `--TESTCD` for Findings)\nc. Select relevant **Qualifier variables from the same GOC only** — variables belonging to other general observation classes must not be added\nd. Select applicable **Timing variables**\ne. Determine the **domain code** — it must not be in the CDISC CT Domain Abbreviations codelist; **AD, AX, AP, SQ, SA may not be used**\nf. Apply the 2-character domain code to the variable prefixes\ng. Set variable order consistent with the SDTM\nh. Adjust variable **labels** only as appropriate to convey meaning in the new context; use **title case** (capitalize the first letter of every word except articles, prepositions, conjunctions)\ni. Ensure appropriate standard variables are properly applied\nj. Describe the dataset in the **Define-XML** document\nk. Place any **non-standard variables in a Supplemental Qualifiers (SUPP--) dataset** (see Section 8.4, Relating Non-standard Variable Values to a Parent Domain)\n[Source: chapters/ch02_fundamentals.md -- 2.6 Creating a New Domain]\n\n### Domain code / naming constraints\n- The 2-character domain code is limited to **A-Z for the first character, and A-Z or 0-9 for the second** — no other characters (for SAS v5 transport and eCTD file-naming compatibility) [Source: chapters/ch04_general_assumptions.md -- 4.2.2 Two-character Domain Identifier].\n- The dataset is normally named to match the domain code (e.g., `dm.xpt`); see the SDTM Domain Abbreviation codelist **C66734** for standard codes [Source: chapters/ch04_general_assumptions.md -- 4.1.6 Additional Guidance on Dataset Naming].\n- Codes beginning with **X, Y, or Z** are reserved for custom domains so a sponsor's choice will never collide with a future CDISC code. Their use is **optional, not required** [Source: chapters/ch04_general_assumptions.md -- 4.1.6 Additional Guidance on Dataset Naming].\n- When creating a custom domain based on a GOC, replace the `--` prefix in the SDTM GOC/Timing/Identifier variable tables with the 2-character DOMAIN value. Exceptions to prefixing: Required Identifiers (STUDYID, DOMAIN, USUBJID) and common grouping/merge keys (e.g., VISIT, VISITNUM, VISITDY) [Source: chapters/ch04_general_assumptions.md -- 4.2.2 Two-character Domain Identifier].\n\n### Key prohibitions and additional rules\n- Do **not** create separate domains based on time — represent both prior and current data in one domain (**AE and MH are the exceptions**).\n- Do **not** create \"efficacy\" domains; data collected for analysis must still go into standard domains.\n- For hierarchical data, establish **domain pairs** (e.g., MB/MS, PC/PP). Domain pairs use DOMAIN as an identifier to group parent records and enable dataset-level relationships via **RELREC** [Source: chapters/ch02_fundamentals.md -- 2.6 Creating a New Domain].\n- Sponsors may not add variables other than permitted Timing/same-class Qualifier variables; standard variables must not be renamed or repurposed for novel usage [Source: chapters/ch02_fundamentals.md -- 2.5 The SDTM Standard Domain Models].\n- Custom domains may use any appropriate Qualifier variables from the selected GOC, **except** the SDTM variables listed as not allowed in human clinical trials (e.g., `--USCHFL`, `--RSTIND`, `--RSTMOD`, `--RESLOC`, FETUSID, `--NOMDY`, etc.) [Source: chapters/ch02_fundamentals.md -- 2.7 SDTM Variables Not Allowed in the SDTMIG].\n- Permissible variables: include them whenever the study collected the corresponding data item (even if null); omit them (and do not declare them in Define-XML) if the data item was not collected [Source: chapters/ch02_fundamentals.md -- 2.5 The SDTM Standard Domain Models].\n\n### Conformance expectations for the finished domain\nFollow the complete metadata structure, use SDTM-specified variable names and data types, follow specified controlled terminology, include all Required and Expected variables (with Required populated), and ensure every record has appropriate Identifier, Timing, and Topic variables [Source: chapters/ch03_submitting_data.md -- 3.2.2 Conformance].",
      "elapsed_s": 26.96
    },
    {
      "id": "q15",
      "category": "concept",
      "question": "What are the three SDTM Core designation categories for variables, and what are the rules for handling a Permissible variable when a study did not collect the corresponding data item?",
      "out_of_scope": false,
      "source_recall": 1.0,
      "source_hits": [
        "chapters/ch04_general_assumptions.md"
      ],
      "source_misses": [],
      "top5_sources": [
        "chapters/ch04_general_assumptions.md",
        "chapters/ch02_fundamentals.md",
        "model/01_concepts_and_terms.md",
        "chapters/ch02_fundamentals.md",
        "chapters/ch02_fundamentals.md"
      ],
      "top5_similarities": [
        0.7807,
        0.7066,
        0.6895,
        0.6828,
        0.6694
      ],
      "fact_recall": 1.0,
      "fact_hits": [
        "Req",
        "Exp",
        "Perm"
      ],
      "fact_misses": [],
      "answer_preview": "## The Three SDTM Core Designations\n\nThe Core column in the domain models specifies three categories [Source: chapters/ch04_general_assumptions.md -- 4.1.5 SDTM Core Designations]:\n\n| Core Value | Meaning | Rule |\n|------------|---------|------|\n| **Req** (Required) | Any variable that is basic to the identification of a data record (i.e., essential key variables and a topic variable) or is necessary to make the record meaningful | Must always be included in the dataset and **cannot be null for any record** |\n| **Exp** (Expected) | Any variable necessary to make a record useful in the context ",
      "usage": {
        "prompt_tokens": 24705,
        "completion_tokens": 1061,
        "total_tokens": 25766
      },
      "model": "bedrock/converse/global.anthropic.claude-opus-5",
      "answer": "## The Three SDTM Core Designations\n\nThe Core column in the domain models specifies three categories [Source: chapters/ch04_general_assumptions.md -- 4.1.5 SDTM Core Designations]:\n\n| Core Value | Meaning | Rule |\n|------------|---------|------|\n| **Req** (Required) | Any variable that is basic to the identification of a data record (i.e., essential key variables and a topic variable) or is necessary to make the record meaningful | Must always be included in the dataset and **cannot be null for any record** |\n| **Exp** (Expected) | Any variable necessary to make a record useful in the context of a specific domain | Must be included in the dataset; values should be populated when available. May contain some null values (but in most cases will not be null for every record). If the study does not include the data item, a **null column must still be included**, and a comment must be added in the Define-XML document stating that the study does not include the data item |\n| **Perm** (Permissible) | May be included in the dataset | Inclusion depends on whether the study collected the data item (see below) |\n\n[Source: chapters/ch04_general_assumptions.md -- 4.1.5 SDTM Core Designations]\n\n## Rules for Permissible Variables\n\n**When the study DID collect/include the data item:**\n- The variable **must be included** in the SDTM dataset, even if null, and must be declared in the Define-XML document (indicate in Define-XML that no data were available for that variable). A Permissible variable should be used wherever appropriate. [Source: chapters/ch04_general_assumptions.md -- 4.1.5 SDTM Core Designations] [Source: chapters/ch02_fundamentals.md -- 2.5 The SDTM Standard Domain Models]\n\n**When the study did NOT include the data item (the question asked):**\n- The variable **should not be included** in the SDTM dataset, **and should not be declared in the Define-XML document**. [Source: chapters/ch04_general_assumptions.md -- 4.1.5 SDTM Core Designations] [Source: chapters/ch02_fundamentals.md -- 2.5 The SDTM Standard Domain Models]\n\nThis contrasts with Expected variables, where the (null) column is retained plus a Define-XML comment.\n\n## Related Notes\n\n- Although domain specification tables list only some of the Identifier, Timing, and general observation class variables from the SDTM, **all are Permissible** unless specifically restricted by the SDTMIG (see Section 2.7, SDTM Variables Not Allowed in the SDTMIG) or by specific domain assumptions. [Source: chapters/ch04_general_assumptions.md -- 4.1.5 SDTM Core Designations]\n- Domain assumptions stating that a Permissible variable is \"generally not used\" **do not prohibit** its use. [Source: chapters/ch04_general_assumptions.md -- 4.1.5 SDTM Core Designations]\n- Conformance requires including all Required and Expected variables as columns in standard domains, and ensuring all Required variables are populated. [Source: chapters/ch03_submitting_data.md -- 3.2.2 Conformance]",
      "elapsed_s": 14.33
    },
    {
      "id": "q35",
      "category": "concept",
      "question": "What is Controlled Terminology (CT) in SDTM and how does it constrain the values that variables can contain?",
      "out_of_scope": false,
      "source_recall": 1.0,
      "source_hits": [
        "chapters/ch04"
      ],
      "source_misses": [],
      "top5_sources": [
        "chapters/ch04_general_assumptions.md",
        "chapters/ch04_general_assumptions.md",
        "chapters/ch04_general_assumptions.md",
        "domains/TS/assumptions.md",
        "model/01_concepts_and_terms.md"
      ],
      "top5_similarities": [
        0.6889,
        0.6773,
        0.6662,
        0.6237,
        0.623
      ],
      "fact_recall": 1.0,
      "fact_hits": [
        "codelist",
        "Controlled Terms"
      ],
      "fact_misses": [],
      "answer_preview": "## What Controlled Terminology Is\n\nCDISC Controlled Terminology (CT) is the set of standardized, centrally governed codelists and terms used to populate SDTM variables. It is \"centrally managed by the CDISC Controlled Terminology Team, supporting the terminology needs of all CDISC foundational standards (SDTM, CDASH, ADaM, SEND) and all disease/therapeutic area standards.\" New/modified terms follow a 3-month development cycle with a quarterly public-review period followed by publication; the authoritative packages are on the CDISC Controlled Terminology page and the NCI Enterprise Vocabulary S",
      "usage": {
        "prompt_tokens": 18530,
        "completion_tokens": 3516,
        "total_tokens": 22046
      },
      "model": "bedrock/converse/global.anthropic.claude-opus-5",
      "answer": "## What Controlled Terminology Is\n\nCDISC Controlled Terminology (CT) is the set of standardized, centrally governed codelists and terms used to populate SDTM variables. It is \"centrally managed by the CDISC Controlled Terminology Team, supporting the terminology needs of all CDISC foundational standards (SDTM, CDASH, ADaM, SEND) and all disease/therapeutic area standards.\" New/modified terms follow a 3-month development cycle with a quarterly public-review period followed by publication; the authoritative packages are on the CDISC Controlled Terminology page and the NCI Enterprise Vocabulary Services (EVS) CDISC Terminology site. As of the 2015-12-18 release, the previously separate questionnaire and \"other domain\" SDTM terminology publications were merged into a single publication. [Source: chapters/ch10_appendices.md -- Appendix C: Controlled Terminology]\n\nIndividual codelists are identified by NCI concept codes (\"C-codes\") and are attached to specific variables in each domain specification — e.g., **SDTM Domain Abbreviation (C66734)** for RDOMAIN and **Evaluator (C78735)** for COEVAL [Source: domains/CO/spec.md -- Controlled Terminology], the same two codelists for RDOMAIN and QEVAL in SUPPQUAL [Source: domains/SUPPQUAL/spec.md -- Controlled Terminology], and **Relationship Type (C78737)** for RELTYPE [Source: domains/RELREC/spec.md -- Controlled Terminology].\n\n## How CT Is Declared in the IG (the \"Controlled Terms, Codelist or Format\" column)\n\nAs of SDTMIG v3.3, controlled terminology is represented in one of these ways in a domain specification: [Source: chapters/ch04_general_assumptions.md -- 4.3.1 Controlled Terms, Codelist or Format Column]\n\n- A single asterisk (`*`) when CDISC CT is not currently available, but sponsors may have their own and/or CDISC may develop it in the future;\n- The single applicable value for DOMAIN (e.g., \"PR\") — i.e., the variable is constrained to exactly one literal value;\n- The name of a CDISC codelist, shown as a hyperlink in parentheses (e.g., \"(NY)\");\n- A short reference to an external terminology (e.g., \"MedDRA\", \"ISO 3166-1 alpha-3\").\n\nThe same column is also used to flag variables that must use an **ISO 8601** format (i.e., a format constraint rather than a value list). [Source: chapters/ch04_general_assumptions.md -- 4.3.1 Controlled Terms, Codelist or Format Column]\n\nNote that examples appearing in the CDISC Notes column and in domain examples are illustrative only and are **not** intended to imply controlled terminology. [Source: chapters/ch04_general_assumptions.md -- 4.2.9 Variable Lengths / §4.3 note]\n\n## How CT Constrains Variable Values\n\n**1. Value-set membership, declared in Define-XML.** The controlled terminology, or a reference to it, should be included in the Define-XML document wherever applicable. All values in the permissible value set *for the study* should be included, whether or not they actually appear in the submitted data. [Source: chapters/ch04_general_assumptions.md -- 4.3.3 Controlled Terminology Values]\n\n**2. Null handling.** A null value should **not** be included in the permissible value set; a null is implied for any list of controlled terms unless the variable is \"Required\" (see SDTM Core designations). [Source: chapters/ch04_general_assumptions.md -- 4.3.3 Controlled Terminology Values]\n\n**3. Study-specific subsetting.** When a domain specification attaches a codelist to a variable, not every value in that codelist is necessarily part of planned data collection; only values that were part of planned collection should be listed in Define-XML. The canonical example: `--PRESP` variables are associated with the **NY** codelist, but only the value \"Y\" is allowed in `--PRESP`. [Source: chapters/ch04_general_assumptions.md -- 4.3.3 Controlled Terminology Values]\n\n**4. Text case is fixed by the source.** Terms must appear in the case used in the source codelist or code system (CDISC codelist, or an external system such as MedDRA). [Source: chapters/ch04_general_assumptions.md -- 4.3.2 Controlled Terminology Text Case]\n\n**5. Length.** For variables that use controlled terminology, the variable length can be set to the length of the longest term (rather than defaulting to 200). [Source: chapters/ch04_general_assumptions.md -- 4.2.9 Variable Lengths]\n\n**6. Consistency across the submission.** Use of variable names, formats, decodes, terminology, and data types for the same type of data — including custom domains and Supplemental Qualifiers — should be consistent within and across studies in a submission. [Source: chapters/ch04_general_assumptions.md -- 4.2.1 Variable-Naming Conventions]\n\n## Character/format constraints that interact with CT\n\nEven where a codelist supplies the term, the *code* companion variables carry structural limits: [Source: chapters/ch04_general_assumptions.md -- 4.2.1 Variable-Naming Conventions]\n\n- `--TESTCD` ≤ 8 characters, cannot start with a number, and may contain only letters, numbers, or underscores (SAS v5 transport compatibility). `QNAM` serves the same purpose as `--TESTCD` in SUPP-- datasets and is subject to the same restrictions.\n- `ETCD` (companion to ELEMENT) and `TSPARMCD` (companion to TSPARM) are limited to 8 characters but do **not** carry the `--TESTCD` character restrictions.\n- `ARMCD` and `ACTARMCD` are limited to 20 characters, without the `--TESTCD` character restrictions.\n\nWhere a code from an external system is stored, longer values are permitted: TSVALCD (Parameter Value Code, Char, Result Qualifier, Core Exp) \"is the code of the term in TSVAL. For example, '6CW7F3G59X' is the code for gabapentin; 'C49488' is the code for Y. The length of this variable can be longer than 8 to accommodate the length of the external terminology.\" [Source: domains/TS/spec.md -- TSVALCD]\n\n## Parameter-driven and recipient-specified terminology\n\nFor some trial summary parameters, CDISC CT includes codelists for use with TSVAL; the associations between parameters and their response codelists are published in the **TS codetable** on the CDISC terminology page. Recipients may also specify controlled terminology for TSVAL — either for parameters that have no CDISC CT, or to replace CDISC CT for a parameter (e.g., the US FDA Data Standards Catalog specifies terminologies for certain trial summary parameters). [Source: domains/TS/assumptions.md -- item_8]\n\n## Not covered by the retrieved context\n\nThe retrieved context does not include the formal definition of **extensible vs. non-extensible** codelists (i.e., when sponsors may add terms to a CDISC codelist). That distinction should be confirmed in the CDISC Controlled Terminology package itself, where each codelist carries an extensibility flag.",
      "elapsed_s": 40.87
    },
    {
      "id": "q36",
      "category": "concept",
      "question": "What are the timing variables in SDTM (such as --DTC, --STDTC, --ENDTC) and how are they structured across domains?",
      "out_of_scope": false,
      "source_recall": 1.0,
      "source_hits": [
        "chapters/ch04"
      ],
      "source_misses": [],
      "top5_sources": [
        "domains/DS/assumptions.md",
        "model/01_concepts_and_terms.md",
        "chapters/ch02_fundamentals.md",
        "chapters/ch04_general_assumptions.md",
        "domains/BE/assumptions.md"
      ],
      "top5_similarities": [
        0.7123,
        0.7001,
        0.6825,
        0.6668,
        0.6647
      ],
      "fact_recall": 1.0,
      "fact_hits": [
        "DTC",
        "STDTC",
        "ENDTC",
        "Timing"
      ],
      "fact_misses": [],
      "answer_preview": "## Timing Variables in SDTM\n\n### 1. Role definition\n\nTiming variables are one of the 5 major SDTM variable roles: they \"describe the timing of an observation (e.g., start date, end date)\" [Source: model/01_concepts_and_terms.md -- 2.1 Model Concepts and Terms — Variables]. Unlike Qualifiers, they are a shared pool available to **any** domain based on one of the 3 general observation classes (GOC), \"except where restricted in the assumptions for the standard domain models in the implementation guides\" — 48 variables in total [Source: model/02_observation_classes.md -- 3.1.5 Timing Variables for",
      "usage": {
        "prompt_tokens": 23460,
        "completion_tokens": 4096,
        "total_tokens": 27556
      },
      "model": "bedrock/converse/global.anthropic.claude-opus-5",
      "answer": "## Timing Variables in SDTM\n\n### 1. Role definition\n\nTiming variables are one of the 5 major SDTM variable roles: they \"describe the timing of an observation (e.g., start date, end date)\" [Source: model/01_concepts_and_terms.md -- 2.1 Model Concepts and Terms — Variables]. Unlike Qualifiers, they are a shared pool available to **any** domain based on one of the 3 general observation classes (GOC), \"except where restricted in the assumptions for the standard domain models in the implementation guides\" — 48 variables in total [Source: model/02_observation_classes.md -- 3.1.5 Timing Variables for All Classes].\n\n---\n\n### 2. The timing variable catalogue\n\n**Visit and Epoch variables**\n\n| # | Variable | Label | Type | Notes |\n|---|----------|-------|------|-------|\n| 1 | VISITNUM | Visit Number | Num | Numeric version of VISIT for sorting |\n| 2 | VISIT | Visit Name | Char | Protocol-defined visit name |\n| 3 | VISITDY | Planned Study Day of Visit | Num | Protocol-defined study day |\n| 4 | TAETORD | Planned Order of Element Within Arm | Num | Value for the element within the subject's assigned arm |\n| 5 | EPOCH | Epoch | Char | Time period defined in the protocol with a study-specific purpose |\n| 6–9 | RPHASE, RPPLDY, RPPLSTDY, RPPLENDY | Repro phase variables | — | Not in human clinical trials |\n\n**Date/Time variables**\n\n| # | Variable | Label | Type | Format | Notes |\n|---|----------|-------|------|--------|-------|\n| 10 | --DTC | Date/Time of Collection | Char | ISO 8601 | Primary date/time for the observation |\n| 11 | --STDTC | Start Date/Time of Observation | Char | ISO 8601 | **Not in Findings class domains** |\n| 12 | --ENDTC | End Date/Time of Observation | Char | ISO 8601 | |\n\n**Study Day variables**\n\n| # | Variable | Label | Notes |\n|---|----------|-------|-------|\n| 13 | --DY | Study Day of Visit/Collection/Exam | Derived from --DTC and RFSTDTC |\n| 14 | --STDY | Study Day of Start of Observation | Not in Findings class domains |\n| 15 | --ENDY | Study Day of End of Observation | |\n| 16–20 | --NOMDY, --NOMLBL, --RPDY, --RPSTDY, --RPENDY | — | Not in human clinical trials |\n| 21 | --XDY | Day of Obs Relative to Exposure | Derived relative to RFXSTDTC |\n| 22 | --XSTDY / 23 --XENDY | Start/End Day Rel. to Exposure | --XSTDY not in Findings |\n| 24 | --CHDY | Day of Obs Rel to Challenge Agent | Derived relative to RFCSTDTC |\n| 25 | --CHSTDY / 26 --CHENDY | Start/End Day Rel. to Challenge Agent | --CHSTDY not in Findings |\n| 27 | --DUR | Collected Duration | ISO 8601 duration |\n\n**Time Point variables**\n\n| # | Variable | Label |\n|---|----------|-------|\n| 28 | --TPT | Planned Time Point Name |\n| 29 | --TPTNUM | Planned Time Point Number |\n| 30 | --ELTM | Planned Elapsed Time from Time Point Ref (ISO 8601 duration) |\n| 31 | --TPTREF | Time Point Reference |\n| 32 | --RFTDTC | Date/Time of Reference Time Point |\n\n**Relative Timing variables**\n\n| # | Variable | Label | Notes |\n|---|----------|-------|-------|\n| 33 | --STRF | Start Relative to Reference Period | BEFORE, DURING, DURING/AFTER, AFTER, UNKNOWN |\n| 34 | --ENRF | End Relative to Reference Period | Same values as --STRF |\n| 35 | --EVLINT | Evaluation Interval | ISO 8601 duration or interval |\n| 36 | --EVINTX | Evaluation Interval Text | Used when the interval cannot be represented in ISO 8601 |\n| 37 | --STRTPT | Start Relative to Reference Time Point | |\n\n[Source: model/02_observation_classes.md -- 3.1.5 Timing Variables for All Classes]\n\n*Note: the retrieved excerpt of the 48-variable list is truncated after #37 (--STRTPT); the remaining relative-timing variables (the --STTPT/--ENRTPT/--ENTPT family and related items) should be read directly from that section for the complete enumeration.*\n\n---\n\n### 3. Structuring across observation classes\n\nThe key structural split is **Findings vs. Interventions/Events**:\n\n- In Findings domains, `--DTC` carries the critical timing information — \"the --DTC variable is used to represent the time of specimen collection,\" not necessarily when the data were recorded, and **`--STDTC` should not be used in the Findings general observation class** [Source: chapters/ch04_general_assumptions.md -- 4.4.8 Date and Time Reported in a Domain Based on Findings].\n\n| Collection Type | --DTC | --STDTC | --ENDTC |\n|-----------------|-------|---------|---------|\n| Single-point Collection | X | | |\n| Interval Collection | X | | X |\n\n  LB illustrates this: single-point blood or spot urine collections use **LBDTC**; timed collections (e.g., 24-hour urine) use **LBDTC** for the start and **LBENDTC** for the end [Source: chapters/ch04_general_assumptions.md -- 4.4.8 Date and Time Reported in a Domain Based on Findings].\n\n- In Interventions and Events domains, the interval is carried by `--STDTC`/`--ENDTC` (e.g., BESTDTC/BEENDTC, ECSTDTC/ECENDTC, SUSTDTC/SUENDTC, MLSTDTC/MLENDTC) [Source: domains/BE/assumptions.md -- item_6; domains/EC/assumptions.md -- item_5; domains/SU/assumptions.md -- item_4; domains/ML/assumptions.md -- item_2].\n\n- **EPOCH derivation follows the same split**: in a Findings domain EPOCH is based on `--DTC`; for Interventions or Events it is based on `--STDTC`. `--ENDTC` may be a more appropriate basis only in the unlikely case of an interval specimen collection spanning two epochs. EPOCH values must not be imputed, should be null when the epoch cannot be determined, and are null for interventions/events/findings occurring before the subject's participation (which includes screening, generally before RFSTDTC in DM) [Source: chapters/ch04_general_assumptions.md -- 4.1.3.1 EPOCH Variable Guidance]. EPOCH values are drawn from the Trial Arms (TA) dataset [Source: domains/DS/assumptions.md -- item_4].\n\n---\n\n### 4. Format conventions\n\nAll `--DTC`, `--STDTC`, `--ENDTC`, and `--RFTDTC` values use ISO 8601 **extended** format:\n\n`YYYY-MM-DDThh:mm:ss(.n+)?(((+|-)hh:mm)|Z)?`\n\n- Hyphen delimiters for date components, colon delimiters for time; the basic (delimiter-free) format must not be used.\n- Date precedes time, separated by \"T\" (e.g., 2001-12-26T00:00:01); am/pm is not allowed; **no spaces** are permitted.\n- Hyphens also represent missing date components (partial/incomplete dates are allowed); \"/\" separates interval components; \"P\" designates a duration.\n- Consequently all DTC variables are **character** type; the SDTM naming fragment for date/time character variables is **DTC** [Source: chapters/ch04_general_assumptions.md -- 4.4.1 Formats for Date/Time Variables].\n\nDurations (`--DUR`, `--ELTM`) and intervals (`--EVLINT`) also use ISO 8601 representations [Source: model/02_observation_classes.md -- 3.1.5 Timing Variables for All Classes].\n\n---\n\n### 5. Naming and prefixing\n\nWhen adding timing variables to a standard or custom GOC domain, the \"--\" prefix must be replaced by the 2-character DOMAIN value. Exceptions to prefixing include the \"commonly used grouping and merge keys (e.g., VISIT, VISITNUM, VISITDY)\" and all DM variables other than DMDTC and DMDY [Source: chapters/ch04_general_assumptions.md -- 4.2.2 Two-character Domain Identifier]. EPOCH and TAETORD likewise carry no domain prefix [Source: model/02_observation_classes.md -- 3.1.5 Timing Variables for All Classes].\n\n---\n\n### 6. Where timing variables may and may not be added\n\n- Any Timing variable is permissible for use in any dataset based on a GOC, except where restricted by specifi