{
  "summary": {
    "n_questions": 102,
    "n_scored": 102,
    "n_total": 102,
    "n_out_of_scope": 0,
    "retrieval_only": false,
    "n_answered": 102,
    "model": "bedrock/converse/global.anthropic.claude-sonnet-5",
    "threshold": 0.85,
    "source_recall_avg": 0.8578,
    "source_recall_by_category": {
      "concept": 0.88,
      "cross_domain": 0.8,
      "mixed": 0.8,
      "single_domain": 0.9444
    },
    "fact_recall_avg": 0.9657,
    "fact_recall_by_category": {
      "concept": 0.9533,
      "cross_domain": 0.9867,
      "mixed": 0.96,
      "single_domain": 0.963
    },
    "total_tokens": 2068371,
    "overall": 0.9118,
    "overall_metric": "substring",
    "verdict": "PASS",
    "top_k": 15,
    "prompt_guardrail": true,
    "web_search": false,
    "structured_answer": false,
    "graph_answer": false,
    "aggregate_answer": false,
    "retrieval_levers": {
      "top_k": 15,
      "structured_lookup": false,
      "hybrid": false,
      "rerank": false,
      "query_expansion": "none"
    },
    "max_tokens": 8192,
    "truncated": []
  },
  "results": [
    {
      "id": "q01",
      "category": "single_domain",
      "question": "What is AETERM and what are its variable attributes in the AE domain?",
      "out_of_scope": false,
      "source_recall": 1.0,
      "source_hits": [
        "domains/AE/spec.md"
      ],
      "source_misses": [],
      "top5_sources": [
        "domains/AE/assumptions.md",
        "domains/AE/assumptions.md",
        "domains/AE/spec.md",
        "domains/AE/assumptions.md",
        "domains/AE/spec.md"
      ],
      "top5_similarities": [
        0.6641,
        0.6105,
        0.5895,
        0.579,
        0.5779
      ],
      "fact_recall": 1.0,
      "fact_hits": [
        "Topic",
        "Char",
        "Req",
        "Verbatim"
      ],
      "fact_misses": [],
      "answer_preview": "**AETERM** (Reported Term for the Adverse Event) is the topic variable of the AE (Adverse Events) domain — it captures the verbatim term for the adverse event as reported/collected.\n\n**Variable Attributes:**\n\n| Attribute | Value |\n|-----------|-------|\n| Order | 9 |\n| Label | Reported Term for the Adverse Event |\n| Type | Char |\n| Role | Topic |\n| Core | Req (Required) |\n| Controlled Terms | None |\n| CDISC Notes | Verbatim name of the event. |\n\n[Source: domains/AE/spec.md -- AETERM]\n\n**Additional context on usage:**\n- AETERM is described as the topic variable for the AE dataset and is a requir",
      "usage": {
        "prompt_tokens": 17665,
        "completion_tokens": 439,
        "total_tokens": 18104
      },
      "model": "bedrock/converse/global.anthropic.claude-sonnet-5",
      "answer": "**AETERM** (Reported Term for the Adverse Event) is the topic variable of the AE (Adverse Events) domain — it captures the verbatim term for the adverse event as reported/collected.\n\n**Variable Attributes:**\n\n| Attribute | Value |\n|-----------|-------|\n| Order | 9 |\n| Label | Reported Term for the Adverse Event |\n| Type | Char |\n| Role | Topic |\n| Core | Req (Required) |\n| Controlled Terms | None |\n| CDISC Notes | Verbatim name of the event. |\n\n[Source: domains/AE/spec.md -- AETERM]\n\n**Additional context on usage:**\n- AETERM is described as the topic variable for the AE dataset and is a required variable that must have a value. [Source: domains/AE/assumptions.md -- item_2]\n- It works together with AEMODIFY (a permissible variable used when the sponsor's procedures permit modifying the verbatim term to facilitate coding) and AEDECOD (the required, dictionary-derived preferred term, typically from MedDRA, coded from AETERM or AEMODIFY). [Source: domains/AE/assumptions.md -- item_2; Source: domains/AE/spec.md -- AEDECOD; Source: domains/AE/spec.md -- AEMODIFY]",
      "elapsed_s": 12.39
    },
    {
      "id": "q02",
      "category": "single_domain",
      "question": "What are the required (Core=Req) variables in the DM domain?",
      "out_of_scope": false,
      "source_recall": 0.0,
      "source_hits": [],
      "source_misses": [
        "domains/DM/spec.md"
      ],
      "top5_sources": [
        "domains/DM/assumptions.md",
        "chapters/ch04_general_assumptions.md",
        "VARIABLE_INDEX.md",
        "VARIABLE_INDEX.md",
        "chapters/ch04_general_assumptions.md"
      ],
      "top5_similarities": [
        0.608,
        0.5671,
        0.5396,
        0.5148,
        0.5056
      ],
      "fact_recall": 1.0,
      "fact_hits": [
        "STUDYID",
        "DOMAIN",
        "USUBJID",
        "SUBJID",
        "SITEID",
        "SEX",
        "COUNTRY"
      ],
      "fact_misses": [],
      "answer_preview": "Based on the retrieved context, I do **not** have the full DM domain variable specification table (domains/DM/spec.md) that would list every variable's Core designation, so I cannot provide a complete, authoritative list of all Core=Req variables for DM from what has been retrieved.\n\nWhat the context does support:\n\n- **DOMAIN** (Domain Abbreviation) — Identifier variable, Type Char, **Core Req**, appearing in 59 SDTM domains including DM **[Source: VARIABLE_INDEX.md -- §一 通用变量: DOMAIN]**.\n- The general naming-convention rules note that **STUDYID, DOMAIN, and USUBJID** are treated as \"Required ",
      "usage": {
        "prompt_tokens": 19616,
        "completion_tokens": 1145,
        "total_tokens": 20761
      },
      "model": "bedrock/converse/global.anthropic.claude-sonnet-5",
      "answer": "Based on the retrieved context, I do **not** have the full DM domain variable specification table (domains/DM/spec.md) that would list every variable's Core designation, so I cannot provide a complete, authoritative list of all Core=Req variables for DM from what has been retrieved.\n\nWhat the context does support:\n\n- **DOMAIN** (Domain Abbreviation) — Identifier variable, Type Char, **Core Req**, appearing in 59 SDTM domains including DM **[Source: VARIABLE_INDEX.md -- §一 通用变量: DOMAIN]**.\n- The general naming-convention rules note that **STUDYID, DOMAIN, and USUBJID** are treated as \"Required Identifiers\" that are exceptions to the domain-prefix naming convention, and are basic to identification of a data record across domains **[Source: chapters/ch04_general_assumptions.md -- 4.2.2 Two-character Domain Identifier]**.\n- Per the general Core designation rules, a **Req (Required)** variable is \"any variable that is basic to the identification of a data record (i.e., essential key variables and a topic variable) or is necessary to make the record meaningful. Required variables must always be included in the dataset and cannot be null for any record.\" **[Source: chapters/ch04_general_assumptions.md -- 4.1.5 SDTM Core Designations]**\n\nTo get the complete, authoritative list of Core=Req variables specifically for DM (e.g., STUDYID, DOMAIN, USUBJID, SUBJID, RFSTDTC, SITEID, AGE, SEX, ARM/ARMCD, COUNTRY, etc., as defined in the DM domain model), the domains/DM/spec.md file would need to be consulted directly — it was not included in the retrieved context for this query. I recommend re-querying with a request that surfaces domains/DM/spec.md so I can enumerate the exact Core=Req variables with their Label, Type, and CDISC Notes per Rule 4.",
      "elapsed_s": 14.5
    },
    {
      "id": "q03",
      "category": "single_domain",
      "question": "What are the key assumptions for adverse event data collection and coding?",
      "out_of_scope": false,
      "source_recall": 1.0,
      "source_hits": [
        "domains/AE/assumptions.md"
      ],
      "source_misses": [],
      "top5_sources": [
        "domains/AE/assumptions.md",
        "domains/AE/assumptions.md",
        "domains/AE/assumptions.md",
        "domains/AE/assumptions.md",
        "domains/CE/assumptions.md"
      ],
      "top5_similarities": [
        0.5919,
        0.5758,
        0.5714,
        0.5608,
        0.5365
      ],
      "fact_recall": 1.0,
      "fact_hits": [
        "AETERM",
        "MedDRA",
        "AEDECOD"
      ],
      "fact_misses": [],
      "answer_preview": "## Key Assumptions for Adverse Event (AE) Data Collection and Coding\n\n### 1. Scope and Definition\nThe AE dataset includes clinical data describing \"any untoward medical occurrence in a patient or clinical investigation subject administered a pharmaceutical product and which does not necessarily have to have a causal relationship with this treatment\" (ICH E2A). Sponsors, in consultation with regulatory authorities, may extend or limit the scope of collection (e.g., collecting pre-treatment conduct-related events, or excluding events assessed as efficacy endpoints). Events included should be con",
      "usage": {
        "prompt_tokens": 26228,
        "completion_tokens": 2094,
        "total_tokens": 28322
      },
      "model": "bedrock/converse/global.anthropic.claude-sonnet-5",
      "answer": "## Key Assumptions for Adverse Event (AE) Data Collection and Coding\n\n### 1. Scope and Definition\nThe AE dataset includes clinical data describing \"any untoward medical occurrence in a patient or clinical investigation subject administered a pharmaceutical product and which does not necessarily have to have a causal relationship with this treatment\" (ICH E2A). Sponsors, in consultation with regulatory authorities, may extend or limit the scope of collection (e.g., collecting pre-treatment conduct-related events, or excluding events assessed as efficacy endpoints). Events included should be consistent with protocol requirements. AEs may be captured either as free text or via a prespecified list of terms **[Source: domains/AE/assumptions.md -- item_1]**.\n\n### 2. AE Description and Coding\n- **AETERM** is the topic variable, capturing the verbatim reported term; it is a **required** variable and must have a value.\n- **AEMODIFY** is a permissible variable, included if the sponsor's procedures allow modifying the verbatim term for coding purposes; populated per sponsor convention.\n- **AEDECOD** is the preferred term derived by the sponsor from a coding dictionary (e.g., MedDRA); it is **required** and must have a value. The dictionary name/version should be documented in Define-XML via the external codelist element.\n- **AEBODSYS** is the System Organ Class (SOC) associated with the event by the sponsor (may differ from the dictionary's primary SOC); expected to be populated.\n**[Source: domains/AE/assumptions.md -- item_2]**\n\n### 3. Prespecified Terms vs. Free Text\n- AEs are generally collected either as free text or via a prespecified list of terms. **AEPRESP = \"Y\"** indicates the event in AETERM was prespecified on the CRF.\n- If it is important to track which prespecified AEs did *not* occur, those data belong in a Findings class dataset (e.g., FA — Findings About Events or Interventions), with a record for each prespecified term; occurring events are still recorded in AE with AEPRESP=\"Y\".\n- If both prespecified and free-text events are collected in the same study, AEPRESP=\"Y\" for prespecified events and null for free-text events. AEPRESP is permissible and may be omitted entirely if all events were collected as free text.\n- Records should be included in the AE dataset only for adverse events that actually occurred; a \"no adverse events\" indicator should not generate an AE record.\n**[Source: domains/AE/assumptions.md -- item_4]**\n\n### 4. Other Qualifier Variables (Seriousness, Severity, etc.)\n- If seriousness category variables (AESCAN, AESCONG, AESDISAB, AESDTH, AESHOSP, AESLIFE, AESMIE, AESINTV, AEUNANT, AESOD) are collected only when a leading \"Serious?\" question is answered \"Yes,\" they may be null when the answer is \"No\"; at least one must be \"Y\" when \"Yes.\"\n- If the CRF collects a response for every seriousness category, AESER is instead derived from those responses.\n- \"Involves cancer\" (AESCAN) and \"Occurred with overdose\" (AESOD) are not part of the ICH serious-AE definition but remain available for studies using pre-ICH conventions.\n- Free-text descriptions of \"Other Medically Important Serious Adverse Events\" should be placed in SUPPAE using QNAM=AEOSOSP.\n- When using a standard toxicity grading scale (e.g., CTCAE), **AETOXGR** should be used instead of AESEV; typically only one of AESEV/AETOXGR is populated (dictionary name/version documented in Define-XML).\n- The AE dataset structure is one record per adverse event per subject; the sponsor defines what constitutes an \"event\" (e.g., one summary record from start to finish, or separate records when severity/causality/seriousness changes).\n**[Source: domains/AE/assumptions.md -- item_7]**\n\n### 5. Excluded Qualifiers\nThe qualifiers **--OCCUR, --STAT, and --REASND** are not used in AE — they are the only Events-class qualifiers excluded from AE, because AE contains only records for events that actually occurred. Negative/missing responses to probing questions about prespecified AEs should instead be handled per Assumption 4b (i.e., represented in a Findings dataset such as FA) **[Source: domains/AE/assumptions.md -- item_10]**.\n\n### 6. Controlled Terminology\nKey CT associated with AE coding/collection variables **[Source: domains/AE/spec.md -- Controlled Terminology]**:\n- **No Yes Response (C66742)** — applies to AEPRESP, AESER, AESCAN, AESCONG, AESDISAB, AESDTH, AESHOSP, AESLIFE, AESOD, AESMIE, AESINTV, AEUNANT, AECONTRT\n- **Action Taken with Study Treatment (C66767)** — AEACN\n- **Outcome of Event (C66768)** — AEOUT\n- **Severity/Intensity Scale for Adverse Events (C66769)** — AESEV\n- **Anatomical Location (C74456)** — AELOC\n- **Device Events Action Taken with Device (C111110)** — AEACNDEV\n- **Relation to Reference Period (C66728)** — AEENRF, AEENRTPT\n- **Epoch (C99079)** — EPOCH\n\n### 7. Related Domain Considerations\n- **Clinical Events (CE)** vs. AE distinction must be carefully determined with reference to regulatory guidance; events considered clinical events (e.g., disease signs/symptoms not deemed AEs per protocol) should be reflected in CE, not AE, but sponsors must ensure all true adverse events are still recorded in AE **[Source: domains/CE/assumptions.md -- item_1, item_3]**.\n- If prespecified-event occurrence/non-occurrence data is needed at a finer granularity, it should be captured in **FA (Findings About Events or Interventions)**, with actual occurring events still also recorded in AE with AEPRESP=\"Y\" **[Source: domains/FA/examples.md -- Example 4]**.",
      "elapsed_s": 23.59
    },
    {
      "id": "q04",
      "category": "single_domain",
      "question": "What is the purpose of the TV (Trial Visits) domain and what variables does it contain?",
      "out_of_scope": false,
      "source_recall": 1.0,
      "source_hits": [
        "domains/TV/spec.md"
      ],
      "source_misses": [],
      "top5_sources": [
        "VARIABLE_INDEX.md",
        "domains/SV/assumptions.md",
        "domains/TV/examples.md",
        "domains/TV/assumptions.md",
        "domains/TA/spec.md"
      ],
      "top5_similarities": [
        0.7202,
        0.6873,
        0.6648,
        0.6385,
        0.6362
      ],
      "fact_recall": 1.0,
      "fact_hits": [
        "VISITNUM",
        "VISIT"
      ],
      "fact_misses": [],
      "answer_preview": "## TV (Trial Visits) 域的用途\n\nTV 域用于描述临床试验方案中**计划好的（planned）访视时间表**，属于 Trial Design 类的域，与 TA、TD、TE、TI、TM、TS 同属一类 **[Source: domains/TV/spec.md]**。\n\n- TV 数据集定义的是**试验计划的访视**，用于与受试者实际经历的访视（记录在 SV — Subject Visits 域中）进行比对。SV 域的 assumptions 明确指出：\"Refer to Section 7.3.1, Trial Visits (TV), as the TV dataset defines the planned visits for the trial.\" **[Source: domains/SV/assumptions.md]**\n- 访视（Visit）被定义为\"临床接触\"（clinical encounters），并通过时间变量 VISIT、VISITNUM、VISITDY 加以描述 **[Source: domains/TV/assumptions.md]**。\n- 访视概念不一定对应单次物理就诊：一次计划访视可能跨越多次物理就诊（如筛选期数据分散在多次门诊中但记为同一个 VISIT 名称/编号），也可能只是某次长时间住院中的一部分 **[Source:",
      "usage": {
        "prompt_tokens": 18429,
        "completion_tokens": 2291,
        "total_tokens": 20720
      },
      "model": "bedrock/converse/global.anthropic.claude-sonnet-5",
      "answer": "## TV (Trial Visits) 域的用途\n\nTV 域用于描述临床试验方案中**计划好的（planned）访视时间表**，属于 Trial Design 类的域，与 TA、TD、TE、TI、TM、TS 同属一类 **[Source: domains/TV/spec.md]**。\n\n- TV 数据集定义的是**试验计划的访视**，用于与受试者实际经历的访视（记录在 SV — Subject Visits 域中）进行比对。SV 域的 assumptions 明确指出：\"Refer to Section 7.3.1, Trial Visits (TV), as the TV dataset defines the planned visits for the trial.\" **[Source: domains/SV/assumptions.md]**\n- 访视（Visit）被定义为\"临床接触\"（clinical encounters），并通过时间变量 VISIT、VISITNUM、VISITDY 加以描述 **[Source: domains/TV/assumptions.md]**。\n- 访视概念不一定对应单次物理就诊：一次计划访视可能跨越多次物理就诊（如筛选期数据分散在多次门诊中但记为同一个 VISIT 名称/编号），也可能只是某次长时间住院中的一部分 **[Source: domains/TV/examples.md]**。\n- TV 数据集的一般结构是\"每个 Arm 每个计划访视一条记录\"（One Record per Planned Visit per Arm）。但在很多试验（尤其是盲态试验）中，各 Arm 的访视计划相同，此时结构简化为\"每个计划访视一条记录\"，ARMCD 留空；若不同 Arm 访视计划不同，则 ARMCD 和 ARM 都需要填写 **[Source: domains/TV/assumptions.md]**。\n\n## TV 域包含的变量\n\n根据检索到的内容，TV 数据集中出现的变量包括：\n\n| 变量 | 说明 |\n|------|------|\n| STUDYID | 研究标识符（在示例数据表中出现） **[Source: domains/TV/examples.md]** |\n| DOMAIN | 域标识符（值为 \"TV\"，在示例数据表中出现） **[Source: domains/TV/examples.md]** |\n| VISITNUM | 访视编号，用于排序，数值型，理想情况下应与访视的计划时间顺序一致 **[Source: chapters/ch04_general_assumptions.md]** |\n| VISIT | 访视名称（源自方案），与 VISITNUM 之间必须是一对一关系 **[Source: chapters/ch04_general_assumptions.md]** |\n| VISITDY | 访视**开始**的计划研究日（区别于实际访视日 --DY） **[Source: chapters/ch04_general_assumptions.md]** |\n| ARMCD / ARM | 当不同 Arm 的访视计划不同时需要填充，用于区分各 Arm 的访视安排 **[Source: domains/TV/assumptions.md]** |\n| TVSTRL | Visit Start Rule — Char，Role: Rule，Core: Req（必填），描述访视应何时发生的规则，通常相对于某个 Element 或 Epoch 的起止时点来表达（如 \"1-2 hours before end of First Wash-out\"） **[Source: VARIABLE_INDEX.md]** **[Source: domains/TV/examples.md]** |\n| TVENRL | Visit End Rule — Char，Role: Rule，Core: Perm（可选），描述访视应何时结束的规则，可相对于 Element/Epoch 起止时点或访视自身开始时点表达 **[Source: VARIABLE_INDEX.md]** **[Source: domains/TV/examples.md]** |\n\n补充说明：\n- TVSTRL 的措辞应反映方案原文；很多试验中所有访视都以研究第 1 天（RFSTDTC）为参照进行安排，此时可用 VISITDY 作为 TVSTRL 的一种特殊表现形式 **[Source: domains/TV/assumptions.md]**。\n- Visit start rule 与 element start rule 不同：前者描述访视\"应该\"何时发生，后者定义 element 被认为开始的精确时刻；访视之间通常存在不属于任何访视的时间间隔 **[Source: domains/TV/examples.md]**。\n- 若某次数据采集依赖于某个\"触发\"事件或疾病里程碑（参见 TM 域），可以在 TV 表中包含一个\"contingent visit\"，并用规则描述其发生的条件；由于 TV 数据集中所有记录都必须赋值 VISITNUM，contingent visit 也需要 VISITNUM，但该值可能不符合\"按时间顺序\"排列 **[Source: domains/TV/examples.md]**。\n\n**说明**：以上变量列表基于当前检索到的上下文（VARIABLE_INDEX.md 摘录及 TV examples/assumptions），仅展示了 TVSTRL、TVENRL 两个 TV 专属变量的完整定义（Type/Role/Core），其余变量（STUDYID、DOMAIN、VISITNUM、VISIT、VISITDY、ARMCD、ARM）为通用 Identifier/Timing 变量在 TV 数据集中的应用体现。若需 TV 域完整、权威的变量规格表（含每个变量的 Label、Type、Role、Core、CT），建议查阅 domains/TV/spec.md 全文以获取完整清单。",
      "elapsed_s": 26.12
    },
    {
      "id": "q05",
      "category": "single_domain",
      "question": "In the PE (Physical Examination) domain, what is the structure of the dataset, what is the role of the PETESTCD variable, and what value should PETESTCD have when the results of the entire physical examination are represented in one record?",
      "out_of_scope": false,
      "source_recall": 1.0,
      "source_hits": [
        "domains/PE/spec.md"
      ],
      "source_misses": [],
      "top5_sources": [
        "domains/PE/spec.md",
        "VARIABLE_INDEX.md",
        "domains/PE/spec.md",
        "domains/PE/examples.md",
        "domains/PE/assumptions.md"
      ],
      "top5_similarities": [
        0.731,
        0.7191,
        0.7026,
        0.6542,
        0.6235
      ],
      "fact_recall": 1.0,
      "fact_hits": [
        "PETESTCD",
        "Topic",
        "PHYSEXAM"
      ],
      "fact_misses": [],
      "answer_preview": "# PE (Physical Examination) Domain\n\n## Dataset Structure\n\nAccording to the dataset-level metadata, PE has the structure: **One record per body system examined per visit per subject**, with Class = Findings, Purpose = Tabulation, and Keys typically including STUDYID, USUBJID, PETESTCD, PEDTC (following the general Findings-class pattern) [Source: chapters/ch03_submitting_data.md]. The PE domain belongs to the Findings observation class, as reflected in its variable structure (Topic, Synonym Qualifier, Grouping Qualifier, Record Qualifier, Result Qualifier, Timing variables) [Source: VARIABLE_IN",
      "usage": {
        "prompt_tokens": 27496,
        "completion_tokens": 671,
        "total_tokens": 28167
      },
      "model": "bedrock/converse/global.anthropic.claude-sonnet-5",
      "answer": "# PE (Physical Examination) Domain\n\n## Dataset Structure\n\nAccording to the dataset-level metadata, PE has the structure: **One record per body system examined per visit per subject**, with Class = Findings, Purpose = Tabulation, and Keys typically including STUDYID, USUBJID, PETESTCD, PEDTC (following the general Findings-class pattern) [Source: chapters/ch03_submitting_data.md]. The PE domain belongs to the Findings observation class, as reflected in its variable structure (Topic, Synonym Qualifier, Grouping Qualifier, Record Qualifier, Result Qualifier, Timing variables) [Source: VARIABLE_INDEX.md].\n\n## Role of PETESTCD\n\n**PETESTCD**\n- **Label:** Body System Examined Short Name\n- **Type:** Char\n- **Role:** Topic\n- **Core:** Req (Required)\n- **Controlled Terms:** — (none assigned at the codelist level per spec)\n\nPETESTCD serves as the **Topic variable** for the PE domain — it identifies the specific part of the body examined in a physical examination as the subject of each record. It can be used as a column name when converting the dataset from a vertical to a horizontal format. Per CDISC Notes, the value cannot exceed 8 characters, cannot start with a number (e.g., \"1TEST\" is invalid), and cannot contain characters other than letters, numbers, or underscores. Examples given include \"HEAD\" and \"ENT\" [Source: domains/PE/spec.md].\n\n## PETESTCD Value When Entire Exam Is One Record\n\nIf the results of the **entire physical examination** are represented in **one record**, the value of PETESTCD should be **\"PHYSEXAM\"** [Source: domains/PE/spec.md]. Correspondingly, the paired Synonym Qualifier variable PETEST (Body System Examined, Req) should be populated as **\"Physical Examination\"** in that same scenario [Source: domains/PE/spec.md].",
      "elapsed_s": 8.18
    },
    {
      "id": "q21",
      "category": "single_domain",
      "question": "What is the LBTESTCD variable in the LB (Laboratory Test Results) domain? Describe its role, controlled terminology codelist code, and naming constraints.",
      "out_of_scope": false,
      "source_recall": 1.0,
      "source_hits": [
        "domains/LB/spec.md"
      ],
      "source_misses": [],
      "top5_sources": [
        "domains/LB/spec.md",
        "domains/LB/spec.md",
        "domains/LB/assumptions.md",
        "VARIABLE_INDEX.md",
        "VARIABLE_INDEX.md"
      ],
      "top5_similarities": [
        0.7836,
        0.7576,
        0.7497,
        0.7479,
        0.7178
      ],
      "fact_recall": 1.0,
      "fact_hits": [
        "Topic",
        "C65047",
        "8 characters"
      ],
      "fact_misses": [],
      "answer_preview": "# LBTESTCD Variable in the LB Domain\n\n**LBTESTCD** (Order 8) is a variable within the LB (Laboratory Test Results) domain, which belongs to the **Findings** observation class.\n\n## Definition\n\n- **Label:** Lab Test or Examination Short Name\n- **Type:** Char\n- **Role:** Topic\n- **Core:** Req (Required)\n- **Controlled Terms:** C65047 (Laboratory Test Code)\n\n## CDISC Notes / Description\n\nLBTESTCD is the short name of the measurement, test, or examination described in **LBTEST**. It can be used as a column name when converting the dataset from a vertical (long) format to a horizontal (wide) format.",
      "usage": {
        "prompt_tokens": 19905,
        "completion_tokens": 715,
        "total_tokens": 20620
      },
      "model": "bedrock/converse/global.anthropic.claude-sonnet-5",
      "answer": "# LBTESTCD Variable in the LB Domain\n\n**LBTESTCD** (Order 8) is a variable within the LB (Laboratory Test Results) domain, which belongs to the **Findings** observation class.\n\n## Definition\n\n- **Label:** Lab Test or Examination Short Name\n- **Type:** Char\n- **Role:** Topic\n- **Core:** Req (Required)\n- **Controlled Terms:** C65047 (Laboratory Test Code)\n\n## CDISC Notes / Description\n\nLBTESTCD is the short name of the measurement, test, or examination described in **LBTEST**. It can be used as a column name when converting the dataset from a vertical (long) format to a horizontal (wide) format.\n\n**Naming constraints:**\n- Cannot exceed **8 characters** in length.\n- Cannot **start with a number** (e.g., \"1TEST\" is not a valid value).\n- Cannot contain characters **other than letters, numbers, or underscores**.\n\n**Examples:** \"ALT\", \"LDH\"\n\n[Source: domains/LB/spec.md]\n\n## Controlled Terminology\n\nLBTESTCD is coded against the **Laboratory Test Code (C65047)** codelist. This codelist is found in the terminology file `terminology/core/lb_part2.md`. [Source: domains/LB/spec.md] [Source: VARIABLE_INDEX.md]\n\nNote: The C65047 codelist is confirmed as the codelist code for LBTESTCD from the source metadata; however, the individual permissible test code values within C65047 (e.g., specific short names) were not present in the retrieved context, so their exact term-level entries would need to be confirmed by reading `terminology/core/lb_part2.md` directly.\n\n## Relationship to Other Variables\n\nLBTESTCD works together with **LBTEST** (Order 9, Role: Synonym Qualifier, Core: Req, CT: C67154 — Laboratory Test Name), which provides the verbatim/full name corresponding to the short code in LBTESTCD (e.g., \"ALT\" ↔ \"Alanine Aminotransferase\"). [Source: domains/LB/spec.md]",
      "elapsed_s": 10.78
    },
    {
      "id": "q22",
      "category": "single_domain",
      "question": "What is the VS (Vital Signs) domain and what are some examples of VSTESTCD values? Include the codelist code.",
      "out_of_scope": false,
      "source_recall": 1.0,
      "source_hits": [
        "domains/VS/spec.md"
      ],
      "source_misses": [],
      "top5_sources": [
        "domains/VS/spec.md",
        "domains/VS/assumptions.md",
        "domains/VS/spec.md",
        "VARIABLE_INDEX.md",
        "domains/VS/spec.md"
      ],
      "top5_similarities": [
        0.7384,
        0.6914,
        0.67,
        0.6527,
        0.6468
      ],
      "fact_recall": 1.0,
      "fact_hits": [
        "Findings",
        "VSTESTCD",
        "C66741"
      ],
      "fact_misses": [],
      "answer_preview": "# VS — Vital Signs Domain\n\n**VS (Vital Signs)** is a domain in the **Findings** observation class [Source: VARIABLE_INDEX.md -- VS — Vital Signs (Findings)]. It captures measurements and examinations of a subject's vital signs (e.g., blood pressure, temperature, height, weight) collected during the trial.\n\n## Key Topic Variable: VSTESTCD\n\n- **Label:** Vital Signs Test Short Name\n- **Type:** Char\n- **Role:** Topic\n- **Core:** Req\n- **Controlled Terms:** C66741 (Vital Signs Test Code)\n\n**CDISC Notes:** Short name of the measurement, test, or examination described in VSTEST. It can be used as a c",
      "usage": {
        "prompt_tokens": 18312,
        "completion_tokens": 974,
        "total_tokens": 19286
      },
      "model": "bedrock/converse/global.anthropic.claude-sonnet-5",
      "answer": "# VS — Vital Signs Domain\n\n**VS (Vital Signs)** is a domain in the **Findings** observation class [Source: VARIABLE_INDEX.md -- VS — Vital Signs (Findings)]. It captures measurements and examinations of a subject's vital signs (e.g., blood pressure, temperature, height, weight) collected during the trial.\n\n## Key Topic Variable: VSTESTCD\n\n- **Label:** Vital Signs Test Short Name\n- **Type:** Char\n- **Role:** Topic\n- **Core:** Req\n- **Controlled Terms:** C66741 (Vital Signs Test Code)\n\n**CDISC Notes:** Short name of the measurement, test, or examination described in VSTEST. It can be used as a column name when converting a dataset from a vertical to a horizontal format. The value in VSTESTCD cannot be longer than 8 characters, nor can it start with a number (e.g., \"1TEST\" is not valid). VSTESTCD cannot contain characters other than letters, numbers, or underscores. [Source: domains/VS/spec.md -- VSTESTCD]\n\n## Example VSTESTCD Values\n\nPer the CDISC notes/examples for VSTESTCD, examples include:\n- **SYSBP** (corresponding to VSTEST \"Systolic Blood Pressure\")\n- **DIABP** (corresponding to VSTEST \"Diastolic Blood Pressure\")\n- **BMI** (corresponding to VSTEST \"Body Mass Index\")\n\n[Source: domains/VS/spec.md -- VSTESTCD, VSTEST]\n\n**Note:** These three example values (SYSBP, DIABP, BMI) are drawn directly from the CDISC Notes for VSTESTCD/VSTEST as illustrative examples. The full controlled terminology codelist for VSTESTCD is **C66741 (Vital Signs Test Code)** [Source: domains/VS/spec.md -- Controlled Terminology; VARIABLE_INDEX.md -- §三 CT 交叉引用: C66741], but the individual value-to-code rows (i.e., the specific NCI \"C\" codes for each test term such as SYSBP or DIABP) were not present in the retrieved terminology content, so I cannot confirm per-value codes here — those would need to be verified in terminology/core/vs.md under the C66741 listing.\n\n### Related Companion Variable\n\n- **VSTEST** (Vital Signs Test Name) — Char, Synonym Qualifier, Core: Req, Controlled Terms: **C67153** (Vital Signs Test Name) — provides the full descriptive name corresponding to each VSTESTCD value (e.g., \"Systolic Blood Pressure\" for SYSBP). [Source: domains/VS/spec.md -- VSTEST; VARIABLE_INDEX.md -- §三 CT 交叉引用: C67153]",
      "elapsed_s": 10.15
    },
    {
      "id": "q23",
      "category": "single_domain",
      "question": "In the CM (Concomitant Medications) domain, what is the CMTRT variable and what observation class does CM belong to?",
      "out_of_scope": false,
      "source_recall": 1.0,
      "source_hits": [
        "domains/CM/spec.md"
      ],
      "source_misses": [],
      "top5_sources": [
        "domains/CM/spec.md",
        "domains/CM/assumptions.md",
        "VARIABLE_INDEX.md",
        "domains/CM/assumptions.md",
        "domains/CM/spec.md"
      ],
      "top5_similarities": [
        0.6741,
        0.6597,
        0.6347,
        0.6279,
        0.6041
      ],
      "fact_recall": 1.0,
      "fact_hits": [
        "CMTRT",
        "Interventions",
        "Topic",
        "Req"
      ],
      "fact_misses": [],
      "answer_preview": "**CMTRT (Reported Name of Drug, Med, or Therapy)**\n\n- **Label:** Reported Name of Drug, Med, or Therapy\n- **Type:** Char\n- **Role:** Topic\n- **Core:** Req (Required)\n- **Controlled Terms:** none specified\n- **CDISC Notes:** Verbatim medication name that is either preprinted or collected on a CRF. **[Source: domains/CM/spec.md -- CMTRT]**\n\nPer the domain assumptions, CMTRT is the topic variable that captures the name of the concomitant medication/therapy, or the prespecified term used to solicit occurrence information about a group of medications/therapies. It is required and must have a value.",
      "usage": {
        "prompt_tokens": 18260,
        "completion_tokens": 660,
        "total_tokens": 18920
      },
      "model": "bedrock/converse/global.anthropic.claude-sonnet-5",
      "answer": "**CMTRT (Reported Name of Drug, Med, or Therapy)**\n\n- **Label:** Reported Name of Drug, Med, or Therapy\n- **Type:** Char\n- **Role:** Topic\n- **Core:** Req (Required)\n- **Controlled Terms:** none specified\n- **CDISC Notes:** Verbatim medication name that is either preprinted or collected on a CRF. **[Source: domains/CM/spec.md -- CMTRT]**\n\nPer the domain assumptions, CMTRT is the topic variable that captures the name of the concomitant medication/therapy, or the prespecified term used to solicit occurrence information about a group of medications/therapies. It is required and must have a value. CMTRT contains only the medication/therapy name — it does not include dosage, formulation, or other qualifying information (e.g., \"ASPIRIN 100MG TABLET\" is invalid; instead this should be split into CMTRT=\"ASPIRIN\", CMDOSE=\"100\", CMDOSU=\"MG\", CMDOSFRM=\"TABLET\"). When referring to a prespecified group of medications/therapies, CMTRT contains the description of that group used to solicit the occurrence response. **[Source: domains/CM/assumptions.md -- item_2]**\n\n**Observation Class:**\n\nCM (Concomitant/Prior Medications) belongs to the **Interventions** class. This is confirmed by the domain listing \"CM — Concomitant/Prior Medications (Interventions)\" **[Source: VARIABLE_INDEX.md -- CM — Concomitant/Prior Medications (Interventions)]**, and CM is also grouped under \"Interventions Domains\" in the knowledge base domain index **[Source: INDEX.md]**. Its description confirms this: \"An interventions domain that contains concomitant and prior medications used by the subject, such as those given on an as needed basis or condition-appropriate medications.\" **[Source: domains/CM/assumptions.md -- overview]**",
      "elapsed_s": 7.97
    },
    {
      "id": "q24",
      "category": "single_domain",
      "question": "What is the EX (Exposure) domain used for and what is the Topic variable EXTRT?",
      "out_of_scope": false,
      "source_recall": 1.0,
      "source_hits": [
        "domains/EX/spec.md"
      ],
      "source_misses": [],
      "top5_sources": [
        "domains/EX/assumptions.md",
        "domains/EX/assumptions.md",
        "domains/EX/assumptions.md",
        "VARIABLE_INDEX.md",
        "domains/EC/spec.md"
      ],
      "top5_similarities": [
        0.6559,
        0.6203,
        0.6116,
        0.6061,
        0.5973
      ],
      "fact_recall": 1.0,
      "fact_hits": [
        "EXTRT",
        "Interventions",
        "protocol-specified"
      ],
      "fact_misses": [],
      "answer_preview": "# EX (Exposure) Domain Overview\n\n## Purpose\n\nThe EX domain represents **protocol-specified study treatment** exposure data. Key points on its usage:\n\n- Examples of treatments represented in EX include (but are not limited to) placebo, active comparators, and investigational products. Treatments that are **not** protocol-specified should instead be represented in the Concomitant/Prior Medications (CM) domain or another Interventions domain as appropriate **[Source: domains/EX/assumptions.md -- item_1]**.\n- EX is in most cases recognized as a **derived** dataset, where EXDOSU reflects the protoc",
      "usage": {
        "prompt_tokens": 17865,
        "completion_tokens": 1313,
        "total_tokens": 19178
      },
      "model": "bedrock/converse/global.anthropic.claude-sonnet-5",
      "answer": "# EX (Exposure) Domain Overview\n\n## Purpose\n\nThe EX domain represents **protocol-specified study treatment** exposure data. Key points on its usage:\n\n- Examples of treatments represented in EX include (but are not limited to) placebo, active comparators, and investigational products. Treatments that are **not** protocol-specified should instead be represented in the Concomitant/Prior Medications (CM) domain or another Interventions domain as appropriate **[Source: domains/EX/assumptions.md -- item_1]**.\n- EX is in most cases recognized as a **derived** dataset, where EXDOSU reflects the protocol-specified unit per study treatment. Collected data points (e.g., number of tablets, total volume infused) plus additional inputs (e.g., randomization file, concentration, dosage strength, product accountability) are used to derive EX records **[Source: domains/EX/assumptions.md -- item_1]**.\n- EX is **required** for all studies that include a protocol-specified study treatment. Records may be directly or indirectly determined; common methods (from most to least direct) include: direct observation by investigator, automated dispensing device, subject recall, product accountability data, or derivation from the protocol (in masked studies where doses cannot yet be reflected in protocol-specified units) **[Source: domains/EX/assumptions.md -- item_1]**.\n- EX should contain **1 record per constant-dosing interval per subject**, where the sponsor defines the constant-dosing interval (a period describable by a consistent dose, frequency, infusion rate, etc.) **[Source: domains/EX/assumptions.md -- item_1]**.\n- EX contains only medications actually **received** (administrations not taken/given/missed are excluded; under evaluation), so --MOOD would generally not be used in EX **[Source: domains/EX/assumptions.md -- item_6]**.\n- Collected exposure data points (as opposed to derived) are represented in the Exposure as Collected (EC) domain, which shares a relationship with EX (describable via RELREC when applicable); EX derivations must be described in the Define-XML document **[Source: domains/EX/assumptions.md -- item_5]**. EX and EC form a **shared dataset pair** — EX represents \"exposure\" vs. EC's \"exposure as collected\" **[Source: domains/EX/spec.md -- Related Domains]**.\n- EX belongs to the **Interventions** class, alongside AG, CM, EC, ML, PR, and SU **[Source: domains/EX/spec.md -- Related Domains]**.\n\n## Topic Variable: EXTRT\n\n| Attribute | Value |\n|---|---|\n| Label | Name of Treatment |\n| Type | Char |\n| Role | Topic |\n| Core | Req |\n| Controlled Terms | — |\n\n**CDISC Notes / Rules:**\n- EXTRT captures the name of the protocol-specified study treatment and is the topic variable. It is **required** and must always have a value **[Source: domains/EX/assumptions.md -- item_2]**.\n- EXTRT must include **only the treatment name** — it must **not** include dosage, formulation, or other qualifying information. For example, \"ASPIRIN 100MG TABLET\" is **not valid**; instead it should be split as EXTRT = \"ASPIRIN\", EXDOSE = \"100\", EXDOSU = \"mg\", EXDOSFRM = \"TABLET\" **[Source: domains/EX/assumptions.md -- item_2]**.\n- Doses of placebo should be represented as EXTRT = \"PLACEBO\" with EXDOSE = \"0\" (indicating 0 mg of active ingredient) **[Source: domains/EX/assumptions.md -- item_2]**.\n- As with other Interventions-class topic variables, EXTRT is typically stored as verbatim text describing the treatment **[Source: chapters/ch04_general_assumptions.md -- 4.3.6]**.",
      "elapsed_s": 14.75
    },
    {
      "id": "q25",
      "category": "single_domain",
      "question": "In the MH (Medical History) domain, what is the role of MHTERM and what assumptions guide medical history data collection?",
      "out_of_scope": false,
      "source_recall": 1.0,
      "source_hits": [
        "domains/MH/assumptions.md"
      ],
      "source_misses": [],
      "top5_sources": [
        "domains/MH/assumptions.md",
        "VARIABLE_INDEX.md",
        "domains/MH/assumptions.md",
        "domains/MH/spec.md",
        "domains/MH/assumptions.md"
      ],
      "top5_similarities": [
        0.7367,
        0.7079,
        0.6768,
        0.6764,
        0.6714
      ],
      "fact_recall": 1.0,
      "fact_hits": [
        "MHTERM",
        "Topic",
        "Verbatim"
      ],
      "fact_misses": [],
      "answer_preview": "## MHTERM Role and Definition\n\n**MHTERM** (Reported Term for the Medical History):\n- **Label:** Reported Term for the Medical History\n- **Type:** Char\n- **Role:** Topic\n- **Core:** Req (Required)\n- **Controlled Terms:** none\n- **CDISC Notes:** Verbatim or preprinted CRF term for the medical condition or event.\n\n[Source: domains/MH/spec.md]\n\nMHTERM is the **Topic variable** for the MH domain — it captures the verbatim term collected for the condition or event, or the prespecified term used to collect information about the occurrence of any of a group of conditions or events. As a required varia",
      "usage": {
        "prompt_tokens": 22125,
        "completion_tokens": 1537,
        "total_tokens": 23662
      },
      "model": "bedrock/converse/global.anthropic.claude-sonnet-5",
      "answer": "## MHTERM Role and Definition\n\n**MHTERM** (Reported Term for the Medical History):\n- **Label:** Reported Term for the Medical History\n- **Type:** Char\n- **Role:** Topic\n- **Core:** Req (Required)\n- **Controlled Terms:** none\n- **CDISC Notes:** Verbatim or preprinted CRF term for the medical condition or event.\n\n[Source: domains/MH/spec.md]\n\nMHTERM is the **Topic variable** for the MH domain — it captures the verbatim term collected for the condition or event, or the prespecified term used to collect information about the occurrence of any of a group of conditions or events. As a required variable, MHTERM must always have a value. [Source: domains/MH/assumptions.md]\n\n## Key Assumptions Guiding Medical History Data Collection\n\n### 1. Description and Coding\n- **MHTERM** is the topic variable capturing either verbatim text or a prespecified term.\n- **MHMODIFY** (permissible) should be included if the sponsor allows modification of a verbatim term for coding; null values are permitted.\n- **MHDECOD** is populated with the dictionary-derived preferred term if the sponsor codes MHTERM using a standard dictionary; the dictionary name/version should be provided via the external codelist element in Define-XML.\n- **MHBODSYS** is the System Organ Class (SOC) from the coding dictionary associated with the event; it is expected to be populated and may differ from the dictionary's standard hierarchy designation.\n- If the CRF collects medical history by prespecified body systems *and* the sponsor codes reported terms, then MHDECOD/MHBODSYS come from the standard dictionary, while **MHCAT**/**MHSCAT** represent the prespecified body systems.\n\n[Source: domains/MH/assumptions.md]\n\n### 2. Additional Categorization and Grouping\n- **MHCAT**/**MHSCAT** may hold the sponsor's predefined categorization (often prespecified on the CRF). MHBODSYS (from coding) and MHCAT (from CRF categorization) may differ even if terminology overlaps.\n- Categorization should not lump all records into one generic group (e.g., \"General Medical History\") unless other MHCAT values also exist — redundant grouping matching the domain code itself should be avoided.\n- **MHGRPID** links related records into a block at the subject level (e.g., grouping symptom records related to one disease); it should not substitute for MHCAT/MHSCAT, which are meant for cross-subject grouping.\n\n[Source: domains/MH/assumptions.md]\n\n### 3. Prespecified Terms; Presence or Absence of Events\n- Medical history is collected either via free text or a prespecified list of terms.\n- **MHPRESP** and **MHOCCUR** work together: MHPRESP = \"Y\" indicates the term was prespecified; MHOCCUR = \"Y\"/\"N\" indicates whether the prespecified condition occurred.\n- For free-text (spontaneously reported) events, MHPRESP and MHOCCUR should be null; both are Permissible and may be omitted entirely if all events were free text.\n- **MHSTAT** (Completion Status, CT: C66789) and **MHREASND** capture cases where a prespecified question had no response collected (e.g., MHSTAT = \"NOT DONE\" when the question wasn't asked).\n- When free-text collection indicates \"no medical history\" for a subject/category, no MH record should be created to represent that absence.\n\n[Source: domains/MH/assumptions.md]\n\n### 4. Timing Variables\n- **MHENRF** may be used when a relative timing assessment (e.g., \"Ongoing\"/\"Active\") coincides with the start of the study reference period (RFSTDTC in DM).\n- **MHENRTPT** and **MHENTPT** may be used when \"Ongoing\" is relative to another reference point, such as the screening visit date.\n- Additional timing variables (e.g., MHSTRF) may be used as appropriate.\n\n[Source: domains/MH/assumptions.md]\n\n## Relevant Controlled Terminology\n- **MHOCCUR**, **MHPRESP**: No Yes Response (C66742)\n- **MHSTAT**: Not Done (C66789)\n- **MHEVDTYP**: Medical History Event Date Type (C124301)\n- **MHENRF**, **MHENRTPT**: Relation to Reference Period (C66728)\n\n[Source: domains/MH/spec.md]\n\nMH is classified as an **Events** domain per the variable index designation. [Source: VARIABLE_INDEX.md]",
      "elapsed_s": 15.92
    },
    {
      "id": "q26",
      "category": "single_domain",
      "question": "Describe the EG (ECG Test Results) domain structure and the EGTESTCD variable, including its controlled terminology codelist codes.",
      "out_of_scope": false,
      "source_recall": 1.0,
      "source_hits": [
        "domains/EG/spec.md"
      ],
      "source_misses": [],
      "top5_sources": [
        "domains/EG/spec.md",
        "domains/EG/spec.md",
        "domains/EG/spec.md",
        "VARIABLE_INDEX.md",
        "VARIABLE_INDEX.md"
      ],
      "top5_similarities": [
        0.7263,
        0.7253,
        0.7226,
        0.6977,
        0.6789
      ],
      "fact_recall": 1.0,
      "fact_hits": [
        "EGTESTCD",
        "Findings",
        "C71153"
      ],
      "fact_misses": [],
      "answer_preview": "## EG (ECG Test Results) Domain Structure\n\nEG is a **Findings** class domain used to capture ECG Test Results **[Source: VARIABLE_INDEX.md]**.\n\n### Key Variable Groups\n\n- **Identifiers**: EGSEQ (Sequence Number, Num, Identifier, Req), EGGRPID, EGREFID, EGSPID, EGBEATNO (ECG Beat Number) — all Perm except EGSEQ **[Source: VARIABLE_INDEX.md]**\n- **Topic/Synonym Qualifiers**: EGTESTCD (Topic, Req), EGTEST (Synonym Qualifier, Req) **[Source: domains/EG/spec.md]**\n- **Grouping Qualifiers**: EGCAT (Category for ECG, Perm), EGSCAT (Subcategory for ECG, Perm) **[Source: domains/EG/spec.md]**\n- **Resul",
      "usage": {
        "prompt_tokens": 18020,
        "completion_tokens": 1956,
        "total_tokens": 19976
      },
      "model": "bedrock/converse/global.anthropic.claude-sonnet-5",
      "answer": "## EG (ECG Test Results) Domain Structure\n\nEG is a **Findings** class domain used to capture ECG Test Results **[Source: VARIABLE_INDEX.md]**.\n\n### Key Variable Groups\n\n- **Identifiers**: EGSEQ (Sequence Number, Num, Identifier, Req), EGGRPID, EGREFID, EGSPID, EGBEATNO (ECG Beat Number) — all Perm except EGSEQ **[Source: VARIABLE_INDEX.md]**\n- **Topic/Synonym Qualifiers**: EGTESTCD (Topic, Req), EGTEST (Synonym Qualifier, Req) **[Source: domains/EG/spec.md]**\n- **Grouping Qualifiers**: EGCAT (Category for ECG, Perm), EGSCAT (Subcategory for ECG, Perm) **[Source: domains/EG/spec.md]**\n- **Result Qualifiers**: EGORRES (Result/Finding in Original Units, Exp), EGSTRESC (Character Result in Standard Format, Exp), EGSTRESN (Numeric Result in Standard Units, Perm) **[Source: VARIABLE_INDEX.md]**\n- **Variable Qualifiers**: EGORRESU/EGSTRESU (Units, Perm, CT C71620), EGEVALID (Evaluator Identifier, CT C96777) **[Source: VARIABLE_INDEX.md]**\n- **Record Qualifiers**: EGPOS (ECG Position, CT C71148), EGSTAT (Completion Status, CT C66789), EGREASND, EGXFN, EGNAM, EGMETHOD (CT C71151), EGLEAD (CT C90013), EGLOBXFL/EGBLFL/EGDRVFL/EGCLSIG (CT C66742), EGEVAL (CT C78735), EGREPNUM **[Source: VARIABLE_INDEX.md]**\n- **Timing**: EGDTC, EGDY, EGTPT, EGTPTNUM, EGELTM, EGTPTREF, EGRFTDTC **[Source: VARIABLE_INDEX.md]**\n\n### EGTESTCD\n\n- **Label**: ECG Test or Examination Short Name\n- **Type**: Char\n- **Role**: Topic\n- **Core**: Req\n- **Controlled Terms**: C71153; C120523\n- **CDISC Notes**: Short name of the measurement, test, or examination described in EGTEST; used as a column name when converting from vertical to horizontal format. Value cannot exceed 8 characters, cannot start with a number, and cannot contain characters other than letters, numbers, or underscores (e.g., \"1TEST\" is invalid). Examples: \"PRAG\", \"QRSAG\". Test codes are split into **two separate codelists**: one for tests based on regular 10-second ECGs (EGTESTCD, codelist C71153), and one for tests based on Holter monitoring (HETESTCD, codelist C120523) **[Source: domains/EG/spec.md]**.\n\nThis split is echoed in the domain assumptions: \"There are separate codelists for tests and results based on regular 10-second ECGs and for tests and results based on Holter monitoring\" **[Source: domains/EG/assumptions.md]**.\n\n#### Controlled Terminology Codelists for EGTESTCD\n\n- **ECG Test Code (C71153)** — codelist for standard 10-second ECG test codes **[Source: domains/EG/spec.md]**\n- **Holter ECG Test Code (C120523)** — extensible codelist for Holter-monitoring-based test codes. Confirmed sample values retrieved from the terminology file include: AVCOND (Atrioventricular Conduction), AXISVOLT (Axis and Voltage), CHYPTENL (Chamber Hypertrophy or Enlargement), EGCOMP (Comparison to a Prior ECG), INTP (Interpretation), IVTIACD (Intraventricular-Intraatrial Conduction), MI (Myocardial Infarction), PACEMAKR (Pacemaker), RHYNOS (Rhythm Not Otherwise Specified), SNRARRY (Sinus Node Rhythms and Arrhythmias), SPRARRY (Supraventricular Arrhythmias), SPRTARRY (Supraventricular Tachyarrhythmias), STSTWUW (ST Segment, T wave, and U wave), TECHQUAL (Technical Quality), VTARRY (Ventricular Arrhythmias), VTTARRY (Ventricular Tachyarrhythmias) **[Source: terminology/core/eg_part3.md]**\n\nNote: Individual submission-value-to-code mappings shown above for C120523 come directly from the retrieved terminology table; the parent codelist code for the standard ECG test names (C71153, \"ECG Test Code\") was retrieved as a reference in the spec but its individual member terms were not shown in the retrieved context, so those specific value-level codes are not confirmed here.\n\nRelated companion variable **EGTEST** (ECG Test or Examination Name, Synonym Qualifier, Req) uses the parallel codelists **ECG Test Name (C71152)** and **Holter ECG Test Name (C120524)** **[Source: domains/EG/spec.md]**.\n\n### Special Study Context\n\nIf EG is used with the ECG QT Correction Model Data (QT) domain, sponsors assign study-level EGTESTCD/EGTEST values for each QT correction method used, with clear documentation of what each test code represents (e.g., QTCIAG1, QTCIAG2 for top-ranked best-fit models) **[Source: domains/EG/assumptions.md]**.",
      "elapsed_s": 20.3
    },
    {
      "id": "q27",
      "category": "single_domain",
      "question": "What is the IE (Inclusion/Exclusion) domain and what is the role and maximum length of the IETEST variable?",
      "out_of_scope": false,
      "source_recall": 1.0,
      "source_hits": [
        "domains/IE/spec.md"
      ],
      "source_misses": [],
      "top5_sources": [
        "domains/TI/spec.md",
        "VARIABLE_INDEX.md",
        "VARIABLE_INDEX.md",
        "domains/IE/spec.md",
        "domains/TI/assumptions.md"
      ],
      "top5_similarities": [
        0.716,
        0.7093,
        0.6908,
        0.6769,
        0.6678
      ],
      "fact_recall": 1.0,
      "fact_hits": [
        "IETEST",
        "200",
        "Synonym Qualifier"
      ],
      "fact_misses": [],
      "answer_preview": "## IE Domain Overview\n\n**IE — Inclusion/Exclusion Criteria Not Met** is a Findings-class domain [Source: VARIABLE_INDEX.md]. Its intent is to collect responses only to those criteria that the subject did **not** meet, not the responses to all criteria in the study; the complete list of inclusion/exclusion criteria is captured separately in the Trial Inclusion/Exclusion Criteria (TI) domain (see Section 7.4.1) [Source: domains/IE/assumptions.md].\n\nKey IE variables include:\n\n| Variable | Label | Type | Role | Core | CT |\n|---|---|---|---|---|---|\n| IESEQ | Sequence Number | Num | Identifier | Re",
      "usage": {
        "prompt_tokens": 15373,
        "completion_tokens": 1074,
        "total_tokens": 16447
      },
      "model": "bedrock/converse/global.anthropic.claude-sonnet-5",
      "answer": "## IE Domain Overview\n\n**IE — Inclusion/Exclusion Criteria Not Met** is a Findings-class domain [Source: VARIABLE_INDEX.md]. Its intent is to collect responses only to those criteria that the subject did **not** meet, not the responses to all criteria in the study; the complete list of inclusion/exclusion criteria is captured separately in the Trial Inclusion/Exclusion Criteria (TI) domain (see Section 7.4.1) [Source: domains/IE/assumptions.md].\n\nKey IE variables include:\n\n| Variable | Label | Type | Role | Core | CT |\n|---|---|---|---|---|---|\n| IESEQ | Sequence Number | Num | Identifier | Req | — |\n| IESPID | Sponsor-Defined Identifier | Char | Identifier | Perm | — |\n| IETESTCD | Inclusion/Exclusion Criterion Short Name | Char | Topic | Req | — |\n| IETEST | Inclusion/Exclusion Criterion | Char | Synonym Qualifier | Req | — |\n| IECAT | Inclusion/Exclusion Category | Char | Grouping Qualifier | Req | — |\n| IESCAT | Inclusion/Exclusion Subcategory | Char | Grouping Qualifier | Perm | — |\n| IEORRES | I/E Criterion Original Result | Char | Result Qualifier | Req | C66742 |\n| IESTRESC | I/E Criterion Result in Std Format | Char | Result Qualifier | Req | C66742 |\n| IEDTC | Date/Time of Collection | Char | Timing | Perm | ISO 8601 |\n| IEDY | Study Day of Collection | Num | Timing | Perm | — |\n\n[Source: VARIABLE_INDEX.md; domains/IE/spec.md]\n\n## IETEST Variable\n\n- **Label:** Inclusion/Exclusion Criterion\n- **Type:** Char\n- **Role:** Synonym Qualifier\n- **Core:** Req\n- **CDISC Notes:** Verbatim description of the inclusion or exclusion criterion that was the exception for the subject within the study.\n- **Maximum length:** IETEST cannot be longer than **200 characters** [Source: domains/IE/spec.md].\n\nThis is reinforced by the domain assumptions: IETEST is used only for the verbatim description of the inclusion or exclusion criteria — if the text is no more than 200 characters, it goes directly in IETEST; if the text exceeds 200 characters, meaningful (truncated) text should be placed in IETEST and the full text described in the study metadata, per the general rule for Test Name (--TEST) Greater than 40 Characters (Section 4.5.3.1) [Source: domains/IE/assumptions.md].\n\nNote that IETEST also appears in the TI (Trial Inclusion/Exclusion Criteria) domain with the same role (Synonym Qualifier) and Core (Req), but there its CDISC Notes do not specify the 200-character limit — instead noting that the \"IE\" prefix is used to ensure consistency with the IE domain [Source: domains/TI/spec.md].",
      "elapsed_s": 10.37
    },
    {
      "id": "q06",
      "category": "cross_domain",
      "question": "What is SUPPQUAL and when should supplemental qualifiers be used instead of adding variables to a domain?",
      "out_of_scope": false,
      "source_recall": 1.0,
      "source_hits": [
        "domains/SUPPQUAL/spec.md"
      ],
      "source_misses": [],
      "top5_sources": [
        "chapters/ch08_relationships.md",
        "domains/SUPPQUAL/assumptions.md",
        "VARIABLE_INDEX.md",
        "chapters/ch08_relationships.md",
        "model/06_relationship_datasets.md"
      ],
      "top5_similarities": [
        0.7412,
        0.741,
        0.7332,
        0.7305,
        0.7295
      ],
      "fact_recall": 1.0,
      "fact_hits": [
        "QNAM",
        "QVAL",
        "non-standard"
      ],
      "fact_misses": [],
      "answer_preview": "## What is SUPPQUAL?\n\nSUPPQUAL (Supplemental Qualifiers) is a **Relationship**-class dataset model, submitted as separate `supp--.xpt` datasets (e.g., `suppae.xpt`, `suppcm.xpt`), one for each parent domain — \"Supplemental Qualifiers for [domain name].\" The structure is one record per supplemental qualifier per related parent domain record(s) **[Source: chapters/ch08_relationships.md -- 8.4.1 Supplemental Qualifiers (SUPP--)]**.\n\nNote: the single, combined `SUPPQUAL` dataset option introduced in SDTMIG v3.1 has been **deprecated** — supplemental qualifiers must now be submitted in per-domain `",
      "usage": {
        "prompt_tokens": 25023,
        "completion_tokens": 2265,
        "total_tokens": 27288
      },
      "model": "bedrock/converse/global.anthropic.claude-sonnet-5",
      "answer": "## What is SUPPQUAL?\n\nSUPPQUAL (Supplemental Qualifiers) is a **Relationship**-class dataset model, submitted as separate `supp--.xpt` datasets (e.g., `suppae.xpt`, `suppcm.xpt`), one for each parent domain — \"Supplemental Qualifiers for [domain name].\" The structure is one record per supplemental qualifier per related parent domain record(s) **[Source: chapters/ch08_relationships.md -- 8.4.1 Supplemental Qualifiers (SUPP--)]**.\n\nNote: the single, combined `SUPPQUAL` dataset option introduced in SDTMIG v3.1 has been **deprecated** — supplemental qualifiers must now be submitted in per-domain `SUPP--` datasets, where \"--\" is the two-character source domain code (e.g., `suppdm.xpt` for DM qualifiers) **[Source: chapters/ch08_relationships.md -- 8.4.2 Submitting Supplemental Qualifiers in Separate Datasets]**.\n\n### Purpose\nBecause SDTM does not allow addition of new variables to standard domains, SUPP-- is used to capture non-standard variables (NSVs) and associate them with parent records in general-observation-class datasets (Events, Findings, Interventions), as well as Demographics (DM) and Subject Visits (SV) **[Source: domains/SUPPQUAL/assumptions.md -- overview]**. It is also used to capture **attributions** — subjective interpretations/classifications of observations by a specific evaluator (e.g., a clinical-significance flag) **[Source: domains/SUPPQUAL/assumptions.md -- overview]**.\n\n### Key Variables (Core dataset structure)\n\n| Variable | Label | Type | Role | Core | CT |\n|----------|-------|------|------|------|----|\n| STUDYID | Study Identifier | Char | Identifier | Req | — |\n| RDOMAIN | Related Domain Abbreviation | Char | Identifier | Req | (DOMAIN) |\n| USUBJID | Unique Subject Identifier | Char | Identifier | Req | — |\n| IDVAR | Identifying Variable | Char | Identifier | Exp | * |\n| IDVARVAL | Identifying Variable Value | Char | Identifier | Exp | — |\n| QNAM | Qualifier Variable Name | Char | Topic | Req | * |\n| QLABEL | Qualifier Variable Label | Char | Synonym Qualifier | Req | — |\n| QVAL | Data Value | Char | Result Qualifier | Req | — |\n| QORIG | Origin | Char | Record Qualifier | Req | — |\n| QEVAL | Evaluator | Char | Record Qualifier | Exp | (EVAL) |\n\n**[Source: chapters/ch08_relationships.md -- 8.4.1 Supplemental Qualifiers (SUPP--)]**\n\n- A record relates to its parent record(s) via STUDYID, RDOMAIN, USUBJID, and IDVAR/IDVARVAL. Exception: records related to DM have both IDVAR and IDVARVAL null, since STUDYID+RDOMAIN+USUBJID alone identify the single DM record per subject **[Source: chapters/ch08_relationships.md -- Key Rules]**.\n- QVAL is required for every record — no null QVAL values are permitted; null-value transposed records must be deleted before submission **[Source: domains/SUPPQUAL/spec.md -- QVAL]** **[Source: chapters/ch08_relationships.md -- Key Rules]**.\n- QEVAL should be populated only for subjective/evaluator-attributed data (e.g., \"ADJUDICATION COMMITTEE\", \"SPONSOR\"); it should be null for objective/collected/derived data **[Source: chapters/ch04_general_assumptions.md -- 4.5.4 Evaluators in the Interventions and Events Observation Classes]**.\n- The combination of the first six columns (STUDYID...QNAM) must be unique per record — no duplicate QNAM for the same IDVAR/IDVARVAL/USUBJID combination **[Source: domains/SUPPQUAL/assumptions.md -- overview]**.\n\n## When to use SUPP-- vs. adding a variable to the domain\n\nSince SDTM does not permit adding new variables to standard domains, SUPP-- is the designated mechanism for capturing sponsor-defined non-standard variables and attaching them to parent records **[Source: domains/SUPPQUAL/assumptions.md -- overview]**.\n\n**Appropriate uses of SUPP--:**\n- A sponsor-collected qualifier that has no equivalent standard SDTM variable (e.g., AESOSP \"Other Medically Important SAE\" in the AE domain) **[Source: chapters/ch08_relationships.md -- 8.4.3 Examples]**.\n- Derived/assigned flags such as a treatment-emergent flag (e.g., AETRTEM) **[Source: chapters/ch08_relationships.md -- 8.4.3 Examples]**.\n- Secondary/additional evaluations of a standard qualifier variable (e.g., an adjudication committee's assessment of severity or causality), using the standard variable name with \"1\" appended (e.g., AESEV1, AEREL1) — the primary evaluation stays in the standard domain dataset, secondary evaluation(s) go to SUPP-- **[Source: chapters/ch04_general_assumptions.md -- 4.5.4 Evaluators in the Interventions and Events Observation Classes]**.\n- Data that applies at a broader level via a grouping IDVAR (e.g., questionnaire language QSLANG tied to QSCAT rather than a single record) **[Source: chapters/ch08_relationships.md -- 8.4.3 Examples]**.\n\n**When NOT to use SUPP--** (should be placed elsewhere instead):\n- Subject-level objective data that fits in Subject Characteristics (SC) — e.g., national origin, twin type.\n- Findings interpretations that should instead be represented as an additional test code/result (e.g., an ECG interpretation record with `EGTESTCD = \"INTP\"`), not a supplemental qualifier.\n- Comments related to a record — these belong in the Comments (CO) special-purpose domain, not SUPP--, even if collected in the same source record.\n- Data not directly related to records in a parent domain — this should instead be captured in a separate general observation class domain or special-purpose domain.\n\n**[Source: chapters/ch08_relationships.md -- 8.4.4 When Not to Use Supplemental Qualifiers]**",
      "elapsed_s": 24.05
    },
    {
      "id": "q07",
      "category": "cross_domain",
      "question": "Which SDTM domains use the EPOCH variable and what is its purpose?",
      "out_of_scope": false,
      "source_recall": 1.0,
      "source_hits": [
        "VARIABLE_INDEX.md"
      ],
      "source_misses": [],
      "top5_sources": [
        "VARIABLE_INDEX.md",
        "chapters/ch04_general_assumptions.md",
        "domains/SR/spec.md",
        "domains/TA/assumptions.md",
        "domains/CP/spec.md"
      ],
      "top5_similarities": [
        0.7585,
        0.7,
        0.6839,
        0.6823,
        0.6779
      ],
      "fact_recall": 1.0,
      "fact_hits": [
        "EPOCH",
        "Timing"
      ],
      "fact_misses": [],
      "answer_preview": "## EPOCH Variable Overview\n\n**EPOCH** (Epoch) is a Timing variable, Type Char, Core **Perm** (Permissible), with Controlled Terms codelist **C99079**. It appears across **44 SDTM domains**: AE, AG, CE, CM, CP, CV, DA, DS, DV, EC, EG, EX, FA, FT, HO, IE, IS, LB, MB, MH, MI, MK, ML, MS, NV, OE, PC, PE, PP, PR, QS, RE, RP, RS, SC, SE, SR, SS, SU, TA, TR, TU, UR, VS **[Source: VARIABLE_INDEX.md]**.\n\n### Purpose\n\nEPOCH is used to indicate the study-design \"epoch\" (e.g., \"SCREENING\", \"TREATMENT\", \"FOLLOW-UP\") associated with an observation's date/time **[Source: domains/SR/spec.md]** **[Source: doma",
      "usage": {
        "prompt_tokens": 15572,
        "completion_tokens": 1480,
        "total_tokens": 17052
      },
      "model": "bedrock/converse/global.anthropic.claude-sonnet-5",
      "answer": "## EPOCH Variable Overview\n\n**EPOCH** (Epoch) is a Timing variable, Type Char, Core **Perm** (Permissible), with Controlled Terms codelist **C99079**. It appears across **44 SDTM domains**: AE, AG, CE, CM, CP, CV, DA, DS, DV, EC, EG, EX, FA, FT, HO, IE, IS, LB, MB, MH, MI, MK, ML, MS, NV, OE, PC, PE, PP, PR, QS, RE, RP, RS, SC, SE, SR, SS, SU, TA, TR, TU, UR, VS **[Source: VARIABLE_INDEX.md]**.\n\n### Purpose\n\nEPOCH is used to indicate the study-design \"epoch\" (e.g., \"SCREENING\", \"TREATMENT\", \"FOLLOW-UP\") associated with an observation's date/time **[Source: domains/SR/spec.md]** **[Source: domains/FA/spec.md]**. It is a study-design construct assigned on the basis of CRF instructions/structure rather than imputed by sponsors; if the epoch of an observation cannot be determined, EPOCH should be left null **[Source: chapters/ch04_general_assumptions.md]**.\n\n### How EPOCH is Derived, by Observation Class\n\n- **Findings class domains**: EPOCH should be based on the `--DTC` variable (date/time of the test or, for specimen-based tests, the date/time of specimen collection) **[Source: chapters/ch04_general_assumptions.md]**. This is reflected in individual domain notes, e.g.:\n  - CP, PP, PC, IS: \"Epoch associated with the start date/time of the observation, or the date/time of collection if start date/time is not collected.\" **[Source: domains/CP/spec.md]** **[Source: domains/PP/spec.md]** **[Source: domains/PC/spec.md]** **[Source: domains/IS/spec.md]**\n  - LB: same wording **[Source: domains/LB/spec.md]**\n  - FT: \"Epoch associated with the observation date/time of the functional tests finding.\" **[Source: domains/FT/spec.md]**\n  - UR: \"Epoch associated with the date/time at which the observation was made.\" **[Source: domains/UR/spec.md]**\n  - RE, EG: \"Epoch associated with the date/time at which the assessment was made.\" **[Source: domains/RE/spec.md]** **[Source: domains/EG/spec.md]**\n  - SS: \"Epoch associated with the start date/time of the subject status assessment.\" **[Source: domains/SS/spec.md]**\n  - FA, SR: \"Epoch associated with the date/time of the observation.\" **[Source: domains/FA/spec.md]** **[Source: domains/SR/spec.md]**\n\n- **Interventions or Events class domains**: EPOCH should be based on `--STDTC` (the start of the intervention or event), since this represents the start date/time. An exception may apply for interval specimen collections spanning epochs, where `--ENDTC` might be more appropriate **[Source: chapters/ch04_general_assumptions.md]**.\n\n- EPOCH may also be used as a timing variable in other datasets such as EX and DS. In designs with multiple epochs (e.g., a crossover trial with 3 treatment epochs), each epoch must be assigned a distinct value — they cannot share the same name (e.g., all labeled \"TREATMENT\") **[Source: domains/TA/assumptions.md]**.\n\n### Important Constraints\n\n- EPOCH is not applicable to interventions/events that started, or findings performed, before the subject's participation in the study (including the screening period, which occurs before RFSTDTC in DM); in such cases EPOCH should be null **[Source: chapters/ch04_general_assumptions.md]**.\n- Timing variables like EPOCH can be added to special-purpose domains only where explicitly specified in the SDTMIG domain model assumptions, and cannot be added to SUPPQUAL or RELREC **[Source: chapters/ch04_general_assumptions.md]**.\n\nNote: The specific controlled terminology values under codelist **C99079** were not shown in the retrieved context, so individual permissible values (e.g., \"SCREENING\", \"TREATMENT\", \"FOLLOW-UP\") should be confirmed against the terminology file for that codelist if per-value codes are needed.",
      "elapsed_s": 17.23
    },
    {
      "id": "q08",
      "category": "cross_domain",
      "question": "How does USUBJID serve as a linking key across SDTM domains?",
      "out_of_scope": false,
      "source_recall": 1.0,
      "source_hits": [
        "domains/DM/spec.md"
      ],
      "source_misses": [],
      "top5_sources": [
        "domains/SUPPQUAL/spec.md",
        "VARIABLE_INDEX.md",
        "domains/DM/spec.md",
        "domains/PP/spec.md",
        "domains/RELSPEC/spec.md"
      ],
      "top5_similarities": [
        0.7074,
        0.7061,
        0.6923,
        0.6854,
        0.6844
      ],
      "fact_recall": 1.0,
      "fact_hits": [
        "USUBJID",
        "Identifier",
        "unique"
      ],
      "fact_misses": [],
      "answer_preview": "# USUBJID as a Linking Key Across SDTM Domains\n\n## Definition and Core Properties\n\n**USUBJID** (Unique Subject Identifier):\n- **Label:** Unique Subject Identifier\n- **Type:** Char\n- **Role:** Identifier\n- **Core:** Req (Required) in most domains; **Exp** (Expected) in RELSUB specifically\n- **Controlled Terms:** None (free text identifier)\n\n**[Source: domains/DM/spec.md]**\n\n## How It Functions as a Linking Key\n\n1. **Uniqueness across the entire submission**: USUBJID is defined as \"the identifier used to uniquely identify a subject across all studies for all applications or submissions involving",
      "usage": {
        "prompt_tokens": 15085,
        "completion_tokens": 1432,
        "total_tokens": 16517
      },
      "model": "bedrock/converse/global.anthropic.claude-sonnet-5",
      "answer": "# USUBJID as a Linking Key Across SDTM Domains\n\n## Definition and Core Properties\n\n**USUBJID** (Unique Subject Identifier):\n- **Label:** Unique Subject Identifier\n- **Type:** Char\n- **Role:** Identifier\n- **Core:** Req (Required) in most domains; **Exp** (Expected) in RELSUB specifically\n- **Controlled Terms:** None (free text identifier)\n\n**[Source: domains/DM/spec.md]**\n\n## How It Functions as a Linking Key\n\n1. **Uniqueness across the entire submission**: USUBJID is defined as \"the identifier used to uniquely identify a subject across all studies for all applications or submissions involving the product.\" In DM, it is described as a value that \"must be a unique value, and could be a compound identifier formed by concatenating STUDYID-SITEID-SUBJID.\" **[Source: domains/DM/spec.md]**\n\n2. **Presence in nearly all domains**: According to the variable index, USUBJID appears in **55 of the SDTM domains** — essentially all domains except the trial-design domains (TA, TD, TE, TI, TM, TS, TV), which are study-level (not subject-level) metadata and thus have no need for a subject key. **[Source: VARIABLE_INDEX.md]**\n\n3. **Consistent Identifier role**: In every observation-level domain retrieved (DM, PP, CO, CV, GF, UR, VS, HO, CP, IS, MK), USUBJID is defined identically as an **Identifier**-role, **Char**-type, **Req**uired variable with the same CDISC Note about uniquely identifying a subject across studies. This consistency is what allows records for the same subject to be matched across different domains — e.g., an AE record and a matching LB record sharing the same USUBJID value both belong to the same subject. **[Source: domains/PP/spec.md]; [Source: domains/CO/spec.md]; [Source: domains/CV/spec.md]; [Source: domains/GF/spec.md]; [Source: domains/UR/spec.md]; [Source: domains/VS/spec.md]; [Source: domains/HO/spec.md]; [Source: domains/CP/spec.md]; [Source: domains/IS/spec.md]; [Source: domains/MK/spec.md]**\n\n4. **Relationship/supplemental datasets rely on it to point back to parent records**:\n   - In **SUPPQUAL**, USUBJID is Required, and the CDISC Note explicitly clarifies: \"This is the value of USUBJID in the parent record(s)\" — meaning SUPPQUAL uses USUBJID (together with other keys such as RDOMAIN, IDVAR/IDVARVAL) to tie supplemental qualifier data back to the exact parent domain record for a specific subject. **[Source: domains/SUPPQUAL/spec.md]**\n   - In **RELSPEC**, USUBJID is Required and serves the same subject-linking purpose to connect specimen relationship records to the subject's parent records. **[Source: domains/RELSPEC/spec.md]**\n   - In **RELSUB**, USUBJID's Core is **Exp** (Expected) rather than Req, because the CDISC Note states \"Either USUBJID or POOLID must be populated\" — reflecting that RELSUB can link either individual subjects (via USUBJID) or pooled/grouped subjects (via POOLID) across records. **[Source: domains/RELSUB/spec.md]**\n\n## Summary\n\nUSUBJID is the common **Identifier**-role variable that, together with STUDYID, forms the primary means of associating all records belonging to the same subject across the full range of subject-level SDTM domains (Special Purpose, Interventions, Events, Findings) as well as relationship/supplemental datasets (SUPPQUAL, RELSPEC, RELSUB). Its consistent Required (or Expected, where an alternative like POOLID exists) status and uniform definition across domains is what makes cross-domain record matching for a given subject possible. **[Source: domains/DM/spec.md]; [Source: VARIABLE_INDEX.md]; [Source: domains/SUPPQUAL/spec.md]; [Source: domains/RELSUB/spec.md]**",
      "elapsed_s": 15.35
    },
    {
      "id": "q09",
      "category": "cross_domain",
      "question": "How are adverse events linked to concomitant medications using RELREC?",
      "out_of_scope": false,
      "source_recall": 0.0,
      "source_hits": [],
      "source_misses": [
        "domains/RELREC/spec.md"
      ],
      "top5_sources": [
        "chapters/ch08_relationships.md",
        "domains/RELREC/examples.md",
        "chapters/ch08_relationships.md",
        "domains/RELREC/assumptions.md",
        "domains/CM/assumptions.md"
      ],
      "top5_similarities": [
        0.6174,
        0.583,
        0.5828,
        0.5376,
        0.5367
      ],
      "fact_recall": 1.0,
      "fact_hits": [
        "RELREC",
        "IDVAR",
        "IDVARVAL"
      ],
      "fact_misses": [],
      "answer_preview": "Adverse events are linked to concomitant medications using the RELREC (Related Records) special-purpose dataset, which represents *collected* relationships (explicit references, checkboxes, or CRF design) between records for a subject **[Source: chapters/ch08_relationships.md -- 8.2.2 RELREC Dataset Examples]** **[Source: domains/RELREC/assumptions.md -- overview]**.\n\n## Mechanism\n\nA relationship is defined by adding a record to RELREC for each record to be related, and assigning a shared, sponsor-chosen unique character identifier value stored in **RELID** — this value must be identical for a",
      "usage": {
        "prompt_tokens": 27357,
        "completion_tokens": 1422,
        "total_tokens": 28779
      },
      "model": "bedrock/converse/global.anthropic.claude-sonnet-5",
      "answer": "Adverse events are linked to concomitant medications using the RELREC (Related Records) special-purpose dataset, which represents *collected* relationships (explicit references, checkboxes, or CRF design) between records for a subject **[Source: chapters/ch08_relationships.md -- 8.2.2 RELREC Dataset Examples]** **[Source: domains/RELREC/assumptions.md -- overview]**.\n\n## Mechanism\n\nA relationship is defined by adding a record to RELREC for each record to be related, and assigning a shared, sponsor-chosen unique character identifier value stored in **RELID** — this value must be identical for all related records within a given USUBJID **[Source: domains/RELREC/assumptions.md -- overview]**.\n\nEach RELREC record identifies the related record (or group of records) using the key variables:\n- **STUDYID**\n- **RDOMAIN** — the domain code of the record in the relationship (e.g., \"AE\" or \"CM\")\n- **USUBJID**\n- **IDVAR** / **IDVARVAL** — identify either a single record or a group of records\n\nFor single records, **IDVAR** can point to a sequence-number variable like AESEQ or CMSEQ (with IDVARVAL holding the actual value); for groups of records, **IDVAR** can point to a grouping variable like CMGRPID (with IDVARVAL holding the group's ID value) **[Source: domains/RELREC/assumptions.md -- overview]** **[Source: chapters/ch08_relationships.md -- 8.1.1 --GRPID Example]**.\n\n## Example\n\nThe RELREC examples illustrate exactly this AE–CM linkage scenario for USUBJID = \"123456\":\n\n**Example 1** — relates one AE record (AESEQ=5) to two separate CM records (CMSEQ=11, 12) via RELID=\"1\", and the same AE record to two LB records via RELID=\"2\" (two separate relationships, no CM–LB relationship):\n\n| Row | STUDYID | RDOMAIN | USUBJID | IDVAR | IDVARVAL | RELTYPE | RELID |\n|---|---|---|---|---|---|---|---|\n| 1 | EFC1234 | AE | 123456 | AESEQ | 5 | | 1 |\n| 2 | EFC1234 | CM | 123456 | CMSEQ | 11 | | 1 |\n| 3 | EFC1234 | CM | 123456 | CMSEQ | 12 | | 1 |\n\n**Example 3** — same scenario, but the sponsor grouped the two CM records using CMGRPID=\"COMBO1\" in the CM dataset, allowing the relationship to be represented with fewer RELREC records (using IDVAR=CMGRPID instead of two separate CMSEQ rows):\n\n| Row | STUDYID | RDOMAIN | USUBJID | IDVAR | IDVARVAL | RELTYPE | RELID |\n|---|---|---|---|---|---|---|---|\n| 1 | EFC1234 | AE | 123456 | AESEQ | 5 | | 1 |\n| 2 | EFC1234 | CM | 123456 | CMGRPID | COMBO1 | | 1 |\n\n**[Source: chapters/ch08_relationships.md -- 8.2.2 RELREC Dataset Examples]** **[Source: domains/RELREC/examples.md -- Peer Record Examples]**\n\n## Alternative: --GRPID within CM alone\n\nNote that CMGRPID (Group ID) can independently be used *within the CM domain* to group related medications (e.g., combination therapies) for a single subject, even without RELREC — components sharing the same CMGRPID value are understood to be grouped **[Source: chapters/ch08_relationships.md -- 8.1.1 --GRPID Example]**. This grouping approach can then feed into RELREC as shown in Example 3 above, reducing the number of RELREC rows needed to express the AE–CM relationship.\n\n## When to use RELREC\n\nRELREC should represent *explicit* relationships as collected — such as concomitant medications taken as a result of an adverse event — rather than relationships inferred by the sponsor without CRF/collection basis **[Source: domains/RELREC/assumptions.md -- overview]**.",
      "elapsed_s": 14.99
    },
    {
      "id": "q10",
      "category": "cross_domain",
      "question": "In oncology studies, how are the TR (Tumor/Lesion Results) domain and RS (Disease Response) domain linked together, and which specific identifier variables are used for each linkage direction?",
      "out_of_scope": false,
      "source_recall": 0.5,
      "source_hits": [
        "domains/TR/assumptions.md"
      ],
      "source_misses": [
        "domains/TR/spec.md"
      ],
      "top5_sources": [
        "domains/RS/assumptions.md",
        "domains/TR/assumptions.md",
        "domains/RS/assumptions.md",
        "domains/TR/assumptions.md",
        "domains/RS/assumptions.md"
      ],
      "top5_similarities": [
        0.7131,
        0.7055,
        0.7032,
        0.6927,
        0.6699
      ],
      "fact_recall": 1.0,
      "fact_hits": [
        "TRLNKID",
        "TRLNKGRP"
      ],
      "fact_misses": [],
      "answer_preview": "# Linking TR and RS Domains in Oncology Studies\n\nIn oncology studies, the TR (Tumor/Lesion Results) and RS (Disease Response) domains are linked through **RELREC** relationships, using dedicated `--LNKGRP` (Link Group) identifier variables rather than the standard `--GRPID`, `--REFID`, or `--SPID` variables (which may be reserved for other purposes per SDTM) [Source: domains/TR/assumptions.md -- item_2].\n\n## Linkage Mechanism\n\n**1. TRLNKGRP (in TR domain)**\n- Used to relate records in the TR domain to a response assessment record in the RS domain\n- Provides a unique code for each response and ",
      "usage": {
        "prompt_tokens": 25506,
        "completion_tokens": 1289,
        "total_tokens": 26795
      },
      "model": "bedrock/converse/global.anthropic.claude-sonnet-5",
      "answer": "# Linking TR and RS Domains in Oncology Studies\n\nIn oncology studies, the TR (Tumor/Lesion Results) and RS (Disease Response) domains are linked through **RELREC** relationships, using dedicated `--LNKGRP` (Link Group) identifier variables rather than the standard `--GRPID`, `--REFID`, or `--SPID` variables (which may be reserved for other purposes per SDTM) [Source: domains/TR/assumptions.md -- item_2].\n\n## Linkage Mechanism\n\n**1. TRLNKGRP (in TR domain)**\n- Used to relate records in the TR domain to a response assessment record in the RS domain\n- Provides a unique code for each response and its associated tumor/lesion measurements/assessments\n- A dataset-to-dataset RELREC link is the appropriate linking mechanism [Source: domains/TR/assumptions.md -- item_2]\n\n**2. RSLNKGRP (in RS domain)**\n- Used to provide the link between records in a findings domain (e.g., TR, or even LB) that contribute to a record in the RS domain\n- Records should exist in the RELREC dataset to support this relationship\n- RSLNKID can also be used when a response evaluation relates back to another source dataset (e.g., tumor assessment in TR) [Source: domains/RS/assumptions.md -- item_4]\n\nNotably, the domain in which contributing data resides (TR, LB, etc.) should not affect whether the RELREC link is created to the RS record — e.g., some oncology response criteria require lab results (LB) in addition to tumor results (TR) [Source: domains/RS/assumptions.md -- item_4].\n\n## Distinguishing TR↔TU vs TR↔RS Linkage\n\nNote that TR domain uses **two different link variables** for two different linkage directions:\n- **TRLNKID** — relates TR records back to the identification record in the TU (Tumor/Lesion Identification) domain [Source: domains/TR/assumptions.md -- item_1]\n- **TRLNKGRP** — relates TR records to the response assessment record in the RS domain [Source: domains/TR/assumptions.md -- item_2]\n\n## Additional Related Linkages\n\nThe RS domain can also link to other Interventions domains:\n- **CMLNKGRP** (in CM) paired with **RSLNKGRP** (in RS) — links RS records to related Concomitant/Prior Medications\n- **PRLNKGRP** (in PR) — links RS records to related Procedures (e.g., radiotherapy, surgery)\n\n[Source: domains/RS/assumptions.md -- item_6]\n\n## Example (RECIST 1.1)\n\nIn the RS examples, `RSLNKGRP` values (e.g., \"A2\", \"A3\") tie the Overall Response (`RSTESTCD` = OVRLRESP) record to its underlying Target Response and Non-target Response assessment records, which in turn derive from measurements captured in TR [Source: domains/RS/examples.md -- RS — Examples - Disease Response].\n\n## Summary Table\n\n| Linkage Direction | Variable Used (source domain) | Purpose |\n|---|---|---|\n| TR → TU | TRLNKID | Links tumor/lesion result to its identification record in TU |\n| TR → RS | TRLNKGRP | Links tumor/lesion result to the response assessment in RS |\n| RS ← contributing findings domains (TR, LB, etc.) | RSLNKGRP (or RSLNKID) | Links a response/classification record in RS to its contributing source records |\n\nIn all cases, the actual relationship instance is recorded as a **RELREC** dataset-to-dataset link [Source: domains/TR/assumptions.md -- item_1; Source: domains/TR/assumptions.md -- item_2; Source: domains/RS/assumptions.md -- item_4].",
      "elapsed_s": 13.63
    },
    {
      "id": "q28",
      "category": "cross_domain",
      "question": "What is the FA (Findings About Events or Interventions) domain and how does it link to parent domains like AE or CM using FAOBJ?",
      "out_of_scope": false,
      "source_recall": 1.0,
      "source_hits": [
        "domains/FA/spec.md"
      ],
      "source_misses": [],
      "top5_sources": [
        "domains/FA/assumptions.md",
        "chapters/ch02_fundamentals.md",
        "domains/FA/assumptions.md",
        "model/02_observation_classes.md",
        "domains/FA/assumptions.md"
      ],
      "top5_similarities": [
        0.6934,
        0.6707,
        0.6555,
        0.653,
        0.6459
      ],
      "fact_recall": 1.0,
      "fact_hits": [
        "Findings About",
        "FAOBJ",
        "FATESTCD"
      ],
      "fact_misses": [],
      "answer_preview": "## What is the FA Domain\n\nThe Findings About Events or Interventions (\"FA structure\") is a subtype of the Findings general observation class, used to record findings *about* an event or intervention (rather than the event/intervention itself) **[Source: model/02_observation_classes.md]**. It reuses the standard Findings general observation-class qualifiers, with the addition of the --OBJ variable, and any Identifier, Timing, or Findings qualifiers may be added — though --BODSYS, --MODIFY, --SEV, and --TOXGR should generally not be used **[Source: domains/FA/assumptions.md -- item_6]**, **[Sour",
      "usage": {
        "prompt_tokens": 23901,
        "completion_tokens": 2246,
        "total_tokens": 26147
      },
      "model": "bedrock/converse/global.anthropic.claude-sonnet-5",
      "answer": "## What is the FA Domain\n\nThe Findings About Events or Interventions (\"FA structure\") is a subtype of the Findings general observation class, used to record findings *about* an event or intervention (rather than the event/intervention itself) **[Source: model/02_observation_classes.md]**. It reuses the standard Findings general observation-class qualifiers, with the addition of the --OBJ variable, and any Identifier, Timing, or Findings qualifiers may be added — though --BODSYS, --MODIFY, --SEV, and --TOXGR should generally not be used **[Source: domains/FA/assumptions.md -- item_6]**, **[Source: model/02_observation_classes.md]**.\n\n### When FA is used\nFA is appropriate when data meet one of three criteria **[Source: domains/FA/assumptions.md -- item_6]**:\n1. **Different timing from the event/intervention as a whole** — e.g., repeated severity assessments of a symptom over time, or a summary of multiple occurrences of an event type (assessments are \"snapshots or slices\" of the event, which may or may not have a parent record).\n2. **An observation about an event/intervention that requires more than one variable**, preventing representation as a simple supplemental qualifier.\n3. **Data indicating the occurrence of pre-specified AEs** (a criterion that replaced two prior criteria from earlier SDTMIG versions).\n\nGuidance on choosing between FA and other structures (Interventions/Events/Findings) is given in §8.6.3 **[Source: chapters/ch08_relationships.md -- 8.6.3]**, and guidance on splitting/naming FA domains is in §6.4.2 **[Source: chapters/ch02_fundamentals.md -- Findings About — Naming Findings About Domains]** and domain assumptions items 2–3 **[Source: domains/FA/assumptions.md -- item_2]**, **[Source: domains/FA/assumptions.md -- item_3]**.\n\n## Key Variable: FAOBJ\n\n| Variable | Label | Type | Role | Core | Controlled Terms |\n|---|---|---|---|---|---|\n| FAOBJ | Object of the Observation | Char | Record Qualifier | Req | — |\n\nFAOBJ is used to describe the object or focal point of the finding represented by FATEST — for example, the term (e.g., \"Acne\") describing a clinical sign/symptom being measured by a severity test, or an event (e.g., \"VOMIT\") whose volume is being measured **[Source: domains/FA/spec.md -- FAOBJ]**. FAOBJ and FATESTCD together describe the topic of the observation, and both are required to be populated for every FA record **[Source: model/02_observation_classes.md]**.\n\nWhen collected data fit a standard event/intervention qualifier concept, FATESTCD/FATEST reuse the same variable name/label as the corresponding event/intervention domain (e.g., FATESTCD=\"OCCUR\"/FATEST=\"Occurrence Indicator\", FATESTCD=\"SEV\"/FATEST=\"Severity/Intensity\", FATESTCD=\"TOXGR\"/FATEST=\"Toxicity Grade\") **[Source: domains/FA/assumptions.md -- item_4]**, **[Source: model/02_observation_classes.md]**.\n\n## How FA Links to Parent Domains (AE, CM, etc.)\n\n1. **FAOBJ populated with the parent topic value**: FAOBJ is typically populated with the coded term from the parent event/intervention record — e.g., in the AE example, FAOBJ takes the value of AEDECOD (such as \"Nausea\" or \"Diarrhea\") assigned during coding **[Source: domains/FA/examples.md -- Example 6]**. Similarly, for prespecified AE occurrence checks, FAOBJ carries the prespecified term (e.g., \"Headache\", \"Nausea\") which is compared against AE records where AEPRESP=\"Y\" **[Source: domains/FA/examples.md -- Example 4]**.\n\n2. **FAOBJ alone is NOT sufficient to establish a formal relationship**: Because an events/interventions dataset may have multiple records for the same topic value (e.g., multiple AE records with the same AEDECOD), FAOBJ matching by value does not uniquely link records. When data collection establishes an actual relationship between FA records and an events/interventions record, that relationship must be represented in **RELREC** **[Source: domains/FA/assumptions.md -- item_5]**.\n\n3. **Domain naming for split FA datasets**: When FA is split by parent domain, dataset names combine \"FA\" with characters indicating the parent domain — e.g., **FACE** (Findings About Clinical Events) or **FAMH** (Findings About Medical History); the DOMAIN value remains \"FA,\" and FASEQ must be unique within USUBJID across all split datasets. Supplemental qualifiers must then be managed at the split-file level (e.g., suppface.xpt, suppfamh.xpt) with RDOMAIN=\"FA\" **[Source: chapters/ch02_fundamentals.md -- Findings About — Naming Findings About Domains]**. In the AE example, the FA dataset for AE-related findings is named **faae.xpt** **[Source: domains/FA/examples.md -- Example 6]**, **[Source: domains/FA/examples.md -- Example 4]**.\n\n4. **AE relationship noted in domain cross-references**: AE's spec documents an explicit link to FA for prespecified AE findings via AEPRESP **[Source: domains/AE/spec.md -- Related Domains]**. A CM-to-FA style relationship works analogously via FAOBJ carrying the CM topic term, with RELREC used when a formal linkage is needed (per item_5 above).\n\n### Example illustration (AE → FA)\n\nIn Example 6, severity assessments taken at multiple visits during the course of an adverse event are recorded as FA records (FATESTCD=\"SEV\"), with FAOBJ set to the AEDECOD value (e.g., \"Nausea\"), while FASPID carries the AE identifier (from AESPID) linking back informally to the specific AE record **[Source: domains/FA/examples.md -- Example 6]**.\n\nIn Example 4, prespecified AE occurrence questions asked at each visit are recorded with FATESTCD=\"OCCUR\", FAOBJ holding the prespecified term (e.g., \"Headache\"), and FAORRES=\"Y/N\" indicating occurrence; when FAORRES=\"Y\", a corresponding AE record exists with AEPRESP=\"Y\", though no RELREC was created in that example because no explicit linking relationship was collected **[Source: domains/FA/examples.md -- Example 4]**.",
      "elapsed_s": 22.89
    },
    {
      "id": "q29",
      "category": "cross_domain",
      "question": "How do the four Trial Design domains TA (Trial Arms), TE (Trial Elements), TV (Trial Visits), and TI (Trial Inclusion/Exclusion) work together to define a study design?",
      "out_of_scope": false,
      "source_recall": 1.0,
      "source_hits": [
        "domains/TA/assumptions.md",
        "domains/TE/assumptions.md"
      ],
      "source_misses": [],
      "top5_sources": [
        "domains/TV/spec.md",
        "domains/TA/spec.md",
        "domains/TE/assumptions.md",
        "domains/TE/spec.md",
        "domains/TA/assumptions.md"
      ],
      "top5_similarities": [
        0.7528,
        0.7523,
        0.7357,
        0.7351,
        0.7245
      ],
      "fact_recall": 1.0,
      "fact_hits": [
        "TA",
        "TE",
        "TV",
        "TI"
      ],
      "fact_misses": [],
      "answer_preview": "# How TA, TE, TV, and TI Work Together in Trial Design\n\n## Core Concept Hierarchy\n\nThe Trial Design Model builds a study design out of **elements**, **arms**, and **epochs**:\n\n- **Element**: \"an interval of time that serves a purpose in the trial and are associated with certain activities affecting the subject\" [Source: domains/TE/assumptions.md -- overview]\n- **Arm**: \"a planned path through the trial. This path covers the entire time of the trial\" — composed of a sequence of elements [Source: domains/TA/assumptions.md -- overview]\n- **Study cell**: the intersection of an arm and an epoch, po",
      "usage": {
        "prompt_tokens": 22950,
        "completion_tokens": 1549,
        "total_tokens": 24499
      },
      "model": "bedrock/converse/global.anthropic.claude-sonnet-5",
      "answer": "# How TA, TE, TV, and TI Work Together in Trial Design\n\n## Core Concept Hierarchy\n\nThe Trial Design Model builds a study design out of **elements**, **arms**, and **epochs**:\n\n- **Element**: \"an interval of time that serves a purpose in the trial and are associated with certain activities affecting the subject\" [Source: domains/TE/assumptions.md -- overview]\n- **Arm**: \"a planned path through the trial. This path covers the entire time of the trial\" — composed of a sequence of elements [Source: domains/TA/assumptions.md -- overview]\n- **Study cell**: the intersection of an arm and an epoch, populated with one or more elements [Source: domains/TA/assumptions.md -- overview]\n\n## TE (Trial Elements) — the building blocks\n\nTE defines each **unique** element used anywhere in the trial: its code (ETCD), description (ELEMENT), and the rules for starting (TESTRL) and ending (TEENRL) the element, plus its planned duration (TEDUR). \"Each row in the TE dataset may be thought of as representing a 'unique element'... an element will appear only once in the TE table\" even though it may recur many times across arms in TA [Source: domains/TE/assumptions.md -- overview]. Structure: one record per planned Element [Source: model/05_study_level_data.md -- 5.1 Trial Design Model].\n\n## TA (Trial Arms) — sequencing elements into paths\n\nTA describes each planned **arm** as an ordered sequence of elements (TAETORD gives the planned order), referencing the ETCD/ELEMENT defined in TE. It also captures branching logic (TABRANCH) and transition rules (TATRANS) for complex designs where subjects may follow different paths (e.g., based on randomization or response), and assigns each element occurrence to an EPOCH. Structure: one record per planned Element per Arm [Source: model/05_study_level_data.md -- 5.1 Trial Design Model]. Thus \"an element may appear multiple times in the TA table because it appears either (1) in multiple arms, (2) multiple times within an arm, or (3) both\" [Source: domains/TE/assumptions.md -- overview]. TA and TE are directly related: \"elements compose arms\" / \"arms use elements\" [Source: domains/TA/spec.md -- Related Domains][Source: domains/TE/spec.md -- Related Domains].\n\n## TV (Trial Visits) — mapping the schedule onto arms\n\nTV defines the planned visit structure of the trial and how visits relate to the arm/element structure established in TA: \"visits reference arms\" and \"arms define visit schedules\" [Source: domains/TV/spec.md -- Related Domains][Source: domains/TA/spec.md -- Related Domains]. TV represents the *planned* visits, which can later be compared against the *actual* subject-level visit data in SV/SE — \"planned visits vs actual subject elements\" [Source: domains/TV/spec.md -- Related Domains].\n\n## TI (Trial Inclusion/Exclusion Criteria) — eligibility for entering the design\n\nTI is a tabular synopsis of the protocol's inclusion and exclusion criteria for trial participation, listing all criteria for the trial (not just those subjects failed to meet — that's the subject-level IE domain's role) [Source: domains/TI/assumptions.md -- overview]. While TI does not structurally interlock with TA/TE/TV the way they interlock with each other, it is grouped in the same Trial Design class and documents the eligibility gate that determines whether a subject can be assigned into the arm/element/visit structure defined by TA, TE, and TV [Source: domains/TI/spec.md -- Related Domains].\n\n## Putting it together\n\n1. **TE** enumerates the reusable time-period \"building blocks\" (elements) with their start/end rules.\n2. **TA** assembles these elements into ordered arms (treatment paths), organizing them into epochs and study cells, and encoding branching/transition logic between elements.\n3. **TV** lays the planned visit schedule on top of this arm/element structure, so that data collection timing is tied to the design.\n4. **TI** documents the eligibility criteria that govern which subjects may enter the trial and be assigned to the arms/elements/visits defined by TA, TE, and TV.\n\nAll four domains are members of the same Trial Design class along with TD, TM, and TS [Source: domains/TA/spec.md -- Related Domains][Source: domains/TE/spec.md -- Related Domains][Source: domains/TV/spec.md -- Related Domains][Source: domains/TI/spec.md -- Related Domains].",
      "elapsed_s": 19.2
    },
    {
      "id": "q30",
      "category": "cross_domain",
      "question": "What is the CO (Comments) domain and how does it reference records in other SDTM domains? Describe the RDOMAIN and IDVAR mechanism.",
      "out_of_scope": false,
      "source_recall": 1.0,
      "source_hits": [
        "domains/CO/spec.md",
        "domains/CO/assumptions.md"
      ],
      "source_misses": [],
      "top5_sources": [
        "domains/CO/assumptions.md",
        "domains/CO/assumptions.md",
        "model/03_special_purpose_domains.md",
        "VARIABLE_INDEX.md",
        "chapters/ch08_relationships.md"
      ],
      "top5_similarities": [
        0.7155,
        0.6876,
        0.682,
        0.6783,
        0.6728
      ],
      "fact_recall": 1.0,
      "fact_hits": [
        "COVAL",
        "RDOMAIN",
        "IDVAR"
      ],
      "fact_misses": [],
      "answer_preview": "# CO (Comments) Domain Overview\n\n**CO** is a **Special Purpose** domain [Source: model/03_special_purpose_domains.md] that captures free-text comments not part of normal domain data — typically supplied by a principal investigator or other sources such as central reviewers, and generally not responses to specific questions but voluntary free-text or unsolicited observations [Source: domains/CO/assumptions.md -- item_1]. Its structure is **one record per comment per subject (or per study)** [Source: model/03_special_purpose_domains.md]; the SDTMIG describes it as \"co.xpt, Comments — Special Pur",
      "usage": {
        "prompt_tokens": 18586,
        "completion_tokens": 2006,
        "total_tokens": 20592
      },
      "model": "bedrock/converse/global.anthropic.claude-sonnet-5",
      "answer": "# CO (Comments) Domain Overview\n\n**CO** is a **Special Purpose** domain [Source: model/03_special_purpose_domains.md] that captures free-text comments not part of normal domain data — typically supplied by a principal investigator or other sources such as central reviewers, and generally not responses to specific questions but voluntary free-text or unsolicited observations [Source: domains/CO/assumptions.md -- item_1]. Its structure is **one record per comment per subject (or per study)** [Source: model/03_special_purpose_domains.md]; the SDTMIG describes it as \"co.xpt, Comments — Special Purpose. One record per comment per subject, Tabulation.\" [Source: domains/CO/assumptions.md -- overview].\n\nThe CO dataset accommodates 3 sources/types of comments [Source: domains/CO/assumptions.md -- item_3]:\n1. **Comments unrelated to a specific domain or parent record(s)** — RDOMAIN, IDVAR, and IDVARVAL are null; CODTC should be populated if captured.\n2. **Comments related to a domain but not to specific parent record(s)** — RDOMAIN is set to the DOMAIN code of the parent domain; IDVAR and IDVARVAL are null; CODTC should be populated if captured.\n3. **Comments related to a specific parent record or group of parent records** — RDOMAIN is set to the DOMAIN code of the parent record(s), and IDVAR/IDVARVAL are populated with the key variable name and value identifying the parent record(s); CODTC should be null because timing is inherited from the parent record(s).\n\n## RDOMAIN and IDVAR/IDVARVAL Mechanism\n\nCO uses the same relationship-key mechanism as SUPP--: **STUDYID, RDOMAIN, USUBJID, IDVAR, and IDVARVAL** identify related parent records [Source: chapters/ch08_relationships.md -- 8.5]. STUDYID, USUBJID, and DOMAIN (=CO) must always be populated. RDOMAIN, IDVAR, and IDVARVAL are populated as follows [Source: chapters/ch08_relationships.md -- 8.5]:\n\n1. **Subject-level, log-style comments** (no domain/record association): RDOMAIN, IDVAR, IDVARVAL are all null — USUBJID alone identifies the relationship.\n2. **Domain-level comments** (not tied to specific records): RDOMAIN is populated with the domain code; IDVAR and IDVARVAL are null.\n3. **Record-level comments**: RDOMAIN, IDVAR, and IDVARVAL are all populated to identify the specific parent record(s).\n\nAdditional notes:\n- **--GRPID** and other grouping variables can be used as the IDVAR value to relate a comment to a *group* of records in a single domain. However, a single comment can only relate to records in **one** domain (RDOMAIN takes only one value); if a comment relates to records across multiple domains, it may need to be repeated in CO [Source: chapters/ch08_relationships.md -- 8.5].\n- Supplementary identifying info that can't be captured via RDOMAIN/IDVAR/IDVARVAL can go in **COREF** (e.g., CRF page name/number), and timing variables (e.g., VISITNUM, VISIT) may also be added to CO [Source: chapters/ch08_relationships.md -- 8.5].\n- Per the model, CO's variable **RDOMAIN** is labeled \"Related Domain Abbreviation,\" Type Char, Role **Record Qualifier** [Source: model/03_special_purpose_domains.md], while in the domain spec it is documented as:\n  - **RDOMAIN**: Label \"Related Domain Abbreviation\", Type Char, Controlled Terms C66734, Role Record Qualifier, Core Perm — \"Two-character abbreviation for the domain of the parent record(s). Null for comments collected on a general comments or additional information CRF page.\" [Source: domains/CO/spec.md -- RDOMAIN]\n  - Note: VARIABLE_INDEX.md lists RDOMAIN generically as Core \"Req*\" across its 3 domains (CO, RELREC, SUPPQUAL) [Source: VARIABLE_INDEX.md -- §一 通用变量: RDOMAIN], but the CO-specific spec explicitly marks it **Perm** [Source: domains/CO/spec.md -- RDOMAIN].\n- RDOMAIN uses controlled terminology codelist **SDTM Domain Abbreviation (C66734)** [Source: domains/CO/spec.md -- Controlled Terminology].\n\n## Long Comment Text\n\nWhen comment text exceeds 200 characters, it is split: the first 200 characters go in COVAL, the next 200 in COVAL1, and additional text continues in COVALn as needed [Source: domains/CO/assumptions.md -- item_4].\n\n## Restrictions — When Not to Use CO/SUPP for Comments\n\nPer the relationships chapter, comments related to a record or records in a parent dataset should be captured in the CO special-purpose domain rather than as supplemental qualifiers, even if collected in the same CRF record by the sponsor [Source: chapters/ch08_relationships.md -- 8.4.4].\n\n## Related Variables (CO Domain Model)\n\nCO includes 15 variables: STUDYID, DOMAIN, RDOMAIN, USUBJID, POOLID, SPDEVID, COSEQ, IDVAR, IDVARVAL, COREF, COVAL (Topic), COEVAL, COEVALID, CODTC, CODY [Source: model/03_special_purpose_domains.md]. COEVAL (Evaluator) uses controlled terminology **C78735**, and COEVALID (Medical Evaluator Identifier) uses **C96777** [Source: domains/CO/spec.md -- Controlled Terminology].",
      "elapsed_s": 19.26
    },
    {
      "id": "q31",
      "category": "cross_domain",
      "question": "How are the EC (Exposure as Collected) and EX (Exposure) domains different in purpose, and when should each be used?",
      "out_of_scope": false,
      "source_recall": 1.0,
      "source_hits": [
        "domains/EC/assumptions.md"
      ],
      "source_misses": [],
      "top5_sources": [
        "domains/EX/assumptions.md",
        "domains/EC/assumptions.md",
        "domains/EX/spec.md",
        "domains/EX/assumptions.md",
        "domains/EX/assumptions.md"
      ],
      "top5_similarities": [
        0.7328,
        0.7316,
        0.5962,
        0.5907,
        0.5854
      ],
      "fact_recall": 1.0,
      "fact_hits": [
        "collected",
        "EX",
        "EC"
      ],
      "fact_misses": [],
      "answer_preview": "## EC vs. EX: Purpose and Usage\n\n### Purpose\n\n**EX (Exposure)** represents protocol-specified study treatment administrations, typically as a **derived** dataset expressed in the protocol-specified unit (e.g., mg, mg/kg). \"The EX domain is recognized in most cases as a derived dataset where EXDOSU reflects the protocol-specified unit per study treatment. Collected data points (e.g., number of tablets, total volume infused) along with additional inputs (e.g., randomization file, concentration, dosage strength, product accountability) are used to derive records in the EX domain.\" EX is **require",
      "usage": {
        "prompt_tokens": 22970,
        "completion_tokens": 2175,
        "total_tokens": 25145
      },
      "model": "bedrock/converse/global.anthropic.claude-sonnet-5",
      "answer": "## EC vs. EX: Purpose and Usage\n\n### Purpose\n\n**EX (Exposure)** represents protocol-specified study treatment administrations, typically as a **derived** dataset expressed in the protocol-specified unit (e.g., mg, mg/kg). \"The EX domain is recognized in most cases as a derived dataset where EXDOSU reflects the protocol-specified unit per study treatment. Collected data points (e.g., number of tablets, total volume infused) along with additional inputs (e.g., randomization file, concentration, dosage strength, product accountability) are used to derive records in the EX domain.\" EX is **required for all studies that include protocol-specified study treatment**, and examples include placebo, active comparators, and investigational products. Treatments that are not protocol-specified belong in CM (or another Interventions domain), not EX. **[Source: domains/EX/assumptions.md -- item_1]**\n\n**EC (Exposure as Collected)** reflects protocol-specified study treatment administrations **as collected**, i.e., in the units/form actually recorded on the CRF, before derivation into the protocol-specified unit. \"The EC domain model reflects protocol-specified study treatment administrations, as collected.\" **[Source: domains/EC/assumptions.md -- item_1]**\n\n### When to Use Each\n\n- **Use EC** when collected exposure information cannot or should not be directly represented in EX — for example, administrations collected in tablets when the protocol-specified unit is mg, or administrations collected in mL when the protocol-specified unit is mg/kg. Product accountability details (e.g., amount dispensed, amount returned) go in the DA domain, not EC. Collected exposure data are often represented across a combination of EC, DA, and/or FA domains. **If the entire EC dataset would be an exact duplicate of the entire EX dataset, EC is optional and at the sponsor's discretion.** Collected data typically reflect product-level amounts (e.g., number of tablets, number of mL). **[Source: domains/EC/assumptions.md -- item_1]**\n\n- **Use EX** to capture treatment received in the protocol-specified unit — this is the domain required whenever a study has a protocol-specified study treatment. Exposure records may be derived directly (e.g., from direct observation of administration, automated dispensing devices) or indirectly (e.g., subject recall, product accountability data, or from the protocol itself). If the study is still masked and doses can't yet be expressed in the protocol-specified unit, EX is not expected to be populated. **[Source: domains/EX/assumptions.md -- item_1]**\n\n### Relationship Between EC and EX\n\n- Collected exposure data points are represented in EC; when the relationship between EC and EX records can be described, it **should be defined in RELREC**, and EX derivations must be described in the Define-XML document. **[Source: domains/EX/assumptions.md -- item_5]** **[Source: domains/EC/assumptions.md -- item_6]**\n- The degree of summarization from EC records to EX records is **sponsor-defined** to support study purpose and analysis. **[Source: domains/EC/assumptions.md -- item_6]**\n- Both domains are in the same class (Interventions) and are documented as a **Shared Dataset** pair — \"exposure vs. exposure as collected.\" **[Source: domains/EX/spec.md -- Related Domains]** **[Source: domains/EC/spec.md -- Related Domains]**\n\n### Illustrative Examples\n\n- **Example 1 (tablet counts → mg dose):** EC captured \"Number of Tablets Taken Daily\" per bottle in units of TABLET, including a non-occurrence record (ECOCCUR = \"N\" with ECREASOC = \"PATIENT MISTAKE\") when a dose was missed. EX, after unmasking, converted the tablet counts into the protocol-specified drug amounts (e.g., 1000 mg of Drug X ER, 500 mg of Drug Z); note that **EX contains no record for a non-occurrence** — the missed dose is instead reflected as a gap in time between EX records. The EC/EX relationship was documented in RELREC as a one-to-one relationship via ECLNKID/EXLNKID. **[Source: domains/EX/examples.md -- Example 1]**\n\n- **Example 2 (multiple injection sites → single administration):** EC recorded three separate injections (volume, location, side) as individual records. The sponsor considered these three injections to represent a single administration, so EX shows one record with the total dose in mg/kg; RELREC documented the many-to-one relationship using --LNKID. **[Source: domains/EX/examples.md -- Example 2]**\n\n- **Example 7 (scheduled vs. performed dosing, including dose adjustment):** EC used ECMOOD to distinguish \"SCHEDULED\" (intended) doses in mg/kg from \"PERFORMED\" (actual) doses in mL with concentration in mg/mL, and captured a non-administered dose (ECOCCUR = \"N\", ECREASOC = \"PERSONAL REASON\"). EX shows only the administrations in the protocol-specified unit (mg/kg), with no record for doses not given. **[Source: domains/EX/examples.md -- Example 7]**\n\n### Additional Notes on EX-Specific Qualifiers\n\nBecause EX contains only actually-received treatments, certain qualifiers that pertain to non-occurrence or planning (--PRESP, --OCCUR, --STAT, --REASND) would generally not be used in EX, and --MOOD is generally not used in EX either. When EC is implemented alongside EX, collected volume-related values (EXVAMT/EXVAMTU) are instead represented via ECDOSE/ECDOSU (and ECVAMT/ECVAMTU as needed) in EC. **[Source: domains/EX/assumptions.md -- item_6]**\n\n### Summary\n\n| Aspect | EC | EX |\n|---|---|---|\n| Represents | Treatment **as collected** (raw units/form) | Treatment in **protocol-specified unit** (often derived) |\n| Required? | Optional if identical to EX; otherwise used when collected units differ from protocol unit | Required for all studies with protocol-specified treatment |\n| Non-occurrence records | Included (ECOCCUR = \"N\") | Not included — represented as time gaps |\n| Relationship | Linked to EX via RELREC (many-to-one, one-to-one, etc.) and --LNKID | Derivation from EC must be documented in Define-XML |",
      "elapsed_s": 21.23
    },
    {
      "id": "q32",
      "category": "cross_domain",
      "question": "How is VISIT and VISITNUM used consistently across observation-class domains, and what role does the SV (Subject Visits) domain play in tracking actual visit dates?",
      "out_of_scope": false,
      "source_recall": 0.5,
      "source_hits": [
        "domains/SV/assumptions.md"
      ],
      "source_misses": [
        "domains/SV/spec.md"
      ],
      "top5_sources": [
        "model/03_special_purpose_domains.md",
        "domains/TV/assumptions.md",
        "VARIABLE_INDEX.md",
        "domains/FA/spec.md",
        "domains/AG/spec.md"
      ],
      "top5_similarities": [
        0.7047,
        0.7003,
        0.6871,
        0.6682,
        0.6666
      ],
      "fact_recall": 1.0,
      "fact_hits": [
        "VISIT",
        "VISITNUM",
        "SV"
      ],
      "fact_misses": [],
      "answer_preview": "# VISIT/VISITNUM Usage Across Observation-Class Domains\n\n## Consistency Rules for VISIT/VISITNUM\n\nAcross Findings (and other) observation-class domains (e.g., FA, AG, RP, PE, TR, BS, FT), VISITNUM and VISIT are implemented consistently as **Timing** role variables:\n\n- **VISITNUM** — Label: \"Visit Number\", Type: Num, Role: Timing, Core: Exp. CDISC Notes describe it as the \"Clinical encounter number\" and \"Numeric version of VISIT, used for sorting.\" **[Source: domains/FA/spec.md]** **[Source: domains/AG/spec.md]** **[Source: domains/RP/spec.md]** **[Source: domains/PE/spec.md]** **[Source: domai",
      "usage": {
        "prompt_tokens": 17053,
        "completion_tokens": 2172,
        "total_tokens": 19225
      },
      "model": "bedrock/converse/global.anthropic.claude-sonnet-5",
      "answer": "# VISIT/VISITNUM Usage Across Observation-Class Domains\n\n## Consistency Rules for VISIT/VISITNUM\n\nAcross Findings (and other) observation-class domains (e.g., FA, AG, RP, PE, TR, BS, FT), VISITNUM and VISIT are implemented consistently as **Timing** role variables:\n\n- **VISITNUM** — Label: \"Visit Number\", Type: Num, Role: Timing, Core: Exp. CDISC Notes describe it as the \"Clinical encounter number\" and \"Numeric version of VISIT, used for sorting.\" **[Source: domains/FA/spec.md]** **[Source: domains/AG/spec.md]** **[Source: domains/RP/spec.md]** **[Source: domains/PE/spec.md]** **[Source: domains/TR/spec.md]** **[Source: domains/BS/spec.md]** **[Source: domains/FT/spec.md]** **[Source: domains/DA/spec.md]**\n- **VISIT** — Label: \"Visit Name\", Type: Char, Role: Timing, Core: Perm. CDISC Notes: \"Protocol-defined description of clinical encounter\" and \"May be used in addition to VISITNUM and/or VISITDY.\" **[Source: domains/FA/spec.md]** **[Source: domains/AG/spec.md]**\n\nFor **planned visits**, all domains in the Events, Interventions, and Findings classes must use values of VISIT, VISITNUM, and VISITDY that are **defined in the Trial Visits (TV) dataset**:\n- VISITNUM is numeric and used for sorting; its values should match the planned chronological order of visits wherever possible (though unpredictable protocol-defined visits, e.g. triggered by an AE, can break strict chronology).\n- VISIT is the character name of the visit taken from the protocol.\n- VISITDY is the **planned** study day of the **start** of the visit (not the actual day — do not confuse with --DY).\n- There must be a **one-to-one relationship** between VISIT and VISITNUM.\n**[Source: chapters/ch04_general_assumptions.md]**\n\nFor **unplanned visits**:\n- VISITNUM should generally still be populated (often assigned a common placeholder value such as 99, or a scheme providing one-to-one/chronological differentiation).\n- VISIT may be left null, set to a generic value (e.g., \"Unscheduled\"), or given individual values.\n- VISITDY must **not** be populated for unplanned visits, since it is by definition the planned study day; the actual study day belongs in the domain's --DY variable.\n**[Source: chapters/ch04_general_assumptions.md]**\n\nThe TV dataset's VISITNUM values represent the valid values for **planned** visits; any VISITNUM appearing in a subject-level dataset that is not present in TV is assumed to correspond to an unplanned visit. If a subject-level dataset includes both VISITNUM and VISIT, records with VISITNUM values that appear in TV should carry the corresponding VISIT value from TV. **[Source: domains/TV/assumptions.md]**\n\n## Role of SV (Subject Visits)\n\nSV is a **Special-Purpose** domain with structure \"one record per actual or planned visit per subject.\" It describes the **actual** study visits experienced by each subject, as distinct from the Trial Design Model (TV), which describes only the **planned** visits. Because actual conduct doesn't always follow the plan, SV also supports description of unplanned visits via SVUPDES. **[Source: model/03_special_purpose_domains.md]**\n\nKey SV variables relevant to tracking actual visit dates/timing:\n\n| Variable | Label | Type | Role | Core |\n|----------|-------|------|------|------|\n| VISITNUM | Visit Number | Num | Topic | — |\n| VISIT | Visit Name | Char | Synonym Qualifier (VISITNUM) | — |\n| SVPRESP | Pre-specified | Char | Variable Qualifier | Exp |\n| SVOCCUR | Occurrence | Char | Record Qualifier | Exp |\n| SVREASOC | Reason for Occur Value | Char | Record Qualifier | Perm |\n| SVCNTMOD | Contact Mode | Char | Record Qualifier | Perm |\n| SVEPCHGI | Epi/Pandemic Related Change Indicator | Char | Record Qualifier | Perm |\n| VISITDY | Planned Study Day of Visit | Num | Timing | — |\n| SVSTDTC | Start Date/Time of Visit/Observation | Char | Timing | Exp |\n| SVENDTC | End Date/Time of Visit/Observation | Char | Timing | Exp |\n| SVSTDY | Study Day of Start of Visit/Observation | Num | Timing | Perm |\n| SVENDY | Study Day of End of Visit/Observation | Num | Timing | Perm |\n| SVUPDES | Description of Unplanned Visit | Char | Record Qualifier | Perm |\n\n**[Source: model/03_special_purpose_domains.md]** **[Source: VARIABLE_INDEX.md]**\n\nNote: SVPRESP and SVOCCUR carry CT (C66742), and SVCNTMOD carries CT (C171445), per the variable index — these are codelist-level codes; individual permitted values are not confirmed here and would need to be checked in the corresponding terminology file. **[Source: VARIABLE_INDEX.md]**\n\nFunctionally, SV provides reviewers a **summary of a subject's actual visit history** across the study. By comparing SV's actual dates (SVSTDTC/SVENDTC) and derived study days (SVSTDY/SVENDY) against the planned VISIT/VISITDY values from TV, one can identify:\n- Planned visits that were **not completed** (occurrence tracked via SVOCCUR/SVREASOC),\n- **Departures from planned timing** (by comparing SVSTDY/SVENDY to VISITDY),\n- **Unplanned visits** (documented via SVUPDES, with VISITNUM/VISIT populated per sponsor convention as described in the general timing assumptions).\n\nThe method sponsors use to derive SV's visit boundaries should be consistent with the visit definitions in TV — some studies define a visit as occurring within a single day, others as spanning a multiday data-collection period. **[Source: domains/SV/assumptions.md]**",
      "elapsed_s": 21.94
    },
    {
      "id": "q33",
      "category": "cross_domain",
      "question": "What is the RELSPEC domain and how does it define relationships between datasets at the study level, as opposed to RELREC which links individual records?",
      "out_of_scope": false,
      "source_recall": 0.0,
      "source_hits": [],
      "source_misses": [
        "domains/RELSPEC/spec.md"
      ],
      "top5_sources": [
        "chapters/ch08_relationships.md",
        "domains/RELSPEC/assumptions.md",
        "domains/RELSPEC/assumptions.md",
        "domains/RELREC/assumptions.md",
        "chapters/ch08_relationships.md"
      ],
      "top5_similarities": [
        0.7982,
        0.7932,
        0.7814,
        0.7707,
        0.7621
      ],
      "fact_recall": 1.0,
      "fact_hits": [
        "RELSPEC",
        "RELREC"
      ],
      "fact_misses": [],
      "answer_preview": "# RELSPEC vs. RELREC\n\n## RELSPEC — Description/Overview\n\nRELSPEC (Related Specimens) is a dataset used to represent relationships between specimens **[Source: chapters/ch08_relationships.md -- RELSPEC — Description/Overview]** **[Source: domains/RELSPEC/assumptions.md -- overview]**. It has a structure of one record per specimen identifier per subject, and it exists specifically to describe specimen lineage (e.g., a parent specimen and its derived aliquots or processed specimens) **[Source: model/06_relationship_datasets.md -- 6.7 Related Specimens (RELSPEC)]**.\n\n### RELSPEC Variables\n\n| Varia",
      "usage": {
        "prompt_tokens": 21201,
        "completion_tokens": 2262,
        "total_tokens": 23463
      },
      "model": "bedrock/converse/global.anthropic.claude-sonnet-5",
      "answer": "# RELSPEC vs. RELREC\n\n## RELSPEC — Description/Overview\n\nRELSPEC (Related Specimens) is a dataset used to represent relationships between specimens **[Source: chapters/ch08_relationships.md -- RELSPEC — Description/Overview]** **[Source: domains/RELSPEC/assumptions.md -- overview]**. It has a structure of one record per specimen identifier per subject, and it exists specifically to describe specimen lineage (e.g., a parent specimen and its derived aliquots or processed specimens) **[Source: model/06_relationship_datasets.md -- 6.7 Related Specimens (RELSPEC)]**.\n\n### RELSPEC Variables\n\n| Variable | Label | Type | Role | Core | CT |\n|----------|-------|------|------|------|----|\n| REFID | Specimen ID | Char | Identifier | Req | — |\n| SPEC | Specimen Type | Char | Variable Qualifier | Perm | C78734; C111114 |\n| PARENT | Specimen Parent | Char | Identifier | Exp | — |\n| LEVEL | Specimen Level | Num | Variable Qualifier | Req | — |\n\n**[Source: VARIABLE_INDEX.md -- RELSPEC — Related Specimens (Relationship)]**\n\nPer the model, RELSPEC also includes STUDYID and USUBJID as Identifiers **[Source: model/06_relationship_datasets.md -- 6.7 Related Specimens (RELSPEC)]**. The PARENT variable identifies the REFID of the parent of a specimen to support tracking its genealogy, and LEVEL identifies the generation number of the sample, where the collected sample is considered the first generation **[Source: model/06_relationship_datasets.md -- 6.7 Related Specimens (RELSPEC)]**.\n\n### Important scoping limitation — RELSPEC is NOT for cross-dataset relationships\n\nContrary to a \"study-level, cross-dataset\" role, the SDTMIG explicitly restricts RELSPEC's scope:\n\n1. \"The RELSPEC dataset is not used to manage relationships between any other datasets or domains.\" **[Source: domains/RELSPEC/assumptions.md -- item_1]** **[Source: chapters/ch08_relationships.md -- Assumptions]**\n2. \"The RELSPEC dataset is only used to maintain relationships between specimens, therefore it does not require any additional variables such as those used in RELREC.\" **[Source: domains/RELSPEC/assumptions.md -- item_2]** **[Source: chapters/ch08_relationships.md -- Assumptions]**\n\nSo RELSPEC's function is narrowly confined to **specimen-to-specimen lineage tracking** (e.g., linking an aliquot to its source specimen), not to relating arbitrary records or entire datasets.\n\nAdditionally, note that BE, BS, and RELSPEC domain specifications were adapted from the provisional SDTMIG-PGx (published 2015-05-26) in preparation for that guide's retirement upon SDTMIG v3.4's publication, and these domains are noted as currently under extensive revision for a future SDTMIG **[Source: domains/RELSPEC/assumptions.md -- overview]**.\n\n## RELREC — Contrast\n\nRELREC (Related Records), by contrast, is the dataset actually designed to:\n- **Relate individual records (peer records)** for a subject, within or across domains, using key variables STUDYID, RDOMAIN, USUBJID, IDVAR, and IDVARVAL, with the relationship tracked via a shared RELID value **[Source: chapters/ch08_relationships.md -- 8.2.1 Related Records (RELREC)]** **[Source: domains/RELREC/assumptions.md -- overview]**.\n- **Relate entire datasets** at a higher, structural level — used \"when the sponsor has found it necessary to split information between datasets that are related, and that may need to be examined together for analysis or proper interpretation.\" In this dataset-level use, RELREC includes a single record per related dataset identifying the key(s) used to relate the respective records, and uses the RELTYPE variable (values ONE/MANY, controlled terminology C78737) to define the hierarchical nature of the relationship (e.g., ONE-to-MANY, MANY-to-MANY) **[Source: domains/RELREC/assumptions.md -- overview]** **[Source: chapters/ch08_relationships.md -- 8.2.1 Related Records (RELREC)]** **[Source: VARIABLE_INDEX.md -- RELREC — Related Records (Relationship)]**.\n\n### RELREC Variables\n\n| Variable | Label | Type | Role | Core | CT |\n|----------|-------|------|------|------|----|\n| RELTYPE | Relationship Type | Char | Record Qualifier | Exp | C78737 |\n| RELID | Relationship Identifier | Char | Record Qualifier | Req | — |\n\n**[Source: VARIABLE_INDEX.md -- RELREC — Related Records (Relationship)]**\n\n## Summary Comparison\n\n| Aspect | RELREC | RELSPEC |\n|--------|--------|---------|\n| Scope | Records within/across domains; also whole datasets (parent-child, one-to-many) | Specimens only |\n| Cross-dataset relationships | Yes — this is one of its two defined uses (Section 8.3, Relating Datasets) | Explicitly **not** used for this |\n| Key mechanism | RDOMAIN + IDVAR/IDVARVAL + RELID (+ RELTYPE for dataset-level links) | REFID + PARENT + LEVEL |\n| Additional variables needed | RELTYPE, RELID, IDVAR, IDVARVAL, RDOMAIN | None beyond specimen identifiers — assumptions state it \"does not require any additional variables such as those used in RELREC\" |\n\n**[Source: chapters/ch08_relationships.md -- 8.2.1 Related Records (RELREC)]** **[Source: chapters/ch08_relationships.md -- 8.3 Relating Datasets Using RELREC]** **[Source: domains/RELSPEC/assumptions.md -- item_1]** **[Source: domains/RELSPEC/assumptions.md -- item_2]**\n\nBoth RELREC and RELSPEC are classified under the Relationship Datasets category in the Summary of Relationship Datasets table **[Source: model/06_relationship_datasets.md -- Summary of Relationship Datasets]**, but only RELREC serves the \"study-level, cross-dataset\" linking function you describe — RELSPEC is limited strictly to specimen lineage.",
      "elapsed_s": 23.27
    },
    {
      "id": "q34",
      "category": "cross_domain",
      "question": "Which SDTM domains share the controlled terminology codelist for NY (No Yes Response, C66742), and what variable typically uses this codelist in those domains?",
      "out_of_scope": false,
      "source_recall": 1.0,
      "source_hits": [
        "VARIABLE_INDEX.md"
      ],
      "source_misses": [],
      "top5_sources": [
        "chapters/ch04_general_assumptions.md",
        "VARIABLE_INDEX.md",
        "chapters/ch04_general_assumptions.md",
        "VARIABLE_INDEX.md",
        "VARIABLE_INDEX.md"
      ],
      "top5_similarities": [
        0.6352,
        0.6213,
        0.6157,
        0.6103,
        0.6077
      ],
      "fact_recall": 1.0,
      "fact_hits": [
        "C66742",
        "NY"
      ],
      "fact_misses": [],
      "answer_preview": "Based on the retrieved context, the **NY (No Yes Response)** codelist (**C66742**) is explicitly shown as being used in the following domains:\n\n- **SV (Subject Visits)** — used by variables **SVPRESP**, **SVOCCUR**, and **SVEPCHGI** [Source: domains/SV/spec.md]\n- **TM (Trial Disease Milestones)** — used by variable **TMRPT** [Source: domains/TM/spec.md]\n\nIn both cases, the codelist is applied to variables that represent a binary \"planned\" (--PRESP), \"occurred\" (--OCCUR), or \"reported\" (--RPT)/epoch-change (--EPCHGI) type qualifier — i.e., variables expecting a simple Yes/No response.\n\nNote: Th",
      "usage": {
        "prompt_tokens": 14829,
        "completion_tokens": 612,
        "total_tokens": 15441
      },
      "model": "bedrock/converse/global.anthropic.claude-sonnet-5",
      "answer": "Based on the retrieved context, the **NY (No Yes Response)** codelist (**C66742**) is explicitly shown as being used in the following domains:\n\n- **SV (Subject Visits)** — used by variables **SVPRESP**, **SVOCCUR**, and **SVEPCHGI** [Source: domains/SV/spec.md]\n- **TM (Trial Disease Milestones)** — used by variable **TMRPT** [Source: domains/TM/spec.md]\n\nIn both cases, the codelist is applied to variables that represent a binary \"planned\" (--PRESP), \"occurred\" (--OCCUR), or \"reported\" (--RPT)/epoch-change (--EPCHGI) type qualifier — i.e., variables expecting a simple Yes/No response.\n\nNote: The retrieved context does not include a VARIABLE_INDEX.md cross-reference entry for C66742 itself (unlike, e.g., C66734 or C66726, which do have such entries listing all referencing variables). Therefore, I cannot confirm from the provided context the *complete* list of all domains/variables across the SDTMIG that use this codelist — only the two domain instances (SV and TM) that appear directly in the retrieved chunks. A full enumeration would require checking VARIABLE_INDEX.md §三 for the C66742 entry directly.",
      "elapsed_s": 8.39
    },
    {
      "id": "q11",
      "category": "concept",
      "question": "What are the three observation classes in the SDTM model?",
      "out_of_scope": false,
      "source_recall": 1.0,
      "source_hits": [
        "model/02_observation_classes.md"
      ],
      "source_misses": [],
      "top5_sources": [
        "chapters/ch02_fundamentals.md",
        "model/02_observation_classes.md",
        "chapters/ch02_fundamentals.md",
        "chapters/ch02_fundamentals.md",
        "chapters/ch01_introduction.md"
      ],
      "top5_similarities": [
        0.7222,
        0.7205,
        0.6501,
        0.6139,
        0.5872
      ],
      "fact_recall": 1.0,
      "fact_hits": [
        "Interventions",
        "Events",
        "Findings"
      ],
      "fact_misses": [],
      "answer_preview": "The three general observation classes in the SDTM model are:\n\n1. **Interventions** — Represents investigational, therapeutic, and other treatments administered to or used by a subject (with some actual or expected physiological effect), including treatments self-administered by the subject (e.g., alcohol, tobacco, or caffeine use). Examples: Exposure (EX), Concomitant Medications (CM), Procedures (PR). **[Source: chapters/ch02_fundamentals.md -- 2.3 The General Observation Classes]**\n\n2. **Events** — Captures planned protocol milestones and occurrences, conditions, or incidents independent of ",
      "usage": {
        "prompt_tokens": 21397,
        "completion_tokens": 690,
        "total_tokens": 22087
      },
      "model": "bedrock/converse/global.anthropic.claude-sonnet-5",
      "answer": "The three general observation classes in the SDTM model are:\n\n1. **Interventions** — Represents investigational, therapeutic, and other treatments administered to or used by a subject (with some actual or expected physiological effect), including treatments self-administered by the subject (e.g., alcohol, tobacco, or caffeine use). Examples: Exposure (EX), Concomitant Medications (CM), Procedures (PR). **[Source: chapters/ch02_fundamentals.md -- 2.3 The General Observation Classes]**\n\n2. **Events** — Captures planned protocol milestones and occurrences, conditions, or incidents independent of planned evaluations. Examples: Adverse Events (AE), Disposition (DS), Medical History (MH). **[Source: chapters/ch02_fundamentals.md -- 2.3 The General Observation Classes]**\n\n3. **Findings** — Captures observations from planned evaluations to address specific tests or questions, including questionnaires. Examples: Laboratory Tests (LB), Vital Signs (VS), ECG (EG). **[Source: chapters/ch02_fundamentals.md -- 2.3 The General Observation Classes]**\n\nMost subject-level observations fit into one of these three classes, with the majority of measurement/response data at specific visits or time points fitting the Findings class. **[Source: chapters/ch02_fundamentals.md -- 2.3 The General Observation Classes]**\n\nDomains based on these general observation classes share a common set of Identifier and Timing variables, and any valid identifier or timing variable is generally permissible for use in any dataset based on a general observation class. **[Source: model/02_observation_classes.md -- Overview]**\n\nNote that in addition to these three GOC-based domain types, SDTM also defines Special-Purpose domains (e.g., DM, CO, SE, SV), which capture subject-level data that does not conform to a general observation class, and these are distinct from the three observation classes above. **[Source: chapters/ch02_fundamentals.md -- 2.4 Datasets Other than General Observation Class Domains]**",
      "elapsed_s": 9.95
    },
    {
      "id": "q12",
      "category": "concept",
      "question": "What do the Core designations Req, Exp, and Perm mean in SDTM?",
      "out_of_scope": false,
      "source_recall": 1.0,
      "source_hits": [
        "chapters/ch04"
      ],
      "source_misses": [],
      "top5_sources": [
        "chapters/ch04_general_assumptions.md",
        "domains/SUPPQUAL/spec.md",
        "domains/CO/spec.md",
        "terminology/supplementary/supplementary_part5.md",
        "VARIABLE_INDEX.md"
      ],
      "top5_similarities": [
        0.6572,
        0.6055,
        0.5926,
        0.5856,
        0.5685
      ],
      "fact_recall": 1.0,
      "fact_hits": [
        "Required",
        "Expected",
        "Permissible"
      ],
      "fact_misses": [],
      "answer_preview": "## SDTM Core Designations: Req, Exp, Perm\n\nThe Core column in SDTM domain models specifies three categories of variable requirement status:\n\n### **Req (Required)**\nA Required variable is any variable that is basic to the identification of a data record (i.e., essential key variables and a topic variable) or is necessary to make the record meaningful.\n- **Rule:** Must always be included in the dataset and cannot be null for any record.\n\n### **Exp (Expected)**\nAn Expected variable is any variable necessary to make a record useful in the context of a specific domain.\n- **Rule:** Must be included ",
      "usage": {
        "prompt_tokens": 21286,
        "completion_tokens": 634,
        "total_tokens": 21920
      },
      "model": "bedrock/converse/global.anthropic.claude-sonnet-5",
      "answer": "## SDTM Core Designations: Req, Exp, Perm\n\nThe Core column in SDTM domain models specifies three categories of variable requirement status:\n\n### **Req (Required)**\nA Required variable is any variable that is basic to the identification of a data record (i.e., essential key variables and a topic variable) or is necessary to make the record meaningful.\n- **Rule:** Must always be included in the dataset and cannot be null for any record.\n\n### **Exp (Expected)**\nAn Expected variable is any variable necessary to make a record useful in the context of a specific domain.\n- **Rule:** Must be included in the dataset (the column itself is mandatory). The value should be populated when available, but may contain null values in cases where data was not collected or not applicable — though in most cases it will not be null for every record. When a study does not include the data item for an Expected variable, a null column must still be included in the dataset, and a comment must be added to the Define-XML document stating that the study does not include this data item.\n\n### **Perm (Permissible)**\nA Permissible variable may be included in the dataset.\n- **Rule:** If a study includes a data item that would be represented by a Permissible variable, then that variable must be included in the SDTM dataset (even if null) and must be declared in Define-XML. Conversely, if a study did not collect that data item, the variable should **not** be included in the dataset and should **not** be declared in Define-XML.\n\n### Additional notes\n- Although domain specification tables only list some of the identifier, timing, and general observation class variables, all such variables are considered Permissible unless specifically restricted (see SDTMIG Section 2.7, \"SDTM Variables Not Allowed in the SDTMIG\") or by specific domain assumptions.\n- Domain assumptions stating that a Permissible variable is \"generally not used\" do **not** prohibit its use.\n\n**[Source: chapters/ch04_general_assumptions.md -- 4.1.5 SDTM Core Designations]**",
      "elapsed_s": 7.47
    },
    {
      "id": "q13",
      "category": "concept",
      "question": "What is the difference between Topic, Qualifier, and Identifier variable roles?",
      "out_of_scope": false,
      "source_recall": 0.0,
      "source_hits": [],
      "source_misses": [
        "model/01_concepts_and_terms.md"
      ],
      "top5_sources": [
        "chapters/ch02_fundamentals.md",
        "VARIABLE_INDEX.md",
        "VARIABLE_INDEX.md",
        "chapters/ch04_general_assumptions.md",
        "domains/ML/assumptions.md"
      ],
      "top5_similarities": [
        0.5542,
        0.5466,
        0.5325,
        0.5259,
        0.5228
      ],
      "fact_recall": 1.0,
      "fact_hits": [
        "Topic",
        "Qualifier",
        "Identifier"
      ],
      "fact_misses": [],
      "answer_preview": "## Topic, Qualifier, and Identifier Variable Roles\n\nPer the SDTM general framework, each observation is represented as a row of variables, and each variable is classified according to one of five major roles, three of which are asked about here [Source: chapters/ch02_fundamentals.md -- 2.1 Observations and Variables]:\n\n### Identifier Variables\nIdentifier variables **identify the study, subject, domain, and sequence number of the record**. They serve to uniquely locate/key an observation (e.g., the study identifier, subject identifier, domain code, and record sequence number). In the worked exa",
      "usage": {
        "prompt_tokens": 16711,
        "completion_tokens": 1176,
        "total_tokens": 17887
      },
      "model": "bedrock/converse/global.anthropic.claude-sonnet-5",
      "answer": "## Topic, Qualifier, and Identifier Variable Roles\n\nPer the SDTM general framework, each observation is represented as a row of variables, and each variable is classified according to one of five major roles, three of which are asked about here [Source: chapters/ch02_fundamentals.md -- 2.1 Observations and Variables]:\n\n### Identifier Variables\nIdentifier variables **identify the study, subject, domain, and sequence number of the record**. They serve to uniquely locate/key an observation (e.g., the study identifier, subject identifier, domain code, and record sequence number). In the worked example \"Subject 101 had mild nausea starting on study day 6,\" the subject identifier \"101\" is the Identifier variable value [Source: chapters/ch02_fundamentals.md -- 2.1 Observations and Variables].\n\n### Topic Variables\nTopic variables **specify the focus of the observation** — i.e., what the observation is actually about (e.g., the name of a lab test, or the term for an adverse event/finding). In the example, \"NAUSEA\" is the Topic variable value, since it represents the subject/focus of the observation [Source: chapters/ch02_fundamentals.md -- 2.1 Observations and Variables].\n\n### Qualifier Variables\nQualifier variables **include additional illustrative text or numeric values that describe the results or additional traits** of the topic — they add descriptive detail rather than identifying the record or naming its focus. In the example, \"MILD\" (severity) is a Record Qualifier describing the nausea observation as a whole [Source: chapters/ch02_fundamentals.md -- 2.1 Observations and Variables].\n\nQualifier variables are further divided into five subclasses, each qualifying the observation in a different way [Source: chapters/ch02_fundamentals.md -- 2.1 Observations and Variables]:\n\n| Subclass | Purpose | Examples |\n|----------|---------|----------|\n| **Grouping Qualifiers** | Group observations within the same domain | --CAT, --SCAT |\n| **Result Qualifiers** | Describe the specific results tied to the topic variable (Findings only) | --ORRES, --STRESC, --STRESN |\n| **Synonym Qualifiers** | Provide an alternative name for a particular variable | --MODIFY, --DECOD (for --TRT/--TERM); --TEST, --LOINC (for --TESTCD) |\n| **Record Qualifiers** | Define additional attributes of the observation record as a whole | --REASND, AESLIFE (AE); AGE, SEX, RACE (DM); --BLFL, --POS, --LOC, --SPEC, --NAM (Findings) |\n| **Variable Qualifiers** | Modify/describe a specific variable within an observation, meaningful only in that variable's context | --ORRESU, --ORNRHI, --ORNRLO (qualify --ORRES); --DOSU (qualifies --DOSE) |\n\n### Summary of the distinction\n- **Identifier** → answers \"which study/subject/record is this?\"\n- **Topic** → answers \"what is this observation about?\"\n- **Qualifier** → answers \"what additional detail describes this observation or its topic/result?\"\n\n(The other two major roles — Timing and Rule variables — describe when an observation occurred and conditions for trial-design branching/looping, respectively, but are outside the scope of this comparison) [Source: chapters/ch02_fundamentals.md -- 2.1 Observations and Variables].",
      "elapsed_s": 13.17
    },
    {
      "id": "q14",
      "category": "concept",
      "question": "How should a sponsor create a new custom domain in SDTM?",
      "out_of_scope": false,
      "source_recall": 1.0,
      "source_hits": [
        "chapters/ch02"
      ],
      "source_misses": [],
      "top5_sources": [
        "chapters/ch02_fundamentals.md",
        "chapters/ch04_general_assumptions.md",
        "chapters/ch02_fundamentals.md",
        "model/01_concepts_and_terms.md",
        "chapters/ch02_fundamentals.md"
      ],
      "top5_similarities": [
        0.6333,
        0.6007,
        0.5951,
        0.5033,
        0.5016
      ],
      "fact_recall": 1.0,
      "fact_hits": [
        "observation class"
      ],
      "fact_misses": [],
      "answer_preview": "Based on the SDTMIG guidance, creating a new custom domain follows a structured process built on the **General Observation Classes (GOC)**: Interventions, Events, and Findings (identifiers + timing variables AND topic/qualifier variables from one GOC → new domain) **[Source: chapters/ch02_fundamentals.md -- 2.6 Creating a New Domain]**.\n\n## Step-by-Step Process\n\n**1. Confirm no existing domain fits**\nA custom domain may only be created if the data are different in nature and do not fit into any existing published domain. Examples of distinct topics warranting separate domains include microbiol",
      "usage": {
        "prompt_tokens": 22656,
        "completion_tokens": 1971,
        "total_tokens": 24627
      },
      "model": "bedrock/converse/global.anthropic.claude-sonnet-5",
      "answer": "Based on the SDTMIG guidance, creating a new custom domain follows a structured process built on the **General Observation Classes (GOC)**: Interventions, Events, and Findings (identifiers + timing variables AND topic/qualifier variables from one GOC → new domain) **[Source: chapters/ch02_fundamentals.md -- 2.6 Creating a New Domain]**.\n\n## Step-by-Step Process\n\n**1. Confirm no existing domain fits**\nA custom domain may only be created if the data are different in nature and do not fit into any existing published domain. Examples of distinct topics warranting separate domains include microbiology, tumor measurements, pathology/histology, vital signs, and physical exam results.\n- Data should be grouped by **topic and nature, not by collection method** — variables like `--CAT`, `--SCAT`, `--METHOD`, `--SPEC`, and `--LOC` can distinguish data within a domain rather than requiring a new domain.\n- Data collected on separate CRF modules/pages may still fit an existing domain (e.g., separate questionnaires → QS; prior and concomitant medications → CM).\n**[Source: chapters/ch02_fundamentals.md -- 2.6 Creating a New Domain]**\n\n**2. Check the CDISC wiki** SDTM Draft Domains area for proposed domains that may already address the need.\n**[Source: chapters/ch02_fundamentals.md -- 2.6 Creating a New Domain]**\n\n**3. Use an existing relevant domain as a prototype**, following these sub-steps:\n   - a. Select required Identifier variables: `STUDYID`, `DOMAIN`, `USUBJID`, `--SEQ`\n   - b. Include the Topic variable from the identified GOC (e.g., `--TESTCD` for Findings)\n   - c. Select relevant Qualifier variables from that same GOC only — variables belonging to other general observation classes must not be added\n   - d. Select applicable Timing variables\n   - e. Determine the domain code (must not appear in the CDISC CT Domain Abbreviations codelist; the codes AD, AX, AP, SQ, SA may not be used)\n   - f. Apply the 2-character domain code as the prefix to variable names\n   - g. Set variable order consistent with the SDTM\n   - h. Adjust variable labels only as needed to properly convey meaning for the new domain, using title case (capitalize first letter of every word except articles, prepositions, conjunctions)\n   - i. Ensure appropriate standard variables are properly applied\n   - j. Describe the dataset in the Define-XML document\n   - k. Place any non-standard variables in a Supplemental Qualifier (SUPP--) dataset, per Section 8.4 (Relating Non-standard Variable Values to a Parent Domain)\n**[Source: chapters/ch02_fundamentals.md -- 2.6 Creating a New Domain]**\n\n## Key Rules\n\n- **Do not create domains based on time** — represent both prior and current data in one domain; AE and MH are noted exceptions.\n- **Do not create \"efficacy\" domains** — data collected for analysis purposes must still be placed in standard domains.\n- **For hierarchical data**, establish domain pairs (e.g., MB/MS, PC/PP), using `DOMAIN` as an identifier to group parent records and RELREC to enable dataset-level relationships.\n**[Source: chapters/ch02_fundamentals.md -- 2.6 Creating a New Domain]**\n\n## Domain Code Considerations\n\n- Domain codes beginning with **X, Y, or Z** are reserved (optional, not required) for custom domains to eliminate risk of future conflicts with CDISC-assigned codes. Any letter or number may be used in the second position.\n**[Source: chapters/ch04_general_assumptions.md -- 4.1.6 Additional Guidance on Dataset Naming]**\n- The 2-character domain code is limited to A-Z for the first character and A-Z/0-9 for the second character (no other characters allowed, for SAS v5 transport file and eCTD compatibility).\n**[Source: chapters/ch04_general_assumptions.md -- 4.2.2 Two-character Domain Identifier]**\n\n## General Variable-Selection Rules (applicable to any domain, including custom ones)\n\n1. Identifier variables `STUDYID`, `DOMAIN`, `USUBJID`, and `--SEQ` are required in all GOC-based domains.\n2. Any Timing variables are permissible unless restricted by domain-specific assumptions.\n3. Additional Qualifier variables from the same GOC may be added except where restricted.\n4. Sponsors may not add variables other than those described — non-standard variables go into Supplemental Qualifiers (SUPP--).\n5. Standard variables must not be renamed or repurposed for novel usage.\n6. Permissible variables should be included when the study collected the corresponding data item; if not collected, the variable should be omitted (and not declared in Define-XML).\n**[Source: chapters/ch02_fundamentals.md -- 2.5 The SDTM Standard Domain Models]**\n\n## Additional Considerations\n\n- Conformance with SDTMIG models includes using standard names/prefixes/variable types/CT where applicable, including Required/Expected variables, and correct Identifier/Timing/Topic variable population per record.\n**[Source: chapters/ch03_submitting_data.md -- 3.2.2 Conformance]**\n- Certain variables (e.g., those flagged as SEND-only such as `--METHOD` for Interventions, `--RSTIND`, `FETUSID`, etc.) must never be used in human clinical trial SDTM submissions, and this restriction also applies when building custom domains.\n**[Source: chapters/ch02_fundamentals.md -- 2.7 SDTM Variables Not Allowed in the SDTMIG]**",
      "elapsed_s": 18.86
    },
    {
      "id": "q15",
      "category": "concept",
      "question": "What are the three SDTM Core designation categories for variables, and what are the rules for handling a Permissible variable when a study did not collect the corresponding data item?",
      "out_of_scope": false,
      "source_recall": 1.0,
      "source_hits": [
        "chapters/ch04_general_assumptions.md"
      ],
      "source_misses": [],
      "top5_sources": [
        "chapters/ch04_general_assumptions.md",
        "chapters/ch02_fundamentals.md",
        "model/01_concepts_and_terms.md",
        "chapters/ch02_fundamentals.md",
        "chapters/ch02_fundamentals.md"
      ],
      "top5_similarities": [
        0.7807,
        0.7066,
        0.6895,
        0.6828,
        0.6694
      ],
      "fact_recall": 1.0,
      "fact_hits": [
        "Req",
        "Exp",
        "Perm"
      ],
      "fact_misses": [],
      "answer_preview": "## SDTM Core 分类的三个类别\n\n根据 SDTMIG 的 Core 列规定，共有三个类别 [Source: chapters/ch04_general_assumptions.md -- 4.1.5 SDTM Core Designations]：\n\n1. **Req (Required)**：任何用于标识数据记录基本信息的变量（即关键的 identifier 变量和 topic 变量）或使记录具有意义所必需的变量。Required 变量必须始终包含在数据集中，且任何记录都不能为空值。\n\n2. **Exp (Expected)**：任何使记录在特定域的上下文中有用所必需的变量。Expected 变量必须包含在数据集中；在可获得数据时应填充数值，当数据未收集或不适用时允许存在空值；即使研究未包含该数据项，也必须在数据集中保留该空列，并在 Define-XML 文档中注明该研究不包含该数据项。\n\n3. **Perm (Permissible)**：可以包含在数据集中的变量。\n\n## Permissible 变量在研究未收集对应数据项时的处理规则\n\n规则非常明确 [Source: chapters/ch04_general_assumptions.md -- 4.1.5 SDTM Core Designations]：\n\n- **如果研究未收集**某个由 Permissible",
      "usage": {
        "prompt_tokens": 24705,
        "completion_tokens": 843,
        "total_tokens": 25548
      },
      "model": "bedrock/converse/global.anthropic.claude-sonnet-5",
      "answer": "## SDTM Core 分类的三个类别\n\n根据 SDTMIG 的 Core 列规定，共有三个类别 [Source: chapters/ch04_general_assumptions.md -- 4.1.5 SDTM Core Designations]：\n\n1. **Req (Required)**：任何用于标识数据记录基本信息的变量（即关键的 identifier 变量和 topic 变量）或使记录具有意义所必需的变量。Required 变量必须始终包含在数据集中，且任何记录都不能为空值。\n\n2. **Exp (Expected)**：任何使记录在特定域的上下文中有用所必需的变量。Expected 变量必须包含在数据集中；在可获得数据时应填充数值，当数据未收集或不适用时允许存在空值；即使研究未包含该数据项，也必须在数据集中保留该空列，并在 Define-XML 文档中注明该研究不包含该数据项。\n\n3. **Perm (Permissible)**：可以包含在数据集中的变量。\n\n## Permissible 变量在研究未收集对应数据项时的处理规则\n\n规则非常明确 [Source: chapters/ch04_general_assumptions.md -- 4.1.5 SDTM Core Designations]：\n\n- **如果研究未收集**某个由 Permissible 变量表示的数据项，则：\n  - 该变量**不应**包含在 SDTM 数据集中；\n  - 该变量**不应**在 Define-XML 文档中声明。\n\n这与 Permissible 变量在研究**已收集**该数据项时的处理规则形成对照——若已收集，则该变量必须包含在数据集中（即使为空），并且必须在 Define-XML 文档中说明该变量无可用数据 [Source: chapters/ch04_general_assumptions.md -- 4.1.5 SDTM Core Designations]。\n\n该规则在 chapters/ch02_fundamentals.md 中也有一致的重申：“If a study did not include a data item that would be represented in a Permissible variable, then that variable should not be included in the SDTM dataset and should not be declared in the Define-XML document.” [Source: chapters/ch02_fundamentals.md -- 2.5 The SDTM Standard Domain Models]\n\n此外需注意：domain assumptions 中若说明某个 Permissible 变量“generally not used”（通常不使用），并不构成对该变量使用的禁止 [Source: chapters/ch04_general_assumptions.md -- 4.1.5 SDTM Core Designations]。",
      "elapsed_s": 12.8
    },
    {
      "id": "q35",
      "category": "concept",
      "question": "What is Controlled Terminology (CT) in SDTM and how does it constrain the values that variables can contain?",
      "out_of_scope": false,
      "source_recall": 1.0,
      "source_hits": [
        "chapters/ch04"
      ],
      "source_misses": [],
      "top5_sources": [
        "chapters/ch04_general_assumptions.md",
        "chapters/ch04_general_assumptions.md",
        "chapters/ch04_general_assumptions.md",
        "domains/TS/assumptions.md",
        "model/01_concepts_and_terms.md"
      ],
      "top5_similarities": [
        0.6889,
        0.6773,
        0.6662,
        0.6237,
        0.623
      ],
      "fact_recall": 1.0,
      "fact_hits": [
        "codelist",
        "Controlled Terms"
      ],
      "fact_misses": [],
      "answer_preview": "# Controlled Terminology (CT) in SDTM\n\n## Concept\n\nControlled Terminology is the set of standardized, sponsor- and study-independent permissible values (and coding systems) that SDTM variables must draw from when populating their data. It is centrally managed by the CDISC Controlled Terminology Team, which supports the terminology needs of all CDISC foundational standards (SDTM, CDASH, ADaM, SEND) and disease/therapeutic area standards **[Source: chapters/ch10_appendices.md -- Appendix C: Controlled Terminology]**.\n\n## How CT is represented in the model\n\nIn the domain specifications, the \"Cont",
      "usage": {
        "prompt_tokens": 18530,
        "completion_tokens": 2004,
        "total_tokens": 20534
      },
      "model": "bedrock/converse/global.anthropic.claude-sonnet-5",
      "answer": "# Controlled Terminology (CT) in SDTM\n\n## Concept\n\nControlled Terminology is the set of standardized, sponsor- and study-independent permissible values (and coding systems) that SDTM variables must draw from when populating their data. It is centrally managed by the CDISC Controlled Terminology Team, which supports the terminology needs of all CDISC foundational standards (SDTM, CDASH, ADaM, SEND) and disease/therapeutic area standards **[Source: chapters/ch10_appendices.md -- Appendix C: Controlled Terminology]**.\n\n## How CT is represented in the model\n\nIn the domain specifications, the \"Controlled Terms, Codelist or Format\" column indicates how a variable's values are governed:\n\n- A single asterisk (*) — CDISC CT is not currently available, though sponsors may have their own terminology and CDISC may develop it in the future.\n- The single applicable value for DOMAIN (e.g., \"PR\").\n- The name of a CDISC codelist, shown as a hyperlink in parentheses (e.g., \"(NY)\"), often referencing an NCI codelist code (e.g., C66742).\n- A short reference to an external terminology/dictionary (e.g., MedDRA, ISO 3166-1 alpha-3).\n- An indication that the variable follows an ISO 8601 format.\n\n**[Source: chapters/ch04_general_assumptions.md -- 4.3.1 Controlled Terms, Codelist or Format Column]**\n\n## How CT constrains variable values\n\n1. **Permissible value set** — For a given variable, all values in its permissible set for the study should be represented in the Define-XML, whether or not each value actually appears in the submitted data. A null value is never included in the permissible set (unless the variable is Required, no null is implied at all) **[Source: chapters/ch04_general_assumptions.md -- 4.3.3 Controlled Terminology Values]**.\n\n2. **Subsetting to planned collection** — Not every value in a codelist need be used; only values that were part of planned data collection should be included. For example, the NY codelist is associated with --PRESP, but only the value \"Y\" is actually permitted for --PRESP **[Source: chapters/ch04_general_assumptions.md -- 4.3.3 Controlled Terminology Values]**.\n\n3. **Text case** — Terms must be represented in the case that appears in the source codelist or code system (whether CDISC codelist or external code system such as MedDRA) **[Source: chapters/ch04_general_assumptions.md -- 4.3.2 Controlled Terminology Text Case]**.\n\n4. **Variable length implications** — For variables governed by CT, sponsors can set the variable length to the length of the longest permissible term, rather than defaulting to the maximum (200-character) length **[Source: chapters/ch04_general_assumptions.md -- 4.2.9 Variable Lengths]**.\n\n5. **Extensibility** — Some codelists are extensible (sponsors may add values conforming to the concept of the codelist), while others are non-extensible (values are fixed); this determines how strictly CT constrains submitted values (concept referenced generally in the CT assumptions section) **[Source: chapters/ch04_general_assumptions.md -- 4.3 Coding and Controlled Terminology Assumptions]**.\n\n6. **Domain-level codelist associations** — Many domains explicitly bind specific variables to specific CDISC codelists (identified by NCI \"C\" codes) in their spec.md \"Controlled Terminology\" section. Examples include:\n   - RELREC: RDOMAIN → SDTM Domain Abbreviation (C66734); RELTYPE → Relationship Type (C78737) **[Source: domains/RELREC/spec.md -- Controlled Terminology]**\n   - DD: DDTEST → SDTM Death Diagnosis and Details Test Name (C116107); DDTESTCD → SDTM Death Diagnosis and Details Test Code (C116108); DDEVAL → Evaluator (C78735) **[Source: domains/DD/spec.md -- Controlled Terminology]**\n   - CO: RDOMAIN → SDTM Domain Abbreviation (C66734); COEVAL → Evaluator (C78735); COEVALID → Medical Evaluator Identifier (C96777) **[Source: domains/CO/spec.md -- Controlled Terminology]**\n   - SUPPQUAL: RDOMAIN → SDTM Domain Abbreviation (C66734); QEVAL → Evaluator (C78735) **[Source: domains/SUPPQUAL/spec.md -- Controlled Terminology]**\n\n7. **Non-CDISC codelists via TS** — For certain Trial Summary parameters (TSVAL), CDISC CT provides response codelists mapped via the TS codetable; sponsors/regulatory recipients may also specify their own terminology for parameters lacking CDISC CT, or in place of it (e.g., the US FDA Data Standards Catalog) **[Source: domains/TS/assumptions.md -- item_8]**. Correspondingly, TSVALCD holds the code for the term used in TSVAL (e.g., \"6CW7F3G59X\" for gabapentin, \"C49488\" for Y) **[Source: domains/TS/spec.md -- TSVALCD]**.\n\n## Summary\n\nCT constrains SDTM data by defining, for each applicable variable, a governed set of allowable terms (via CDISC codelists, external dictionaries, or ISO standards). These terms dictate exact spelling/case, may be extensible or fixed, are documented in Define-XML with only study-relevant subsets included, and drive practical implementation choices such as variable length. Individual codelist values (e.g., specific route or reason terms) are not enumerated here because their per-value NCI codes are not present in the retrieved context; only the codelist-level codes shown above (e.g., C66734, C78737, C116107, C116108, C78735, C96777) are grounded in the source.",
      "elapsed_s": 21.36
    },
    {
      "id": "q36",
      "category": "concept",
      "question": "What are the timing variables in SDTM (such as --DTC, --STDTC, --ENDTC) and how are they structured across domains?",
      "out_of_scope": false,
      "source_recall": 1.0,
      "source_hits": [
        "chapters/ch04"
      ],
      "source_misses": [],
      "top5_sources": [
        "domains/DS/assumptions.md",
        "model/01_concepts_and_terms.md",
        "chapters/ch02_fundamentals.md",
        "chapters/ch04_general_assumptions.md",
        "domains/BE/assumptions.md"
      ],
      "top5_similarities": [
        0.7123,
        0.7001,
        0.6825,
        0.6668,
        0.6647
      ],
      "fact_recall": 1.0,
      "fact_hits": [
        "DTC",
        "STDTC",
        "ENDTC",
        "Timing"
      ],
      "fact_misses": [],
      "answer_preview": "# Timing Variables in SDTM\n\n## Overview\n\nTiming variables are one of the 5 major SDTM variable roles (alongside Identifier, Topic, Qualifier, and Rule variables), used to describe the timing of an observation (e.g., start date, end date) [Source: model/01_concepts_and_terms.md -- 2.1 Model Concepts and Terms — Variables].\n\nThere are **48 timing variables** available for use in any domain based on one of the 3 general observation classes (Interventions, Events, Findings), except where restricted in domain-specific assumptions [Source: model/02_observation_classes.md -- 3.1.5 Timing Variables fo",
      "usage": {
        "prompt_tokens": 23460,
        "completion_tokens": 3080,
        "total_tokens": 26540
      },
      "model": "bedrock/converse/global.anthropic.claude-sonnet-5",
      "answer": "# Timing Variables in SDTM\n\n## Overview\n\nTiming variables are one of the 5 major SDTM variable roles (alongside Identifier, Topic, Qualifier, and Rule variables), used to describe the timing of an observation (e.g., start date, end date) [Source: model/01_concepts_and_terms.md -- 2.1 Model Concepts and Terms — Variables].\n\nThere are **48 timing variables** available for use in any domain based on one of the 3 general observation classes (Interventions, Events, Findings), except where restricted in domain-specific assumptions [Source: model/02_observation_classes.md -- 3.1.5 Timing Variables for All Classes].\n\n## Structure / Categories of Timing Variables\n\n### 1. Visit and Epoch Variables\n- **VISITNUM** — Visit Number (Num); numeric version of VISIT for sorting\n- **VISIT** — Visit Name (Char); protocol-defined visit name\n- **VISITDY** — Planned Study Day of Visit (Num)\n- **TAETORD** — Planned Order of Element Within Arm (Num)\n- **EPOCH** — Epoch (Char); time period defined in the protocol with a study-specific purpose\n- **RPHASE**, **RPPLDY**, **RPPLSTDY**, **RPPLENDY** — Reproductive Phase variables (not used in human clinical trials)\n\n[Source: model/02_observation_classes.md -- 3.1.5 Timing Variables for All Classes]\n\n### 2. Date/Time Variables (the core --DTC family)\n| Variable | Label | Type | Notes |\n|----------|-------|------|-------|\n| --DTC | Date/Time of Collection | Char | Primary date/time for the observation (ISO 8601) |\n| --STDTC | Start Date/Time of Observation | Char | Not used in Findings class domains |\n| --ENDTC | End Date/Time of Observation | Char | ISO 8601 |\n\n[Source: model/02_observation_classes.md -- 3.1.5 Timing Variables for All Classes]\n\n**Key structural rule — Findings vs. Interventions/Events:**\n- In **Findings**-class domains, only **--DTC** (and possibly **--ENDTC** for interval/timed collections) is used; **--STDTC should not be used** in Findings. For single-point collections, use --DTC alone; for interval/timed collections (e.g., 24-hour urine), use --DTC for the start and --ENDTC for the end [Source: chapters/ch04_general_assumptions.md -- 4.4.8 Date and Time Reported in a Domain Based on Findings].\n- In **Interventions** and **Events** class domains, --STDTC and --ENDTC represent the start and end of the intervention/event.\n\n### 3. Study Day Variables\n--DY, --STDY, --ENDY, --NOMDY, --NOMLBL, --RPDY, --RPSTDY, --RPENDY, --XDY, --XSTDY, --XENDY, --CHDY, --CHSTDY, --CHENDY, --DUR\n\n- --DY is derived from --DTC relative to DM.RFSTDTC.\n- --XDY variables are derived relative to RFXSTDTC (first exposure).\n- --CHDY variables are derived relative to RFCSTDTC (challenge agent).\n- --STDY and --ENDY (like --STDTC/--ENDTC) are **not used in Findings class domains**.\n- --NOMDY, --NOMLBL, --RPDY, --RPSTDY, --RPENDY are **not used in human clinical trials** (SEND-only; must never be used per [Source: chapters/ch02_fundamentals.md -- 2.7 SDTM Variables Not Allowed in the SDTMIG]).\n- --DUR — Collected Duration (Char, ISO 8601 duration)\n\n[Source: model/02_observation_classes.md -- 3.1.5 Timing Variables for All Classes]\n\n### 4. Time Point Variables\n--TPT, --TPTNUM, --ELTM, --TPTREF, --RFTDTC — describe protocol-defined time points and elapsed time relative to a reference point.\n\n[Source: model/02_observation_classes.md -- 3.1.5 Timing Variables for All Classes]\n\n### 5. Relative Timing Variables\n--STRF, --ENRF (values: BEFORE, DURING, DURING/AFTER, AFTER, UNKNOWN), --EVLINT, --EVINTX, --STRTPT (context truncated for remaining variables).\n\n[Source: model/02_observation_classes.md -- 3.1.5 Timing Variables for All Classes]\n\n## Format\n\nAll --DTC (and --STDTC/--ENDTC, --RFTDTC) date/time variables are character type, represented in **ISO 8601 extended format**: `YYYY-MM-DDThh:mm:ss(.n+)?(((+|-)hh:mm)|Z)?`, supporting complete, partial, or incomplete date/times. Basic (non-delimited) ISO 8601 format must not be used [Source: chapters/ch04_general_assumptions.md -- 4.4.1 Formats for Date/Time Variables].\n\n## Rules for Adding Timing Variables\n\n- Additional timing variables are permissible in any GOC-based domain unless restricted by domain-specific assumptions, except as noted in Assumption 4.4.8 (Findings-based domains) [Source: chapters/ch04_general_assumptions.md -- 4.1.3 Additional Timing Variables].\n- Timing variables cannot be added to SUPPQUAL or RELREC datasets [Source: chapters/ch04_general_assumptions.md -- 4.1.3 Additional Timing Variables].\n- Timing variables can be added to special-purpose domains only where specified in the domain's own assumptions [Source: chapters/ch04_general_assumptions.md -- 4.1.3 Additional Timing Variables].\n\n## EPOCH Assignment Guidance\n\n- In Findings-class domains, EPOCH should be based on --DTC.\n- In Interventions/Events-class domains, EPOCH should be based on --STDTC (with a rare exception where --ENDTC may be more appropriate for interval-spanning specimen collections).\n- EPOCH should not be imputed; if it cannot be determined, EPOCH should be null. This applies notably to events/findings occurring before study participation (including screening, which precedes DM.RFSTDTC).\n\n[Source: chapters/ch04_general_assumptions.md -- 4.1.3.1 EPOCH Variable Guidance]\n\n## Domain-Specific Examples of Timing Variable Usage\n\n- **DS (Disposition):** DSSTDTC is expected; DS events occur at a single date/time (no end date, since disposition events don't span an interval). EPOCH in DS is based on DSSTDTC [Source: domains/DS/assumptions.md -- item_4].\n- **BE (Biospecimen Events):** BESTDTC/BEENDTC hold start/end of the event; uniquely, BEDTC holds the specimen collection date/time (not the data-collection date), aligning with Findings-domain conventions for specimen-related data [Source: domains/BE/assumptions.md -- item_6].\n- **EC (Exposure as Collected):** Timing variables reflect the collected administration intervals (e.g., constant-dosing intervals, first/last dose); for point-in-time administrations, ECSTDTC is copied to ECENDTC [Source: domains/EC/assumptions.md -- item_5].\n- **SU (Substance Use):** SUSTDTC/SUENDTC populated as needed; if data are visit-based, VISITNUM/VISITDY/VISIT are added as additional timing variables [Source: domains/SU/assumptions.md -- item_4].\n- **ML (Meal Data):** Consumption is treated as occurring over an interval; MLSTDTC/MLENDTC represent start/end if both collected; MLSTDTC should not be copied to MLENDTC if only a start time is collected [Source: domains/ML/assumptions.md -- item_2].\n- **DM (Demographics):** Note that RFSTDTC, RFENDTC, RFXSTDTC, RFXENDTC, RFCSTDTC, RFCENDTC, RFICDTC, RFPENDTC, DTHDTC, and BRTHDTC are date/time values in DM but are classified as **record qualifiers**, not timing variables, because they are not intended for use in the general observation classes [Source: domains/DM/assumptions.md -- item_7].\n\n## Naming Convention Note\n\nThe \"--\" prefix in timing (and Identifier/GOC) variable names must be replaced with the domain's 2-character DOMAIN code when implementing standard or custom domains (e.g., --DTC becomes AESTDTC → AE domain uses AEDTC where applicable), except for common merge-key variables like VISIT, VISITNUM, VISITDY, which remain unprefixed [Source: chapters/ch04_general_assumptions.md -- 4.2.2 Two-character Domain Identifier].",
      "elapsed_s": 26.17
    },
    {
      "id": "q37",
      "category": "concept",
      "question": "What are the Special-Purpose datasets in SDTM and which domains fall into this category?",
      "out_of_scope": false,
      "source_recall": 1.0,
      "source_hits": [
        "model/03_special_purpose_domains.md"
      ],
      "source_misses": [],
      "top5_sources": [
        "chapters/ch02_fundamentals.md",
        "chapters/ch02_fundamentals.md",
        "chapters/ch02_fundamentals.md",
        "model/01_concepts_and_terms.md",
        "chapters/ch04_general_assumptions.md"
      ],
      "top5_similarities": [
        0.7989,
        0.7276,
        0.6985,
        0.666,
        0.6633
      ],
      "fact_recall": 1.0,
      "fact_hits": [
        "Special-Purpose",
        "DM",
        "CO",
        "SE"
      ],
      "fact_misses": [],
      "answer_preview": "## Special-Purpose Datasets in SDTM\n\nAccording to SDTMIG Chapter 2, Special-purpose domains are one of the 4 types of datasets other than the general observation class (GOC) domains. They represent **subject-level data not conforming to a general observation class** **[Source: chapters/ch02_fundamentals.md]**.\n\n### Domains in this category\n\nPer the authoritative domain classification, the following domains are designated with Class = **Special Purpose**:\n\n| Domain | Name |\n|--------|------|\n| **CO** | Comments |\n| **DM** | Demographics |\n| **SE** | Subject Elements |\n| **SM** | Subject Disease",
      "usage": {
        "prompt_tokens": 21786,
        "completion_tokens": 1333,
        "total_tokens": 23119
      },
      "model": "bedrock/converse/global.anthropic.claude-sonnet-5",
      "answer": "## Special-Purpose Datasets in SDTM\n\nAccording to SDTMIG Chapter 2, Special-purpose domains are one of the 4 types of datasets other than the general observation class (GOC) domains. They represent **subject-level data not conforming to a general observation class** **[Source: chapters/ch02_fundamentals.md]**.\n\n### Domains in this category\n\nPer the authoritative domain classification, the following domains are designated with Class = **Special Purpose**:\n\n| Domain | Name |\n|--------|------|\n| **CO** | Comments |\n| **DM** | Demographics |\n| **SE** | Subject Elements |\n| **SM** | Subject Disease Milestones |\n| **SV** | Subject Visits |\n\n**[Source: knowledge_base/INDEX.md]**\n\nThis is consistent with the ch02 fundamentals table, which cites DM, CO, SE, SV as examples of Special-purpose domains (documented further in Section 5 of the SDTMIG) **[Source: chapters/ch02_fundamentals.md]**.\n\n### Note on model-level scope\nThe SDTM v2.0 conceptual model chapter on Special Purpose Domains (model/03_special_purpose_domains.md) additionally discusses the DM, CO, SE, SJ (Subject Disease Milestones equivalents at the model level), SV, and SM structures at the model level; however, only DM, CO, SE, SM, and SV are instantiated as actual SDTMIG v3.4 domains with an explicit Special-Purpose class designation in the domain index **[Source: knowledge_base/INDEX.md]**. If you need the model-level variable definitions for these structures, refer to **[Source: model/03_special_purpose_domains.md]**.",
      "elapsed_s": 16.96
    },
    {
      "id": "q38",
      "category": "concept",
      "question": "How are SDTM domain abbreviation codes assigned? What are the rules for the two-character domain code?",
      "out_of_scope": false,
      "source_recall": 0.0,
      "source_hits": [],
      "source_misses": [
        "chapters/ch02"
      ],
      "top5_sources": [
        "chapters/ch04_general_assumptions.md",
        "domains/TM/spec.md",
        "chapters/ch04_general_assumptions.md",
        "domains/SV/spec.md",
        "domains/CP/spec.md"
      ],
      "top5_similarities": [
        0.697,
        0.6851,
        0.676,
        0.6696,
        0.6691
      ],
      "fact_recall": 1.0,
      "fact_hits": [
        "two-character",
        "DOMAIN"
      ],
      "fact_misses": [],
      "answer_preview": "## SDTM Domain Abbreviation Code Rules\n\n**Character set restrictions:**\nThe 2-character domain code is limited to A–Z for the first character, and A–Z or 0–9 for the second character. No other characters are allowed. This restriction exists for compatibility with SAS v5 transport files and with file naming requirements as part of the Electronic Common Technical Document (eCTD). **[Source: chapters/ch04_general_assumptions.md -- 4.2.2 Two-character Domain Identifier]**\n\n**Function as a variable-name prefix:**\nThe 2-character domain identifier (DOMAIN) is used as a prefix in most variable names ",
      "usage": {
        "prompt_tokens": 15663,
        "completion_tokens": 1607,
        "total_tokens": 17270
      },
      "model": "bedrock/converse/global.anthropic.claude-sonnet-5",
      "answer": "## SDTM Domain Abbreviation Code Rules\n\n**Character set restrictions:**\nThe 2-character domain code is limited to A–Z for the first character, and A–Z or 0–9 for the second character. No other characters are allowed. This restriction exists for compatibility with SAS v5 transport files and with file naming requirements as part of the Electronic Common Technical Document (eCTD). **[Source: chapters/ch04_general_assumptions.md -- 4.2.2 Two-character Domain Identifier]**\n\n**Function as a variable-name prefix:**\nThe 2-character domain identifier (DOMAIN) is used as a prefix in most variable names to minimize the risk of difficulty when merging/joining domains for reporting purposes. When adding variables from the SDTM to standard domains, or creating custom domains based on the general observation classes, sponsors must replace the \"--\" prefix shown in the SDTM tables of General Observation Class, Timing, and Identifier variables with the actual 2-character DOMAIN value for that domain/dataset. **[Source: chapters/ch04_general_assumptions.md -- 4.2.2 Two-character Domain Identifier]**\n\n**Exceptions to the prefixing rule:**\nThe following variables are NOT prefixed with the domain identifier, even though the domain identifier convention otherwise applies:\n- Required Identifiers (STUDYID, DOMAIN, USUBJID)\n- Commonly used grouping and merge keys (e.g., VISIT, VISITNUM, VISITDY)\n- All Demographics (DM) domain variables other than DMDTC and DMDY\n- All variables in RELREC and SUPPQUAL, and some variables in the Comments and Trial Design datasets\n\nRequired identifiers are not prefixed because they are typically used as keys when merging/joining observations. The --SEQ variable and the optional Identifiers --GRPID and --REFID ARE prefixed, because they may be used as keys when relating observations across domains. **[Source: chapters/ch04_general_assumptions.md -- 4.2.2 Two-character Domain Identifier]**\n\n**Dataset naming convention:**\nSDTM datasets are normally named consistent with the domain code (e.g., the Demographics dataset DM is named `dm.xpt`). Standard domain codes are defined in the SDTM Domain Abbreviation codelist, **C66734**, in CDISC Controlled Terminology. Exceptions to this naming rule apply to split general-observation-class datasets and to RELREC/SUPP-- datasets. **[Source: chapters/ch04_general_assumptions.md -- 4.1.6 Additional Guidance on Dataset Naming]**\n\n**Custom domain codes:**\nSponsors defining new custom domains may be concerned about future conflicts with CDISC-defined codes. To mitigate this, domain codes beginning with the letters **X, Y, or Z** have been reserved for custom domain creation, with any letter or number permitted in the second position. Use of an X/Y/Z-prefixed code is optional, not required, for custom domains. **[Source: chapters/ch04_general_assumptions.md -- 4.1.6 Additional Guidance on Dataset Naming]**\n\n**The DOMAIN variable itself:**\nAcross domain specifications (e.g., TM, SV, CP, DS, IS, PP, LB, ML, PR, TV, NV, CM, MB), DOMAIN is consistently defined as:\n- **Label:** Domain Abbreviation\n- **Type:** Char\n- **Role:** Identifier\n- **Core:** Req\n- **CDISC Notes:** Two-character abbreviation for the domain (for TM specifically, the value must be \"TM\"; similarly, each domain's DOMAIN value must match that domain's assigned code).\n\n**[Source: domains/TM/spec.md -- DOMAIN]**, **[Source: domains/SV/spec.md -- DOMAIN]**, **[Source: domains/CP/spec.md -- DOMAIN]**, **[Source: domains/DS/spec.md -- DOMAIN]**, **[Source: domains/IS/spec.md -- DOMAIN]**, **[Source: domains/PP/spec.md -- DOMAIN]**, **[Source: domains/LB/spec.md -- DOMAIN]**, **[Source: domains/ML/spec.md -- DOMAIN]**, **[Source: domains/PR/spec.md -- DOMAIN]**, **[Source: domains/TV/spec.md -- DOMAIN]**, **[Source: domains/NV/spec.md -- DOMAIN]**, **[Source: domains/CM/spec.md -- DOMAIN]**, **[Source: domains/MB/spec.md -- DOMAIN]**",
      "elapsed_s": 14.84
    },
    {
      "id": "q39",
      "category": "concept",
      "question": "What is the Findings About observation class and how does it differ from the standard Findings class?",
      "out_of_scope": false,
      "source_recall": 0.0,
      "source_hits": [],
      "source_misses": [
        "model/02_observation_classes.md"
      ],
      "top5_sources": [
        "domains/IS/spec.md",
        "domains/MI/spec.md",
        "domains/RP/spec.md",
        "domains/LB/spec.md",
        "domains/SS/spec.md"
      ],
      "top5_similarities": [
        0.7123,
        0.7123,
        0.7123,
        0.7122,
        0.7122
      ],
      "fact_recall": 0.5,
      "fact_hits": [
        "Findings About"
      ],
      "fact_misses": [
        "FAOBJ"
      ],
      "answer_preview": "The retrieved context provided does not contain substantive information about the \"Findings About\" observation class or its distinguishing characteristics relative to the standard Findings class. All 15 retrieved chunks are identical \"Model Definition\" stub sections from various domains' spec.md files (IS, MI, RP, LB, SS, TU, CV, EG, MB, NV, OE, PC, PP, RE, RS), each simply linking to the Findings class definition in **[Source: model/02_observation_classes.md]** — none of them elaborate on the Findings About subclass itself.\n\nBased on the knowledge base structure, the relevant content would be",
      "usage": {
        "prompt_tokens": 13707,
        "completion_tokens": 710,
        "total_tokens": 14417
      },
      "model": "bedrock/converse/global.anthropic.claude-sonnet-5",
      "answer": "The retrieved context provided does not contain substantive information about the \"Findings About\" observation class or its distinguishing characteristics relative to the standard Findings class. All 15 retrieved chunks are identical \"Model Definition\" stub sections from various domains' spec.md files (IS, MI, RP, LB, SS, TU, CV, EG, MB, NV, OE, PC, PP, RE, RS), each simply linking to the Findings class definition in **[Source: model/02_observation_classes.md]** — none of them elaborate on the Findings About subclass itself.\n\nBased on the knowledge base structure, the relevant content would be found in:\n- **domains/FA/spec.md** and **domains/FA/assumptions.md** (FA = Findings About Events or Interventions domain)\n- **model/02_observation_classes.md** (which per the index defines the Findings class, \"100+ vars\", and would contain any Findings About subclass distinctions)\n\nSince none of these specific sources were retrieved in the provided context, I cannot give a grounded, cited answer to your question. Please let me know if you'd like me to look up domains/FA/spec.md, domains/FA/assumptions.md, or model/02_observation_classes.md directly to answer this properly.",
      "elapsed_s": 10.82
    },
    {
      "id": "q40",
      "category": "concept",
      "question": "What is the difference between collected data and derived data in SDTM, and how is the origin of a variable value indicated?",
      "out_of_scope": false,
      "source_recall": 1.0,
      "source_hits": [
        "chapters/ch04"
      ],
      "source_misses": [],
      "top5_sources": [
        "domains/LB/assumptions.md",
        "chapters/ch04_general_assumptions.md",
        "model/01_concepts_and_terms.md",
        "model/01_concepts_and_terms.md",
        "model/05_study_level_data.md"
      ],
      "top5_similarities": [
        0.6417,
        0.6411,
        0.6331,
        0.6181,
        0.6092
      ],
      "fact_recall": 1.0,
      "fact_hits": [
        "Collected",
        "Derived",
        "Origin"
      ],
      "fact_misses": [],
      "answer_preview": "# Collected vs. Derived Data in SDTM\n\n## Definitions and Distinction\n\nSDTM datasets include multiple categories of data, distinguished by how the value came to exist:\n- **Data as originally collected or received**\n- **Data from the protocol**\n- **Assigned data**\n- **Derived data**\n\n**[Source: chapters/ch02_fundamentals.md -- 2.2 Datasets and Domains]**\n\nThe core distinction between \"collected\" and \"derived\":\n- **Collected data**: Values that come directly from a data source (CRF, a vendor, or a device) without transformation/computation by the sponsor. Notably, **a value derived by a central l",
      "usage": {
        "prompt_tokens": 22399,
        "completion_tokens": 1246,
        "total_tokens": 23645
      },
      "model": "bedrock/converse/global.anthropic.claude-sonnet-5",
      "answer": "# Collected vs. Derived Data in SDTM\n\n## Definitions and Distinction\n\nSDTM datasets include multiple categories of data, distinguished by how the value came to exist:\n- **Data as originally collected or received**\n- **Data from the protocol**\n- **Assigned data**\n- **Derived data**\n\n**[Source: chapters/ch02_fundamentals.md -- 2.2 Datasets and Domains]**\n\nThe core distinction between \"collected\" and \"derived\":\n- **Collected data**: Values that come directly from a data source (CRF, a vendor, or a device) without transformation/computation by the sponsor. Notably, **a value derived by a central lab according to its own procedures is considered collected rather than derived** — the perspective is from the sponsor's data flow, not the ultimate origin of the calculation. **[Source: domains/LB/assumptions.md -- item_6]**\n- **Derived data**: Values computed/transformed by the sponsor via some algorithm from other data (e.g., a total/subtotal score computed by the sponsor from item-level responses). \"Derived data should be traceable to some derivation algorithm.\" **[Source: chapters/ch04_general_assumptions.md -- 4.1.8 Origin Metadata]**\n\nA useful illustration is in the QRS/Questionnaires domains (QS, FT): subtotal/total scores are generally treated as **captured (collected)** data if they appear on the CRF, or in the instrument's manual/reference paper, or are otherwise known to be included in the eCRF workflow and part of the instrument's controlled terminology. They are only flagged as **derived** if the sponsor computes them operationally (in which case --DRVFL = \"Y\"). If the score comes from a central provider/vendor, it goes into --ORRES and --DRVFL is left null (treated as collected). **[Source: domains/QS/assumptions.md -- item_4; domains/FT/assumptions.md -- item_4]**\n\n## How Origin Is Indicated\n\nThe origin of a variable's value is **not indicated by an SDTM dataset variable itself**, but rather through **Origin metadata in the Define-XML document**:\n\n- **Origin Metadata for Variables** (§4.1.8.1): The Define-XML \"origin\" element unambiguously communicates where the data originated — e.g., collected (CRF, vendor, device), derived, or assigned. CRF-collected data should be traceable to an annotated CRF, and derived data should be traceable to a derivation algorithm. The Define-XML specification is the definitive source of allowable origin values. **[Source: chapters/ch04_general_assumptions.md -- 4.1.8 Origin Metadata]**\n\n- **Origin Metadata for Records** (§4.1.8.2): Sponsors must be careful, because a \"derived\" origin designation implies *all* values for that variable were derived, and \"collected on the CRF\" implies that applies to *all* records for that variable. When a single variable contains a mix of collected and derived values across different records (e.g., in QS, some records are collected CRF responses while others are derived total scores), the origin must instead be described using **value-level metadata** in the Define-XML document, rather than a single dataset-level origin designation. **[Source: chapters/ch04_general_assumptions.md -- 4.1.8 Origin Metadata]**\n\nIn domain-specific practice (e.g., QS, FT), the flag variable **--DRVFL** (\"Derived Flag\") is used at the record level to indicate whether a specific record's result was operationally derived by the sponsor (\"Y\") versus collected/captured — this works alongside, and is distinct from, the Define-XML origin metadata concept. **[Source: domains/QS/assumptions.md -- item_4; domains/FT/assumptions.md -- item_4]**",
      "elapsed_s": 14.13
    },
    {
      "id": "q41",
      "category": "concept",
      "question": "What are the Trial Design Model datasets in SDTM and what kind of study-level information do they capture?",
      "out_of_scope": false,
      "source_recall": 1.0,
      "source_hits": [
        "model/05_study_level_data.md"
      ],
      "source_misses": [],
      "top5_sources": [
        "model/05_study_level_data.md",
        "chapters/ch02_fundamentals.md",
        "chapters/ch02_fundamentals.md",
        "domains/TI/spec.md",
        "domains/TA/spec.md"
      ],
      "top5_similarities": [
        0.8163,
        0.7016,
        0.6612,
        0.6612,
        0.6611
      ],
      "fact_recall": 1.0,
      "fact_hits": [
        "Trial Design",
        "TA",
        "TE",
        "TV"
      ],
      "fact_misses": [],
      "answer_preview": "# Trial Design Model (TDM) Datasets\n\nAccording to the SDTM/SDTMIG framework, the **Trial Design Model (TDM)** is one of the categories of datasets other than the general observation class (GOC) domains — it contains **study design information, not subject-level data** [Source: chapters/ch02_fundamentals.md — 2.4 Datasets Other than General Observation Class Domains].\n\nMore broadly, SDTM organizes study-level data into two types: **trial design data** and **study reference data**, with the TDM being the extensible set of datasets representing the former [Source: model/05_study_level_data.md — O",
      "usage": {
        "prompt_tokens": 18570,
        "completion_tokens": 2269,
        "total_tokens": 20839
      },
      "model": "bedrock/converse/global.anthropic.claude-sonnet-5",
      "answer": "# Trial Design Model (TDM) Datasets\n\nAccording to the SDTM/SDTMIG framework, the **Trial Design Model (TDM)** is one of the categories of datasets other than the general observation class (GOC) domains — it contains **study design information, not subject-level data** [Source: chapters/ch02_fundamentals.md — 2.4 Datasets Other than General Observation Class Domains].\n\nMore broadly, SDTM organizes study-level data into two types: **trial design data** and **study reference data**, with the TDM being the extensible set of datasets representing the former [Source: model/05_study_level_data.md — Overview]; [Source: model/01_concepts_and_terms.md — 2.1 Model Concepts and Terms — Variables] (concept map shows \"Study-Level Data\" including \"Trial Design Model\" as an extensible domain group).\n\n## The Seven TDM Domains\n\nThe knowledge base identifies the following domains as governed by the \"Trial Design class definition\" [Source: domains/TA/spec.md — Model Definition]; [Source: domains/TE/spec.md — Model Definition]; [Source: domains/TV/spec.md — Model Definition]; [Source: domains/TD/spec.md — Model Definition]; [Source: domains/TM/spec.md — Model Definition]; [Source: domains/TI/spec.md — Model Definition]; [Source: domains/TS/spec.md — Model Definition]:\n\n| Domain | Name | Study-Level Information Captured |\n|--------|------|-----------------------------------|\n| **TA** | Trial Arms | Planned sequence of Elements that constitute each Arm (treatment path) of the trial design |\n| **TE** | Trial Elements | Definitions of the Elements (time periods with a specific set of study conditions) used to build Arms |\n| **TV** | Trial Visits | Planned visit structure of the trial, e.g., planned nominal timing of visits relative to Elements |\n| **TD** | Trial Disease Assessments | Planned disease assessment schedule/timepoints for the trial |\n| **TM** | Trial Disease Milestones | Definitions of disease-related milestones planned for the trial |\n| **TI** | Trial Inclusion/Exclusion Criteria | All inclusion and exclusion criteria defined in the study protocol for trial eligibility [Source: domains/TI/assumptions.md — overview] |\n| **TS** | Trial Summary | Summary characteristics of the trial as a whole (a tabular synopsis of key protocol attributes) [Source: domains/TI/assumptions.md — overview] |\n\nPer the TI assumptions, TI and TS together are described as \"tabular synopses of parts of the study protocol\" under §7.4 \"Trial Eligibility and Summary (TI, TS)\" [Source: domains/TI/assumptions.md — overview].\n\n## Purpose\n\nThese datasets do not represent observations made on individual subjects (as GOC or Special-Purpose domains do); instead, they document the **planned design of the trial itself** — e.g., how Elements sequence into Arms (TA/TE), the visit schedule (TV), disease assessment/milestone schedules (TD/TM), eligibility criteria (TI), and overall trial-level metadata (TS) [Source: chapters/ch02_fundamentals.md — 2.4 Datasets Other than General Observation Class Domains]; [Source: chapters/ch04_general_assumptions.md — 4.1.1 Review Study Data Tabulation Model and Implementation Guide].\n\nNote: the retrieved context does not include the full spec/assumptions content for TD or TM individually beyond their \"Model Definition\" pointer, so for detailed variable-level content on those two domains you would need to consult domains/TD/spec.md and domains/TM/spec.md directly.",
      "elapsed_s": 25.01
    },
    {
      "id": "q16",
      "category": "mixed",
      "question": "What values are allowed for AESEV and what is its codelist code?",
      "out_of_scope": false,
      "source_recall": 0.5,
      "source_hits": [
        "domains/AE/spec.md"
      ],
      "source_misses": [
        "terminology/core/ae.md"
      ],
      "top5_sources": [
        "VARIABLE_INDEX.md",
        "domains/AE/assumptions.md",
        "domains/AE/spec.md",
        "VARIABLE_INDEX.md",
        "VARIABLE_INDEX.md"
      ],
      "top5_similarities": [
        0.663,
        0.6134,
        0.602,
        0.5919,
        0.5887
      ],
      "fact_recall": 1.0,
      "fact_hits": [
        "C66769",
        "MILD",
        "MODERATE",
        "SEVERE"
      ],
      "fact_misses": [],
      "answer_preview": "Based on the retrieved context, **AESEV** (Severity/Intensity) in the AE domain uses controlled terminology codelist **C66769** [Source: domains/AE/spec.md -- AESEV] [Source: VARIABLE_INDEX.md -- §三 CT 交叉引用: C66769].\n\nThe domain specification indicates example values include \"MILD\", \"MODERATE\", and \"SEVERE\" [Source: domains/AE/spec.md -- AESEV], which are the typical terms in this severity codelist.\n\nHowever, I do not have the actual terminology file content for codelist C66769 (e.g., terminology/core/ae.md) in the retrieved context, so I cannot confirm the complete, authoritative list of allo",
      "usage": {
        "prompt_tokens": 15104,
        "completion_tokens": 346,
        "total_tokens": 15450
      },
      "model": "bedrock/converse/global.anthropic.claude-sonnet-5",
      "answer": "Based on the retrieved context, **AESEV** (Severity/Intensity) in the AE domain uses controlled terminology codelist **C66769** [Source: domains/AE/spec.md -- AESEV] [Source: VARIABLE_INDEX.md -- §三 CT 交叉引用: C66769].\n\nThe domain specification indicates example values include \"MILD\", \"MODERATE\", and \"SEVERE\" [Source: domains/AE/spec.md -- AESEV], which are the typical terms in this severity codelist.\n\nHowever, I do not have the actual terminology file content for codelist C66769 (e.g., terminology/core/ae.md) in the retrieved context, so I cannot confirm the complete, authoritative list of allowed values with their exact NCI term codes. Per the sourcing rules, I can state the example values shown in the spec (\"MILD\", \"MODERATE\", \"SEVERE\") as name-only guidance, but for the definitive full value list you should consult the terminology file associated with C66769 (likely terminology/core/ae.md) directly.",
      "elapsed_s": 5.42
    },
    {
      "id": "q17",
      "category": "mixed",
      "question": "How are date and time variables formatted in SDTM and what suffix do they use?",
      "out_of_scope": false,
      "source_recall": 1.0,
      "source_hits": [
        "chapters/ch04"
      ],
      "source_misses": [],
      "top5_sources": [
        "chapters/ch04_general_assumptions.md",
        "domains/VS/spec.md",
        "chapters/ch04_general_assumptions.md",
        "model/01_concepts_and_terms.md",
        "model/01_concepts_and_terms.md"
      ],
      "top5_similarities": [
        0.763,
        0.6402,
        0.6206,
        0.6154,
        0.6139
      ],
      "fact_recall": 1.0,
      "fact_hits": [
        "ISO 8601",
        "DTC"
      ],
      "fact_misses": [],
      "answer_preview": "# Date/Time Variable Formatting in SDTM\n\n## Format Standard: ISO 8601\n\nSDTM date/time variables use the **ISO 8601** standard for representing calendar dates and times of day. The SDTMIG template expresses this as:\n\n```\nYYYY-MM-DDThh:mm:ss(.n+)?(((+|-)hh:mm)|Z)?\n```\n\nWhere:\n- **[YYYY]** = four-digit year\n- **[MM]** = two-digit month (01–12)\n- **[DD]** = two-digit day (01–31)\n- **[T]** = time designator, indicating time information follows\n- **[hh]** = two-digit hour (00–23; am/pm NOT allowed)\n- **[mm]** = two-digit minute (00–59)\n- **[ss]** = two-digit second (00–59)\n- **[(.n+)?]** = optional ",
      "usage": {
        "prompt_tokens": 22544,
        "completion_tokens": 1529,
        "total_tokens": 24073
      },
      "model": "bedrock/converse/global.anthropic.claude-sonnet-5",
      "answer": "# Date/Time Variable Formatting in SDTM\n\n## Format Standard: ISO 8601\n\nSDTM date/time variables use the **ISO 8601** standard for representing calendar dates and times of day. The SDTMIG template expresses this as:\n\n```\nYYYY-MM-DDThh:mm:ss(.n+)?(((+|-)hh:mm)|Z)?\n```\n\nWhere:\n- **[YYYY]** = four-digit year\n- **[MM]** = two-digit month (01–12)\n- **[DD]** = two-digit day (01–31)\n- **[T]** = time designator, indicating time information follows\n- **[hh]** = two-digit hour (00–23; am/pm NOT allowed)\n- **[mm]** = two-digit minute (00–59)\n- **[ss]** = two-digit second (00–59)\n- **[(.n+)?]** = optional fractional seconds\n- **[(((+|-)hh:mm)|Z)?]** = optional time zone\n\nKey implementation rules:\n- The SDTM/SDTMIG requires the ISO 8601 **extended format** (hyphen delimiters for date components, colon delimiters for time components); the basic (non-delimited) format must not be used.\n- When date and time are combined, the date precedes the time, separated by \"T\" (e.g., `2001-12-26T00:00:01`).\n- Spaces are not allowed anywhere in ISO 8601 representations.\n- Because of this, date/time variables are implemented as **character (Char)** data type variables.\n- Precision/completeness is handled via right truncation or hyphens for missing intermediate components (e.g., `2003-12`, `2003`, `--12-15`), and uncertainty intervals can be represented by concatenating begin/end values with a solidus (\"/\") (e.g., `2003-12-01/2003-12-10`).\n\n**[Source: chapters/ch04_general_assumptions.md -- 4.4.1 Formats for Date/Time Variables]**\n**[Source: chapters/ch04_general_assumptions.md -- 4.4.2 Date/Time Precision]**\n\n## Naming Suffix: --DTC\n\nThe standard SDTM fragment/suffix used for date/time character variables is **DTC** (Date/Time of Collection), applied with the domain prefix (e.g., `VSDTC`, `DMDTC`, `SSDTC`, `SVSTDTC`). Related timing suffixes built on the same ISO 8601 date/time concept include:\n\n- **--DTC** — Date/Time of Collection (Role: Timing; Type: Char; Controlled Terms: ISO 8601 datetime or interval)\n- **--STDTC** — Start Date/Time of Observation (not used in Findings class domains)\n- **--ENDTC** — End Date/Time of Observation\n- **--RFTDTC** — Date/Time of Reference Time Point\n\n**[Source: chapters/ch04_general_assumptions.md -- 4.4.1 Formats for Date/Time Variables]**\n**[Source: model/02_observation_classes.md -- 3.1.5 Timing Variables for All Classes]**\n**[Source: domains/VS/spec.md -- VSDTC]**\n**[Source: domains/DM/spec.md -- DMDTC]**\n**[Source: domains/SS/spec.md -- SSDTC]**\n**[Source: domains/SV/spec.md -- SVSTDTC]**\n\nExample variables confirming the pattern (all Type: Char, Role: Timing, Controlled Terms: \"ISO 8601 datetime or interval\"):\n- `VSDTC` — Date/Time of Measurements [Source: domains/VS/spec.md -- VSDTC]\n- `DMDTC` — Date/Time of Collection [Source: domains/DM/spec.md -- DMDTC]\n- `SSDTC` — Date/Time of Assessment [Source: domains/SS/spec.md -- SSDTC]\n- `SVSTDTC` — Start Date/Time of Observation [Source: domains/SV/spec.md -- SVSTDTC]\n\nNote: some date/time-valued variables in DM (e.g., RFSTDTC, RFENDTC, RFXSTDTC, RFXENDTC, RFCSTDTC, RFCENDTC, RFICDTC, RFPENDTC, DTHDTC, BRTHDTC) are considered **Record Qualifiers** rather than Timing variables in that domain, since they are not intended for general use across observation classes **[Source: domains/DM/assumptions.md -- item_7]**.",
      "elapsed_s": 14.45
    },
    {
      "id": "q18",
      "category": "mixed",
      "question": "Explain the MedDRA coding chain for adverse events from verbatim term to dictionary term.",
      "out_of_scope": false,
      "source_recall": 1.0,
      "source_hits": [
        "domains/AE/spec.md",
        "domains/AE/assumptions.md"
      ],
      "source_misses": [],
      "top5_sources": [
        "chapters/ch04_general_assumptions.md",
        "domains/MH/assumptions.md",
        "domains/AE/assumptions.md",
        "domains/AE/spec.md",
        "terminology/core/trial_design.md"
      ],
      "top5_similarities": [
        0.6726,
        0.63,
        0.6289,
        0.6111,
        0.6045
      ],
      "fact_recall": 1.0,
      "fact_hits": [
        "AETERM",
        "AEMODIFY",
        "AEDECOD",
        "Preferred Term"
      ],
      "fact_misses": [],
      "answer_preview": "## MedDRA Coding Chain for Adverse Events (AE Domain)\n\nThe MedDRA coding chain for adverse events represents a hierarchy of terms moving from the investigator's verbatim report to the standardized dictionary-derived terms at multiple levels of the MedDRA hierarchy.\n\n### 1. Verbatim Term Collection\n\n- **AETERM** (Label: Reported Term for the Adverse Event; Type: Char; Role: Topic; Core: Req) — This is the topic variable for the AE dataset and captures the verbatim name of the event as collected on the CRF. It is a required variable and must have a value. **[Source: domains/AE/spec.md -- AETERM]",
      "usage": {
        "prompt_tokens": 22843,
        "completion_tokens": 2225,
        "total_tokens": 25068
      },
      "model": "bedrock/converse/global.anthropic.claude-sonnet-5",
