{
  "summary": {
    "n_questions": 102,
    "model": null,
    "threshold": 0.85,
    "source_recall_avg": 0.799,
    "source_recall_by_category": {
      "concept": 1.0,
      "cross_domain": 0.52,
      "mixed": 0.84,
      "single_domain": 0.8333
    },
    "verdict": "FAIL",
    "top_k": 15,
    "hybrid": {
      "fusion": "rrf",
      "alpha": null
    }
  },
  "results": [
    {
      "id": "q01",
      "category": "single_domain",
      "question": "What is AETERM and what are its variable attributes in the AE domain?",
      "source_recall": 1.0,
      "source_hits": [
        "domains/AE/spec.md"
      ],
      "source_misses": [],
      "top5_sources": [
        "domains/AE/assumptions.md",
        "domains/AE/examples.md",
        "domains/FA/examples.md",
        "domains/AE/assumptions.md",
        "domains/DV/assumptions.md"
      ],
      "top5_similarities": [
        0.6641,
        0.5284,
        0.494,
        0.6105,
        8.4204
      ],
      "elapsed_s": 0.25
    },
    {
      "id": "q02",
      "category": "single_domain",
      "question": "What are the required (Core=Req) variables in the DM domain?",
      "source_recall": 0.0,
      "source_hits": [],
      "source_misses": [
        "domains/DM/spec.md"
      ],
      "top5_sources": [
        "chapters/ch04_general_assumptions.md",
        "chapters/ch04_general_assumptions.md",
        "domains/DM/assumptions.md",
        "model/01_concepts_and_terms.md",
        "domains/SV/spec.md"
      ],
      "top5_similarities": [
        0.5064,
        0.5671,
        0.6081,
        0.5049,
        0.4821
      ],
      "elapsed_s": 0.14
    },
    {
      "id": "q03",
      "category": "single_domain",
      "question": "What are the key assumptions for adverse event data collection and coding?",
      "source_recall": 1.0,
      "source_hits": [
        "domains/AE/assumptions.md"
      ],
      "source_misses": [],
      "top5_sources": [
        "domains/AE/assumptions.md",
        "domains/FA/examples.md",
        "domains/AE/assumptions.md",
        "domains/AE/assumptions.md",
        "domains/AE/assumptions.md"
      ],
      "top5_similarities": [
        0.5919,
        0.5041,
        0.5608,
        0.5755,
        0.5716
      ],
      "elapsed_s": 0.12
    },
    {
      "id": "q04",
      "category": "single_domain",
      "question": "What is the purpose of the TV (Trial Visits) domain and what variables does it contain?",
      "source_recall": 0.0,
      "source_hits": [],
      "source_misses": [
        "domains/TV/spec.md"
      ],
      "top5_sources": [
        "domains/SV/assumptions.md",
        "domains/TV/assumptions.md",
        "domains/TV/examples.md",
        "domains/TV/assumptions.md",
        "VARIABLE_INDEX.md"
      ],
      "top5_similarities": [
        0.6873,
        0.6384,
        0.6648,
        0.6176,
        0.6708
      ],
      "elapsed_s": 0.12
    },
    {
      "id": "q05",
      "category": "single_domain",
      "question": "In the PE (Physical Examination) domain, what is the structure of the dataset, what is the role of the PETESTCD variable, and what value should PETESTCD have when the results of the entire physical examination are represented in one record?",
      "source_recall": 1.0,
      "source_hits": [
        "domains/PE/spec.md"
      ],
      "source_misses": [],
      "top5_sources": [
        "domains/PE/spec.md",
        "domains/PE/spec.md",
        "VARIABLE_INDEX.md",
        "domains/PE/assumptions.md",
        "domains/PE/examples.md"
      ],
      "top5_similarities": [
        0.731,
        0.7026,
        0.6909,
        0.6232,
        0.6542
      ],
      "elapsed_s": 0.11
    },
    {
      "id": "q21",
      "category": "single_domain",
      "question": "What is the LBTESTCD variable in the LB (Laboratory Test Results) domain? Describe its role, controlled terminology codelist code, and naming constraints.",
      "source_recall": 1.0,
      "source_hits": [
        "domains/LB/spec.md"
      ],
      "source_misses": [],
      "top5_sources": [
        "domains/LB/spec.md",
        "domains/LB/assumptions.md",
        "domains/LB/examples.md",
        "domains/LB/assumptions.md",
        "domains/LB/spec.md"
      ],
      "top5_similarities": [
        0.7118,
        0.7499,
        0.6639,
        0.6253,
        0.7837
      ],
      "elapsed_s": 0.11
    },
    {
      "id": "q22",
      "category": "single_domain",
      "question": "What is the VS (Vital Signs) domain and what are some examples of VSTESTCD values? Include the codelist code.",
      "source_recall": 1.0,
      "source_hits": [
        "domains/VS/spec.md"
      ],
      "source_misses": [],
      "top5_sources": [
        "domains/VS/spec.md",
        "domains/VS/spec.md",
        "VARIABLE_INDEX.md",
        "domains/VS/assumptions.md",
        "domains/VS/assumptions.md"
      ],
      "top5_similarities": [
        0.7384,
        0.6467,
        0.6305,
        0.6914,
        0.6164
      ],
      "elapsed_s": 0.12
    },
    {
      "id": "q23",
      "category": "single_domain",
      "question": "In the CM (Concomitant Medications) domain, what is the CMTRT variable and what observation class does CM belong to?",
      "source_recall": 1.0,
      "source_hits": [
        "domains/CM/spec.md"
      ],
      "source_misses": [],
      "top5_sources": [
        "domains/CM/assumptions.md",
        "domains/CM/assumptions.md",
        "VARIABLE_INDEX.md",
        "domains/CM/assumptions.md",
        "domains/CM/examples.md"
      ],
      "top5_similarities": [
        0.6595,
        0.6281,
        0.5988,
        0.5731,
        0.5194
      ],
      "elapsed_s": 0.12
    },
    {
      "id": "q24",
      "category": "single_domain",
      "question": "What is the EX (Exposure) domain used for and what is the Topic variable EXTRT?",
      "source_recall": 0.0,
      "source_hits": [],
      "source_misses": [
        "domains/EX/spec.md"
      ],
      "top5_sources": [
        "domains/EX/assumptions.md",
        "domains/EX/assumptions.md",
        "domains/EX/assumptions.md",
        "domains/EX/assumptions.md",
        "VARIABLE_INDEX.md"
      ],
      "top5_similarities": [
        0.6559,
        0.6116,
        0.5522,
        0.6203,
        0.5671
      ],
      "elapsed_s": 0.12
    },
    {
      "id": "q25",
      "category": "single_domain",
      "question": "In the MH (Medical History) domain, what is the role of MHTERM and what assumptions guide medical history data collection?",
      "source_recall": 1.0,
      "source_hits": [
        "domains/MH/assumptions.md"
      ],
      "source_misses": [],
      "top5_sources": [
        "domains/MH/assumptions.md",
        "VARIABLE_INDEX.md",
        "domains/MH/assumptions.md",
        "domains/MH/examples.md",
        "domains/MH/examples.md"
      ],
      "top5_similarities": [
        0.7369,
        0.6858,
        0.6768,
        0.6213,
        0.6047
      ],
      "elapsed_s": 0.12
    },
    {
      "id": "q26",
      "category": "single_domain",
      "question": "Describe the EG (ECG Test Results) domain structure and the EGTESTCD variable, including its controlled terminology codelist codes.",
      "source_recall": 1.0,
      "source_hits": [
        "domains/EG/spec.md"
      ],
      "source_misses": [],
      "top5_sources": [
        "domains/EG/spec.md",
        "domains/EG/spec.md",
        "VARIABLE_INDEX.md",
        "domains/EG/examples.md",
        "domains/EG/examples.md"
      ],
      "top5_similarities": [
        0.7263,
        0.7253,
        0.6737,
        0.6063,
        0.6103
      ],
      "elapsed_s": 0.12
    },
    {
      "id": "q27",
      "category": "single_domain",
      "question": "What is the IE (Inclusion/Exclusion) domain and what is the role and maximum length of the IETEST variable?",
      "source_recall": 1.0,
      "source_hits": [
        "domains/IE/spec.md"
      ],
      "source_misses": [],
      "top5_sources": [
        "domains/TI/spec.md",
        "domains/IE/spec.md",
        "domains/TI/assumptions.md",
        "domains/IE/assumptions.md",
        "domains/IE/assumptions.md"
      ],
      "top5_similarities": [
        0.7161,
        0.6769,
        0.6678,
        0.6364,
        0.6552
      ],
      "elapsed_s": 0.11
    },
    {
      "id": "q06",
      "category": "cross_domain",
      "question": "What is SUPPQUAL and when should supplemental qualifiers be used instead of adding variables to a domain?",
      "source_recall": 0.0,
      "source_hits": [],
      "source_misses": [
        "domains/SUPPQUAL/spec.md"
      ],
      "top5_sources": [
        "domains/SUPPQUAL/assumptions.md",
        "chapters/ch08_relationships.md",
        "chapters/ch08_relationships.md",
        "chapters/ch08_relationships.md",
        "model/06_relationship_datasets.md"
      ],
      "top5_similarities": [
        0.7409,
        0.7302,
        0.6569,
        0.5621,
        0.7295
      ],
      "elapsed_s": 0.12
    },
    {
      "id": "q07",
      "category": "cross_domain",
      "question": "Which SDTM domains use the EPOCH variable and what is its purpose?",
      "source_recall": 0.0,
      "source_hits": [],
      "source_misses": [
        "VARIABLE_INDEX.md"
      ],
      "top5_sources": [
        "chapters/ch04_general_assumptions.md",
        "model/01_concepts_and_terms.md",
        "domains/SR/spec.md",
        "chapters/ch02_fundamentals.md",
        "domains/TA/assumptions.md"
      ],
      "top5_similarities": [
        0.7004,
        11.8134,
        0.6837,
        11.0386,
        0.6827
      ],
      "elapsed_s": 0.12
    },
    {
      "id": "q08",
      "category": "cross_domain",
      "question": "How does USUBJID serve as a linking key across SDTM domains?",
      "source_recall": 1.0,
      "source_hits": [
        "domains/DM/spec.md"
      ],
      "source_misses": [],
      "top5_sources": [
        "domains/SUPPQUAL/spec.md",
        "chapters/ch04_general_assumptions.md",
        "domains/DM/spec.md",
        "chapters/ch03_submitting_data.md",
        "domains/PP/spec.md"
      ],
      "top5_similarities": [
        0.7075,
        10.4468,
        0.6923,
        9.9812,
        0.6855
      ],
      "elapsed_s": 0.13
    },
    {
      "id": "q09",
      "category": "cross_domain",
      "question": "How are adverse events linked to concomitant medications using RELREC?",
      "source_recall": 0.0,
      "source_hits": [],
      "source_misses": [
        "domains/RELREC/spec.md"
      ],
      "top5_sources": [
        "chapters/ch08_relationships.md",
        "domains/RELREC/examples.md",
        "domains/RELREC/assumptions.md",
        "chapters/ch08_relationships.md",
        "domains/CM/assumptions.md"
      ],
      "top5_similarities": [
        0.6173,
        0.583,
        0.5376,
        0.5828,
        0.537
      ],
      "elapsed_s": 0.12
    },
    {
      "id": "q10",
      "category": "cross_domain",
      "question": "In oncology studies, how are the TR (Tumor/Lesion Results) domain and RS (Disease Response) domain linked together, and which specific identifier variables are used for each linkage direction?",
      "source_recall": 0.5,
      "source_hits": [
        "domains/TR/assumptions.md"
      ],
      "source_misses": [
        "domains/TR/spec.md"
      ],
      "top5_sources": [
        "domains/RS/assumptions.md",
        "domains/TR/assumptions.md",
        "domains/TR/assumptions.md",
        "domains/RS/assumptions.md",
        "domains/RS/assumptions.md"
      ],
      "top5_similarities": [
        0.713,
        0.7055,
        0.6926,
        0.7032,
        0.67
      ],
      "elapsed_s": 0.12
    },
    {
      "id": "q28",
      "category": "cross_domain",
      "question": "What is the FA (Findings About Events or Interventions) domain and how does it link to parent domains like AE or CM using FAOBJ?",
      "source_recall": 1.0,
      "source_hits": [
        "domains/FA/spec.md"
      ],
      "source_misses": [],
      "top5_sources": [
        "domains/FA/assumptions.md",
        "model/02_observation_classes.md",
        "chapters/ch08_relationships.md",
        "domains/FA/assumptions.md",
        "domains/AE/spec.md"
      ],
      "top5_similarities": [
        0.6937,
        0.6529,
        0.6031,
        0.6555,
        0.6388
      ],
      "elapsed_s": 0.11
    },
    {
      "id": "q29",
      "category": "cross_domain",
      "question": "How do the four Trial Design domains TA (Trial Arms), TE (Trial Elements), TV (Trial Visits), and TI (Trial Inclusion/Exclusion) work together to define a study design?",
      "source_recall": 1.0,
      "source_hits": [
        "domains/TA/assumptions.md",
        "domains/TE/assumptions.md"
      ],
      "source_misses": [],
      "top5_sources": [
        "domains/TA/spec.md",
        "domains/TV/spec.md",
        "domains/TE/assumptions.md",
        "domains/TA/assumptions.md",
        "domains/TE/spec.md"
      ],
      "top5_similarities": [
        0.7568,
        0.7534,
        0.7359,
        0.7245,
        0.7352
      ],
      "elapsed_s": 0.11
    },
    {
      "id": "q30",
      "category": "cross_domain",
      "question": "What is the CO (Comments) domain and how does it reference records in other SDTM domains? Describe the RDOMAIN and IDVAR mechanism.",
      "source_recall": 1.0,
      "source_hits": [
        "domains/CO/spec.md",
        "domains/CO/assumptions.md"
      ],
      "source_misses": [],
      "top5_sources": [
        "chapters/ch08_relationships.md",
        "domains/CO/assumptions.md",
        "domains/CO/assumptions.md",
        "model/03_special_purpose_domains.md",
        "model/01_concepts_and_terms.md"
      ],
      "top5_similarities": [
        0.6728,
        0.6876,
        0.7154,
        0.6819,
        0.6219
      ],
      "elapsed_s": 0.11
    },
    {
      "id": "q31",
      "category": "cross_domain",
      "question": "How are the EC (Exposure as Collected) and EX (Exposure) domains different in purpose, and when should each be used?",
      "source_recall": 1.0,
      "source_hits": [
        "domains/EC/assumptions.md"
      ],
      "source_misses": [],
      "top5_sources": [
        "domains/EX/assumptions.md",
        "domains/EC/assumptions.md",
        "domains/EX/assumptions.md",
        "domains/EX/spec.md",
        "domains/CM/spec.md"
      ],
      "top5_similarities": [
        0.7328,
        0.7317,
        0.5907,
        0.5962,
        0.5456
      ],
      "elapsed_s": 0.11
    },
    {
      "id": "q32",
      "category": "cross_domain",
      "question": "How is VISIT and VISITNUM used consistently across observation-class domains, and what role does the SV (Subject Visits) domain play in tracking actual visit dates?",
      "source_recall": 0.5,
      "source_hits": [
        "domains/SV/assumptions.md"
      ],
      "source_misses": [
        "domains/SV/spec.md"
      ],
      "top5_sources": [
        "model/03_special_purpose_domains.md",
        "chapters/ch04_general_assumptions.md",
        "domains/SV/assumptions.md",
        "domains/TV/assumptions.md",
        "domains/FA/spec.md"
      ],
      "top5_similarities": [
        0.7044,
        0.6665,
        0.6646,
        0.6997,
        0.6681
      ],
      "elapsed_s": 0.11
    },
    {
      "id": "q33",
      "category": "cross_domain",
      "question": "What is the RELSPEC domain and how does it define relationships between datasets at the study level, as opposed to RELREC which links individual records?",
      "source_recall": 0.0,
      "source_hits": [],
      "source_misses": [
        "domains/RELSPEC/spec.md"
      ],
      "top5_sources": [
        "domains/RELREC/assumptions.md",
        "chapters/ch08_relationships.md",
        "chapters/ch08_relationships.md",
        "model/06_relationship_datasets.md",
        "chapters/ch08_relationships.md"
      ],
      "top5_similarities": [
        0.7707,
        0.7621,
        0.7252,
        0.6774,
        0.7545
      ],
      "elapsed_s": 0.11
    },
    {
      "id": "q34",
      "category": "cross_domain",
      "question": "Which SDTM domains share the controlled terminology codelist for NY (No Yes Response, C66742), and what variable typically uses this codelist in those domains?",
      "source_recall": 0.0,
      "source_hits": [],
      "source_misses": [
        "VARIABLE_INDEX.md"
      ],
      "top5_sources": [
        "chapters/ch04_general_assumptions.md",
        "chapters/ch04_general_assumptions.md",
        "model/01_concepts_and_terms.md",
        "chapters/ch04_general_assumptions.md",
        "domains/RS/assumptions.md"
      ],
      "top5_similarities": [
        0.6157,
        0.6351,
        0.5697,
        0.5382,
        0.5548
      ],
      "elapsed_s": 0.12
    },
    {
      "id": "q11",
      "category": "concept",
      "question": "What are the three observation classes in the SDTM model?",
      "source_recall": 1.0,
      "source_hits": [
        "model/02_observation_classes.md"
      ],
      "source_misses": [],
      "top5_sources": [
        "model/01_concepts_and_terms.md",
        "model/02_observation_classes.md",
        "chapters/ch04_general_assumptions.md",
        "chapters/ch04_general_assumptions.md",
        "terminology/supplementary/supplementary_part5.md"
      ],
      "top5_similarities": [
        0.5632,
        0.7205,
        0.5452,
        0.5352,
        0.5473
      ],
      "elapsed_s": 0.12
    },
    {
      "id": "q12",
      "category": "concept",
      "question": "What do the Core designations Req, Exp, and Perm mean in SDTM?",
      "source_recall": 1.0,
      "source_hits": [
        "chapters/ch04"
      ],
      "source_misses": [],
      "top5_sources": [
        "chapters/ch04_general_assumptions.md",
        "VARIABLE_INDEX.md",
        "domains/SUPPQUAL/spec.md",
        "chapters/ch04_general_assumptions.md",
        "domains/CO/spec.md"
      ],
      "top5_similarities": [
        0.6571,
        0.5558,
        0.6055,
        5.7202,
        0.5926
      ],
      "elapsed_s": 0.12
    },
    {
      "id": "q13",
      "category": "concept",
      "question": "What is the difference between Topic, Qualifier, and Identifier variable roles?",
      "source_recall": 1.0,
      "source_hits": [
        "model/01_concepts_and_terms.md"
      ],
      "source_misses": [],
      "top5_sources": [
        "model/01_concepts_and_terms.md",
        "model/06_relationship_datasets.md",
        "chapters/ch08_relationships.md",
        "chapters/ch04_general_assumptions.md",
        "domains/ML/assumptions.md"
      ],
      "top5_similarities": [
        0.4934,
        0.4564,
        0.4718,
        0.526,
        0.5227
      ],
      "elapsed_s": 0.12
    },
    {
      "id": "q14",
      "category": "concept",
      "question": "How should a sponsor create a new custom domain in SDTM?",
      "source_recall": 1.0,
      "source_hits": [
        "chapters/ch02"
      ],
      "source_misses": [],
      "top5_sources": [
        "chapters/ch04_general_assumptions.md",
        "chapters/ch02_fundamentals.md",
        "chapters/ch01_introduction.md",
        "chapters/ch04_general_assumptions.md",
        "chapters/ch03_submitting_data.md"
      ],
      "top5_similarities": [
        0.6011,
        0.4731,
        0.4777,
        0.4946,
        0.4894
      ],
      "elapsed_s": 0.12
    },
    {
      "id": "q15",
      "category": "concept",
      "question": "What are the three SDTM Core designation categories for variables, and what are the rules for handling a Permissible variable when a study did not collect the corresponding data item?",
      "source_recall": 1.0,
      "source_hits": [
        "chapters/ch04_general_assumptions.md"
      ],
      "source_misses": [],
      "top5_sources": [
        "chapters/ch04_general_assumptions.md",
        "chapters/ch01_introduction.md",
        "chapters/ch04_general_assumptions.md",
        "chapters/ch04_general_assumptions.md",
        "model/01_concepts_and_terms.md"
      ],
      "top5_similarities": [
        0.7806,
        0.6228,
        0.5995,
        0.5964,
        0.6896
      ],
      "elapsed_s": 0.11
    },
    {
      "id": "q35",
      "category": "concept",
      "question": "What is Controlled Terminology (CT) in SDTM and how does it constrain the values that variables can contain?",
      "source_recall": 1.0,
      "source_hits": [
        "chapters/ch04"
      ],
      "source_misses": [],
      "top5_sources": [
        "chapters/ch04_general_assumptions.md",
        "chapters/ch04_general_assumptions.md",
        "model/01_concepts_and_terms.md",
        "model/01_concepts_and_terms.md",
        "chapters/ch10_appendices.md"
      ],
      "top5_similarities": [
        0.607,
        0.6771,
        0.6231,
        0.5926,
        0.6137
      ],
      "elapsed_s": 0.12
    },
    {
      "id": "q36",
      "category": "concept",
      "question": "What are the timing variables in SDTM (such as --DTC, --STDTC, --ENDTC) and how are they structured across domains?",
      "source_recall": 1.0,
      "source_hits": [
        "chapters/ch04"
      ],
      "source_misses": [],
      "top5_sources": [
        "chapters/ch04_general_assumptions.md",
        "model/01_concepts_and_terms.md",
        "chapters/ch04_general_assumptions.md",
        "model/02_observation_classes.md",
        "domains/BE/assumptions.md"
      ],
      "top5_similarities": [
        0.6533,
        0.7001,
        0.6573,
        0.6517,
        0.6647
      ],
      "elapsed_s": 0.12
    },
    {
      "id": "q37",
      "category": "concept",
      "question": "What are the Special-Purpose datasets in SDTM and which domains fall into this category?",
      "source_recall": 1.0,
      "source_hits": [
        "model/03_special_purpose_domains.md"
      ],
      "source_misses": [],
      "top5_sources": [
        "model/01_concepts_and_terms.md",
        "model/02_observation_classes.md",
        "model/03_special_purpose_domains.md",
        "chapters/ch04_general_assumptions.md",
        "chapters/ch04_general_assumptions.md"
      ],
      "top5_similarities": [
        0.666,
        0.6624,
        0.657,
        0.5978,
        0.6636
      ],
      "elapsed_s": 0.12
    },
    {
      "id": "q38",
      "category": "concept",
      "question": "How are SDTM domain abbreviation codes assigned? What are the rules for the two-character domain code?",
      "source_recall": 1.0,
      "source_hits": [
        "chapters/ch02"
      ],
      "source_misses": [],
      "top5_sources": [
        "chapters/ch04_general_assumptions.md",
        "domains/SV/spec.md",
        "domains/FT/spec.md",
        "domains/EX/spec.md",
        "domains/IE/spec.md"
      ],
      "top5_similarities": [
        0.6759,
        0.6703,
        0.6691,
        0.6691,
        0.6689
      ],
      "elapsed_s": 0.11
    },
    {
      "id": "q39",
      "category": "concept",
      "question": "What is the Findings About observation class and how does it differ from the standard Findings class?",
      "source_recall": 1.0,
      "source_hits": [
        "model/02_observation_classes.md"
      ],
      "source_misses": [],
      "top5_sources": [
        "domains/BS/spec.md",
        "chapters/ch08_relationships.md",
        "domains/CP/spec.md",
        "model/02_observation_classes.md",
        "domains/CV/spec.md"
      ],
      "top5_similarities": [
        0.7123,
        16.7017,
        0.7123,
        15.7114,
        0.7123
      ],
      "elapsed_s": 0.11
    },
    {
      "id": "q40",
      "category": "concept",
      "question": "What is the difference between collected data and derived data in SDTM, and how is the origin of a variable value indicated?",
      "source_recall": 1.0,
      "source_hits": [
        "chapters/ch04"
      ],
      "source_misses": [],
      "top5_sources": [
        "chapters/ch04_general_assumptions.md",
        "model/01_concepts_and_terms.md",
        "chapters/ch01_introduction.md",
        "model/06_relationship_datasets.md",
        "chapters/ch04_general_assumptions.md"
      ],
      "top5_similarities": [
        0.641,
        0.6331,
        0.5626,
        0.5606,
        0.5626
      ],
      "elapsed_s": 0.11
    },
    {
      "id": "q41",
      "category": "concept",
      "question": "What are the Trial Design Model datasets in SDTM and what kind of study-level information do they capture?",
      "source_recall": 1.0,
      "source_hits": [
        "model/05_study_level_data.md"
      ],
      "source_misses": [],
      "top5_sources": [
        "model/01_concepts_and_terms.md",
        "chapters/ch04_general_assumptions.md",
        "model/05_study_level_data.md",
        "domains/TA/assumptions.md",
        "domains/TI/assumptions.md"
      ],
      "top5_similarities": [
        0.6589,
        0.66,
        0.8164,
        0.6195,
        0.6483
      ],
      "elapsed_s": 0.12
    },
    {
      "id": "q16",
      "category": "mixed",
      "question": "What values are allowed for AESEV and what is its codelist code?",
      "source_recall": 0.5,
      "source_hits": [
        "domains/AE/spec.md"
      ],
      "source_misses": [
        "terminology/core/ae.md"
      ],
      "top5_sources": [
        "domains/AE/assumptions.md",
        "domains/DM/examples.md",
        "domains/AE/spec.md",
        "chapters/ch04_general_assumptions.md",
        "domains/AE/assumptions.md"
      ],
      "top5_similarities": [
        0.6134,
        8.5566,
        0.602,
        7.5799,
        0.54
      ],
      "elapsed_s": 0.12
    },
    {
      "id": "q17",
      "category": "mixed",
      "question": "How are date and time variables formatted in SDTM and what suffix do they use?",
      "source_recall": 1.0,
      "source_hits": [
        "chapters/ch04"
      ],
      "source_misses": [],
      "top5_sources": [
        "chapters/ch04_general_assumptions.md",
        "model/01_concepts_and_terms.md",
        "chapters/ch04_general_assumptions.md",
        "chapters/ch04_general_assumptions.md",
        "chapters/ch01_introduction.md"
      ],
      "top5_similarities": [
        0.763,
        0.6154,
        0.6041,
        0.5795,
        9.6467
      ],
      "elapsed_s": 0.11
    },
    {
      "id": "q18",
      "category": "mixed",
      "question": "Explain the MedDRA coding chain for adverse events from verbatim term to dictionary term.",
      "source_recall": 1.0,
      "source_hits": [
        "domains/AE/spec.md",
        "domains/AE/assumptions.md"
      ],
      "source_misses": [],
      "top5_sources": [
        "chapters/ch04_general_assumptions.md",
        "domains/AE/assumptions.md",
        "domains/MH/assumptions.md",
        "terminology/core/trial_design.md",
        "domains/CM/assumptions.md"
      ],
      "top5_similarities": [
        0.6726,
        0.6289,
        0.6303,
        0.6197,
        0.5839
      ],
      "elapsed_s": 0.11
    },
    {
      "id": "q19",
      "category": "mixed",
      "question": "What controlled terminology codelist is used for DSDECOD when DSCAT equals 'DISPOSITION EVENT', and list specific CDISC Submission Values from that codelist for reasons of non-completion.",
      "source_recall": 0.5,
      "source_hits": [
        "domains/DS/assumptions.md"
      ],
      "source_misses": [
        "terminology/core/disposition.md"
      ],
      "top5_sources": [
        "domains/DS/assumptions.md",
        "domains/DS/spec.md",
        "domains/DS/assumptions.md",
        "domains/DS/spec.md",
        "domains/DS/assumptions.md"
      ],
      "top5_similarities": [
        0.7554,
        0.8036,
        0.7186,
        0.7248,
        0.6564
      ],
      "elapsed_s": 0.12
    },
    {
      "id": "q20",
      "category": "mixed",
      "question": "In the DM domain, what is the difference between the RFSTDTC/RFENDTC reference period pair and the RFXSTDTC/RFXENDTC pair, and under what circumstances will RFSTDTC be null?",
      "source_recall": 1.0,
      "source_hits": [
        "domains/DM/assumptions.md",
        "domains/DM/spec.md"
      ],
      "source_misses": [],
      "top5_sources": [
        "domains/DM/assumptions.md",
        "domains/DM/assumptions.md",
        "domains/MH/spec.md",
        "domains/CE/spec.md",
        "domains/AG/spec.md"
      ],
      "top5_similarities": [
        0.6645,
        0.6585,
        0.5575,
        0.5342,
        0.5371
      ],
      "elapsed_s": 0.12
    },
    {
      "id": "q42",
      "category": "mixed",
      "question": "In the LB domain, how are normal ranges represented using LBORNRLO and LBORNRHI, and what is the LBNRIND variable used for?",
      "source_recall": 1.0,
      "source_hits": [
        "domains/LB/spec.md",
        "domains/LB/assumptions.md"
      ],
      "source_misses": [],
      "top5_sources": [
        "domains/LB/spec.md",
        "domains/LB/assumptions.md",
        "domains/LB/assumptions.md",
        "domains/LB/examples.md",
        "domains/IS/spec.md"
      ],
      "top5_similarities": [
        0.7713,
        0.764,
        0.7123,
        0.6051,
        0.6217
      ],
      "elapsed_s": 0.12
    },
    {
      "id": "q43",
      "category": "mixed",
      "question": "What is the controlled terminology codelist for the SEX variable in the DM domain? Provide the codelist code and describe the Core designation.",
      "source_recall": 1.0,
      "source_hits": [
        "domains/DM/spec.md"
      ],
      "source_misses": [],
      "top5_sources": [
        "chapters/ch04_general_assumptions.md",
        "domains/DM/spec.md",
        "chapters/ch04_general_assumptions.md",
        "domains/CE/spec.md",
        "domains/DS/spec.md"
      ],
      "top5_similarities": [
        0.633,
        0.6311,
        0.5852,
        0.6263,
        0.6522
      ],
      "elapsed_s": 0.11
    },
    {
      "id": "q44",
      "category": "mixed",
      "question": "In the VS domain, what is the controlled terminology codelist code for VSTESTCD, and give examples of standard vital signs test codes like systolic and diastolic blood pressure.",
      "source_recall": 1.0,
      "source_hits": [
        "domains/VS/spec.md"
      ],
      "source_misses": [],
      "top5_sources": [
        "domains/VS/spec.md",
        "domains/VS/spec.md",
        "domains/VS/spec.md",
        "VARIABLE_INDEX.md",
        "domains/VS/spec.md"
      ],
      "top5_similarities": [
        0.7284,
        0.6737,
        0.6183,
        0.5512,
        0.5547
      ],
      "elapsed_s": 0.11
    },
    {
      "id": "q45",
      "category": "mixed",
      "question": "What is the RACE variable in the DM domain, what codelist does it use, and what is its Core designation?",
      "source_recall": 1.0,
      "source_hits": [
        "domains/DM/spec.md"
      ],
      "source_misses": [],
      "top5_sources": [
        "domains/DM/examples.md",
        "domains/DM/examples.md",
        "domains/DM/assumptions.md",
        "domains/DM/examples.md",
        "domains/DM/spec.md"
      ],
      "top5_similarities": [
        0.5662,
        0.5707,
        0.6038,
        0.5065,
        0.6135
      ],
      "elapsed_s": 0.13
    },
    {
      "id": "q46",
      "category": "mixed",
      "question": "What is the AEOUT (Outcome of Adverse Event) variable in the AE domain and what controlled terminology codelist code does it use?",
      "source_recall": 1.0,
      "source_hits": [
        "domains/AE/spec.md"
      ],
      "source_misses": [],
      "top5_sources": [
        "domains/AE/spec.md",
        "domains/AE/spec.md",
        "VARIABLE_INDEX.md",
        "domains/AE/assumptions.md",
        "domains/AE/examples.md"
      ],
      "top5_similarities": [
        0.6582,
        0.7992,
        0.6157,
        0.7025,
        0.6051
      ],
      "elapsed_s": 0.13
    },
    {
      "id": "q47",
      "category": "mixed",
      "question": "How do QS (Questionnaires) domains handle instrument-specific variables using QSCAT, and what role does QSTESTCD play in organizing question-level data?",
      "source_recall": 1.0,
      "source_hits": [
        "domains/QS/spec.md",
        "domains/QS/assumptions.md"
      ],
      "source_misses": [],
      "top5_sources": [
        "chapters/ch04_general_assumptions.md",
        "chapters/ch08_relationships.md",
        "domains/SUPPQUAL/examples.md",
        "domains/QS/spec.md",
        "chapters/ch08_relationships.md"
      ],
      "top5_similarities": [
        0.6635,
        0.5798,
        0.6612,
        0.6923,
        0.5776
      ],
      "elapsed_s": 0.12
    },
    {
      "id": "q48",
      "category": "mixed",
      "question": "What is the FATESTCD variable's controlled terminology codelist code in the FA domain, and give examples of standard FA test codes?",
      "source_recall": 1.0,
      "source_hits": [
        "domains/FA/spec.md"
      ],
      "source_misses": [],
      "top5_sources": [
        "domains/FA/assumptions.md",
        "domains/FA/spec.md",
        "domains/FA/spec.md",
        "chapters/ch04_general_assumptions.md",
        "model/02_observation_classes.md"
      ],
      "top5_similarities": [
        0.6327,
        0.6766,
        0.678,
        0.5692,
        18.6187
      ],
      "elapsed_s": 0.12
    },
    {
      "id": "s01",
      "category": "single_domain",
      "question": "In the DM domain, what is the controlled terminology codelist code for the SEX variable, and what are its four permitted submission values?",
      "source_recall": 1.0,
      "source_hits": [
        "terminology/core/dm.md",
        "domains/DM/spec.md"
      ],
      "source_misses": [],
      "top5_sources": [
        "domains/DM/assumptions.md",
        "domains/DM/spec.md",
        "chapters/ch04_general_assumptions.md",
        "chapters/ch04_general_assumptions.md",
        "domains/LB/assumptions.md"
      ],
      "top5_similarities": [
        0.556,
        0.5862,
        0.5688,
        0.5936,
        0.5278
      ],
      "elapsed_s": 0.12
    },
    {
      "id": "s02",
      "category": "concept",
      "question": "What is the SUPPQUAL variable QNAM and what character constraints apply to it? What is the maximum length and what characters are allowed?",
      "source_recall": 1.0,
      "source_hits": [
        "domains/SUPPQUAL/spec.md",
        "model/06_relationship_datasets.md"
      ],
      "source_misses": [],
      "top5_sources": [
        "chapters/ch04_general_assumptions.md",
        "chapters/ch04_general_assumptions.md",
        "chapters/ch08_relationships.md",
        "chapters/ch04_general_assumptions.md",
        "chapters/ch08_relationships.md"
      ],
      "top5_similarities": [
        0.5437,
        0.5102,
        0.6731,
        0.5625,
        0.5951
      ],
      "elapsed_s": 0.11
    },
    {
      "id": "s03",
      "category": "cross_domain",
      "question": "The DM variable RFXSTDTC is defined as equal to the earliest value of which variable in the EX domain? Similarly, RFXENDTC is equal to the latest value of which EX variable (or which fallback variable if that is not collected)?",
      "source_recall": 1.0,
      "source_hits": [
        "domains/DM/spec.md",
        "domains/EX/spec.md"
      ],
      "source_misses": [],
      "top5_sources": [
        "domains/DM/spec.md",
        "domains/DM/assumptions.md",
        "domains/DM/spec.md",
        "domains/DM/spec.md",
        "domains/EX/assumptions.md"
      ],
      "top5_similarities": [
        0.6568,
        0.6371,
        0.6269,
        0.5537,
        0.5313
      ],
      "elapsed_s": 0.12
    },
    {
      "id": "s04",
      "category": "mixed",
      "question": "In the AE domain, what is the controlled terminology codelist code for the AEACN (Action Taken with Study Treatment) variable, and what ICH E2B example values does the CDISC Notes field list for this variable?",
      "source_recall": 0.5,
      "source_hits": [
        "domains/AE/spec.md"
      ],
      "source_misses": [
        "terminology/core/ae.md"
      ],
      "top5_sources": [
        "domains/AE/spec.md",
        "domains/AE/spec.md",
        "domains/AE/assumptions.md",
        "domains/AE/spec.md",
        "domains/IS/assumptions.md"
      ],
      "top5_similarities": [
        0.7623,
        0.681,
        0.676,
        0.6262,
        0.5957
      ],
      "elapsed_s": 0.11
    },
    {
      "id": "s05",
      "category": "single_domain",
      "question": "In the VS domain, what is the controlled terminology codelist code for the VSTESTCD variable? Name the codelist, state whether it is extensible, and give three example TESTCD values listed for blood pressure and heart rate.",
      "source_recall": 0.5,
      "source_hits": [
        "domains/VS/spec.md"
      ],
      "source_misses": [
        "terminology/core/vs.md"
      ],
      "top5_sources": [
        "domains/VS/spec.md",
        "chapters/ch04_general_assumptions.md",
        "chapters/ch04_general_assumptions.md",
        "domains/IS/assumptions.md",
        "domains/FT/assumptions.md"
      ],
      "top5_similarities": [
        0.6639,
        0.5932,
        0.5578,
        0.5883,
        0.554
      ],
      "elapsed_s": 0.12
    },
    {
      "id": "q54",
      "category": "single_domain",
      "question": "In the DV (Protocol Deviations) domain, which observation class does it belong to and what is the Topic variable DVTERM?",
      "source_recall": 1.0,
      "source_hits": [
        "domains/DV/spec.md"
      ],
      "source_misses": [],
      "top5_sources": [
        "domains/DV/assumptions.md",
        "VARIABLE_INDEX.md",
        "domains/DV/spec.md",
        "domains/DV/examples.md",
        "domains/DV/assumptions.md"
      ],
      "top5_similarities": [
        0.7551,
        0.6742,
        0.7536,
        0.6157,
        0.5634
      ],
      "elapsed_s": 0.13
    },
    {
      "id": "q55",
      "category": "single_domain",
      "question": "What is the structure and observation class of the DS (Disposition) domain, and what is the role of the DSTERM variable?",
      "source_recall": 1.0,
      "source_hits": [
        "domains/DS/spec.md"
      ],
      "source_misses": [],
      "top5_sources": [
        "domains/DS/assumptions.md",
        "VARIABLE_INDEX.md",
        "domains/DS/assumptions.md",
        "domains/DS/assumptions.md",
        "domains/DS/spec.md"
      ],
      "top5_similarities": [
        0.5828,
        0.6232,
        0.5974,
        0.5387,
        0.6292
      ],
      "elapsed_s": 0.11
    },
    {
      "id": "q56",
      "category": "single_domain",
      "question": "In the SU (Substance Use) domain, what observation class is it and what is the SUTRT variable?",
      "source_recall": 1.0,
      "source_hits": [
        "domains/SU/spec.md"
      ],
      "source_misses": [],
      "top5_sources": [
        "VARIABLE_INDEX.md",
        "domains/SU/assumptions.md",
        "domains/SU/assumptions.md",
        "domains/SU/examples.md",
        "domains/SU/assumptions.md"
      ],
      "top5_similarities": [
        0.6706,
        0.6671,
        0.6106,
        0.5999,
        0.6018
      ],
      "elapsed_s": 0.11
    },
    {
      "id": "q57",
      "category": "single_domain",
      "question": "What is the PR (Procedures) domain used for, and what is the PRTRT topic variable along with its Core designation?",
      "source_recall": 1.0,
      "source_hits": [
        "domains/PR/spec.md"
      ],
      "source_misses": [],
      "top5_sources": [
        "domains/PR/examples.md",
        "VARIABLE_INDEX.md",
        "domains/PR/assumptions.md",
        "domains/PR/examples.md",
        "domains/PR/spec.md"
      ],
      "top5_similarities": [
        0.5826,
        0.6309,
        0.6075,
        0.5466,
        0.7274
      ],
      "elapsed_s": 0.12
    },
    {
      "id": "q58",
      "category": "single_domain",
      "question": "Describe the TS (Trial Summary) domain structure and the TSPARMCD variable, including its controlled terminology codelist code and length limit.",
      "source_recall": 1.0,
      "source_hits": [
        "domains/TS/spec.md"
      ],
      "source_misses": [],
      "top5_sources": [
        "VARIABLE_INDEX.md",
        "domains/TS/spec.md",
        "model/05_study_level_data.md",
        "domains/TS/assumptions.md",
        "domains/TS/spec.md"
      ],
      "top5_similarities": [
        0.715,
        0.7561,
        0.5921,
        0.6527,
        0.7024
      ],
      "elapsed_s": 0.11
    },
    {
      "id": "q59",
      "category": "single_domain",
      "question": "In the DD (Death Details) domain, what is the DDTESTCD variable and its controlled terminology codelist code?",
      "source_recall": 1.0,
      "source_hits": [
        "domains/DD/spec.md"
      ],
      "source_misses": [],
      "top5_sources": [
        "domains/DD/spec.md",
        "VARIABLE_INDEX.md",
        "domains/DD/spec.md",
        "domains/DD/spec.md",
        "domains/DD/assumptions.md"
      ],
      "top5_similarities": [
        0.7584,
        0.6406,
        0.766,
        0.7599,
        0.6219
      ],
      "elapsed_s": 0.13
    },
    {
      "id": "q60",
      "category": "single_domain",
      "question": "What is the CE (Clinical Events) domain, which observation class does it belong to, and what is the CETERM variable?",
      "source_recall": 1.0,
      "source_hits": [
        "domains/CE/spec.md"
      ],
      "source_misses": [],
      "top5_sources": [
        "VARIABLE_INDEX.md",
        "domains/CE/assumptions.md",
        "domains/CE/assumptions.md",
        "domains/CE/examples.md",
        "domains/CE/examples.md"
      ],
      "top5_similarities": [
        0.6815,
        0.6588,
        0.6277,
        0.5964,
        0.5698
      ],
      "elapsed_s": 0.11
    },
    {
      "id": "q61",
      "category": "single_domain",
      "question": "In the MB (Microbiology Specimen) domain, what is the MBTESTCD variable, what observation class is MB, and what is the codelist code for MBTESTCD?",
      "source_recall": 1.0,
      "source_hits": [
        "domains/MB/spec.md"
      ],
      "source_misses": [],
      "top5_sources": [
        "domains/MB/assumptions.md",
        "domains/MB/examples.md",
        "VARIABLE_INDEX.md",
        "domains/MB/assumptions.md",
        "domains/MB/spec.md"
      ],
      "top5_similarities": [
        0.7557,
        0.6599,
        0.6529,
        0.6545,
        0.7117
      ],
      "elapsed_s": 0.12
    },
    {
      "id": "q62",
      "category": "single_domain",
      "question": "What is the SS (Subject Status) domain, what is the SSTESTCD variable, and what controlled terminology codelist does it use?",
      "source_recall": 1.0,
      "source_hits": [
        "domains/SS/spec.md"
      ],
      "source_misses": [],
      "top5_sources": [
        "domains/SS/spec.md",
        "VARIABLE_INDEX.md",
        "domains/SS/spec.md",
        "domains/SS/spec.md",
        "chapters/ch01_introduction.md"
      ],
      "top5_similarities": [
        0.7493,
        0.664,
        0.6925,
        0.6959,
        11.0422
      ],
      "elapsed_s": 0.12
    },
    {
      "id": "q63",
      "category": "single_domain",
      "question": "In the SC (Subject Characteristics) domain, what observation class is it and what is its dataset structure?",
      "source_recall": 1.0,
      "source_hits": [
        "domains/SC/spec.md"
      ],
      "source_misses": [],
      "top5_sources": [
        "domains/SC/assumptions.md",
        "domains/SC/examples.md",
        "domains/SC/assumptions.md",
        "chapters/ch08_relationships.md",
        "model/01_concepts_and_terms.md"
      ],
      "top5_similarities": [
        0.625,
        0.612,
        0.522,
        0.4999,
        0.5022
      ],
      "elapsed_s": 0.14
    },
    {
      "id": "q64",
      "category": "single_domain",
      "question": "What is the PC (Pharmacokinetics Concentrations) domain used for and what is the structure of one record in this dataset?",
      "source_recall": 0.0,
      "source_hits": [],
      "source_misses": [
        "domains/PC/spec.md"
      ],
      "top5_sources": [
        "domains/PC/assumptions.md",
        "chapters/ch08_relationships.md",
        "domains/PC/assumptions.md",
        "domains/PP/assumptions.md",
        "domains/CM/assumptions.md"
      ],
      "top5_similarities": [
        0.7165,
        0.5937,
        0.5979,
        0.5663,
        0.5517
      ],
      "elapsed_s": 0.12
    },
    {
      "id": "q65",
      "category": "single_domain",
      "question": "In the DA (Product Accountability) domain, what observation class does it belong to and what is the structure of the dataset?",
      "source_recall": 1.0,
      "source_hits": [
        "domains/DA/spec.md"
      ],
      "source_misses": [],
      "top5_sources": [
        "VARIABLE_INDEX.md",
        "chapters/ch08_relationships.md",
        "model/02_observation_classes.md",
        "domains/EC/assumptions.md",
        "chapters/ch03_submitting_data.md"
      ],
      "top5_similarities": [
        0.552,
        0.4883,
        0.5583,
        11.763,
        10.75
      ],
      "elapsed_s": 0.12
    },
    {
      "id": "q66",
      "category": "cross_domain",
      "question": "Which SDTM domains include the VISITNUM timing variable?",
      "source_recall": 0.0,
      "source_hits": [],
      "source_misses": [
        "VARIABLE_INDEX.md"
      ],
      "top5_sources": [
        "domains/EX/assumptions.md",
        "chapters/ch04_general_assumptions.md",
        "domains/SU/assumptions.md",
        "model/01_concepts_and_terms.md",
        "chapters/ch02_fundamentals.md"
      ],
      "top5_similarities": [
        0.6769,
        0.6828,
        0.685,
        11.1925,
        9.4093
      ],
      "elapsed_s": 0.12
    },
    {
      "id": "q67",
      "category": "cross_domain",
      "question": "Many SDTM variables use the No Yes Response codelist C66742. How many variables reference it and give some examples of AE seriousness variables that use it.",
      "source_recall": 0.0,
      "source_hits": [],
      "source_misses": [
        "VARIABLE_INDEX.md"
      ],
      "top5_sources": [
        "domains/AE/examples.md",
        "chapters/ch04_general_assumptions.md",
        "domains/AE/assumptions.md",
        "model/01_concepts_and_terms.md",
        "terminology/core/general_part4.md"
      ],
      "top5_similarities": [
        0.5542,
        0.5827,
        0.5127,
        0.5242,
        0.6495
      ],
      "elapsed_s": 0.11
    },
    {
      "id": "q68",
      "category": "cross_domain",
      "question": "Which domains use the Completion Status codelist (C66789) for their --STAT variable, and what does --STAT indicate?",
      "source_recall": 0.0,
      "source_hits": [],
      "source_misses": [
        "VARIABLE_INDEX.md"
      ],
      "top5_sources": [
        "domains/SS/spec.md",
        "domains/SC/spec.md",
        "domains/IS/spec.md",
        "domains/PC/spec.md",
        "domains/SR/spec.md"
      ],
      "top5_similarities": [
        0.685,
        0.6915,
        0.6622,
        0.6688,
        0.6392
      ],
      "elapsed_s": 0.12
    },
    {
      "id": "q69",
      "category": "cross_domain",
      "question": "The dose units codelist C71620 is shared across many Intervention and Findings domains. Which variables such as EXDOSU and CMDOSU reference it?",
      "source_recall": 1.0,
      "source_hits": [
        "VARIABLE_INDEX.md"
      ],
      "source_misses": [],
      "top5_sources": [
        "domains/CM/spec.md",
        "domains/EX/spec.md",
        "domains/CM/spec.md",
        "domains/CM/spec.md",
        "model/02_observation_classes.md"
      ],
      "top5_similarities": [
        0.7093,
        0.6827,
        0.6319,
        0.6777,
        13.2856
      ],
      "elapsed_s": 0.12
    },
    {
      "id": "q70",
      "category": "cross_domain",
      "question": "How is the RELSUB (Related Subjects) dataset used to represent relationships between two subjects, and what does the RSUBJID variable hold?",
      "source_recall": 1.0,
      "source_hits": [
        "domains/RELSUB/spec.md"
      ],
      "source_misses": [],
      "top5_sources": [
        "chapters/ch08_relationships.md",
        "domains/RELSUB/assumptions.md",
        "model/06_relationship_datasets.md",
        "domains/RELSUB/assumptions.md",
        "domains/RELSUB/assumptions.md"
      ],
      "top5_similarities": [
        0.7848,
        0.7269,
        0.7336,
        0.7736,
        0.7476
      ],
      "elapsed_s": 0.11
    },
    {
      "id": "q71",
      "category": "cross_domain",
      "question": "What is the EVAL (Evaluator) codelist C78735 and which domains' --EVAL variables share it?",
      "source_recall": 0.0,
      "source_hits": [],
      "source_misses": [
        "VARIABLE_INDEX.md"
      ],
      "top5_sources": [
        "domains/CO/spec.md",
        "domains/TU/spec.md",
        "domains/CO/spec.md",
        "domains/CO/spec.md",
        "chapters/ch04_general_assumptions.md"
      ],
      "top5_similarities": [
        0.6115,
        0.581,
        0.6168,
        0.6093,
        0.5319
      ],
      "elapsed_s": 0.11
    },
    {
      "id": "q72",
      "category": "cross_domain",
      "question": "How do the PC (Pharmacokinetics Concentrations) and PP (Pharmacokinetic Parameters) domains relate to each other, and why are they kept as two separate domains?",
      "source_recall": 1.0,
      "source_hits": [
        "chapters/ch08_relationships.md"
      ],
      "source_misses": [],
      "top5_sources": [
        "domains/PC/assumptions.md",
        "domains/PC/assumptions.md",
        "domains/PC/assumptions.md",
        "domains/PC/examples.md",
        "chapters/ch08_relationships.md"
      ],
      "top5_similarities": [
        0.733,
        0.6403,
        0.5665,
        0.5971,
        0.5643
      ],
      "elapsed_s": 0.12
    },
    {
      "id": "q73",
      "category": "cross_domain",
      "question": "Which special-purpose and relationship domains carry the RDOMAIN variable, and what does RDOMAIN identify?",
      "source_recall": 0.0,
      "source_hits": [],
      "source_misses": [
        "model/06_relationship_datasets.md"
      ],
      "top5_sources": [
        "domains/RELREC/spec.md",
        "chapters/ch08_relationships.md",
        "domains/SUPPQUAL/spec.md",
        "domains/RELREC/assumptions.md",
        "domains/CO/spec.md"
      ],
      "top5_similarities": [
        0.7528,
        17.7327,
        0.7491,
        16.2389,
        0.7256
      ],
      "elapsed_s": 0.12
    },
    {
      "id": "q74",
      "category": "cross_domain",
      "question": "How are Supplemental Qualifier datasets named per parent domain (for example for AE and CM), and what variable ties each SUPP-- record back to its parent domain?",
      "source_recall": 1.0,
      "source_hits": [
        "model/06_relationship_datasets.md"
      ],
      "source_misses": [],
      "top5_sources": [
        "model/06_relationship_datasets.md",
        "domains/SUPPQUAL/assumptions.md",
        "chapters/ch08_relationships.md",
        "chapters/ch08_relationships.md",
        "chapters/ch08_relationships.md"
      ],
      "top5_similarities": [
        0.8137,
        0.7436,
        0.7453,
        0.7403,
        0.7655
      ],
      "elapsed_s": 0.11
    },
    {
      "id": "q75",
      "category": "cross_domain",
      "question": "In SDTM, which identifier variables besides USUBJID can identify the source of a record across the general observation classes (for example for pooled or device data)?",
      "source_recall": 1.0,
      "source_hits": [
        "model/02_observation_classes.md"
      ],
      "source_misses": [],
      "top5_sources": [
        "model/02_observation_classes.md",
        "model/02_observation_classes.md",
        "domains/SUPPQUAL/spec.md",
        "model/01_concepts_and_terms.md",
        "domains/RELSUB/spec.md"
      ],
      "top5_similarities": [
        0.6708,
        0.6648,
        0.6786,
        21.0629,
        0.6767
      ],
      "elapsed_s": 0.12
    },
    {
      "id": "q76",
      "category": "cross_domain",
      "question": "How do the AP (Associated Persons) domains link non-subject persons back to study subjects, and what role do RSUBJID and SREL play?",
      "source_recall": 1.0,
      "source_hits": [
        "model/04_associated_persons.md"
      ],
      "source_misses": [],
      "top5_sources": [
        "model/06_relationship_datasets.md",
        "model/04_associated_persons.md",
        "chapters/ch08_relationships.md",
        "domains/RELSUB/assumptions.md",
        "model/06_relationship_datasets.md"
      ],
      "top5_similarities": [
        0.7014,
        0.6695,
        0.6671,
        0.6962,
        0.6385
      ],
      "elapsed_s": 0.13
    },
    {
      "id": "q77",
      "category": "cross_domain",
      "question": "The EPOCH timing variable appears in many domains. List several domains where EPOCH is used and state what kind of variable it is.",
      "source_recall": 0.0,
      "source_hits": [],
      "source_misses": [
        "VARIABLE_INDEX.md"
      ],
      "top5_sources": [
        "domains/TA/assumptions.md",
        "chapters/ch04_general_assumptions.md",
        "domains/SR/spec.md",
        "domains/TE/examples.md",
        "domains/UR/spec.md"
      ],
      "top5_similarities": [
        0.7118,
        0.6476,
        0.6753,
        13.9737,
        0.6749
      ],
      "elapsed_s": 0.11
    },
    {
      "id": "q78",
      "category": "concept",
      "question": "What are the rules for values of --TESTCD variables in SDTM? Describe the maximum length and which characters are allowed.",
      "source_recall": 1.0,
      "source_hits": [
        "chapters/ch04_general_assumptions.md"
      ],
      "source_misses": [],
      "top5_sources": [
        "chapters/ch04_general_assumptions.md",
        "chapters/ch04_general_assumptions.md",
        "chapters/ch04_general_assumptions.md",
        "domains/QS/assumptions.md",
        "domains/FT/assumptions.md"
      ],
      "top5_similarities": [
        0.6937,
        0.6892,
        0.615,
        0.5933,
        0.5933
      ],
      "elapsed_s": 0.12
    },
    {
      "id": "q79",
      "category": "concept",
      "question": "How does SDTM represent a missing value, and what should be done when a test is not performed?",
      "source_recall": 1.0,
      "source_hits": [
        "chapters/ch04_general_assumptions.md"
      ],
      "source_misses": [],
      "top5_sources": [
        "chapters/ch04_general_assumptions.md",
        "chapters/ch04_general_assumptions.md",
        "chapters/ch04_general_assumptions.md",
        "terminology/core/other_part4.md",
        "terminology/supplementary/supplementary_part5.md"
      ],
      "top5_similarities": [
        0.6134,
        0.5564,
        0.5115,
        0.5714,
        0.5688
      ],
      "elapsed_s": 0.11
    },
    {
      "id": "q80",
      "category": "concept",
      "question": "What is the convention for using 'Yes' and 'No' values in SDTM variables, and when is it acceptable to populate only one value?",
      "source_recall": 1.0,
      "source_hits": [
        "chapters/ch04_general_assumptions.md"
      ],
      "source_misses": [],
      "top5_sources": [
        "chapters/ch04_general_assumptions.md",
        "chapters/ch04_general_assumptions.md",
        "chapters/ch04_general_assumptions.md",
        "chapters/ch04_general_assumptions.md",
        "chapters/ch03_submitting_data.md"
      ],
      "top5_similarities": [
        0.6584,
        0.5395,
        0.5168,
        0.4937,
        0.5223
      ],
      "elapsed_s": 0.12
    },
    {
      "id": "q81",
      "category": "concept",
      "question": "What rules govern the two-character DOMAIN code in SDTM? What characters are allowed for the first and second characters?",
      "source_recall": 1.0,
      "source_hits": [
        "chapters/ch04_general_assumptions.md"
      ],
      "source_misses": [],
      "top5_sources": [
        "chapters/ch04_general_assumptions.md",
        "domains/TM/spec.md",
        "chapters/ch04_general_assumptions.md",
        "domains/DA/spec.md",
        "chapters/ch04_general_assumptions.md"
      ],
      "top5_similarities": [
        0.7129,
        0.6583,
        14.2372,
        0.6435,
        12.8348
      ],
      "elapsed_s": 0.12
    },
    {
      "id": "q82",
      "category": "concept",
      "question": "Which identifier variables are required in all domains based on the three general observation classes, and which subject-level identifier must each include?",
      "source_recall": 1.0,
      "source_hits": [
        "model/02_observation_classes.md"
      ],
      "source_misses": [],
      "top5_sources": [
        "model/02_observation_classes.md",
        "chapters/ch04_general_assumptions.md",
        "model/02_observation_classes.md",
        "chapters/ch04_general_assumptions.md",
        "domains/DM/assumptions.md"
      ],
      "top5_similarities": [
        0.7071,
        0.6441,
        0.6224,
        0.5653,
        0.5557
      ],
      "elapsed_s": 0.11
    },
    {
      "id": "q83",
      "category": "concept",
      "question": "What is RELREC and how is it used to relate records or datasets to one another in SDTM? What does the RDOMAIN variable do in RELREC?",
      "source_recall": 1.0,
      "source_hits": [
        "model/06_relationship_datasets.md"
      ],
      "source_misses": [],
      "top5_sources": [
        "domains/RELREC/assumptions.md",
        "chapters/ch08_relationships.md",
        "chapters/ch08_relationships.md",
        "model/06_relationship_datasets.md",
        "domains/TR/assumptions.md"
      ],
      "top5_similarities": [
        0.7576,
        0.7786,
        0.7543,
        0.6968,
        0.7004
      ],
      "elapsed_s": 0.11
    },
    {
      "id": "q84",
      "category": "concept",
      "question": "When deciding whether data belong to the Events, Interventions, or Findings observation class, what is the definition of an intervention versus an event?",
      "source_recall": 1.0,
      "source_hits": [
        "chapters/ch08_relationships.md"
      ],
      "source_misses": [],
      "top5_sources": [
        "chapters/ch08_relationships.md",
        "chapters/ch08_relationships.md",
        "chapters/ch04_general_assumptions.md",
        "domains/FA/assumptions.md",
        "domains/FA/assumptions.md"
      ],
      "top5_similarities": [
        0.6892,
        0.6095,
        0.5137,
        0.6076,
        0.5521
      ],
      "elapsed_s": 0.12
    },
    {
      "id": "q85",
      "category": "concept",
      "question": "What are Associated Persons in SDTM, and how are AP domains named relative to the standard domain codes?",
      "source_recall": 1.0,
      "source_hits": [
        "model/04_associated_persons.md"
      ],
      "source_misses": [],
      "top5_sources": [
        "model/04_associated_persons.md",
        "chapters/ch04_general_assumptions.md",
        "chapters/ch01_introduction.md",
        "model/01_concepts_and_terms.md",
        "chapters/ch02_fundamentals.md"
      ],
      "top5_similarities": [
        0.7784,
        0.5731,
        0.5322,
        0.5676,
        0.5432
      ],
      "elapsed_s": 0.12
    },
    {
      "id": "q86",
      "category": "concept",
      "question": "What is an Expected (Exp) Core variable in SDTM, and what must be done in the Define-XML when a study does not collect the data item for an Expected variable?",
      "source_recall": 1.0,
      "source_hits": [
        "chapters/ch04_general_assumptions.md"
      ],
      "source_misses": [],
      "top5_sources": [
        "chapters/ch04_general_assumptions.md",
        "chapters/ch04_general_assumptions.md",
        "model/01_concepts_and_terms.md",
        "chapters/ch03_submitting_data.md",
        "domains/AE/assumptions.md"
      ],
      "top5_similarities": [
        0.7307,
        0.5805,
        0.5625,
        0.5376,
        0.492
      ],
      "elapsed_s": 0.12
    },
    {
      "id": "q87",
      "category": "concept",
      "question": "How does SDTM decide whether assessments of an event should be stored as Supplemental Qualifiers versus in the Findings About (FA) domain?",
      "source_recall": 1.0,
      "source_hits": [
        "chapters/ch08_relationships.md"
      ],
      "source_misses": [],
      "top5_sources": [
        "domains/FA/assumptions.md",
        "chapters/ch08_relationships.md",
        "chapters/ch02_fundamentals.md",
        "model/02_observation_classes.md",
        "domains/SUPPQUAL/assumptions.md"
      ],
      "top5_similarities": [
        0.7222,
        0.6814,
        0.6963,
        0.643,
        0.6604
      ],
      "elapsed_s": 0.12
    },
    {
      "id": "q88",
      "category": "concept",
      "question": "What distinguishes ETCD, TSPARMCD, and ARMCD from --TESTCD with respect to character restrictions and maximum lengths in SDTM?",
      "source_recall": 1.0,
      "source_hits": [
        "chapters/ch04_general_assumptions.md"
      ],
      "source_misses": [],
      "top5_sources": [
        "domains/DM/spec.md",
        "chapters/ch04_general_assumptions.md",
        "domains/TA/spec.md",
        "domains/TS/spec.md",
        "domains/DM/spec.md"
      ],
      "top5_similarities": [
        0.6434,
        0.6025,
        0.6254,
        0.6624,
        0.6089
      ],
      "elapsed_s": 0.15
    },
    {
      "id": "q89",
      "category": "concept",
      "question": "What are the timing variables grouped under Relative Timing in SDTM (such as --STRF, --ENRF, --STRTPT, --ENRTPT) and what kinds of values do they take?",
      "source_recall": 1.0,
      "source_hits": [
        "model/02_observation_classes.md",
        "chapters/ch04_general_assumptions.md"
      ],
      "source_misses": [],
      "top5_sources": [
        "chapters/ch04_general_assumptions.md",
        "model/02_observation_classes.md",
        "domains/SV/assumptions.md",
        "chapters/ch04_general_assumptions.md",
        "domains/SU/spec.md"
      ],
      "top5_similarities": [
        0.713,
        0.638,
        0.6002,
        0.6249,
        0.5948
      ],
      "elapsed_s": 0.13
    },
    {
      "id": "q90",
      "category": "mixed",
      "question": "In the EX (Exposure) domain, what is the EXROUTE variable and its controlled terminology codelist code, and list some parenteral route-of-administration values from that codelist (for example routes administered under the skin or into a muscle).",
      "source_recall": 1.0,
      "source_hits": [
        "domains/EX/spec.md",
        "terminology/core/interventions.md"
      ],
      "source_misses": [],
      "top5_sources": [
        "domains/EX/examples.md",
        "domains/EX/spec.md",
        "domains/EX/assumptions.md",
        "domains/EX/spec.md",
        "domains/EX/assumptions.md"
      ],
      "top5_similarities": [
        0.5685,
        0.6862,
        0.5878,
        0.631,
        0.5233
      ],
      "elapsed_s": 0.14
    },
    {
      "id": "q91",
      "category": "mixed",
      "question": "In the DS (Disposition) domain, which codelist does DSDECOD use for disposition events, and what are some reason-for-non-completion values from that codelist (for example a subject-initiated withdrawal or a physician's decision)?",
      "source_recall": 1.0,
      "source_hits": [
        "domains/DS/spec.md",
        "terminology/core/disposition.md"
      ],
      "source_misses": [],
      "top5_sources": [
        "domains/DS/assumptions.md",
        "domains/DS/spec.md",
        "domains/DS/assumptions.md",
        "domains/DS/spec.md",
        "domains/DS/assumptions.md"
      ],
      "top5_similarities": [
        0.7319,
        0.7472,
        0.6143,
        0.6825,
        0.6611
      ],
      "elapsed_s": 0.12
    },
    {
      "id": "q92",
      "category": "mixed",
      "question": "What is the ETHNIC variable in the DM domain, what controlled terminology codelist code does it use, and what are its permitted values?",
      "source_recall": 0.5,
      "source_hits": [
        "domains/DM/spec.md"
      ],
      "source_misses": [
        "terminology/core/dm.md"
      ],
      "top5_sources": [
        "domains/DM/spec.md",
        "domains/DM/assumptions.md",
        "chapters/ch04_general_assumptions.md",
        "chapters/ch04_general_assumptions.md",
        "domains/DM/examples.md"
      ],
      "top5_similarities": [
        0.5401,
        0.5725,
        0.5587,
        0.5367,
        0.5328
      ],
      "elapsed_s": 0.12
    },
    {
      "id": "q93",
      "category": "mixed",
      "question": "In the EX domain, what is the EXDOSFRM (Dose Form) variable and its controlled terminology codelist code, and give some dose-form values from that codelist (for example a solid oral shell form or a sterile parenteral form)?",
      "source_recall": 1.0,
      "source_hits": [
        "domains/EX/spec.md",
        "terminology/core/interventions.md"
      ],
      "source_misses": [],
      "top5_sources": [
        "domains/EX/spec.md",
        "domains/EC/spec.md",
        "domains/CM/spec.md",
        "domains/ML/spec.md",
        "domains/PR/spec.md"
      ],
      "top5_similarities": [
        0.7833,
        0.7138,
        0.6844,
        0.6295,
        0.6285
      ],
      "elapsed_s": 0.12
    },
    {
      "id": "q94",
      "category": "mixed",
      "question": "How does the LB domain distinguish the original result LBORRES from the standardized result LBSTRESC, what codelist does LBSTRESC reference, and what are some of the standard result values in that codelist (for example for positive/negative findings)?",
      "source_recall": 0.5,
      "source_hits": [
        "domains/LB/spec.md"
      ],
      "source_misses": [
        "terminology/core/lb_part4.md"
      ],
      "top5_sources": [
        "domains/LB/spec.md",
        "domains/LB/examples.md",
        "domains/LB/spec.md",
        "domains/LB/examples.md",
        "VARIABLE_INDEX.md"
      ],
      "top5_similarities": [
        0.7761,
        0.6411,
        0.6766,
        0.6406,
        0.5946
      ],
      "elapsed_s": 0.12
    },
    {
      "id": "q95",
      "category": "mixed",
      "question": "In the DD (Death Details) domain, what is the DDTEST variable and its controlled terminology codelist code, and what are some of the test names defined in that codelist (for example relating to cause of death or age at death)?",
      "source_recall": 1.0,
      "source_hits": [
        "domains/DD/spec.md",
        "terminology/core/other_part4.md"
      ],
      "source_misses": [],
      "top5_sources": [
        "domains/DD/spec.md",
        "domains/DD/spec.md",
        "terminology/core/other_part4.md",
        "terminology/core/other_part4.md",
        "VARIABLE_INDEX.md"
      ],
      "top5_similarities": [
        0.7643,
        0.7509,
        0.6729,
        0.6619,
        0.6722
      ],
      "elapsed_s": 0.12
    },
    {
      "id": "q96",
      "category": "mixed",
      "question": "In the FA (Findings About) domain, what is the FATEST variable and its controlled terminology codelist code, and give some example test names from that codelist (such as Diameter or Cumulative Exposure)?",
      "source_recall": 0.5,
      "source_hits": [
        "domains/FA/spec.md"
      ],
      "source_misses": [
        "terminology/core/findings_about.md"
      ],
      "top5_sources": [
        "domains/FA/assumptions.md",
        "domains/FA/spec.md",
        "model/02_observation_classes.md",
        "domains/FA/spec.md",
        "domains/FA/spec.md"
      ],
      "top5_similarities": [
        0.7102,
        0.7232,
        0.5997,
        0.6545,
        0.7015
      ],
      "elapsed_s": 0.11
    },
    {
      "id": "q97",
      "category": "mixed",
      "question": "In the SS (Subject Status) domain, what is the SSSTRESC variable, what controlled terminology codelist does it use, and what are the standard subject-status result values in that codelist (such as for a living versus deceased subject)?",
      "source_recall": 1.0,
      "source_hits": [
        "domains/SS/spec.md",
        "terminology/core/other_part5.md"
      ],
      "source_misses": [],
      "top5_sources": [
        "domains/SS/spec.md",
        "VARIABLE_INDEX.md",
        "terminology/core/other_part5.md",
        "terminology/core/other_part5.md",
        "domains/SS/assumptions.md"
      ],
      "top5_similarities": [
        0.7309,
        0.6764,
        0.5847,
        0.5747,
        0.5833
      ],
      "elapsed_s": 0.11
    },
    {
      "id": "q98",
      "category": "mixed",
      "question": "In the CM (Concomitant Medications) domain, what is the CMDOSU (Dose Units) variable, what controlled terminology codelist does it use, and give some unit values from that codelist (for example an international unit or a milliequivalent)?",
      "source_recall": 1.0,
      "source_hits": [
        "domains/CM/spec.md",
        "terminology/core/general_part5.md"
      ],
      "source_misses": [],
      "top5_sources": [
        "domains/CM/assumptions.md",
        "VARIABLE_INDEX.md",
        "domains/CM/spec.md",
        "domains/LB/assumptions.md",
        "domains/CM/spec.md"
      ],
      "top5_similarities": [
        0.6795,
        0.6301,
        0.7977,
        21.1024,
        0.7219
      ],
      "elapsed_s": 0.11
    },
    {
      "id": "q99",
      "category": "mixed",
      "question": "In the QS (Questionnaires) domain, what is the QSCAT variable used for, what controlled terminology codelist does it reference, and give some example questionnaire short names from that codelist.",
      "source_recall": 0.5,
      "source_hits": [
        "domains/QS/spec.md"
      ],
      "source_misses": [
        "terminology/core/qs_part1.md"
      ],
      "top5_sources": [
        "domains/SUPPQUAL/examples.md",
        "domains/FT/assumptions.md",
        "domains/QS/assumptions.md",
        "chapters/ch04_general_assumptions.md",
        "chapters/ch08_relationships.md"
      ],
      "top5_similarities": [
        0.6848,
        0.701,
        0.701,
        0.6331,
        0.5929
      ],
      "elapsed_s": 0.12
    },
    {
      "id": "q100",
      "category": "single_domain",
      "question": "In the TA (Trial Arms) domain, what is the ARMCD variable's role and Core designation, and what is the ETCD variable used for?",
      "source_recall": 1.0,
      "source_hits": [
        "domains/TA/spec.md"
      ],
      "source_misses": [],
      "top5_sources": [
        "domains/DM/assumptions.md",
        "domains/TA/examples.md",
        "domains/DM/examples.md",
        "domains/DM/spec.md",
        "domains/TA/assumptions.md"
      ],
      "top5_similarities": [
        0.6754,
        0.6209,
        0.6491,
        0.6861,
        0.624
      ],
      "elapsed_s": 0.11
    },
    {
      "id": "q101",
      "category": "mixed",
      "question": "What is the TSPARM variable in the TS domain, what is its controlled terminology codelist code, and give some example trial summary parameter names defined in that codelist.",
      "source_recall": 0.5,
      "source_hits": [
        "domains/TS/spec.md"
      ],
      "source_misses": [
        "terminology/core/trial_design.md"
      ],
      "top5_sources": [
        "domains/TS/spec.md",
        "domains/TS/assumptions.md",
        "VARIABLE_INDEX.md",
        "domains/TS/spec.md",
        "domains/TS/spec.md"
      ],
      "top5_similarities": [
        0.7454,
        0.6272,
        0.6342,
        0.6961,
        0.7399
      ],
      "elapsed_s": 0.12
    },
    {
      "id": "q102",
      "category": "mixed",
      "question": "In the VS (Vital Signs) domain, what is the VSPOS variable, what controlled terminology codelist does it use, and list some subject-position values from that codelist (for example a face-down position or a semi-sitting bed position)?",
      "source_recall": 1.0,
      "source_hits": [
        "domains/VS/spec.md",
        "terminology/core/interventions.md"
      ],
      "source_misses": [],
      "top5_sources": [
        "domains/VS/spec.md",
        "domains/VS/spec.md",
        "VARIABLE_INDEX.md",
        "terminology/core/interventions.md",
        "domains/CV/spec.md"
      ],
      "top5_similarities": [
        0.756,
        0.6601,
        0.5644,
        0.5398,
        0.6317
      ],
      "elapsed_s": 0.12
    }
  ]
}