{"pdf_atom_id": "ig34_p0402_a005", "atom_type": "HEADING", "pdf_page": 402, "pdf_parent_section": "§7.2.1 Trial Arms (TA)", "pdf_verbatim": "7.2.1.1 Trial Arms Issues", "p4a_verdict": "EQUIVALENT", "p4a_similarity_score": 1.0, "p4a_discrepancy": null, "md_candidates": [{"md_atom_id": "md_dmTA_ex_a252", "md_file": "knowledge_base/domains/TA/examples.md", "md_parent_section": "§TA [TA — Examples]", "md_verbatim": "## Trial Arms Issues"}]}
{"pdf_atom_id": "ig34_p0051_a009", "atom_type": "HEADING", "pdf_page": 51, "pdf_parent_section": "§4.5.1.1 [Original and Standardized Results]", "pdf_verbatim": "4.5.1.1 Original and Standardized Results", "p4a_verdict": "EQUIVALENT", "p4a_similarity_score": 0.9, "p4a_discrepancy": null, "md_candidates": [{"md_atom_id": "md_ch04_a815", "md_file": "knowledge_base/chapters/ch04_general_assumptions.md", "md_parent_section": "§4.5 [Other Assumptions]", "md_verbatim": "### 4.5.1 Original and Standardized Results"}]}
{"pdf_atom_id": "ig34_p0017_a019", "atom_type": "HEADING", "pdf_page": 17, "pdf_parent_section": "§3.2.1 Dataset-level Metadata", "pdf_verbatim": "3.2.1 Dataset-level Metadata", "p4a_verdict": "EXACT", "p4a_similarity_score": 0.9, "p4a_discrepancy": null, "md_candidates": [{"md_atom_id": "md_ch03_a021", "md_file": "knowledge_base/chapters/ch03_submitting_data.md", "md_parent_section": "§3.2 [Using the CDISC Domain Models in Regulatory Submissions — Dataset Metadata]", "md_verbatim": "### 3.2.1 Dataset-level Metadata"}]}
{"pdf_atom_id": "ig34_p0443_a002", "atom_type": "HEADING", "pdf_page": 443, "pdf_parent_section": "§9.2 Non-host Organism Identifiers (OI)", "pdf_verbatim": "OI – Assumptions", "p4a_verdict": "EXACT", "p4a_similarity_score": 1.0, "p4a_discrepancy": null, "md_candidates": [{"md_atom_id": "md_dmOI_assn_a001", "md_file": "knowledge_base/domains/OI/assumptions.md", "md_parent_section": "§OI [OI — Assumptions]", "md_verbatim": "# OI — Assumptions"}]}
{"pdf_atom_id": "ig34_p0148_a010", "atom_type": "HEADING", "pdf_page": 148, "pdf_parent_section": "§6.2.2 [Biospecimen Events (BE)]", "pdf_verbatim": "References", "p4a_verdict": "INTENTIONAL_EXCLUDE", "p4a_similarity_score": 0.4, "p4a_discrepancy": null, "md_candidates": []}
{"pdf_atom_id": "ig34_p0124_a006", "atom_type": "HEADING", "pdf_page": 124, "pdf_parent_section": "§6.1.4 [Meal Data (ML)]", "pdf_verbatim": "Example 2", "p4a_verdict": "EXACT", "p4a_similarity_score": 1.0, "p4a_discrepancy": null, "md_candidates": [{"md_atom_id": "md_dmML_ex_a031", "md_file": "knowledge_base/domains/ML/examples.md", "md_parent_section": "§ML [ML — Examples]", "md_verbatim": "## Example 2"}]}
{"pdf_atom_id": "ig34_p0112_a006", "atom_type": "HEADING", "pdf_page": 112, "pdf_parent_section": "§6.1.3.3 [Exposure/Exposure as Collected Examples]", "pdf_verbatim": "Example 2", "p4a_verdict": "EQUIVALENT", "p4a_similarity_score": 0.9, "p4a_discrepancy": null, "md_candidates": [{"md_atom_id": "md_dmCM_ex_a002", "md_file": "knowledge_base/domains/CM/examples.md", "md_parent_section": "§CM.1 [Example 1]", "md_verbatim": "## Example 1"}, {"md_atom_id": "md_dmCM_ex_a022", "md_file": "knowledge_base/domains/CM/examples.md", "md_parent_section": "§CM.2 [Example 2]", "md_verbatim": "## Example 2"}, {"md_atom_id": "md_dmCM_ex_a029", "md_file": "knowledge_base/domains/CM/examples.md", "md_parent_section": "§CM.3 [Example 3]", "md_verbatim": "## Example 3"}]}
{"pdf_atom_id": "ig34_p0062_a019", "atom_type": "HEADING", "pdf_page": 62, "pdf_parent_section": "§5.2 [Demographics (DM)]", "pdf_verbatim": "dm.xpt, Demographics — Special Purpose. One record per subject, Tabulation.", "p4a_verdict": "MISSING", "p4a_similarity_score": null, "p4a_discrepancy": null, "md_candidates": []}
{"pdf_atom_id": "ig34_p0440_a006", "atom_type": "HEADING", "pdf_page": 440, "pdf_parent_section": "RELSPEC – Examples", "pdf_verbatim": "Example 1", "p4a_verdict": "EXACT", "p4a_similarity_score": 1.0, "p4a_discrepancy": null, "md_candidates": [{"md_atom_id": "md_dmRELSPEC_ex_a002", "md_file": "knowledge_base/domains/RELSPEC/examples.md", "md_parent_section": "§RELSPEC [RELSPEC — Examples]", "md_verbatim": "## Example 1"}]}
{"pdf_atom_id": "ig34_p0047_a014", "atom_type": "HEADING", "pdf_page": 47, "pdf_parent_section": "§4.4.10 [Representing Time Points]", "pdf_verbatim": "Option 1", "p4a_verdict": "MISSING", "p4a_similarity_score": null, "p4a_discrepancy": "HEADING 'Option 1' (standalone) not present as a heading in KB; top score 0.4385 in different section", "md_candidates": []}
{"pdf_atom_id": "ig34_p0415_a002", "atom_type": "HEADING", "pdf_page": 415, "pdf_parent_section": "§7.3.3 Trial Disease Milestones (TM)", "pdf_verbatim": "TM – Description/Overview", "p4a_verdict": "MISSING", "p4a_similarity_score": 0.4857, "p4a_discrepancy": "No KB candidate contains a 'TM – Description/Overview' heading.", "md_candidates": []}
{"pdf_atom_id": "ig34_p0442_a002", "atom_type": "HEADING", "pdf_page": 442, "pdf_parent_section": "§9.2 Non-host Organism Identifiers (OI)", "pdf_verbatim": "OI – Description/Overview", "p4a_verdict": "PARTIAL", "p4a_similarity_score": 0.4857, "p4a_discrepancy": "PDF heading 'OI – Description/Overview' maps to assumptions heading; no dedicated Description/Overview heading in MD", "md_candidates": [{"md_atom_id": "md_dmOI_assn_a001", "md_file": "knowledge_base/domains/OI/assumptions.md", "md_parent_section": "§OI [OI — Assumptions]", "md_verbatim": "# OI — Assumptions"}]}
{"pdf_atom_id": "ig34_p0334_a008", "atom_type": "HEADING", "pdf_page": 334, "pdf_parent_section": "§6.3.9.3.1 Disease Response Use Case", "pdf_verbatim": "Example 1", "p4a_verdict": "MISPLACED", "p4a_similarity_score": 0.9, "p4a_discrepancy": "MISPLACED: pdf §6.3.9.3.1 Disease Response Use Case vs md §CM.1 [Example 1]", "md_candidates": [{"md_atom_id": "md_dmCM_ex_a002", "md_file": "knowledge_base/domains/CM/examples.md", "md_parent_section": "§CM.1 [Example 1]", "md_verbatim": "## Example 1"}]}
{"pdf_atom_id": "ig34_p0040_a021", "atom_type": "HEADING", "pdf_page": 40, "pdf_parent_section": "§4.4.3 Intervals of Time and Use of Duration for --DUR Variables", "pdf_verbatim": "4.4.3 Intervals of Time and Use of Duration for --DUR Variables", "p4a_verdict": "EQUIVALENT", "p4a_similarity_score": 0.9, "p4a_discrepancy": null, "md_candidates": [{"md_atom_id": "md_ch04_a546", "md_file": "knowledge_base/chapters/ch04_general_assumptions.md", "md_parent_section": "§4.4 [Actual and Relative Time Assumptions]", "md_verbatim": "### 4.4.3 Intervals of Time and Use of Duration for --DUR Variables"}]}
{"pdf_atom_id": "ig34_p0361_a010", "atom_type": "HEADING", "pdf_page": 361, "pdf_parent_section": "§6 [DOMAIN MODELS]", "pdf_verbatim": "6.4 Findings About Events or Interventions", "p4a_verdict": "EQUIVALENT", "p4a_similarity_score": 0.9, "p4a_discrepancy": null, "md_candidates": [{"md_atom_id": "md_varindex_a547", "md_file": "knowledge_base/VARIABLE_INDEX.md", "md_parent_section": "§ 二、领域专属变量（仅 1 个域，共 1499 个），按域分组", "md_verbatim": "### FA — Findings About Events or Interventions (Findings About)"}]}
{"pdf_atom_id": "ig34_p0266_a001", "atom_type": "HEADING", "pdf_page": 266, "pdf_parent_section": "§6.3.5.8 Microscopic Findings (MI)", "pdf_verbatim": "MI – Examples", "p4a_verdict": "EXACT", "p4a_similarity_score": 1.0, "p4a_discrepancy": null, "md_candidates": [{"md_atom_id": "md_dmMI_ex_a001", "md_file": "knowledge_base/domains/MI/examples.md", "md_parent_section": "§MI [MI — Examples]", "md_verbatim": "# MI — Examples"}]}
{"pdf_atom_id": "ig34_p0022_a003", "atom_type": "HEADING", "pdf_page": 22, "pdf_parent_section": "§4.1.1 [Review Study Data Tabulation Model and Implementation Guide]", "pdf_verbatim": "4.1.1 Review Study Data Tabulation Model and Implementation Guide", "p4a_verdict": "EXACT", "p4a_similarity_score": 0.9, "p4a_discrepancy": null, "md_candidates": [{"md_atom_id": "md_ch04_a007", "md_file": "knowledge_base/chapters/ch04_general_assumptions.md", "md_parent_section": "§4.1 [General Domain Assumptions]", "md_verbatim": "### 4.1.1 Review Study Data Tabulation Model and Implementation Guide"}]}
{"pdf_atom_id": "ig34_p0022_a001", "atom_type": "HEADING", "pdf_page": 22, "pdf_parent_section": "§4 [Assumptions for Domain Models]", "pdf_verbatim": "4  Assumptions for Domain Models", "p4a_verdict": "EQUIVALENT", "p4a_similarity_score": 0.7, "p4a_discrepancy": null, "md_candidates": [{"md_atom_id": "md_ch04_a001", "md_file": "knowledge_base/chapters/ch04_general_assumptions.md", "md_parent_section": "§4 [Assumptions for Domain Models]", "md_verbatim": "# SDTMIG v3.4 — Chapter 4: Assumptions for Domain Models"}]}
{"pdf_atom_id": "ig34_p0043_a008", "atom_type": "HEADING", "pdf_page": 43, "pdf_parent_section": "§4.4.7 [Use of Relative Timing Variables]", "pdf_verbatim": "4.4.7 Use of Relative Timing Variables", "p4a_verdict": "EXACT", "p4a_similarity_score": 0.9, "p4a_discrepancy": null, "md_candidates": [{"md_atom_id": "md_ch04_a627", "md_file": "knowledge_base/chapters/ch04_general_assumptions.md", "md_parent_section": "§4.4 [Actual and Relative Time Assumptions]", "md_verbatim": "### 4.4.7 Use of Relative Timing Variables"}]}
{"pdf_atom_id": "ig34_p0111_a001", "atom_type": "HEADING", "pdf_page": 111, "pdf_parent_section": "§6.1.3 [Exposure Domains]", "pdf_verbatim": "6.1.3.3 Exposure/Exposure as Collected Examples", "p4a_verdict": "MISPLACED", "p4a_similarity_score": 0.56, "p4a_discrepancy": "MISPLACED: pdf §6.1.3 [Exposure Domains] vs md § 二、领域专属变量（仅 1 个域，共 1499 个），按域分组", "md_candidates": [{"md_atom_id": "md_varindex_a434", "md_file": "knowledge_base/VARIABLE_INDEX.md", "md_parent_section": "§ 二、领域专属变量（仅 1 个域，共 1499 个），按域分组", "md_verbatim": "### EC — Exposure as Collected (Interventions)"}]}
{"pdf_atom_id": "ig34_p0132_a015", "atom_type": "SENTENCE", "pdf_page": 132, "pdf_parent_section": "§6.1.6 [Substance Use (SU)]", "pdf_verbatim": "Row 2: Subject 1234005 drank 3 cups of coffee on the day of the assessment.", "p4a_verdict": "EXACT", "p4a_similarity_score": 1.0, "p4a_discrepancy": null, "md_candidates": [{"md_atom_id": "md_dmSU_ex_a014", "md_file": "knowledge_base/domains/SU/examples.md", "md_parent_section": "§SU.1 [Example 1]", "md_verbatim": "**Row 2:** Subject 1234005 drank 3 cups of coffee on the day of the assessment."}]}
{"pdf_atom_id": "ig34_p0429_a006", "atom_type": "SENTENCE", "pdf_page": 429, "pdf_parent_section": "§8.2 [RELATING PEER RECORDS]", "pdf_verbatim": "The value of RELID is chosen by the sponsor, but must be identical for all related records within USUBJID.", "p4a_verdict": "EXACT", "p4a_similarity_score": 0.9, "p4a_discrepancy": null, "md_candidates": [{"md_atom_id": "md_ch08_a057", "md_file": "knowledge_base/chapters/ch08_relationships.md", "md_parent_section": "§8.2 [Relating Peer Records]", "md_verbatim": "The value of RELID is chosen by the sponsor, but must be identical for all related records within USUBJID."}]}
{"pdf_atom_id": "sv20_p0068_a013", "atom_type": "SENTENCE", "pdf_page": 68, "pdf_parent_section": "§6.6 [Associated Persons Relationships]", "pdf_verbatim": "However, a single value in SREL is inadequate to describe relationships to multiple subjects or devices and/or multiple relationships to a single subject or device.", "p4a_verdict": "MISSING", "p4a_similarity_score": null, "p4a_discrepancy": null, "md_candidates": []}
{"pdf_atom_id": "ig34_p0020_a030", "atom_type": "SENTENCE", "pdf_page": 20, "pdf_parent_section": "§3.2.1.1 Primary Keys", "pdf_verbatim": "A surrogate key is a single-part, artificially established identifier for a record.", "p4a_verdict": "EQUIVALENT", "p4a_similarity_score": 0.391, "p4a_discrepancy": null, "md_candidates": [{"md_atom_id": "md_ch03_a101", "md_file": "knowledge_base/chapters/ch03_submitting_data.md", "md_parent_section": "§3.2.1.1 [Primary Keys]", "md_verbatim": "- A **surrogate key** is a single-part, artificially established identifier for a record. Surrogate key assignment is a special case of derived data, one where a portion of the primary key is derived. A surrogate key is immune to changes in business needs. In addition, the key depends on only 1 fiel"}]}
{"pdf_atom_id": "sv20_p0004_a016", "atom_type": "SENTENCE", "pdf_page": 4, "pdf_parent_section": "§1 [INTRODUCTION]", "pdf_verbatim": "The following implementation guides have been published by CDISC:", "p4a_verdict": "PARTIAL", "p4a_similarity_score": 0.4333, "p4a_discrepancy": "SDTM v2.0 lists IGs published by CDISC; KB provides list of specific IGs in context of SDTMIG v3.4", "md_candidates": [{"md_atom_id": "md_ch01_a087", "md_file": "knowledge_base/chapters/ch01_introduction.md", "md_parent_section": "§1.5 [Known Issues]", "md_verbatim": "The examples in SDTMIG v3.4 have not been systematically reviewed to implement this distinction."}]}
{"pdf_atom_id": "ig34_p0090_a004", "atom_type": "SENTENCE", "pdf_page": 90, "pdf_parent_section": "§5.5 [Subject Visits (SV)]", "pdf_verbatim": "As originally planned, visits were to be conducted in person, but epidemic disruption necessitated conducting some visits remotely.", "p4a_verdict": "EQUIVALENT", "p4a_similarity_score": 0.6656, "p4a_discrepancy": null, "md_candidates": [{"md_atom_id": "md_dmSV_ex_a034", "md_file": "knowledge_base/domains/SV/examples.md", "md_parent_section": "§SV.1 [Example 1]", "md_verbatim": "Because the study in this example was disrupted by an epidemic, the permissible variable SVEPCHGI (Epi/Pandemic Related Change Indicator) was included in the SV dataset. As originally planned, visits were to be conducted in person, but pandemic disruption included conducting some visits remotely. Wh"}]}
{"pdf_atom_id": "ig34_p0441_a010", "atom_type": "SENTENCE", "pdf_page": 441, "pdf_parent_section": "§9.1 Device Identifiers", "pdf_verbatim": "The SDTMIG-MD (available at https://www.cdisc.org/standards/foundational/medical-devices-sdtmig/) includes the DI domain specification and assumptions and provides examples of its use.", "p4a_verdict": "MISSING", "p4a_similarity_score": null, "p4a_discrepancy": null, "md_candidates": []}
{"pdf_atom_id": "ig34_p0372_a001", "atom_type": "SENTENCE", "pdf_page": 372, "pdf_parent_section": "FA – Examples", "pdf_verbatim": "The average duration of early morning stiffness would be represented in ISO 8601 duration format as a supplemental qualifier.", "p4a_verdict": "EXACT", "p4a_similarity_score": 1.0, "p4a_discrepancy": null, "md_candidates": [{"md_atom_id": "md_dmFA_ex_a078", "md_file": "knowledge_base/domains/FA/examples.md", "md_parent_section": "§FA.3 [Example 3]", "md_verbatim": "The average duration of early morning stiffness would be represented in ISO 8601 duration format as a supplemental qualifier."}]}
{"pdf_atom_id": "ig34_p0119_a010", "atom_type": "SENTENCE", "pdf_page": 119, "pdf_parent_section": "§6.1.3.3 [Exposure/Exposure as Collected Examples]", "pdf_verbatim": "The RELREC dataset represents relationships between EC, EX, and VS.", "p4a_verdict": "EXACT", "p4a_similarity_score": 0.9, "p4a_discrepancy": null, "md_candidates": [{"md_atom_id": "md_dmEX_ex_a241", "md_file": "knowledge_base/domains/EX/examples.md", "md_parent_section": "§EX.7 [Example 7]", "md_verbatim": "The RELREC dataset represents relationships between EC, EX, and VS."}]}
{"pdf_atom_id": "ig34_p0400_a005", "atom_type": "SENTENCE", "pdf_page": 400, "pdf_parent_section": "§7.2.1 Trial Arms (TA) – Example 7", "pdf_verbatim": "The second induction cycle is different for the 2 arms, since radiation therapy for those assigned to the non-surgery arm includes a \"boost\" which those assigned to the surgery arm do not receive.", "p4a_verdict": "EXACT", "p4a_similarity_score": 1.0, "p4a_discrepancy": null, "md_candidates": [{"md_atom_id": "md_dmTA_ex_a222", "md_file": "knowledge_base/domains/TA/examples.md", "md_parent_section": "§TA.7 [Example 7]", "md_verbatim": "The second induction cycle is different for the 2 arms, since radiation therapy for those assigned to the non-surgery arm includes a \"boost\" which those assigned to the surgery arm do not receive."}]}
{"pdf_atom_id": "sv20_p0051_a005", "atom_type": "SENTENCE", "pdf_page": 51, "pdf_parent_section": "§5.1 [The Trial Design Model]", "pdf_verbatim": "These include ways to represent:", "p4a_verdict": "EXACT", "p4a_similarity_score": 0.9, "p4a_discrepancy": null, "md_candidates": [{"md_atom_id": "md_model05_a007", "md_file": "knowledge_base/model/05_study_level_data.md", "md_parent_section": "§ 5.1 Trial Design Model", "md_verbatim": "These include ways to represent:"}]}
{"pdf_atom_id": "ig34_p0166_a0011", "atom_type": "SENTENCE", "pdf_page": 166, "pdf_parent_section": "§6.2.4 Disposition (DS)", "pdf_verbatim": "TAETORD values are not chronological for this arm such that elements with TAETORD values of \"2\" or \"5\" would be during \"Cycle 2\", elements with TAETORD values of \"3\" or \"6\" would be during \"Cycle 3\", and elements with TAETORD values of \"4\" or \"7\" would be during \"Cycle 4\".", "p4a_verdict": "EQUIVALENT", "p4a_similarity_score": 0.7267, "p4a_discrepancy": null, "md_candidates": [{"md_atom_id": "md_dmDS_ex_a218", "md_file": "knowledge_base/domains/DS/examples.md", "md_parent_section": "§DS.11 [Example 11]", "md_verbatim": "The TA dataset shows the trial design. The sponsor chose to number elements starting with zero for the screening element. For the AB arm, TAETORD values are not chronological for this arm such that elements with TAETORD values of \"2\" or \"5\" would be during \"Cycle 2\", elements with TAETORD values of "}]}
{"pdf_atom_id": "ig34_p0010_a022", "atom_type": "SENTENCE", "pdf_page": 10, "pdf_parent_section": "§1.5 [Known Issues]", "pdf_verbatim": "The definition of --LNKID says that it is \"used to identify a record,\" and the definition of --LNKGRP says that it is \"used to identify a group of records.\"", "p4a_verdict": "EQUIVALENT", "p4a_similarity_score": 0.8667, "p4a_discrepancy": null, "md_candidates": [{"md_atom_id": "md_ch01_a083", "md_file": "knowledge_base/chapters/ch01_introduction.md", "md_parent_section": "§1.5 [Known Issues]", "md_verbatim": "The definition of --LNKID says it is \"used to identify a record,\" and --LNKGRP says it is \"used to identify a group of records.\""}]}
{"pdf_atom_id": "ig34_p0061_a010", "atom_type": "SENTENCE", "pdf_page": 61, "pdf_parent_section": "§5.1 [Comments (CO)]", "pdf_verbatim": "CODTC should be null because the timing of the parent record(s) is inherited by the comment record. See Example 1, rows 3-5.", "p4a_verdict": "MISSING", "p4a_similarity_score": null, "p4a_discrepancy": null, "md_candidates": []}
{"pdf_atom_id": "ig34_p0375_a003", "atom_type": "SENTENCE", "pdf_page": 375, "pdf_parent_section": "FA – Examples", "pdf_verbatim": "In this example, the sponsor populated AESEV with the maximum severity over the course of the event. This was not directly collected, but rather determined from the weekly maximum severity assessments collected on the CRF. For clarity, only selected variables in the AE dataset are shown here.", "p4a_verdict": "EXACT", "p4a_similarity_score": 1.0, "p4a_discrepancy": null, "md_candidates": [{"md_atom_id": "md_dmFA_ex_a139", "md_file": "knowledge_base/domains/FA/examples.md", "md_parent_section": "§FA.6 [Example 6]", "md_verbatim": "In this example, the sponsor populated AESEV with the maximum severity over the course of the event. This was not directly collected, but rather determined from the weekly maximum severity assessments collected on the CRF. For clarity, only selected variables in the AE dataset are shown here."}]}
{"pdf_atom_id": "ig34_p0256_a019", "atom_type": "SENTENCE", "pdf_page": 256, "pdf_parent_section": "§6.3.5.7.3 Microbiology Specimen/Microbiology Susceptibility Examples", "pdf_verbatim": "Because an identified organism is the subject of the test, the NHOID variable is populated with \"ENTEROCOCCUS FAECALIS\".", "p4a_verdict": "EXACT", "p4a_similarity_score": 0.9, "p4a_discrepancy": null, "md_candidates": [{"md_atom_id": "md_dmMB_ex_a009", "md_file": "knowledge_base/domains/MB/examples.md", "md_parent_section": "§MB.1 [Example 1]", "md_verbatim": "Because an identified organism is the subject of the test, the NHOID variable is populated with \"ENTEROCOCCUS FAECALIS\"."}]}
{"pdf_atom_id": "ig34_p0166_a0010", "atom_type": "SENTENCE", "pdf_page": 166, "pdf_parent_section": "§6.2.4 Disposition (DS)", "pdf_verbatim": "For the ABC arm, if drug C is dropped, the subject may transition to an AB element or follow-up.", "p4a_verdict": "PARTIAL", "p4a_similarity_score": 0.5875, "p4a_discrepancy": null, "md_candidates": [{"md_atom_id": "md_dmDS_ex_a176", "md_file": "knowledge_base/domains/DS/examples.md", "md_parent_section": "§DS.10 [Example 10]", "md_verbatim": "**Rows 4, 8:** Represent the subjects' actual follow-up elements."}]}
{"pdf_atom_id": "ig34_p0059_a014", "atom_type": "SENTENCE", "pdf_page": 59, "pdf_parent_section": "§4.5.8 [Accounting for Long-term Follow-up]", "pdf_verbatim": "In SDTM, the data related to these follow-up telephone contacts should be stored as follows:", "p4a_verdict": "EXACT", "p4a_similarity_score": 0.9, "p4a_discrepancy": null, "md_candidates": [{"md_atom_id": "md_ch04_a1021", "md_file": "knowledge_base/chapters/ch04_general_assumptions.md", "md_parent_section": "§4.5.8 [Accounting for Long-term Follow-up]", "md_verbatim": "In SDTM, the data related to these follow-up telephone contacts should be stored as follows:"}]}
{"pdf_atom_id": "ig34_p0114_a026", "atom_type": "SENTENCE", "pdf_page": 114, "pdf_parent_section": "§6.1.3.3 [Exposure/Exposure as Collected Examples]", "pdf_verbatim": "The EC dataset shows the administrations as collected. The time-point variables ECTPT and ECTPTNUM were used to describe the time of day of administration. This use of time-point variables is novel, representing data about multiple time points, 1 on each day of administration, rather than data for a", "p4a_verdict": "EXACT", "p4a_similarity_score": 0.9, "p4a_discrepancy": null, "md_candidates": [{"md_atom_id": "md_dmEX_ex_a119", "md_file": "knowledge_base/domains/EX/examples.md", "md_parent_section": "§EX.5 [Example 5]", "md_verbatim": "The EC dataset shows the administrations as collected. The time-point variables ECTPT and ECTPTNUM were used to describe the time of day of administration. This use of time-point variables is novel, representing data about multiple time points, 1 on each day of administration, rather than data for a"}]}
{"pdf_atom_id": "ig34_p0246_a006", "atom_type": "SENTENCE", "pdf_page": 246, "pdf_parent_section": "§6.3.5.6 Laboratory Test Results (LB)", "pdf_verbatim": "This example illustrates the use of previously published LB domain variables and introduces several new variables that were added to SDTMv2.0, including LBTSTCND, LBRESSCL, LBRESTYP, LBCOLSRT, LBLLOD, LBTMTHSN, LBPTFL, and LBPDUR. These variables, in part, aid in harmonization to LOINC.", "p4a_verdict": "EQUIVALENT", "p4a_similarity_score": 1.0, "p4a_discrepancy": null, "md_candidates": [{"md_atom_id": "md_dmLB_ex_a003", "md_file": "knowledge_base/domains/LB/examples.md", "md_parent_section": "§LB.1 [Example 1]", "md_verbatim": "This example illustrates the use of previously published LB domain variables and introduces several new variables that were added to SDTMv2.0, including LBTSTCND, LBRESSCL, LBRESTYP, LBCOLSRT, LBLLOD, LBTMTHSN, LBPTFL, and LBPDUR. These variables, in part, aid in harmonization to LOINC."}]}
{"pdf_atom_id": "ig34_p0121_a012", "atom_type": "TABLE_ROW", "pdf_page": 121, "pdf_parent_section": "§6.1.4 [Meal Data (ML)]", "pdf_verbatim": "MLSPID | Sponsor-Defined Identifier | Char | | Identifier | Sponsor-defined reference number. Example: a number preprinted on the CRF as an explicit line identifier; record identifier defined in the sponsor's operational database. | Perm", "p4a_verdict": "PARTIAL", "p4a_similarity_score": 0.4392, "p4a_discrepancy": "Specification TABLE_ROW for MLSPID represented as prose entry in spec.md (### MLSPID); no direct table-format atom matched", "md_candidates": []}
{"pdf_atom_id": "ig34_p0115_a018", "atom_type": "TABLE_ROW", "pdf_page": 115, "pdf_parent_section": "§6.1.3.3 [Exposure/Exposure as Collected Examples]", "pdf_verbatim": "4 | ABC | EX | ABC5002 | 2 | 20120201-20120208-PM | PLACEBO | 0 | mg | TABLET | QD | ORAL | TREATMENT | 2012-02-01 | 2012-02-08 | 1 | 8 | PM | 2", "p4a_verdict": "EQUIVALENT", "p4a_similarity_score": 0.9, "p4a_discrepancy": null, "md_candidates": [{"md_atom_id": "md_dmEX_ex_a137", "md_file": "knowledge_base/domains/EX/examples.md", "md_parent_section": "§EX.5 [Example 5]", "md_verbatim": "| 4 | ABC | EX | ABC5002 | 2 | 20120201-20120208-PM | PLACEBO | 0 | mg | TABLET | QD | ORAL | TREATMENT | 2012-02-01 | 2012-02-08 | 1 | 8 | PM | 2 |"}]}
{"pdf_atom_id": "ig34_p0294_a023", "atom_type": "TABLE_ROW", "pdf_page": 294, "pdf_parent_section": "§6.3.7.4 Nervous System Findings (NV)", "pdf_verbatim": "| NVGRPID | Group ID | Char | | Identifier | Used to tie together a block of related records in a single domain for a subject. | Perm |", "p4a_verdict": "PARTIAL", "p4a_similarity_score": 0.4264, "p4a_discrepancy": "Content partially covered; some conditions or details omitted", "md_candidates": [{"md_atom_id": "md_dmNV_ex_a056", "md_file": "knowledge_base/domains/NV/examples.md", "md_parent_section": "§NV.2 [Example 2]", "md_verbatim": "| 6 | MS123 | NV | MS01-01 | 123 | OS | 6 | 2 | N75LAT | N75 Latency | VISUAL EVOKED POTENTIAL | 83.8 | msec | 83.8 | 83.8 | msec | 54.42 | 95.1 | NORMAL | EYE | LEFT | EEG | 1 | 2013-02-08 |"}]}
{"pdf_atom_id": "ig34_p0117_a001", "atom_type": "TABLE_ROW", "pdf_page": 117, "pdf_parent_section": "§6.1.3.3 [Exposure/Exposure as Collected Examples]", "pdf_verbatim": "| 23 | 56789 | EC | 56789003 | 11 | BOTTLE | Y | Y | 1 | TABLET, CAPSULE | TABLET, CAPSULE | QD | ORAL | TREATMENT | 2002-07-13T07:38 | 2002-07-13T07:38 | 13 | 13 | 30 MINUTES PRIOR | -PT30M | STD BREAKFAST |", "p4a_verdict": "EQUIVALENT", "p4a_similarity_score": 0.8564, "p4a_discrepancy": null, "md_candidates": [{"md_atom_id": "md_dmEX_ex_a188", "md_file": "knowledge_base/domains/EX/examples.md", "md_parent_section": "§EX.6 [Example 6]", "md_verbatim": "| 24 | 56789 | EC | 56789003 | 12 | BOTTLE 2 | Y | Y | 1 | TABLET, COATED | CAPSULE | QD | ORAL | TREATMENT 2 | 2002-07-13T07:38 | 2002-07-13T07:38 | 11 | 11 | 30 MINUTES PRIOR | -PT30M | STD BREAKFAST |"}]}
{"pdf_atom_id": "ig34_p0283_a038", "atom_type": "TABLE_ROW", "pdf_page": 283, "pdf_parent_section": "§6.3.5.9.3 Relating PP Records to PC Records — Example 4", "pdf_verbatim": "| 26 | ABC-123 | PC | ABC-123-0001 | PCSEQ | 2 | | 3 |", "p4a_verdict": "MISSING", "p4a_similarity_score": null, "p4a_discrepancy": null, "md_candidates": []}
{"pdf_atom_id": "ig34_p0280_a021", "atom_type": "TABLE_ROW", "pdf_page": 280, "pdf_parent_section": "§6.3.5.9.3 Relating PP Records to PC Records — Example 2", "pdf_verbatim": "5 | ABC-123 | PC | ABC-123-0001 | PCSEQ | 5 | | 1", "p4a_verdict": "MISSING", "p4a_similarity_score": null, "p4a_discrepancy": null, "md_candidates": []}
{"pdf_atom_id": "ig34_p0455_a014", "atom_type": "TABLE_ROW", "pdf_page": 455, "pdf_parent_section": "§10.E Appendix E: Revision History", "pdf_verbatim": "6.2.4 | Disposition (DS) | DSDY's Core value was updated to Perm (from Exp) to be consistent with DSDTC's Core which is Perm.", "p4a_verdict": "PARTIAL", "p4a_similarity_score": 0.5294, "p4a_discrepancy": null, "md_candidates": [{"md_atom_id": "md_ch10_a203", "md_file": "knowledge_base/chapters/ch10_appendices.md", "md_parent_section": "§10.E [Revision History]", "md_verbatim": "| 6.2.4 | Disposition (DS) | DSDY's Core value updated to Perm (from Exp); DSSTDY's Core value updated to Exp (from Perm); added reference to DS Codetable; updated Example 9 |"}]}
{"pdf_atom_id": "ig34_p0240_a016", "atom_type": "TABLE_ROW", "pdf_page": 240, "pdf_parent_section": "§6.3.5.5 Immunogenicity Specimen Assessments (IS)", "pdf_verbatim": "| 9 | XYZ | IS | XYZ1234 | 4 | 19283746 | 3 | ATAB | Autoantibody | SJOGRENS SS-A52 ANTIGEN | | | QUANTIFY | 51 | U/mL | 51 | 51 | U/mL | SERUM | MULTIPLEXED BEAD BASED IMMUNOASSAY | 1 | SCREENING | 2018-06-20 |", "p4a_verdict": "MISSING", "p4a_similarity_score": 1.0, "p4a_discrepancy": null, "md_candidates": []}
{"pdf_atom_id": "ig34_p0074_a009", "atom_type": "TABLE_ROW", "pdf_page": 74, "pdf_parent_section": "§5.2 [Demographics (DM)]", "pdf_verbatim": "2 | ABC789 | DM | ABC789-010-047 | | | RACE5 | Race 5 | WHITE | CRF |", "p4a_verdict": "EXACT", "p4a_similarity_score": 1.0, "p4a_discrepancy": null, "md_candidates": [{"md_atom_id": "md_dmDM_ex_a113", "md_file": "knowledge_base/domains/DM/examples.md", "md_parent_section": "§DM.4 [Example 4]", "md_verbatim": "| 2 | ABC789 | DM | ABC789-010-047 | | | RACE5 | Race 5 | WHITE | CRF | |"}]}
{"pdf_atom_id": "ig34_p0348_a014", "atom_type": "TABLE_ROW", "pdf_page": 348, "pdf_parent_section": "TU – Assumptions", "pdf_verbatim": "| NT01 | TUMIDENT | Tumor Identification | NON-TARGET | LUNG | CT SCAN |", "p4a_verdict": "EXACT", "p4a_similarity_score": 1.0, "p4a_discrepancy": null, "md_candidates": [{"md_atom_id": "md_dmTU_assn_a052", "md_file": "knowledge_base/domains/TU/assumptions.md", "md_parent_section": "§TU [TU — Assumptions]", "md_verbatim": "| NT01 | TUMIDENT | Tumor Identification | NON-TARGET | LUNG | CT SCAN |"}]}
{"pdf_atom_id": "ig34_p0411_a002", "atom_type": "TABLE_ROW", "pdf_page": 411, "pdf_parent_section": "§7.3.2 Trial Disease Assessments (TD)", "pdf_verbatim": "| TDORDER | Sequence of Planned Assessment Schedule | Num | | Timing | A number given to ensure ordinal sequencing of the planned assessment schedules within a trial. | Req |", "p4a_verdict": "MISSING", "p4a_similarity_score": 0.4, "p4a_discrepancy": "TD variable specification row for TDORDER not present in KB.", "md_candidates": []}
{"pdf_atom_id": "ig34_p0135_a006", "atom_type": "TABLE_ROW", "pdf_page": 135, "pdf_parent_section": "§6.2.1 [Adverse Events (AE)]", "pdf_verbatim": "| AESEV | Severity/Intensity | Char | (AESEV) | Record Qualifier | The severity or intensity of the event. Examples: \"MILD\", \"MODERATE\", \"SEVERE\". | Perm |", "p4a_verdict": "PARTIAL", "p4a_similarity_score": 0.4785, "p4a_discrepancy": null, "md_candidates": [{"md_atom_id": "md_dmAE_ex_a033", "md_file": "knowledge_base/domains/AE/examples.md", "md_parent_section": "§AE.2 [Example 2]", "md_verbatim": "| 2 | ABC123 | AE | 123101 | 2 | VOMITING | Vomiting | Y | Gastrointestinal disorders | MODERATE | N | DOSE REDUCED | RELATED | RECOVERED/RESOLVED | TREATMENT | 2005-10-13T13:05 | 2005-10-13T19:00 | 3 | 3 |"}]}
{"pdf_atom_id": "ig34_p0294_a004", "atom_type": "TABLE_ROW", "pdf_page": 294, "pdf_parent_section": "§6.3.7.3 Musculoskeletal System Findings (MK)", "pdf_verbatim": "| 10 | XYZ | MK | XYZ-002 | 10 | SGJSNSCR | Sharp/Genant JSN Score | MILD-MODERATE; 26-50% LOSS OF JOINT SPACE | 1.5 | 1.5 | | | METACARPOPHALANGEAL JOINT 2 | LEFT | X-RAY | INDEPENDENT ASSESSOR | READER 1 | 4 | WEEK 12 | 2013-08-12 |", "p4a_verdict": "EXACT", "p4a_similarity_score": 1.0, "p4a_discrepancy": null, "md_candidates": [{"md_atom_id": "md_dmMK_ex_a058", "md_file": "knowledge_base/domains/MK/examples.md", "md_parent_section": "§MK.2 [Example 2]", "md_verbatim": "| 10 | XYZ | MK | XYZ-002 | 10 | SGJSNSCR | Sharp/Genant JSN Score | MILD-MODERATE; 26-50% LOSS OF JOINT SPACE | 1.5 | 1.5 | | | METACARPOPHALANGEAL JOINT 2 | LEFT | X-RAY | INDEPENDENT ASSESSOR | READER 1 | 4 | WEEK 12 | 2013-08-12 |"}]}
{"pdf_atom_id": "ig34_p0105_a011", "atom_type": "TABLE_ROW", "pdf_page": 105, "pdf_parent_section": "§6.1.3.1 [Exposure (EX)]", "pdf_verbatim": "EXTPT | Planned Time Point Name | Char | | Timing | Text description of time when administration should occur. This may be represented as an elapsed time relative to a fixed reference point, such as meal. See EXPTPREF and EXTPTREF.", "p4a_verdict": "EQUIVALENT", "p4a_similarity_score": 0.4442, "p4a_discrepancy": null, "md_candidates": [{"md_atom_id": "md_dmEX_ex_a215", "md_file": "knowledge_base/domains/EX/examples.md", "md_parent_section": "§EX.7 [Example 7]", "md_verbatim": "| Concentration | 5.5 mg/mL | 4.12 mg/mL | 4.12 mg/mL |"}]}
{"pdf_atom_id": "ig34_p0423_a017", "atom_type": "TABLE_ROW", "pdf_page": 423, "pdf_parent_section": "TS – Examples", "pdf_verbatim": "Row 24 | ABC123 | TS | 1 | PHASE 3 | PLANSUB | Planned Number of Subjects | 500 | | | | ", "p4a_verdict": "EQUIVALENT", "p4a_similarity_score": 0.95, "p4a_discrepancy": "PDF uses 'Row N |' prefix; MD uses '| N |' markdown table format; content identical", "md_candidates": [{"md_atom_id": "md_dmTS_ex_a109", "md_file": "knowledge_base/domains/TS/examples.md", "md_parent_section": "§TS.4 [Example 4]", "md_verbatim": "| 24 | ABC123 | TS | 1 | PHASE 3 | PLANSUB | Planned Number of Subjects | 500 | | | | |"}]}
{"pdf_atom_id": "ig34_p0259_a010", "atom_type": "TABLE_ROW", "pdf_page": 259, "pdf_parent_section": "§6.3.5.7.3 Microbiology Specimen/Microbiology Susceptibility Examples", "pdf_verbatim": "4 | ABC | MS | ABC-001-001 | STREPTOCOCCUS PNEUMONIAE | 4 | SP01 | 2 | MICROSUS | Microbial Susceptibility | Penicillin | RESISTANT | | RESISTANT | | | EPSILOMETER | 2005-06-19T08:00", "p4a_verdict": "EQUIVALENT", "p4a_similarity_score": 0.876, "p4a_discrepancy": null, "md_candidates": [{"md_atom_id": "md_dmMS_ex_a031", "md_file": "knowledge_base/domains/MS/examples.md", "md_parent_section": "§MS.2 [Example 2]", "md_verbatim": "| 4 | ABC | MS | ABC-001-001 | STREPTOCOCCUS PNEUMONIAE | | 4 | SP01 | MICROSUS | Microbial Susceptibility | Penicillin | RESISTANT | | RESISTANT | | | | EPSILOMETER | 1 | VISIT 1 | 2005-06-19T08:00 |"}]}
{"pdf_atom_id": "sv20_p0028_a004", "atom_type": "TABLE_ROW", "pdf_page": 28, "pdf_parent_section": "§3.1.3 The Findings Observation Class", "pdf_verbatim": "54 | --GENSR | Genetic Sub-Region | Char | | Variable Qualifier | --ORRES; --STRESC; --STRESN | GF domain only | | The portion of the locus in which the variation was found. | | \"Exon 15\", \"Kinase domain\"", "p4a_verdict": "MISPLACED", "p4a_similarity_score": 0.3828, "p4a_discrepancy": "MISPLACED: pdf §3.1.3 general Findings variable table vs md domain/GF/spec.md §GFGENSR", "md_candidates": [{"md_atom_id": "md_ch03_a086", "md_file": "knowledge_base/chapters/ch03_submitting_data.md", "md_parent_section": "§3.2.1 [Dataset-level Metadata]", "md_verbatim": "| SUPP-- | Supplemental Qualifiers for [domain name] | Relationship | One record per supplemental qualifier per related parent domain record(s) | Tabulation | STUDYID, RDOMAIN, USUBJID, IDVAR, IDVARVAL, QNAM | supp--.xpt |"}]}
{"pdf_atom_id": "sv20_p0017_a006", "atom_type": "TABLE_ROW", "pdf_page": 17, "pdf_parent_section": "§3.1.2 The Events Observation Class", "pdf_verbatim": "| 27 | --DIR | Directionality | Char | | Variable Qualifier | --LOC | | | Qualifier for anatomical location, further detailing directionality. | | \"ANTERIOR\", \"LOWER\", \"PROXIMAL\" |", "p4a_verdict": "MISSING", "p4a_similarity_score": null, "p4a_discrepancy": null, "md_candidates": []}
{"pdf_atom_id": "ig34_p0284_a002", "atom_type": "TABLE_ROW", "pdf_page": 284, "pdf_parent_section": "§6.3.5.9.3 Relating PP Records to PC Records — Example 4", "pdf_verbatim": "| 48 | ABC-123 | PP | ABC-123-0001 | PPSEQ | 4 | | 4 |", "p4a_verdict": "MISSING", "p4a_similarity_score": null, "p4a_discrepancy": null, "md_candidates": []}
{"pdf_atom_id": "ig34_p0445_a040", "atom_type": "TABLE_ROW", "pdf_page": 445, "pdf_parent_section": "Appendix A: CDISC SDS Team", "pdf_verbatim": "| Craig Zwickl | Transendix LLC |", "p4a_verdict": "INTENTIONAL_EXCLUDE", "p4a_similarity_score": null, "p4a_discrepancy": null, "md_candidates": []}
{"pdf_atom_id": "ig34_p0071_a028", "atom_type": "LIST_ITEM", "pdf_page": 71, "pdf_parent_section": "§5.2 [Demographics (DM)]", "pdf_verbatim": "ARAB", "p4a_verdict": "MISSING", "p4a_similarity_score": 0.4034, "p4a_discrepancy": null, "md_candidates": []}
{"pdf_atom_id": "ig34_p0338_a014", "atom_type": "LIST_ITEM", "pdf_page": 338, "pdf_parent_section": "§6.3.9.3.2 Clinical Classifications Use Case", "pdf_verbatim": "Sponsors may participate and/or request the development of additional QRS supplements and terminology through the CDISC SDS QRS subteam and the Controlled Terminology QRS subteam.", "p4a_verdict": "EXACT", "p4a_similarity_score": 0.9, "p4a_discrepancy": null, "md_candidates": [{"md_atom_id": "md_dmFT_assn_a035", "md_file": "knowledge_base/domains/FT/assumptions.md", "md_parent_section": "§FT [FT — Assumptions]", "md_verbatim": "   a. Sponsors may participate and/or request the development of additional QRS supplements and terminology through the CDISC SDS QRS subteam and the Controlled Terminology QRS subteam."}]}
{"pdf_atom_id": "ig34_p0021_a011", "atom_type": "LIST_ITEM", "pdf_page": 21, "pdf_parent_section": "§3.2.2 [Conformance]", "pdf_verbatim": "Using SDTM-specified standard variable names", "p4a_verdict": "EXACT", "p4a_similarity_score": 0.9, "p4a_discrepancy": null, "md_candidates": [{"md_atom_id": "md_ch03_a114", "md_file": "knowledge_base/chapters/ch03_submitting_data.md", "md_parent_section": "§3.2.2 [Conformance]", "md_verbatim": "4. Using SDTM-specified standard variable names"}]}
{"pdf_atom_id": "ig34_p0014_a005", "atom_type": "LIST_ITEM", "pdf_page": 14, "pdf_parent_section": "§2.6 Creating a New Domain", "pdf_verbatim": "If it is necessary to represent relationships between data that are hierarchical in nature (e.g., a parent record must be observed before child records), then establish a domain pair (e.g., MB/MS, PC/PP). Note: Domain pairs have been modeled for microbiology data (MB/MS domains) and pharmacokinetics", "p4a_verdict": "PARTIAL", "p4a_similarity_score": 0.4574, "p4a_discrepancy": "PDF atom is a long rule explaining domain pairs (MB/MS, PC/PP), the role of DOMAIN as identifier, RELREC usage, and why DOMAIN is needed. MD candidate md_ch02_a102 captures only the DOMAIN-as-identifier/RELREC summary. The explanation of RELREC mechanism and the constraint reasoning is omitted.", "md_candidates": [{"md_atom_id": "md_ch02_a102", "md_file": "knowledge_base/chapters/ch02_fundamentals.md", "md_parent_section": "§2.6 [Creating a New Domain]", "md_verbatim": "- Domain pairs use DOMAIN as an identifier to group parent records and enable dataset-level relationships via RELREC"}]}
{"pdf_atom_id": "ig34_p0327_a005", "atom_type": "LIST_ITEM", "pdf_page": 327, "pdf_parent_section": "§6.3.9.2 Questionnaires (QS) — QS-Assumptions — QRS Shared Assumptions", "pdf_verbatim": "iii. QRS subtotal, total, etc. scores not listed on the CRF, but known to be included in eData by sponsors are considered as captured data, are included in the instrument's controlled terminology. The QRS instrument's CT is considered extensible for this case and the subtotal or total score should b", "p4a_verdict": "EQUIVALENT", "p4a_similarity_score": 0.5667, "p4a_discrepancy": null, "md_candidates": [{"md_atom_id": "md_dmQS_assn_a008", "md_file": "knowledge_base/domains/QS/assumptions.md", "md_parent_section": "§QS [QS — Assumptions]", "md_verbatim": "4. Sponsors should always consult published QRS supplements for guidance on submitting derived information in a SDTMIG QRS domain. Derived variable results in QRS are usually considered captured data. If sponsors operationally derive variable results, then the derived records that are submitted in a"}]}
{"pdf_atom_id": "ig34_p0088_a014", "atom_type": "LIST_ITEM", "pdf_page": 88, "pdf_parent_section": "§5.5 [Subject Visits (SV)]", "pdf_verbatim": "d. It would be inappropriate to add the variables that support time points (--TPT, --TPTNUM, --ELTM, --TPTREF, and --RFTDTC), because the topic of this dataset is visits.", "p4a_verdict": "EXACT", "p4a_similarity_score": 1.0, "p4a_discrepancy": null, "md_candidates": [{"md_atom_id": "md_dmSV_assn_a024", "md_file": "knowledge_base/domains/SV/assumptions.md", "md_parent_section": "§SV [SV — Assumptions]", "md_verbatim": "    d. It would be inappropriate to add the variables that support time points (--TPT, --TPTNUM, --ELTM, --TPTREF, and --RFTDTC), because the topic of this dataset is visits."}]}
{"pdf_atom_id": "ig34_p0385_a011", "atom_type": "LIST_ITEM", "pdf_page": 385, "pdf_parent_section": "§7.2.1 Trial Arms (TA) – Assumptions", "pdf_verbatim": "TAETORD is an integer. In general, the value of TAETORD is 1 for the first element in each arm, 2 for the second element in each arm, and so on. Occasionally, it may be convenient to skip some values (see Example Trial 6). Although the values of TAETORD need not always be sequential, their order mus", "p4a_verdict": "EQUIVALENT", "p4a_similarity_score": 1.0, "p4a_discrepancy": null, "md_candidates": [{"md_atom_id": "md_dmTA_assn_a003", "md_file": "knowledge_base/domains/TA/assumptions.md", "md_parent_section": "§TA [TA — Assumptions]", "md_verbatim": "1. TAETORD is an integer. In general, the value of TAETORD is 1 for the first element in each arm, 2 for the second element in each arm, and so on. Occasionally, it may be convenient to skip some values (see Example Trial 6). Although the values of TAETORD need not always be sequential, their order "}]}
{"pdf_atom_id": "ig34_p0117_a010", "atom_type": "LIST_ITEM", "pdf_page": 117, "pdf_parent_section": "§6.1.3.3 [Exposure/Exposure as Collected Examples]", "pdf_verbatim": "The subject's second administration of drug Z occurred on 2009-02-20; the intended dose was reduced to 7.5 mg/kg due to dose-limiting toxicity, and the infusion was stopped early due to an injection site reaction.", "p4a_verdict": "PARTIAL", "p4a_similarity_score": 0.7444, "p4a_discrepancy": null, "md_candidates": [{"md_atom_id": "md_dmEX_ex_a203", "md_file": "knowledge_base/domains/EX/examples.md", "md_parent_section": "§EX.7 [Example 7]", "md_verbatim": "- The subject's second administration of drug Z occurred on 2009-02-20; the intended dose was reduced to 7.5 mg/kg due to dose-limiting toxicity, and the infusion was stopped early due to an injection site reaction. However, the actual amount given was 35 mL at a concentration of 4.12 mg/mL, so the "}]}
{"pdf_atom_id": "ig34_p0024_a004", "atom_type": "LIST_ITEM", "pdf_page": 24, "pdf_parent_section": "§4.1.7 [Splitting Domains]", "pdf_verbatim": "Supplemental Qualifier datasets for split domains would also be split. The nomenclature would include the additional 1 to 2 characters used to identify the split dataset (e.g., SUPPQS36, SUPPFACM). The value of RDOMAIN in the SUPP-- datasets would be the 2-character domain code (e.g., QS, FA).", "p4a_verdict": "EQUIVALENT", "p4a_similarity_score": 0.9, "p4a_discrepancy": null, "md_candidates": [{"md_atom_id": "md_ch04_a060", "md_file": "knowledge_base/chapters/ch04_general_assumptions.md", "md_parent_section": "§4.1.7 [Splitting Domains]", "md_verbatim": "7. Supplemental Qualifier datasets for split domains would also be split. The nomenclature would include the additional 1 to 2 characters used to identify the split dataset (e.g., SUPPQS36, SUPPFACM). The value of RDOMAIN in the SUPP-- datasets would be the 2-character domain code (e.g., QS, FA)."}]}
{"pdf_atom_id": "ig34_p0436_a015", "atom_type": "LIST_ITEM", "pdf_page": 436, "pdf_parent_section": "§8.6.3 Guidelines for Differentiating Between Interventions, Events, Findings, and Findings About Events or Interventions", "pdf_verbatim": "•    Sponsors may choose how they define an event. See Section 6.2.1, Adverse Events, assumption 7e.", "p4a_verdict": "EXACT", "p4a_similarity_score": 0.9, "p4a_discrepancy": null, "md_candidates": [{"md_atom_id": "md_ch08_a256", "md_file": "knowledge_base/chapters/ch08_relationships.md", "md_parent_section": "§8.6.3 [Guidelines for Differentiating Between Interventions, Events, Findings, and Findings About Events or Interventions]", "md_verbatim": "- Sponsors may choose how they define an event. See Section 6.2.1, Adverse Events, assumption 7e."}]}
{"pdf_atom_id": "ig34_p0089_a024", "atom_type": "LIST_ITEM", "pdf_page": 89, "pdf_parent_section": "§5.5 [Subject Visits (SV)]", "pdf_verbatim": "Row 3: Shows informed consent for subject 85.", "p4a_verdict": "EQUIVALENT", "p4a_similarity_score": 0.91, "p4a_discrepancy": null, "md_candidates": [{"md_atom_id": "md_dmSV_ex_a022", "md_file": "knowledge_base/domains/SV/examples.md", "md_parent_section": "§SV.1 [Example 1]", "md_verbatim": "**Row 3:** Shows informed consent for subject 85."}]}
{"pdf_atom_id": "ig34_p0443_a005", "atom_type": "LIST_ITEM", "pdf_page": 443, "pdf_parent_section": "§9.2 OI – Assumptions", "pdf_verbatim": "3. NHOID can be used in any domain where observations about these organisms are being represented, allowing end users to determine what is known about the organism's identity by merging on NHOID, or by otherwise referring to the OI domain.", "p4a_verdict": "EXACT", "p4a_similarity_score": 1.0, "p4a_discrepancy": null, "md_candidates": [{"md_atom_id": "md_dmOI_assn_a010", "md_file": "knowledge_base/domains/OI/assumptions.md", "md_parent_section": "§OI [OI — Assumptions]", "md_verbatim": "3. NHOID can be used in any domain where observations about these organisms are being represented, allowing end users to determine what is known about the organism's identity by merging on NHOID, or by otherwise referring to the OI domain."}]}
{"pdf_atom_id": "ig34_p0032_a026", "atom_type": "LIST_ITEM", "pdf_page": 32, "pdf_parent_section": "§4.2.7.1 \"Specify\" Values for Non-result Qualifier Variables", "pdf_verbatim": "If the sponsor does not require that controlled terminology be maintained and wishes for all responses to be stored in a single variable, then CMINDC will be used and SUPPCM is not required.", "p4a_verdict": "EXACT", "p4a_similarity_score": 0.9, "p4a_discrepancy": null, "md_candidates": [{"md_atom_id": "md_ch04_a294", "md_file": "knowledge_base/chapters/ch04_general_assumptions.md", "md_parent_section": "§4.2.7.1 [\"Specify\" Values for Non-Result Qualifier Variables]", "md_verbatim": "3. If the sponsor does not require that controlled terminology be maintained and wishes for all responses to be stored in a single variable, then CMINDC will be used and SUPPCM is not required."}]}
{"pdf_atom_id": "ig34_p0169_a0015", "atom_type": "LIST_ITEM", "pdf_page": 169, "pdf_parent_section": "§6.2.5 Healthcare Encounters (HO)", "pdf_verbatim": "Rows 1-2: Subject ABC123101 was hospitalized and then moved to a nursing home.", "p4a_verdict": "EQUIVALENT", "p4a_similarity_score": 0.91, "p4a_discrepancy": "PDF lacks markdown bold formatting (**Rows 1-2:**); content identical", "md_candidates": [{"md_atom_id": "md_dmHO_ex_a004", "md_file": "knowledge_base/domains/HO/examples.md", "md_parent_section": "§HO.1 [Example 1]", "md_verbatim": "**Rows 1-2:** Subject ABC123101 was hospitalized and then moved to a nursing home."}]}
{"pdf_atom_id": "ig34_p0110_a001", "atom_type": "LIST_ITEM", "pdf_page": 110, "pdf_parent_section": "§6.1.3.2 [Exposure as Collected (EC)]", "pdf_verbatim": "Qualifier variables should be populated with equal granularity across scheduled and performed records when known. For example, if ECDOSU and ECDOSFRQ are known at scheduling and administration, then the variables would be populated on both records. If ECLOC is determined at the time of administratio", "p4a_verdict": "EXACT", "p4a_similarity_score": 1.0, "p4a_discrepancy": null, "md_candidates": [{"md_atom_id": "md_dmEC_assn_a011", "md_file": "knowledge_base/domains/EC/assumptions.md", "md_parent_section": "§EC [EC — Assumptions]", "md_verbatim": "   b. Qualifier variables should be populated with equal granularity across scheduled and performed records when known. For example, if ECDOSU and ECDOSFRQ are known at scheduling and administration, then the variables would be populated on both records. If ECLOC is determined at the time of adminis"}]}
{"pdf_atom_id": "ig34_p0207_a011", "atom_type": "LIST_ITEM", "pdf_page": 207, "pdf_parent_section": "§6.3.5.3 Cell Phenotype Findings (CP)", "pdf_verbatim": "iv. \"+\" (the marker is expressed at a normal positive level for that cell type)", "p4a_verdict": "EXACT", "p4a_similarity_score": 1.0, "p4a_discrepancy": null, "md_candidates": [{"md_atom_id": "md_dmCP_assn_a036", "md_file": "knowledge_base/domains/CP/assumptions.md", "md_parent_section": "§CP [CP — Assumptions]", "md_verbatim": "      iv. \"+\" (the marker is expressed at a normal positive level for that cell type)"}]}
{"pdf_atom_id": "ig34_p0317_a017", "atom_type": "LIST_ITEM", "pdf_page": 317, "pdf_parent_section": "§6.3.8 Physical Examination (PE)", "pdf_verbatim": "3. Any Identifiers, Timing variables, or Findings general observation class qualifiers may be added to the PE domain, but the following qualifiers would generally not be used: --XFN, --NAM, --LOINC, --FAST, --TOX, --TOXGR.", "p4a_verdict": "EXACT", "p4a_similarity_score": 1.0, "p4a_discrepancy": null, "md_candidates": [{"md_atom_id": "md_dmPE_assn_a004", "md_file": "knowledge_base/domains/PE/assumptions.md", "md_parent_section": "§PE [PE — Assumptions]", "md_verbatim": "3. Any Identifiers, Timing variables, or Findings general observation class qualifiers may be added to the PE domain, but the following qualifiers would generally not be used: --XFN, --NAM, --LOINC, --FAST, --TOX, --TOXGR."}]}
{"pdf_atom_id": "ig34_p0426_a003", "atom_type": "LIST_ITEM", "pdf_page": 426, "pdf_parent_section": "§7.5 How to Model the Design of a Clinical Trial", "pdf_verbatim": "6. Re-examine the sequences of elements that make up the various arms and consider alternative element definitions. Would it be better to \"split\" some elements into smaller pieces or \"lump\" some elements into larger pieces? Such decisions will depend on the aims of the trial and plans for analysis.", "p4a_verdict": "PARTIAL", "p4a_similarity_score": 0.38, "p4a_discrepancy": "Step 6 (split/lump element consideration) partially covered by TA assumption but not as modeling guidance", "md_candidates": [{"md_atom_id": "md_dmTA_assn_a008", "md_file": "knowledge_base/domains/TA/assumptions.md", "md_parent_section": "§TA [TA — Assumptions]", "md_verbatim": "6. Some trials include multiple paths that are closely enough related so that they are all considered to belong to 1 arm. In general, this set of paths will include a \"complete\" path along with shorter paths that skip some elements. The sequence of elements represented in the trial arms should be th"}]}
{"pdf_atom_id": "ig34_p0163_a0017", "atom_type": "LIST_ITEM", "pdf_page": 163, "pdf_parent_section": "§6.2.4 Disposition (DS)", "pdf_verbatim": "Rows 2, 3:\tShow the elements for treatment (either \"DRUG1\" or \"DRUG2\"). These appear in the first treatment epoch in the TA dataset.", "p4a_verdict": "EQUIVALENT", "p4a_similarity_score": 0.91, "p4a_discrepancy": "PDF uses 'Row N:\\t' tab-separated format; MD uses '**Row N:**' bold markdown format", "md_candidates": [{"md_atom_id": "md_dmDS_ex_a132", "md_file": "knowledge_base/domains/DS/examples.md", "md_parent_section": "§DS.10 [Example 10]", "md_verbatim": "**Rows 2, 3:** Show the elements for treatment (either \"DRUG1\" or \"DRUG2\"). These appear in the first treatment epoch in the TA dataset."}]}
{"pdf_atom_id": "ig34_p0057_a011", "atom_type": "LIST_ITEM", "pdf_page": 57, "pdf_parent_section": "§4.5.5 [Clinical Significance for Findings Observation Class Data]", "pdf_verbatim": "An ECG test with EGTESTCD = \"INTP\" (which addresses the ECG as a whole) should have a result of or \"NORMAL\" or \"ABNORMAL\". A record for EGTESTCD = \"INTP\" may also have EGCLSIG indicating whether the result is clinically significant.", "p4a_verdict": "EQUIVALENT", "p4a_similarity_score": 0.9, "p4a_discrepancy": null, "md_candidates": [{"md_atom_id": "md_ch04_a973", "md_file": "knowledge_base/chapters/ch04_general_assumptions.md", "md_parent_section": "§4.5.5 [Clinical Significance for Findings Observation Class Data]", "md_verbatim": "- An ECG test with EGTESTCD = \"INTP\" (which addresses the ECG as a whole) should have a result of \"NORMAL\" or \"ABNORMAL\". A record for EGTESTCD = \"INTP\" may also have EGCLSIG indicating whether the result is clinically significant."}]}
{"pdf_atom_id": "ig34_p0253_a024", "atom_type": "CODE_LITERAL", "pdf_page": 253, "pdf_parent_section": "§6.3.5.7.2 Microbiology Susceptibility (MS)", "pdf_verbatim": "MSSTRESN", "p4a_verdict": "EQUIVALENT", "p4a_similarity_score": 0.2407, "p4a_discrepancy": null, "md_candidates": [{"md_atom_id": "md_dmMS_ex_a027", "md_file": "knowledge_base/domains/MS/examples.md", "md_parent_section": "§MS.2 [Example 2]", "md_verbatim": "| Row | STUDYID | DOMAIN | USUBJID | NHOID | MSGRPID | MSSEQ | MSREFID | MSTESTCD | MSTEST | MSAGENT | MSORRES | MSORRESU | MSSTRESC | MSSTRESN | MSSTRESU | MSNAM | MSMETHOD | VISITNUM | VISIT | MSDTC |\n|-----|---------|--------|---------|-------|---------|-------|---------|----------|--------|-----"}]}
{"pdf_atom_id": "ig34_p0252_a004", "atom_type": "CODE_LITERAL", "pdf_page": 252, "pdf_parent_section": "§6.3.5.7.1 Microbiology Specimen (MB)", "pdf_verbatim": "MBTSTDTL", "p4a_verdict": "PARTIAL", "p4a_similarity_score": 0.4018, "p4a_discrepancy": "Content only partially matched", "md_candidates": [{"md_atom_id": "md_dmMB_assn_a004", "md_file": "knowledge_base/domains/MB/assumptions.md", "md_parent_section": "§MB [MB — Assumptions]", "md_verbatim": "      i. MBTSTDTL should be \"DETECTION\"."}]}
{"pdf_atom_id": "ig34_p0146_a010", "atom_type": "CODE_LITERAL", "pdf_page": 146, "pdf_parent_section": "§6.2.2 [Biospecimen Events (BE)]", "pdf_verbatim": "relrec.xpt", "p4a_verdict": "EXACT", "p4a_similarity_score": 0.79, "p4a_discrepancy": null, "md_candidates": [{"md_atom_id": "md_dmBE_ex_a040", "md_file": "knowledge_base/domains/BE/examples.md", "md_parent_section": "§BE.1 [Example 1]", "md_verbatim": "**relrec.xpt**"}]}
{"pdf_atom_id": "ig34_p0194_a011", "atom_type": "CODE_LITERAL", "pdf_page": 194, "pdf_parent_section": "§6.3.4 Inclusion/Exclusion Criteria Not Met (IE)", "pdf_verbatim": "ie.xpt", "p4a_verdict": "PARTIAL", "p4a_similarity_score": 0.79, "p4a_discrepancy": "Best match score 0.7900 below equivalence threshold", "md_candidates": [{"md_atom_id": "md_dmIE_ex_a006", "md_file": "knowledge_base/domains/IE/examples.md", "md_parent_section": "§IE.1 [Example 1]", "md_verbatim": "**ie.xpt**"}]}
{"pdf_atom_id": "ig34_p0027_a010", "atom_type": "CODE_LITERAL", "pdf_page": 27, "pdf_parent_section": "§4.1.9 [Assigning Natural Keys in the Metadata]", "pdf_verbatim": "STUDYID, USUBJID, SPDEVID, VISITNUM, MKTESTCD, MKLOC, MKLAT, MKMETHOD, QNAM.MKHNDPOS", "p4a_verdict": "EQUIVALENT", "p4a_similarity_score": 0.69, "p4a_discrepancy": null, "md_candidates": [{"md_atom_id": "md_ch04_a153", "md_file": "knowledge_base/chapters/ch04_general_assumptions.md", "md_parent_section": "§4.1.9 [Assigning Natural Keys in the Metadata]", "md_verbatim": "    STUDYID, USUBJID, SPDEVID, VISITNUM, MKTESTCD, MKLOC, MKLAT, MKMETHOD,\n    QNAM.MKHNDPOS"}]}
{"pdf_atom_id": "ig34_p0097_a011", "atom_type": "CODE_LITERAL", "pdf_page": 97, "pdf_parent_section": "§6.1.1 [Procedure Agents (AG)]", "pdf_verbatim": "relrec.xpt", "p4a_verdict": "EXACT", "p4a_similarity_score": 0.79, "p4a_discrepancy": null, "md_candidates": [{"md_atom_id": "md_dmAG_ex_a050", "md_file": "knowledge_base/domains/AG/examples.md", "md_parent_section": "§AG.2 [Example 2]", "md_verbatim": "**relrec.xpt**"}]}
{"pdf_atom_id": "ig34_p0372_a002", "atom_type": "CODE_LITERAL", "pdf_page": 372, "pdf_parent_section": "FA – Examples", "pdf_verbatim": "suppmh.xpt", "p4a_verdict": "EXACT", "p4a_similarity_score": 0.79, "p4a_discrepancy": null, "md_candidates": [{"md_atom_id": "md_dmFA_ex_a079", "md_file": "knowledge_base/domains/FA/examples.md", "md_parent_section": "§FA.3 [Example 3]", "md_verbatim": "**suppmh.xpt**"}]}
{"pdf_atom_id": "ig34_p0167_a0022", "atom_type": "CODE_LITERAL", "pdf_page": 167, "pdf_parent_section": "§6.2.5 Healthcare Encounters (HO)", "pdf_verbatim": "ho.xpt, Healthcare Encounters — Events. One record per healthcare encounter per subject, Tabulation.", "p4a_verdict": "PARTIAL", "p4a_similarity_score": 0.3601, "p4a_discrepancy": null, "md_candidates": [{"md_atom_id": "md_dmHO_ex_a003", "md_file": "knowledge_base/domains/HO/examples.md", "md_parent_section": "§HO.1 [Example 1]", "md_verbatim": "In this example, a healthcare encounter CRF collects verbatim descriptions of the encounter."}]}
{"pdf_atom_id": "ig34_p0089_a028", "atom_type": "CODE_LITERAL", "pdf_page": 89, "pdf_parent_section": "§5.5 [Subject Visits (SV)]", "pdf_verbatim": "ds.xpt", "p4a_verdict": "EQUIVALENT", "p4a_similarity_score": 0.79, "p4a_discrepancy": null, "md_candidates": [{"md_atom_id": "md_dmSV_ex_a026", "md_file": "knowledge_base/domains/SV/examples.md", "md_parent_section": "§SV.1 [Example 1]", "md_verbatim": "**ds.xpt**"}]}
{"pdf_atom_id": "ig34_p0280_a015", "atom_type": "CODE_LITERAL", "pdf_page": 280, "pdf_parent_section": "§6.3.5.9.3 Relating PP Records to PC Records — Example 2", "pdf_verbatim": "relrec.xpt", "p4a_verdict": "MISSING", "p4a_similarity_score": null, "p4a_discrepancy": null, "md_candidates": []}
{"pdf_atom_id": "ig34_p0254_a006", "atom_type": "CODE_LITERAL", "pdf_page": 254, "pdf_parent_section": "§6.3.5.7.2 Microbiology Susceptibility (MS)", "pdf_verbatim": "MSSPEC", "p4a_verdict": "EQUIVALENT", "p4a_similarity_score": 0.222, "p4a_discrepancy": null, "md_candidates": [{"md_atom_id": "md_dmMS_ex_a043", "md_file": "knowledge_base/domains/MS/examples.md", "md_parent_section": "§MS.3 [Example 3]", "md_verbatim": "| Row | STUDYID | DOMAIN | USUBJID | SPDEVID | NHOID | MSSEQ | MSREFID | MSLNKID | MSTESTCD | MSTEST | MSAGENT | MSCONC | MSCONCU | MSORRES | MSSTRESC | MSSPEC | MSLOC | MSMETHOD | MSDTC |\n|-----|---------|--------|---------|---------|-------|-------|---------|---------|----------|--------|---------"}]}
{"pdf_atom_id": "ig34_p0200_a010", "atom_type": "CODE_LITERAL", "pdf_page": 200, "pdf_parent_section": "§6.3.5.3 Cell Phenotype Findings (CP)", "pdf_verbatim": "cp.xpt, Cell Phenotype Findings — Findings. One record per test per specimen per timepoint per visit per subject, Tabulation.", "p4a_verdict": "MISSING", "p4a_similarity_score": null, "p4a_discrepancy": null, "md_candidates": []}
{"pdf_atom_id": "ig34_p0405_a012", "atom_type": "CODE_LITERAL", "pdf_page": 405, "pdf_parent_section": "§7.2.2 Trial Elements (TE) – Example 2", "pdf_verbatim": "te.xpt", "p4a_verdict": "EQUIVALENT", "p4a_similarity_score": 0.79, "p4a_discrepancy": null, "md_candidates": [{"md_atom_id": "md_dmTE_ex_a007", "md_file": "knowledge_base/domains/TE/examples.md", "md_parent_section": "§TE.1 [Example 1]", "md_verbatim": "**te.xpt**"}]}
{"pdf_atom_id": "ig34_p0154_a0004", "atom_type": "CODE_LITERAL", "pdf_page": 154, "pdf_parent_section": "§6.2.3 [Clinical Events]", "pdf_verbatim": "suppmh.xpt", "p4a_verdict": "PARTIAL", "p4a_similarity_score": 0.69, "p4a_discrepancy": "Partial match (score 0.69); may require editorial review", "md_candidates": [{"md_atom_id": "md_ch04_a918", "md_file": "knowledge_base/chapters/ch04_general_assumptions.md", "md_parent_section": "§4.5.3.2 [Text Strings Greater than 200 Characters in Other Variables]", "md_verbatim": "suppmh.xpt"}]}
{"pdf_atom_id": "ig34_p0239_a012", "atom_type": "CODE_LITERAL", "pdf_page": 239, "pdf_parent_section": "§6.3.5.5 Immunogenicity Specimen Assessments (IS)", "pdf_verbatim": "is.xpt", "p4a_verdict": "MISSING", "p4a_similarity_score": 0.79, "p4a_discrepancy": null, "md_candidates": []}
{"pdf_atom_id": "ig34_p0020_a005", "atom_type": "CODE_LITERAL", "pdf_page": 20, "pdf_parent_section": "§3.2.1 Dataset-level Metadata", "pdf_verbatim": "relrec.xpt", "p4a_verdict": "EQUIVALENT", "p4a_similarity_score": 0.143, "p4a_discrepancy": null, "md_candidates": [{"md_atom_id": "md_ch03_a083", "md_file": "knowledge_base/chapters/ch03_submitting_data.md", "md_parent_section": "§3.2.1 [Dataset-level Metadata]", "md_verbatim": "| RELREC | Related Records | Relationship | One record per related record, group of records or dataset | Tabulation | STUDYID, RDOMAIN, USUBJID, IDVAR, IDVARVAL, RELID | relrec.xpt |"}]}
{"pdf_atom_id": "ig34_p0161_a0005", "atom_type": "CODE_LITERAL", "pdf_page": 161, "pdf_parent_section": "§6.2.4 Disposition (DS)", "pdf_verbatim": "relrec.xpt", "p4a_verdict": "EQUIVALENT", "p4a_similarity_score": 0.79, "p4a_discrepancy": null, "md_candidates": [{"md_atom_id": "md_dmDS_ex_a067", "md_file": "knowledge_base/domains/DS/examples.md", "md_parent_section": "§DS.4 [Example 4]", "md_verbatim": "**relrec.xpt**"}]}
{"pdf_atom_id": "ig34_p0018_a053", "atom_type": "CODE_LITERAL", "pdf_page": 18, "pdf_parent_section": "§3.2.1 Dataset-level Metadata", "pdf_verbatim": "ms.xpt", "p4a_verdict": "PARTIAL", "p4a_similarity_score": 0.1062, "p4a_discrepancy": "CODE_LITERAL mismatch: pdf='ms.xpt' vs md='| TV | Trial Visits | Trial Design | One record per planned Visit per Arm | Tabulation | STUDYID, ARM, VISIT | tv.xpt |'", "md_candidates": [{"md_atom_id": "md_ch03_a082", "md_file": "knowledge_base/chapters/ch03_submitting_data.md", "md_parent_section": "§3.2.1 [Dataset-level Metadata]", "md_verbatim": "| TV | Trial Visits | Trial Design | One record per planned Visit per Arm | Tabulation | STUDYID, ARM, VISIT | tv.xpt |"}]}
{"pdf_atom_id": "ig34_p0228_a018", "atom_type": "CODE_LITERAL", "pdf_page": 228, "pdf_parent_section": "§6.3.5.4 Genomics Findings (GF)", "pdf_verbatim": "relrec.xpt", "p4a_verdict": "EQUIVALENT", "p4a_similarity_score": 0.79, "p4a_discrepancy": null, "md_candidates": [{"md_atom_id": "md_dmGF_ex_a107", "md_file": "knowledge_base/domains/GF/examples.md", "md_parent_section": "§GF.5 [Example 5]", "md_verbatim": "**relrec.xpt**"}]}
{"pdf_atom_id": "ig34_p0255_a002", "atom_type": "CODE_LITERAL", "pdf_page": 255, "pdf_parent_section": "§6.3.5.7.2 Microbiology Susceptibility (MS)", "pdf_verbatim": "MSDTC", "p4a_verdict": "EQUIVALENT", "p4a_similarity_score": 0.2543, "p4a_discrepancy": null, "md_candidates": [{"md_atom_id": "md_dmMS_assn_a009", "md_file": "knowledge_base/domains/MS/assumptions.md", "md_parent_section": "§MS [MS — Assumptions]", "md_verbatim": "2. MSDTC represents the date the specimen was collected."}]}
