{"atom_id": "ig34_p0121_a001", "source": "SDTMIG v3.4 (no header footer).pdf", "source_short": "ig34", "page": 121, "atom_index_on_page": 1, "atom_type": "HEADING", "verbatim": "6.1.4 Meal Data (ML)", "parent_section": "§6.1 [Models for Interventions Domains]", "heading_level": 3, "sibling_index": 4, "cross_refs": null, "figure_ref": null, "table_ref": null, "prompt_version": "P0_writer_pdf_v1.2+TOC_anchor+R1-R15"}
{"atom_id": "ig34_p0121_a002", "source": "SDTMIG v3.4 (no header footer).pdf", "source_short": "ig34", "page": 121, "atom_index_on_page": 2, "atom_type": "HEADING", "verbatim": "ML – Description/Overview", "parent_section": "§6.1.4 [Meal Data (ML)]", "heading_level": 4, "sibling_index": 1, "cross_refs": null, "figure_ref": null, "table_ref": null, "prompt_version": "P0_writer_pdf_v1.2+TOC_anchor+R1-R15"}
{"atom_id": "ig34_p0121_a003", "source": "SDTMIG v3.4 (no header footer).pdf", "source_short": "ig34", "page": 121, "atom_index_on_page": 3, "atom_type": "SENTENCE", "verbatim": "An interventions domain that contains information describing a subject's food product consumption.", "parent_section": "§6.1.4 [Meal Data (ML)]", "heading_level": null, "sibling_index": null, "cross_refs": null, "figure_ref": null, "table_ref": null, "prompt_version": "P0_writer_pdf_v1.2+TOC_anchor+R1-R15"}
{"atom_id": "ig34_p0121_a004", "source": "SDTMIG v3.4 (no header footer).pdf", "source_short": "ig34", "page": 121, "atom_index_on_page": 4, "atom_type": "HEADING", "verbatim": "ML – Specification", "parent_section": "§6.1.4 [Meal Data (ML)]", "heading_level": 4, "sibling_index": 2, "cross_refs": null, "figure_ref": null, "table_ref": null, "prompt_version": "P0_writer_pdf_v1.2+TOC_anchor+R1-R15"}
{"atom_id": "ig34_p0121_a005", "source": "SDTMIG v3.4 (no header footer).pdf", "source_short": "ig34", "page": 121, "atom_index_on_page": 5, "atom_type": "SENTENCE", "verbatim": "ml.xpt, Meal Data — Interventions. One record per food product occurrence or constant intake interval per subject, Tabulation.", "parent_section": "§6.1.4 [Meal Data (ML)]", "heading_level": null, "sibling_index": null, "cross_refs": null, "figure_ref": null, "table_ref": "ml.xpt", "prompt_version": "P0_writer_pdf_v1.2+TOC_anchor+R1-R15"}
{"atom_id": "ig34_p0121_a006", "source": "SDTMIG v3.4 (no header footer).pdf", "source_short": "ig34", "page": 121, "atom_index_on_page": 6, "atom_type": "TABLE_HEADER", "verbatim": "Variable Name | Variable Label | Type | Controlled Terms, Codelist or Format | Role | CDISC Notes | Core", "parent_section": "§6.1.4 [Meal Data (ML)]", "heading_level": null, "sibling_index": null, "cross_refs": null, "figure_ref": null, "table_ref": "ml.xpt", "prompt_version": "P0_writer_pdf_v1.2+TOC_anchor+R1-R15"}
{"atom_id": "ig34_p0121_a007", "source": "SDTMIG v3.4 (no header footer).pdf", "source_short": "ig34", "page": 121, "atom_index_on_page": 7, "atom_type": "TABLE_ROW", "verbatim": "STUDYID | Study Identifier | Char | | Identifier | Unique identifier for a study. | Req", "parent_section": "§6.1.4 [Meal Data (ML)]", "heading_level": null, "sibling_index": null, "cross_refs": null, "figure_ref": null, "table_ref": "ml.xpt", "prompt_version": "P0_writer_pdf_v1.2+TOC_anchor+R1-R15"}
{"atom_id": "ig34_p0121_a008", "source": "SDTMIG v3.4 (no header footer).pdf", "source_short": "ig34", "page": 121, "atom_index_on_page": 8, "atom_type": "TABLE_ROW", "verbatim": "DOMAIN | Domain Abbreviation | Char | ML | Identifier | Two-character abbreviation for the domain. | Req", "parent_section": "§6.1.4 [Meal Data (ML)]", "heading_level": null, "sibling_index": null, "cross_refs": null, "figure_ref": null, "table_ref": "ml.xpt", "prompt_version": "P0_writer_pdf_v1.2+TOC_anchor+R1-R15"}
{"atom_id": "ig34_p0121_a009", "source": "SDTMIG v3.4 (no header footer).pdf", "source_short": "ig34", "page": 121, "atom_index_on_page": 9, "atom_type": "TABLE_ROW", "verbatim": "USUBJID | Unique Subject Identifier | Char | | Identifier | Identifier used to uniquely identify a subject across all studies for all applications or submissions | Req", "parent_section": "§6.1.4 [Meal Data (ML)]", "heading_level": null, "sibling_index": null, "cross_refs": null, "figure_ref": null, "table_ref": "ml.xpt", "prompt_version": "P0_writer_pdf_v1.2+TOC_anchor+R1-R15"}
{"atom_id": "ig34_p0121_a010", "source": "SDTMIG v3.4 (no header footer).pdf", "source_short": "ig34", "page": 121, "atom_index_on_page": 10, "atom_type": "TABLE_ROW", "verbatim": "MLSEQ | Sequence Number | Num | | Identifier | Sequence number given to ensure uniqueness of subject records within a domain. May be any valid number. | Req", "parent_section": "§6.1.4 [Meal Data (ML)]", "heading_level": null, "sibling_index": null, "cross_refs": null, "figure_ref": null, "table_ref": "ml.xpt", "prompt_version": "P0_writer_pdf_v1.2+TOC_anchor+R1-R15"}
{"atom_id": "ig34_p0121_a011", "source": "SDTMIG v3.4 (no header footer).pdf", "source_short": "ig34", "page": 121, "atom_index_on_page": 11, "atom_type": "TABLE_ROW", "verbatim": "MLGRID | Group ID | Char | | Identifier | Used to tie together a block of related records in a single domain for a subject. | Perm", "parent_section": "§6.1.4 [Meal Data (ML)]", "heading_level": null, "sibling_index": null, "cross_refs": null, "figure_ref": null, "table_ref": "ml.xpt", "prompt_version": "P0_writer_pdf_v1.2+TOC_anchor+R1-R15"}
{"atom_id": "ig34_p0121_a012", "source": "SDTMIG v3.4 (no header footer).pdf", "source_short": "ig34", "page": 121, "atom_index_on_page": 12, "atom_type": "TABLE_ROW", "verbatim": "MLSPID | Sponsor-Defined Identifier | Char | | Identifier | Sponsor-defined reference number. Example: a number preprinted on the CRF as an explicit line identifier; record identifier defined in the sponsor's operational database. | Perm", "parent_section": "§6.1.4 [Meal Data (ML)]", "heading_level": null, "sibling_index": null, "cross_refs": null, "figure_ref": null, "table_ref": "ml.xpt", "prompt_version": "P0_writer_pdf_v1.2+TOC_anchor+R1-R15"}
{"atom_id": "ig34_p0121_a013", "source": "SDTMIG v3.4 (no header footer).pdf", "source_short": "ig34", "page": 121, "atom_index_on_page": 13, "atom_type": "TABLE_ROW", "verbatim": "MLTRT | Name of Meal | Char | * | Topic | Verbatim food product name that is either preprinted or collected on a CRF. | Req", "parent_section": "§6.1.4 [Meal Data (ML)]", "heading_level": null, "sibling_index": null, "cross_refs": null, "figure_ref": null, "table_ref": "ml.xpt", "prompt_version": "P0_writer_pdf_v1.2+TOC_anchor+R1-R15"}
{"atom_id": "ig34_p0121_a014", "source": "SDTMIG v3.4 (no header footer).pdf", "source_short": "ig34", "page": 121, "atom_index_on_page": 14, "atom_type": "TABLE_ROW", "verbatim": "MLCAT | Category for Meal | Char | * | Grouping Qualifier | Used to define a category of MLTRT values. | Perm", "parent_section": "§6.1.4 [Meal Data (ML)]", "heading_level": null, "sibling_index": null, "cross_refs": null, "figure_ref": null, "table_ref": "ml.xpt", "prompt_version": "P0_writer_pdf_v1.2+TOC_anchor+R1-R15"}
{"atom_id": "ig34_p0121_a015", "source": "SDTMIG v3.4 (no header footer).pdf", "source_short": "ig34", "page": 121, "atom_index_on_page": 15, "atom_type": "TABLE_ROW", "verbatim": "MLSCAT | Subcategory for Meal | Char | * | Grouping Qualifier | Used to define a further categorization of MLCAT values. | Perm", "parent_section": "§6.1.4 [Meal Data (ML)]", "heading_level": null, "sibling_index": null, "cross_refs": null, "figure_ref": null, "table_ref": "ml.xpt", "prompt_version": "P0_writer_pdf_v1.2+TOC_anchor+R1-R15"}
{"atom_id": "ig34_p0121_a016", "source": "SDTMIG v3.4 (no header footer).pdf", "source_short": "ig34", "page": 121, "atom_index_on_page": 16, "atom_type": "TABLE_ROW", "verbatim": "MLPRESP | ML Pre-specified | Char | (NY) | Variable Qualifier | Used when a specific meal is prespecified on a CRF. Values should be \"Y\" or null. | Perm", "parent_section": "§6.1.4 [Meal Data (ML)]", "heading_level": null, "sibling_index": null, "cross_refs": null, "figure_ref": null, "table_ref": "ml.xpt", "prompt_version": "P0_writer_pdf_v1.2+TOC_anchor+R1-R15"}
{"atom_id": "ig34_p0121_a017", "source": "SDTMIG v3.4 (no header footer).pdf", "source_short": "ig34", "page": 121, "atom_index_on_page": 17, "atom_type": "TABLE_ROW", "verbatim": "MLOCCUR | ML Occurrence | Char | (NY) | Record Qualifier | Used to record whether a prespecified meal occurred when information about the occurrence of a specific meal is solicited. | Perm", "parent_section": "§6.1.4 [Meal Data (ML)]", "heading_level": null, "sibling_index": null, "cross_refs": null, "figure_ref": null, "table_ref": "ml.xpt", "prompt_version": "P0_writer_pdf_v1.2+TOC_anchor+R1-R15"}
{"atom_id": "ig34_p0121_a018", "source": "SDTMIG v3.4 (no header footer).pdf", "source_short": "ig34", "page": 121, "atom_index_on_page": 18, "atom_type": "TABLE_ROW", "verbatim": "MLSTAT | Completion Status | Char | (ND) | Record Qualifier | Used to indicate when a question about the occurrence of a prespecified meal was not collected. | Perm", "parent_section": "§6.1.4 [Meal Data (ML)]", "heading_level": null, "sibling_index": null, "cross_refs": null, "figure_ref": null, "table_ref": "ml.xpt", "prompt_version": "P0_writer_pdf_v1.2+TOC_anchor+R1-R15"}
{"atom_id": "ig34_p0121_a019", "source": "SDTMIG v3.4 (no header footer).pdf", "source_short": "ig34", "page": 121, "atom_index_on_page": 19, "atom_type": "TABLE_ROW", "verbatim": "MLREASND | Reason Meal Not Collected | Char | | Record Qualifier | Describes the reason response to a question about the occurrence of a meal was not collected. Used in conjunction with MLSTAT when value is 'NOT DONE'. | Perm", "parent_section": "§6.1.4 [Meal Data (ML)]", "heading_level": null, "sibling_index": null, "cross_refs": null, "figure_ref": null, "table_ref": "ml.xpt", "prompt_version": "P0_writer_pdf_v1.2+TOC_anchor+R1-R15"}
{"atom_id": "ig34_p0121_a020", "source": "SDTMIG v3.4 (no header footer).pdf", "source_short": "ig34", "page": 121, "atom_index_on_page": 20, "atom_type": "TABLE_ROW", "verbatim": "MLDOSE | Dose | Num | | Record Qualifier | Amount of MLTRT consumed. Not populated when MLDOSTXT is populated. | Perm", "parent_section": "§6.1.4 [Meal Data (ML)]", "heading_level": null, "sibling_index": null, "cross_refs": null, "figure_ref": null, "table_ref": "ml.xpt", "prompt_version": "P0_writer_pdf_v1.2+TOC_anchor+R1-R15"}
{"atom_id": "ig34_p0121_a021", "source": "SDTMIG v3.4 (no header footer).pdf", "source_short": "ig34", "page": 121, "atom_index_on_page": 21, "atom_type": "TABLE_ROW", "verbatim": "MLDOSTXT | Dose Description | Char | | Record Qualifier | Amount description of MLTRT consumed, collected in text form. Not populated when MLDOSE is populated. Examples: \"<1 per day\", \"200-400\". | Perm", "parent_section": "§6.1.4 [Meal Data (ML)]", "heading_level": null, "sibling_index": null, "cross_refs": null, "figure_ref": null, "table_ref": "ml.xpt", "prompt_version": "P0_writer_pdf_v1.2+TOC_anchor+R1-R15"}
{"atom_id": "ig34_p0121_a022", "source": "SDTMIG v3.4 (no header footer).pdf", "source_short": "ig34", "page": 121, "atom_index_on_page": 22, "atom_type": "TABLE_ROW", "verbatim": "MLDOSU | Dose Units | Char | (UNIT) | Variable Qualifier | Units for MLDOSE, MLDOSTXT, or MLDOSTXT. | Perm", "parent_section": "§6.1.4 [Meal Data (ML)]", "heading_level": null, "sibling_index": null, "cross_refs": null, "figure_ref": null, "table_ref": "ml.xpt", "prompt_version": "P0_writer_pdf_v1.2+TOC_anchor+R1-R15"}
{"atom_id": "ig34_p0121_a023", "source": "SDTMIG v3.4 (no header footer).pdf", "source_short": "ig34", "page": 121, "atom_index_on_page": 23, "atom_type": "TABLE_ROW", "verbatim": "MLDOSFRM | Dose Form | Char | (FRM) | Variable Qualifier | Dosage form for MLTRT. Example: \"BAR, CHEWABLE\". | Perm", "parent_section": "§6.1.4 [Meal Data (ML)]", "heading_level": null, "sibling_index": null, "cross_refs": null, "figure_ref": null, "table_ref": "ml.xpt", "prompt_version": "P0_writer_pdf_v1.2+TOC_anchor+R1-R15"}
{"atom_id": "ig34_p0121_a024", "source": "SDTMIG v3.4 (no header footer).pdf", "source_short": "ig34", "page": 121, "atom_index_on_page": 24, "atom_type": "TABLE_ROW", "verbatim": "VISITNUM | Visit Number | Num | | Timing | Clinical encounter number. Numeric version used for sorting. | Perm", "parent_section": "§6.1.4 [Meal Data (ML)]", "heading_level": null, "sibling_index": null, "cross_refs": null, "figure_ref": null, "table_ref": "ml.xpt", "prompt_version": "P0_writer_pdf_v1.2+TOC_anchor+R1-R15"}
{"atom_id": "ig34_p0121_a025", "source": "SDTMIG v3.4 (no header footer).pdf", "source_short": "ig34", "page": 121, "atom_index_on_page": 25, "atom_type": "TABLE_ROW", "verbatim": "VISIT | Visit Name | Char | | Timing | Protocol-defined description of a clinical encounter. | Perm", "parent_section": "§6.1.4 [Meal Data (ML)]", "heading_level": null, "sibling_index": null, "cross_refs": null, "figure_ref": null, "table_ref": "ml.xpt", "prompt_version": "P0_writer_pdf_v1.2+TOC_anchor+R1-R15"}
{"atom_id": "ig34_p0121_a026", "source": "SDTMIG v3.4 (no header footer).pdf", "source_short": "ig34", "page": 121, "atom_index_on_page": 26, "atom_type": "TABLE_ROW", "verbatim": "VISITDY | Planned Study Day of Visit | Num | | Timing | Planned study day of VISIT. Should be an integer. | Perm", "parent_section": "§6.1.4 [Meal Data (ML)]", "heading_level": null, "sibling_index": null, "cross_refs": null, "figure_ref": null, "table_ref": "ml.xpt", "prompt_version": "P0_writer_pdf_v1.2+TOC_anchor+R1-R15"}
{"atom_id": "ig34_p0121_a027", "source": "SDTMIG v3.4 (no header footer).pdf", "source_short": "ig34", "page": 121, "atom_index_on_page": 27, "atom_type": "TABLE_ROW", "verbatim": "TAETORD | Planned Order of Element within Arm | Num | | Timing | Number that gives the planned order of the element within the arm for the element in which the arm started. | Perm", "parent_section": "§6.1.4 [Meal Data (ML)]", "heading_level": null, "sibling_index": null, "cross_refs": null, "figure_ref": null, "table_ref": "ml.xpt", "prompt_version": "P0_writer_pdf_v1.2+TOC_anchor+R1-R15"}
{"atom_id": "ig34_p0121_a028", "source": "SDTMIG v3.4 (no header footer).pdf", "source_short": "ig34", "page": 121, "atom_index_on_page": 28, "atom_type": "TABLE_ROW", "verbatim": "EPOCH | Epoch | Char | (EPOCH) | Timing | Epoch associated with the start date/time of the meal. | Perm", "parent_section": "§6.1.4 [Meal Data (ML)]", "heading_level": null, "sibling_index": null, "cross_refs": null, "figure_ref": null, "table_ref": "ml.xpt", "prompt_version": "P0_writer_pdf_v1.2+TOC_anchor+R1-R15"}
{"atom_id": "ig34_p0121_a029", "source": "SDTMIG v3.4 (no header footer).pdf", "source_short": "ig34", "page": 121, "atom_index_on_page": 29, "atom_type": "TABLE_ROW", "verbatim": "MLDTC | Date/Time of Collection | Char | ISO 8601 date/time or interval | Timing | Collection date and time of meal represented in ISO 8601 character format. | Perm", "parent_section": "§6.1.4 [Meal Data (ML)]", "heading_level": null, "sibling_index": null, "cross_refs": null, "figure_ref": null, "table_ref": "ml.xpt", "prompt_version": "P0_writer_pdf_v1.2+TOC_anchor+R1-R15"}
{"atom_id": "ig34_p0122_a001", "source": "SDTMIG v3.4 (no header footer).pdf", "source_short": "ig34", "page": 122, "atom_index_on_page": 1, "atom_type": "TABLE_ROW", "verbatim": "MLSTDTC | Start Date/Time of Meal | Char | ISO 8601 date/time or interval | Timing | Start date/time of the meal represented in ISO 8601 character format. | Perm", "parent_section": "§6.1.4 [Meal Data (ML)]", "heading_level": null, "sibling_index": null, "cross_refs": null, "figure_ref": null, "table_ref": "ml.xpt", "prompt_version": "P0_writer_pdf_v1.2+TOC_anchor+R1-R15"}
{"atom_id": "ig34_p0122_a002", "source": "SDTMIG v3.4 (no header footer).pdf", "source_short": "ig34", "page": 122, "atom_index_on_page": 2, "atom_type": "TABLE_ROW", "verbatim": "MLENDTC | End Date/Time of Meal | Char | ISO 8601 date/time or interval | Timing | End date/time of the meal represented in ISO 8601 character format. | Perm", "parent_section": "§6.1.4 [Meal Data (ML)]", "heading_level": null, "sibling_index": null, "cross_refs": null, "figure_ref": null, "table_ref": "ml.xpt", "prompt_version": "P0_writer_pdf_v1.2+TOC_anchor+R1-R15"}
{"atom_id": "ig34_p0122_a003", "source": "SDTMIG v3.4 (no header footer).pdf", "source_short": "ig34", "page": 122, "atom_index_on_page": 3, "atom_type": "TABLE_ROW", "verbatim": "MLDY | Study Day of Visit/Collection/Exam | Num | | Timing | Actual study day of the visit/collection expressed in integer days relative to the sponsor-defined RFSTDTC in Demographics. | Perm", "parent_section": "§6.1.4 [Meal Data (ML)]", "heading_level": null, "sibling_index": null, "cross_refs": null, "figure_ref": null, "table_ref": "ml.xpt", "prompt_version": "P0_writer_pdf_v1.2+TOC_anchor+R1-R15"}
{"atom_id": "ig34_p0122_a004", "source": "SDTMIG v3.4 (no header footer).pdf", "source_short": "ig34", "page": 122, "atom_index_on_page": 4, "atom_type": "TABLE_ROW", "verbatim": "MLSTDY | Study Day of Start of Meal | Num | | Timing | Actual study day of start of the meal expressed in integer days relative to sponsor-defined RFSTDTC in Demographics. | Perm", "parent_section": "§6.1.4 [Meal Data (ML)]", "heading_level": null, "sibling_index": null, "cross_refs": null, "figure_ref": null, "table_ref": "ml.xpt", "prompt_version": "P0_writer_pdf_v1.2+TOC_anchor+R1-R15"}
{"atom_id": "ig34_p0122_a005", "source": "SDTMIG v3.4 (no header footer).pdf", "source_short": "ig34", "page": 122, "atom_index_on_page": 5, "atom_type": "TABLE_ROW", "verbatim": "MLENDY | Study Day of End of Meal | Num | | Timing | Actual study day of end of the meal expressed in integer days relative to the sponsor-defined RFSTDTC in Demographics. | Perm", "parent_section": "§6.1.4 [Meal Data (ML)]", "heading_level": null, "sibling_index": null, "cross_refs": null, "figure_ref": null, "table_ref": "ml.xpt", "prompt_version": "P0_writer_pdf_v1.2+TOC_anchor+R1-R15"}
{"atom_id": "ig34_p0122_a006", "source": "SDTMIG v3.4 (no header footer).pdf", "source_short": "ig34", "page": 122, "atom_index_on_page": 6, "atom_type": "TABLE_ROW", "verbatim": "MLDUR | Duration of Meal | Char | ISO 8601 duration | Timing | Collected duration of the meal represented in ISO 8601 character format. Used only if collected on the CRF and not derived. | Perm", "parent_section": "§6.1.4 [Meal Data (ML)]", "heading_level": null, "sibling_index": null, "cross_refs": null, "figure_ref": null, "table_ref": "ml.xpt", "prompt_version": "P0_writer_pdf_v1.2+TOC_anchor+R1-R15"}
{"atom_id": "ig34_p0122_a007", "source": "SDTMIG v3.4 (no header footer).pdf", "source_short": "ig34", "page": 122, "atom_index_on_page": 7, "atom_type": "TABLE_ROW", "verbatim": "MLTPT | Planned Time Point Name | Char | | Timing | Name of a planned time point for a measurement or observation should be taken as defined in the protocol. This may be represented as an elapsed time relative to a fixed reference point. | Perm", "parent_section": "§6.1.4 [Meal Data (ML)]", "heading_level": null, "sibling_index": null, "cross_refs": null, "figure_ref": null, "table_ref": "ml.xpt", "prompt_version": "P0_writer_pdf_v1.2+TOC_anchor+R1-R15"}
{"atom_id": "ig34_p0122_a008", "source": "SDTMIG v3.4 (no header footer).pdf", "source_short": "ig34", "page": 122, "atom_index_on_page": 8, "atom_type": "TABLE_ROW", "verbatim": "MLTPTNUM | Planned Time Point Number | Num | | Timing | Numeric version of planned time point used in sorting. | Perm", "parent_section": "§6.1.4 [Meal Data (ML)]", "heading_level": null, "sibling_index": null, "cross_refs": null, "figure_ref": null, "table_ref": "ml.xpt", "prompt_version": "P0_writer_pdf_v1.2+TOC_anchor+R1-R15"}
{"atom_id": "ig34_p0122_a009", "source": "SDTMIG v3.4 (no header footer).pdf", "source_short": "ig34", "page": 122, "atom_index_on_page": 9, "atom_type": "TABLE_ROW", "verbatim": "MLELTM | Planned Elapsed Time from Time Point Ref | Char | ISO 8601 duration | Timing | Planned elapsed time (in ISO 8601 values) relative to the planned fixed reference (MLTPREF). This variable is useful when there are repetitive measures. Not a clock time or a date/time variable. Represented as an ISO 8601 duration. | Perm", "parent_section": "§6.1.4 [Meal Data (ML)]", "heading_level": null, "sibling_index": null, "cross_refs": null, "figure_ref": null, "table_ref": "ml.xpt", "prompt_version": "P0_writer_pdf_v1.2+TOC_anchor+R1-R15"}
{"atom_id": "ig34_p0122_a010", "source": "SDTMIG v3.4 (no header footer).pdf", "source_short": "ig34", "page": 122, "atom_index_on_page": 10, "atom_type": "TABLE_ROW", "verbatim": "MLTPREF | Time Point Reference | Char | ISO 8601 date/time or interval | Timing | Description of the fixed reference time point referred to by MLELTM, MLTPTNUM, and MLTPT. | Perm", "parent_section": "§6.1.4 [Meal Data (ML)]", "heading_level": null, "sibling_index": null, "cross_refs": null, "figure_ref": null, "table_ref": "ml.xpt", "prompt_version": "P0_writer_pdf_v1.2+TOC_anchor+R1-R15"}
{"atom_id": "ig34_p0122_a011", "source": "SDTMIG v3.4 (no header footer).pdf", "source_short": "ig34", "page": 122, "atom_index_on_page": 11, "atom_type": "TABLE_ROW", "verbatim": "MLRFDTC | Date/Time of Reference | Char | ISO 8601 date/time or interval | Timing | Baseline for a fixed reference time point referred to by MLTPREF in the MLRFDTC. Baseline for a fixed reference time point. | Perm", "parent_section": "§6.1.4 [Meal Data (ML)]", "heading_level": null, "sibling_index": null, "cross_refs": null, "figure_ref": null, "table_ref": "ml.xpt", "prompt_version": "P0_writer_pdf_v1.2+TOC_anchor+R1-R15"}
{"atom_id": "ig34_p0122_a012", "source": "SDTMIG v3.4 (no header footer).pdf", "source_short": "ig34", "page": 122, "atom_index_on_page": 12, "atom_type": "TABLE_ROW", "verbatim": "MIDS | Disease Milestone Instance Name | Char | | Timing | The name of a specific instance of a disease milestone type (MIDSTYPE) described in the Trial Disease Milestones dataset. This should be unique within a study. Used only in conjunction with RELMIDS and MIDSDTC. | Perm", "parent_section": "§6.1.4 [Meal Data (ML)]", "heading_level": null, "sibling_index": null, "cross_refs": null, "figure_ref": null, "table_ref": "ml.xpt", "prompt_version": "P0_writer_pdf_v1.2+TOC_anchor+R1-R15"}
{"atom_id": "ig34_p0122_a013", "source": "SDTMIG v3.4 (no header footer).pdf", "source_short": "ig34", "page": 122, "atom_index_on_page": 13, "atom_type": "TABLE_ROW", "verbatim": "RELMIDS | Temporal Relation to Milestone Instance | Char | | Timing | The temporal relationship of the observation to the disease milestone instance name in MIDS. Examples: \"IMMEDIATELY BEFORE\", \"AT TIME OF\", \"AFTER\". | Perm", "parent_section": "§6.1.4 [Meal Data (ML)]", "heading_level": null, "sibling_index": null, "cross_refs": null, "figure_ref": null, "table_ref": "ml.xpt", "prompt_version": "P0_writer_pdf_v1.2+TOC_anchor+R1-R15"}
{"atom_id": "ig34_p0122_a014", "source": "SDTMIG v3.4 (no header footer).pdf", "source_short": "ig34", "page": 122, "atom_index_on_page": 14, "atom_type": "TABLE_ROW", "verbatim": "MIDSDTC | Disease Milestone Instance Date/Time | Char | ISO 8601 date/time interval | Timing | The start date/time of the disease milestone instance name in MIDS, in ISO 8601 format. | Perm", "parent_section": "§6.1.4 [Meal Data (ML)]", "heading_level": null, "sibling_index": null, "cross_refs": null, "figure_ref": null, "table_ref": "ml.xpt", "prompt_version": "P0_writer_pdf_v1.2+TOC_anchor+R1-R15"}
{"atom_id": "ig34_p0122_a015", "source": "SDTMIG v3.4 (no header footer).pdf", "source_short": "ig34", "page": 122, "atom_index_on_page": 15, "atom_type": "NOTE", "verbatim": "In this column, an asterisk (*) indicates that the variable may be subject to controlled terminology. CDISC/NCIBI codelist values are enclosed in parentheses.", "parent_section": "§6.1.4 [Meal Data (ML)]", "heading_level": null, "sibling_index": null, "cross_refs": null, "figure_ref": null, "table_ref": null, "prompt_version": "P0_writer_pdf_v1.2+TOC_anchor+R1-R15"}
{"atom_id": "ig34_p0122_a016", "source": "SDTMIG v3.4 (no header footer).pdf", "source_short": "ig34", "page": 122, "atom_index_on_page": 16, "atom_type": "HEADING", "verbatim": "ML – Assumptions", "parent_section": "§6.1.4 [Meal Data (ML)]", "heading_level": 4, "sibling_index": 3, "cross_refs": null, "figure_ref": null, "table_ref": null, "prompt_version": "P0_writer_pdf_v1.2+TOC_anchor+R1-R15"}
{"atom_id": "ig34_p0122_a017", "source": "SDTMIG v3.4 (no header footer).pdf", "source_short": "ig34", "page": 122, "atom_index_on_page": 17, "atom_type": "LIST_ITEM", "verbatim": "The ML domain is used to represent consumption of any food or nutritional item that would not be represented in the exposure domains (EC/EX), Concomitant/Prior Medications (CM), Procedure Agents (AG), or Substance Use (SU). Examples of nutritional items that would not be represented in other domains include:", "parent_section": "§6.1.4 [Meal Data (ML)]", "heading_level": null, "sibling_index": 1, "cross_refs": null, "figure_ref": null, "table_ref": null, "prompt_version": "P0_writer_pdf_v1.2+TOC_anchor+R1-R15"}
{"atom_id": "ig34_p0122_a018", "source": "SDTMIG v3.4 (no header footer).pdf", "source_short": "ig34", "page": 122, "atom_index_on_page": 18, "atom_type": "LIST_ITEM", "verbatim": "Investigational nutritional products (represented in EC/EX)", "parent_section": "§6.1.4 [Meal Data (ML)]", "heading_level": null, "sibling_index": null, "cross_refs": null, "figure_ref": null, "table_ref": null, "prompt_version": "P0_writer_pdf_v1.2+TOC_anchor+R1-R15"}
{"atom_id": "ig34_p0122_a019", "source": "SDTMIG v3.4 (no header footer).pdf", "source_short": "ig34", "page": 122, "atom_index_on_page": 19, "atom_type": "LIST_ITEM", "verbatim": "Food or drink used to treat hypoglycemic events (represented in CM)", "parent_section": "§6.1.4 [Meal Data (ML)]", "heading_level": null, "sibling_index": null, "cross_refs": null, "figure_ref": null, "table_ref": null, "prompt_version": "P0_writer_pdf_v1.2+TOC_anchor+R1-R15"}
{"atom_id": "ig34_p0122_a020", "source": "SDTMIG v3.4 (no header footer).pdf", "source_short": "ig34", "page": 122, "atom_index_on_page": 20, "atom_type": "LIST_ITEM", "verbatim": "Glucose given as part of a glucose tolerance test (represented in AG)", "parent_section": "§6.1.4 [Meal Data (ML)]", "heading_level": null, "sibling_index": null, "cross_refs": null, "figure_ref": null, "table_ref": null, "prompt_version": "P0_writer_pdf_v1.2+TOC_anchor+R1-R15"}
{"atom_id": "ig34_p0122_a021", "source": "SDTMIG v3.4 (no header footer).pdf", "source_short": "ig34", "page": 122, "atom_index_on_page": 21, "atom_type": "LIST_ITEM", "verbatim": "Caffeinated drinks (represented in SU)", "parent_section": "§6.1.4 [Meal Data (ML)]", "heading_level": null, "sibling_index": null, "cross_refs": null, "figure_ref": null, "table_ref": null, "prompt_version": "P0_writer_pdf_v1.2+TOC_anchor+R1-R15"}
{"atom_id": "ig34_p0122_a022", "source": "SDTMIG v3.4 (no header footer).pdf", "source_short": "ig34", "page": 122, "atom_index_on_page": 22, "atom_type": "SENTENCE", "verbatim": "The nutritional items represented in ML may be prospectively defined within a protocol, collected retrospectively as potential precipitants of clinical events, and/or to describe nutritional intake.", "parent_section": "§6.1.4 [Meal Data (ML)]", "heading_level": null, "sibling_index": null, "cross_refs": null, "figure_ref": null, "table_ref": null, "prompt_version": "P0_writer_pdf_v1.2+TOC_anchor+R1-R15"}
{"atom_id": "ig34_p0122_a023", "source": "SDTMIG v3.4 (no header footer).pdf", "source_short": "ig34", "page": 122, "atom_index_on_page": 23, "atom_type": "LIST_ITEM", "verbatim": "Additional timing variables", "parent_section": "§6.1.4 [Meal Data (ML)]", "heading_level": null, "sibling_index": 2, "cross_refs": null, "figure_ref": null, "table_ref": null, "prompt_version": "P0_writer_pdf_v1.2+TOC_anchor+R1-R15"}
{"atom_id": "ig34_p0122_a024", "source": "SDTMIG v3.4 (no header footer).pdf", "source_short": "ig34", "page": 122, "atom_index_on_page": 24, "atom_type": "LIST_ITEM", "verbatim": "Any additional timing variables may be added to this domain.", "parent_section": "§6.1.4 [Meal Data (ML)]", "heading_level": null, "sibling_index": null, "cross_refs": null, "figure_ref": null, "table_ref": null, "prompt_version": "P0_writer_pdf_v1.2+TOC_anchor+R1-R15"}
{"atom_id": "ig34_p0122_a025", "source": "SDTMIG v3.4 (no header footer).pdf", "source_short": "ig34", "page": 122, "atom_index_on_page": 25, "atom_type": "LIST_ITEM", "verbatim": "Consumption of a food product is considered to occur over an interval of time (as opposed to a point in time). If start and end date/times are collected, they should be represented in MLSTDTC and MLENDTC, respectively. If only a start date/time is collected, it should not be copied to MLENDTC.", "parent_section": "§6.1.4 [Meal Data (ML)]", "heading_level": null, "sibling_index": null, "cross_refs": null, "figure_ref": null, "table_ref": null, "prompt_version": "P0_writer_pdf_v1.2+TOC_anchor+R1-R15"}
{"atom_id": "ig34_p0122_a026", "source": "SDTMIG v3.4 (no header footer).pdf", "source_short": "ig34", "page": 122, "atom_index_on_page": 26, "atom_type": "LIST_ITEM", "verbatim": "Any identifier variables, timing variables, or findings general observation-class qualifiers may be added to the ML domain, but the following qualifiers would generally not be used: --MOOD, --LOT, --LOC, --LAT, --DIR, --PORTOT.", "parent_section": "§6.1.4 [Meal Data (ML)]", "heading_level": null, "sibling_index": 3, "cross_refs": null, "figure_ref": null, "table_ref": null, "prompt_version": "P0_writer_pdf_v1.2+TOC_anchor+R1-R15"}
{"atom_id": "ig34_p0123_a001", "source": "SDTMIG v3.4 (no header footer).pdf", "source_short": "ig34", "page": 123, "atom_index_on_page": 1, "atom_type": "HEADING", "verbatim": "ML – Examples", "parent_section": "§6.1.4 [Meal Data (ML)]", "heading_level": 4, "sibling_index": 4, "cross_refs": null, "figure_ref": null, "table_ref": null, "prompt_version": "P0_writer_pdf_v1.2+TOC_anchor+R1-R15"}
{"atom_id": "ig34_p0123_a002", "source": "SDTMIG v3.4 (no header footer).pdf", "source_short": "ig34", "page": 123, "atom_index_on_page": 2, "atom_type": "HEADING", "verbatim": "Example 1", "parent_section": "§6.1.4 [Meal Data (ML)]", "heading_level": 5, "sibling_index": 1, "cross_refs": null, "figure_ref": null, "table_ref": null, "prompt_version": "P0_writer_pdf_v1.2+TOC_anchor+R1-R15"}
{"atom_id": "ig34_p0123_a003", "source": "SDTMIG v3.4 (no header footer).pdf", "source_short": "ig34", "page": 123, "atom_index_on_page": 3, "atom_type": "SENTENCE", "verbatim": "This example shows meal data collected in an effort to understand the causes of 2 different kinds of events.", "parent_section": "§6.1.4 [Meal Data (ML)]", "heading_level": null, "sibling_index": null, "cross_refs": null, "figure_ref": null, "table_ref": null, "prompt_version": "P0_writer_pdf_v1.2+TOC_anchor+R1-R15"}
{"atom_id": "ig34_p0123_a004", "source": "SDTMIG v3.4 (no header footer).pdf", "source_short": "ig34", "page": 123, "atom_index_on_page": 4, "atom_type": "LIST_ITEM", "verbatim": "Data was collected about the last meal before each hypoglycemic event", "parent_section": "§6.1.4 [Meal Data (ML)]", "heading_level": null, "sibling_index": null, "cross_refs": null, "figure_ref": null, "table_ref": null, "prompt_version": "P0_writer_pdf_v1.2+TOC_anchor+R1-R15"}
{"atom_id": "ig34_p0123_a005", "source": "SDTMIG v3.4 (no header footer).pdf", "source_short": "ig34", "page": 123, "atom_index_on_page": 5, "atom_type": "LIST_ITEM", "verbatim": "Data was collected about the occurrence of of prespecified foods prior to a suspected event of drug-induced liver injury (DILI).", "parent_section": "§6.1.4 [Meal Data (ML)]", "heading_level": null, "sibling_index": null, "cross_refs": null, "figure_ref": null, "table_ref": null, "prompt_version": "P0_writer_pdf_v1.2+TOC_anchor+R1-R15+repair"}
{"atom_id": "ig34_p0123_a006", "source": "SDTMIG v3.4 (no header footer).pdf", "source_short": "ig34", "page": 123, "atom_index_on_page": 6, "atom_type": "HEADING", "verbatim": "Meal Log CRF", "parent_section": "§6.1.4 [Meal Data (ML)]", "heading_level": 5, "sibling_index": null, "cross_refs": null, "figure_ref": null, "table_ref": null, "prompt_version": "P0_writer_pdf_v1.2+TOC_anchor+R1-R15"}
{"atom_id": "ig34_p0123_a007", "source": "SDTMIG v3.4 (no header footer).pdf", "source_short": "ig34", "page": 123, "atom_index_on_page": 7, "atom_type": "SENTENCE", "verbatim": "Record the last type of meal/food consumption prior to the hypoglycemic event:", "parent_section": "§6.1.4 [Meal Data (ML)]", "heading_level": null, "sibling_index": null, "cross_refs": null, "figure_ref": null, "table_ref": null, "prompt_version": "P0_writer_pdf_v1.2+TOC_anchor+R1-R15"}
{"atom_id": "ig34_p0123_a008", "source": "SDTMIG v3.4 (no header footer).pdf", "source_short": "ig34", "page": 123, "atom_index_on_page": 8, "atom_type": "TABLE_HEADER", "verbatim": "Type | If Nutritional Drink, Volume (ounces) | Start Date | Start Time | Event ID", "parent_section": "§6.1.4 [Meal Data (ML)]", "heading_level": null, "sibling_index": null, "cross_refs": null, "figure_ref": null, "table_ref": null, "prompt_version": "P0_writer_pdf_v1.2+TOC_anchor+R1-R15"}
{"atom_id": "ig34_p0123_a009", "source": "SDTMIG v3.4 (no header footer).pdf", "source_short": "ig34", "page": 123, "atom_index_on_page": 9, "atom_type": "TABLE_ROW", "verbatim": "X Snack | Nutritional drink | Meal | | 2015 Jun 03 | 14:15 | CE001", "parent_section": "§6.1.4 [Meal Data (ML)]", "heading_level": null, "sibling_index": null, "cross_refs": null, "figure_ref": null, "table_ref": null, "prompt_version": "P0_writer_pdf_v1.2+TOC_anchor+R1-R15"}
{"atom_id": "ig34_p0123_a010", "source": "SDTMIG v3.4 (no header footer).pdf", "source_short": "ig34", "page": 123, "atom_index_on_page": 10, "atom_type": "TABLE_ROW", "verbatim": "Snack X Nutritional drink | Meal | 8 oz | 2015 Sep 03 | 8:30 | CE002", "parent_section": "§6.1.4 [Meal Data (ML)]", "heading_level": null, "sibling_index": null, "cross_refs": null, "figure_ref": null, "table_ref": null, "prompt_version": "P0_writer_pdf_v1.2+TOC_anchor+R1-R15"}
{"atom_id": "ig34_p0123_a011", "source": "SDTMIG v3.4 (no header footer).pdf", "source_short": "ig34", "page": 123, "atom_index_on_page": 11, "atom_type": "TABLE_ROW", "verbatim": "Snack | Nutritional drink | X Meal | | 2015 Dec 31 | 19:00 | CE003", "parent_section": "§6.1.4 [Meal Data (ML)]", "heading_level": null, "sibling_index": null, "cross_refs": null, "figure_ref": null, "table_ref": null, "prompt_version": "P0_writer_pdf_v1.2+TOC_anchor+R1-R15"}
{"atom_id": "ig34_p0123_a012", "source": "SDTMIG v3.4 (no header footer).pdf", "source_short": "ig34", "page": 123, "atom_index_on_page": 12, "atom_type": "NOTE", "verbatim": "Click here to add a row. ADD ROW", "parent_section": "§6.1.4 [Meal Data (ML)]", "heading_level": null, "sibling_index": null, "cross_refs": null, "figure_ref": null, "table_ref": null, "prompt_version": "P0_writer_pdf_v1.2+TOC_anchor+R1-R15"}
{"atom_id": "ig34_p0123_a013", "source": "SDTMIG v3.4 (no header footer).pdf", "source_short": "ig34", "page": 123, "atom_index_on_page": 13, "atom_type": "HEADING", "verbatim": "DILI Meal CRF", "parent_section": "§6.1.4 [Meal Data (ML)]", "heading_level": 5, "sibling_index": null, "cross_refs": null, "figure_ref": null, "table_ref": null, "prompt_version": "P0_writer_pdf_v1.2+TOC_anchor+R1-R15"}
{"atom_id": "ig34_p0123_a014", "source": "SDTMIG v3.4 (no header footer).pdf", "source_short": "ig34", "page": 123, "atom_index_on_page": 14, "atom_type": "SENTENCE", "verbatim": "If suspected DILI, did you consume any of the following in the past week?", "parent_section": "§6.1.4 [Meal Data (ML)]", "heading_level": null, "sibling_index": null, "cross_refs": null, "figure_ref": null, "table_ref": null, "prompt_version": "P0_writer_pdf_v1.2+TOC_anchor+R1-R15"}
{"atom_id": "ig34_p0123_a015", "source": "SDTMIG v3.4 (no header footer).pdf", "source_short": "ig34", "page": 123, "atom_index_on_page": 15, "atom_type": "TABLE_HEADER", "verbatim": "Type | Occurrence | If yes, Date", "parent_section": "§6.1.4 [Meal Data (ML)]", "heading_level": null, "sibling_index": null, "cross_refs": null, "figure_ref": null, "table_ref": null, "prompt_version": "P0_writer_pdf_v1.2+TOC_anchor+R1-R15"}
{"atom_id": "ig34_p0123_a016", "source": "SDTMIG v3.4 (no header footer).pdf", "source_short": "ig34", "page": 123, "atom_index_on_page": 16, "atom_type": "TABLE_ROW", "verbatim": "Wild mushrooms | X Yes | No | 2015 DEC 24", "parent_section": "§6.1.4 [Meal Data (ML)]", "heading_level": null, "sibling_index": null, "cross_refs": null, "figure_ref": null, "table_ref": null, "prompt_version": "P0_writer_pdf_v1.2+TOC_anchor+R1-R15"}
{"atom_id": "ig34_p0123_a017", "source": "SDTMIG v3.4 (no header footer).pdf", "source_short": "ig34", "page": 123, "atom_index_on_page": 17, "atom_type": "TABLE_ROW", "verbatim": "Ackee fruit | Yes | X No | |", "parent_section": "§6.1.4 [Meal Data (ML)]", "heading_level": null, "sibling_index": null, "cross_refs": null, "figure_ref": null, "table_ref": null, "prompt_version": "P0_writer_pdf_v1.2+TOC_anchor+R1-R15"}
{"atom_id": "ig34_p0123_a018", "source": "SDTMIG v3.4 (no header footer).pdf", "source_short": "ig34", "page": 123, "atom_index_on_page": 18, "atom_type": "TABLE_ROW", "verbatim": "Cycad seeds | Yes | X No | |", "parent_section": "§6.1.4 [Meal Data (ML)]", "heading_level": null, "sibling_index": null, "cross_refs": null, "figure_ref": null, "table_ref": null, "prompt_version": "P0_writer_pdf_v1.2+TOC_anchor+R1-R15"}
{"atom_id": "ig34_p0123_a019", "source": "SDTMIG v3.4 (no header footer).pdf", "source_short": "ig34", "page": 123, "atom_index_on_page": 19, "atom_type": "NOTE", "verbatim": "Note that in this example MLENDTC is null. Because no end date was collected, the meal was represented as a point-in-time event, as described in Assumption 2b.", "parent_section": "§6.1.4 [Meal Data (ML)]", "heading_level": null, "sibling_index": null, "cross_refs": null, "figure_ref": null, "table_ref": null, "prompt_version": "P0_writer_pdf_v1.2+TOC_anchor+R1-R15"}
{"atom_id": "ig34_p0123_a020", "source": "SDTMIG v3.4 (no header footer).pdf", "source_short": "ig34", "page": 123, "atom_index_on_page": 20, "atom_type": "SENTENCE", "verbatim": "Rows 1-3: Show the last meal data for 3 hypoglycemic events.", "parent_section": "§6.1.4 [Meal Data (ML)]", "heading_level": null, "sibling_index": null, "cross_refs": null, "figure_ref": null, "table_ref": null, "prompt_version": "P0_writer_pdf_v1.2+TOC_anchor+R1-R15"}
{"atom_id": "ig34_p0123_a021", "source": "SDTMIG v3.4 (no header footer).pdf", "source_short": "ig34", "page": 123, "atom_index_on_page": 21, "atom_type": "SENTENCE", "verbatim": "Rows 4-6: Show the meal data collected relative to the suspected DILI.", "parent_section": "§6.1.4 [Meal Data (ML)]", "heading_level": null, "sibling_index": null, "cross_refs": null, "figure_ref": null, "table_ref": null, "prompt_version": "P0_writer_pdf_v1.2+TOC_anchor+R1-R15"}
{"atom_id": "ig34_p0123_a022", "source": "SDTMIG v3.4 (no header footer).pdf", "source_short": "ig34", "page": 123, "atom_index_on_page": 22, "atom_type": "HEADING", "verbatim": "ml.xpt", "parent_section": "§6.1.4 [Meal Data (ML)]", "heading_level": 5, "sibling_index": null, "cross_refs": null, "figure_ref": null, "table_ref": null, "prompt_version": "P0_writer_pdf_v1.2+TOC_anchor+R1-R15"}
{"atom_id": "ig34_p0123_a023", "source": "SDTMIG v3.4 (no header footer).pdf", "source_short": "ig34", "page": 123, "atom_index_on_page": 23, "atom_type": "TABLE_HEADER", "verbatim": "Row | STUDYID | DOMAIN | USUBJID | MLSEQ | MLTRT | MLCAT | MLPRESP | MLOCCUR | MLDOSE | MLDOSU | MLDTC | MLSTDTC | MLENDTC | MLEVLINT | RELMIDS | MIDS | MIDSDTC", "parent_section": "§6.1.4 [Meal Data (ML)]", "heading_level": null, "sibling_index": null, "cross_refs": null, "figure_ref": null, "table_ref": "ml.xpt", "prompt_version": "P0_writer_pdf_v1.2+TOC_anchor+R1-R15"}
{"atom_id": "ig34_p0123_a024", "source": "SDTMIG v3.4 (no header footer).pdf", "source_short": "ig34", "page": 123, "atom_index_on_page": 24, "atom_type": "TABLE_ROW", "verbatim": "1 | XYZ | ML | XYZ-001-001 | 1 | SNACK | HYPOGLYCEMIA EVALUATION | Y | Y | | | | 2015-06-03T14:15 | | | LAST MEAL PRIOR TO | HYPO1 | 2015-06-03T19:20", "parent_section": "§6.1.4 [Meal Data (ML)]", "heading_level": null, "sibling_index": null, "cross_refs": null, "figure_ref": null, "table_ref": "ml.xpt", "prompt_version": "P0_writer_pdf_v1.2+TOC_anchor+R1-R15+repair"}
{"atom_id": "ig34_p0124_a001", "source": "SDTMIG v3.4 (no header footer).pdf", "source_short": "ig34", "page": 124, "atom_index_on_page": 1, "atom_type": "TABLE_ROW", "verbatim": "2 | XYZ | ML | XYZ-001-001 | 2 | NUTRITIONAL DRINK | HYPOGLYCEMIA EVALUATION | Y | Y | 8 | oz | | 2015-09-03T08:30 | | | LAST MEAL PRIOR TO | HYPO2 | 2015-09-03T17:00", "parent_section": "§6.1.4 [Meal Data (ML)]", "heading_level": null, "sibling_index": null, "cross_refs": null, "figure_ref": null, "table_ref": "ml.xpt", "prompt_version": "P0_writer_pdf_v1.2+TOC_anchor+R1-R15+OptionE_p124_rerun"}
{"atom_id": "ig34_p0124_a002", "source": "SDTMIG v3.4 (no header footer).pdf", "source_short": "ig34", "page": 124, "atom_index_on_page": 2, "atom_type": "TABLE_ROW", "verbatim": "3 | XYZ | ML | XYZ-001-001 | 3 | MEAL | HYPOGLYCEMIA EVALUATION | Y | Y | | | | 2015-12-31T19:00 | | | LAST MEAL PRIOR TO | HYPO3 | 2016-01-01T10:30", "parent_section": "§6.1.4 [Meal Data (ML)]", "heading_level": null, "sibling_index": null, "cross_refs": null, "figure_ref": null, "table_ref": "ml.xpt", "prompt_version": "P0_writer_pdf_v1.2+TOC_anchor+R1-R15+OptionE_p124_rerun"}
{"atom_id": "ig34_p0124_a003", "source": "SDTMIG v3.4 (no header footer).pdf", "source_short": "ig34", "page": 124, "atom_index_on_page": 3, "atom_type": "TABLE_ROW", "verbatim": "4 | XYZ | ML | XYZ-001-001 | 4 | WILD MUSHROOMS | DILI EVALUATION | Y | Y | | | 2015-12-27 | 2015-12-24 | | -P1W | | | |", "parent_section": "§6.1.4 [Meal Data (ML)]", "heading_level": null, "sibling_index": null, "cross_refs": null, "figure_ref": null, "table_ref": "ml.xpt", "prompt_version": "P0_writer_pdf_v1.2+TOC_anchor+R1-R15+OptionE_p124_rerun"}
{"atom_id": "ig34_p0124_a004", "source": "SDTMIG v3.4 (no header footer).pdf", "source_short": "ig34", "page": 124, "atom_index_on_page": 4, "atom_type": "TABLE_ROW", "verbatim": "5 | XYZ | ML | XYZ-001-001 | 5 | ACKEE FRUIT | DILI EVALUATION | Y | N | | | 2015-12-27 | | | -P1W | | | |", "parent_section": "§6.1.4 [Meal Data (ML)]", "heading_level": null, "sibling_index": null, "cross_refs": null, "figure_ref": null, "table_ref": "ml.xpt", "prompt_version": "P0_writer_pdf_v1.2+TOC_anchor+R1-R15+OptionE_p124_rerun"}
{"atom_id": "ig34_p0124_a005", "source": "SDTMIG v3.4 (no header footer).pdf", "source_short": "ig34", "page": 124, "atom_index_on_page": 5, "atom_type": "TABLE_ROW", "verbatim": "6 | XYZ | ML | XYZ-001-001 | 6 | CYCAD SEEDS | DILI EVALUATION | Y | N | | | 2015-12-27 | | | -P1W | | | |", "parent_section": "§6.1.4 [Meal Data (ML)]", "heading_level": null, "sibling_index": null, "cross_refs": null, "figure_ref": null, "table_ref": "ml.xpt", "prompt_version": "P0_writer_pdf_v1.2+TOC_anchor+R1-R15+OptionE_p124_rerun"}
{"atom_id": "ig34_p0124_a006", "source": "SDTMIG v3.4 (no header footer).pdf", "source_short": "ig34", "page": 124, "atom_index_on_page": 6, "atom_type": "HEADING", "verbatim": "Example 2", "parent_section": "§6.1.4 [Meal Data (ML)]", "heading_level": 5, "sibling_index": 2, "cross_refs": null, "figure_ref": null, "table_ref": null, "prompt_version": "P0_writer_pdf_v1.2+TOC_anchor+R1-R15+OptionE_p124_rerun"}
{"atom_id": "ig34_p0124_a007", "source": "SDTMIG v3.4 (no header footer).pdf", "source_short": "ig34", "page": 124, "atom_index_on_page": 7, "atom_type": "SENTENCE", "verbatim": "This example describes a study that examines the effect of physical modifications in a cafeteria on selection/consumption among school students.", "parent_section": "§6.1.4 [Meal Data (ML)]", "heading_level": null, "sibling_index": null, "cross_refs": null, "figure_ref": null, "table_ref": null, "prompt_version": "P0_writer_pdf_v1.2+TOC_anchor+R1-R15+OptionE_p124_rerun"}
{"atom_id": "ig34_p0124_a008", "source": "SDTMIG v3.4 (no header footer).pdf", "source_short": "ig34", "page": 124, "atom_index_on_page": 8, "atom_type": "TABLE_HEADER", "verbatim": "Group | Arms | Details", "parent_section": "§6.1.4 [Meal Data (ML)]", "heading_level": null, "sibling_index": null, "cross_refs": null, "figure_ref": null, "table_ref": null, "prompt_version": "P0_writer_pdf_v1.2+TOC_anchor+R1-R15+OptionE_p124_rerun"}
{"atom_id": "ig34_p0124_a009", "source": "SDTMIG v3.4 (no header footer).pdf", "source_short": "ig34", "page": 124, "atom_index_on_page": 9, "atom_type": "TABLE_ROW", "verbatim": "1 | Control | Students received standard meals in a standard cafeteria environment.", "parent_section": "§6.1.4 [Meal Data (ML)]", "heading_level": null, "sibling_index": null, "cross_refs": null, "figure_ref": null, "table_ref": null, "prompt_version": "P0_writer_pdf_v1.2+TOC_anchor+R1-R15+OptionE_p124_rerun"}
{"atom_id": "ig34_p0124_a010", "source": "SDTMIG v3.4 (no header footer).pdf", "source_short": "ig34", "page": 124, "atom_index_on_page": 10, "atom_type": "TABLE_ROW", "verbatim": "2 | Experimental: choice architecture | Students were exposed to modifications to the physical environment in the cafeteria to \"nudge\" students towards healthier choices. Physical modifications included: Placing vegetables at the beginning of the lunch line Placing fruits in attractive bowls, trays lined with appealing fabric, and fruit options next to cash registers Promoting fruits and vegetables with prominently displayed signage and images Placing white milk selection more predominantly than chocolate milk (e.g., white milk displayed in front of chocolate milk)", "parent_section": "§6.1.4 [Meal Data (ML)]", "heading_level": null, "sibling_index": null, "cross_refs": null, "figure_ref": null, "table_ref": null, "prompt_version": "P0_writer_pdf_v1.2+TOC_anchor+R1-R15+OptionE_p124_rerun"}
{"atom_id": "ig34_p0124_a011", "source": "SDTMIG v3.4 (no header footer).pdf", "source_short": "ig34", "page": 124, "atom_index_on_page": 11, "atom_type": "SENTENCE", "verbatim": "Food-card data was collected over a 7-month period by students receiving a school meal 1 day per week.", "parent_section": "§6.1.4 [Meal Data (ML)]", "heading_level": null, "sibling_index": null, "cross_refs": null, "figure_ref": null, "table_ref": null, "prompt_version": "P0_writer_pdf_v1.2+TOC_anchor+R1-R15+OptionE_p124_rerun"}
{"atom_id": "ig34_p0124_a012", "source": "SDTMIG v3.4 (no header footer).pdf", "source_short": "ig34", "page": 124, "atom_index_on_page": 12, "atom_type": "SENTENCE", "verbatim": "Students who brought a lunch from home or those not eating lunch in the cafeteria on a study day were excluded.", "parent_section": "§6.1.4 [Meal Data (ML)]", "heading_level": null, "sibling_index": null, "cross_refs": null, "figure_ref": null, "table_ref": null, "prompt_version": "P0_writer_pdf_v1.2+TOC_anchor+R1-R15+OptionE_p124_rerun"}
{"atom_id": "ig34_p0124_a013", "source": "SDTMIG v3.4 (no header footer).pdf", "source_short": "ig34", "page": 124, "atom_index_on_page": 13, "atom_type": "SENTENCE", "verbatim": "The dataset below shows the food-card data collected for the first 3 weeks for a subject.", "parent_section": "§6.1.4 [Meal Data (ML)]", "heading_level": null, "sibling_index": null, "cross_refs": null, "figure_ref": null, "table_ref": null, "prompt_version": "P0_writer_pdf_v1.2+TOC_anchor+R1-R15+OptionE_p124_rerun"}
{"atom_id": "ig34_p0124_a014", "source": "SDTMIG v3.4 (no header footer).pdf", "source_short": "ig34", "page": 124, "atom_index_on_page": 14, "atom_type": "CODE_LITERAL", "verbatim": "ml.xpt", "parent_section": "§6.1.4 [Meal Data (ML)]", "heading_level": null, "sibling_index": null, "cross_refs": null, "figure_ref": null, "table_ref": null, "prompt_version": "P0_writer_pdf_v1.2+TOC_anchor+R1-R15+OptionE_p124_rerun"}
{"atom_id": "ig34_p0124_a015", "source": "SDTMIG v3.4 (no header footer).pdf", "source_short": "ig34", "page": 124, "atom_index_on_page": 15, "atom_type": "TABLE_HEADER", "verbatim": "Row | STUDYID | DOMAIN | USUBJID | MLSEQ | MLTRT | VISITNUM | VISIT | MLSTDTC", "parent_section": "§6.1.4 [Meal Data (ML)]", "heading_level": null, "sibling_index": null, "cross_refs": null, "figure_ref": null, "table_ref": "ml.xpt", "prompt_version": "P0_writer_pdf_v1.2+TOC_anchor+R1-R15+OptionE_p124_rerun"}
{"atom_id": "ig34_p0124_a016", "source": "SDTMIG v3.4 (no header footer).pdf", "source_short": "ig34", "page": 124, "atom_index_on_page": 16, "atom_type": "TABLE_ROW", "verbatim": "1 | ABC123 | ML | ABC123-001 | 1 | FRUIT ROLLUP | 1 | WEEK 1 | 2015-09-09", "parent_section": "§6.1.4 [Meal Data (ML)]", "heading_level": null, "sibling_index": null, "cross_refs": null, "figure_ref": null, "table_ref": "ml.xpt", "prompt_version": "P0_writer_pdf_v1.2+TOC_anchor+R1-R15+OptionE_p124_rerun"}
{"atom_id": "ig34_p0124_a017", "source": "SDTMIG v3.4 (no header footer).pdf", "source_short": "ig34", "page": 124, "atom_index_on_page": 17, "atom_type": "TABLE_ROW", "verbatim": "2 | ABC123 | ML | ABC123-001 | 2 | WHTE MILK | 1 | WEEK 1 | 2015-09-09", "parent_section": "§6.1.4 [Meal Data (ML)]", "heading_level": null, "sibling_index": null, "cross_refs": null, "figure_ref": null, "table_ref": "ml.xpt", "prompt_version": "P0_writer_pdf_v1.2+TOC_anchor+R1-R15+OptionE_p124_rerun"}
{"atom_id": "ig34_p0124_a018", "source": "SDTMIG v3.4 (no header footer).pdf", "source_short": "ig34", "page": 124, "atom_index_on_page": 18, "atom_type": "TABLE_ROW", "verbatim": "3 | ABC123 | ML | ABC123-001 | 3 | PEANUT BUTTER SANDWICH | 1 | WEEK 1 | 2015-09-09", "parent_section": "§6.1.4 [Meal Data (ML)]", "heading_level": null, "sibling_index": null, "cross_refs": null, "figure_ref": null, "table_ref": "ml.xpt", "prompt_version": "P0_writer_pdf_v1.2+TOC_anchor+R1-R15+OptionE_p124_rerun"}
{"atom_id": "ig34_p0124_a019", "source": "SDTMIG v3.4 (no header footer).pdf", "source_short": "ig34", "page": 124, "atom_index_on_page": 19, "atom_type": "TABLE_ROW", "verbatim": "4 | ABC123 | ML | ABC123-001 | 4 | BANANA | 2 | WEEK 2 | 2015-09-17", "parent_section": "§6.1.4 [Meal Data (ML)]", "heading_level": null, "sibling_index": null, "cross_refs": null, "figure_ref": null, "table_ref": "ml.xpt", "prompt_version": "P0_writer_pdf_v1.2+TOC_anchor+R1-R15+OptionE_p124_rerun"}
{"atom_id": "ig34_p0124_a020", "source": "SDTMIG v3.4 (no header footer).pdf", "source_short": "ig34", "page": 124, "atom_index_on_page": 20, "atom_type": "TABLE_ROW", "verbatim": "5 | ABC123 | ML | ABC123-001 | 5 | CHOCOLATE MILK | 2 | WEEK 2 | 2015-09-17", "parent_section": "§6.1.4 [Meal Data (ML)]", "heading_level": null, "sibling_index": null, "cross_refs": null, "figure_ref": null, "table_ref": "ml.xpt", "prompt_version": "P0_writer_pdf_v1.2+TOC_anchor+R1-R15+OptionE_p124_rerun"}
{"atom_id": "ig34_p0124_a021", "source": "SDTMIG v3.4 (no header footer).pdf", "source_short": "ig34", "page": 124, "atom_index_on_page": 21, "atom_type": "TABLE_ROW", "verbatim": "6 | ABC123 | ML | ABC123-001 | 6 | PIZZA | 2 | WEEK 2 | 2015-09-17", "parent_section": "§6.1.4 [Meal Data (ML)]", "heading_level": null, "sibling_index": null, "cross_refs": null, "figure_ref": null, "table_ref": "ml.xpt", "prompt_version": "P0_writer_pdf_v1.2+TOC_anchor+R1-R15+OptionE_p124_rerun"}
{"atom_id": "ig34_p0124_a022", "source": "SDTMIG v3.4 (no header footer).pdf", "source_short": "ig34", "page": 124, "atom_index_on_page": 22, "atom_type": "TABLE_ROW", "verbatim": "7 | ABC123 | ML | ABC123-001 | 7 | APPLE | 3 | WEEK 3 | 2015-09-22", "parent_section": "§6.1.4 [Meal Data (ML)]", "heading_level": null, "sibling_index": null, "cross_refs": null, "figure_ref": null, "table_ref": "ml.xpt", "prompt_version": "P0_writer_pdf_v1.2+TOC_anchor+R1-R15+OptionE_p124_rerun"}
{"atom_id": "ig34_p0124_a023", "source": "SDTMIG v3.4 (no header footer).pdf", "source_short": "ig34", "page": 124, "atom_index_on_page": 23, "atom_type": "TABLE_ROW", "verbatim": "8 | ABC123 | ML | ABC123-001 | 8 | WHITE MILK | 3 | WEEK 3 | 2015-09-22", "parent_section": "§6.1.4 [Meal Data (ML)]", "heading_level": null, "sibling_index": null, "cross_refs": null, "figure_ref": null, "table_ref": "ml.xpt", "prompt_version": "P0_writer_pdf_v1.2+TOC_anchor+R1-R15+OptionE_p124_rerun"}
{"atom_id": "ig34_p0124_a024", "source": "SDTMIG v3.4 (no header footer).pdf", "source_short": "ig34", "page": 124, "atom_index_on_page": 24, "atom_type": "TABLE_ROW", "verbatim": "9 | ABC123 | ML | ABC123-001 | 9 | SALAD | 3 | WEEK 3 | 2015-09-22", "parent_section": "§6.1.4 [Meal Data (ML)]", "heading_level": null, "sibling_index": null, "cross_refs": null, "figure_ref": null, "table_ref": "ml.xpt", "prompt_version": "P0_writer_pdf_v1.2+TOC_anchor+R1-R15+OptionE_p124_rerun"}
{"atom_id": "ig34_p0125_a001", "source": "SDTMIG v3.4 (no header footer).pdf", "source_short": "ig34", "page": 125, "atom_index_on_page": 1, "atom_type": "HEADING", "verbatim": "6.1.5 Procedures (PR)", "parent_section": "§6.1 [Models for Interventions Domains]", "heading_level": 3, "sibling_index": 5, "cross_refs": null, "figure_ref": null, "table_ref": null, "prompt_version": "P0_writer_pdf_v1.2+TOC_anchor+R1-R15"}
{"atom_id": "ig34_p0125_a002", "source": "SDTMIG v3.4 (no header footer).pdf", "source_short": "ig34", "page": 125, "atom_index_on_page": 2, "atom_type": "HEADING", "verbatim": "PR – Description/Overview", "parent_section": "§6.1.5 [Procedures (PR)]", "heading_level": 4, "sibling_index": 1, "cross_refs": null, "figure_ref": null, "table_ref": null, "prompt_version": "P0_writer_pdf_v1.2+TOC_anchor+R1-R15"}
{"atom_id": "ig34_p0125_a003", "source": "SDTMIG v3.4 (no header footer).pdf", "source_short": "ig34", "page": 125, "atom_index_on_page": 3, "atom_type": "SENTENCE", "verbatim": "An interventions domain that contains interventional activity intended to have diagnostic, preventive, therapeutic, or palliative effects.", "parent_section": "§6.1.5 [Procedures (PR)]", "heading_level": null, "sibling_index": null, "cross_refs": null, "figure_ref": null, "table_ref": null, "prompt_version": "P0_writer_pdf_v1.2+TOC_anchor+R1-R15"}
{"atom_id": "ig34_p0125_a004", "source": "SDTMIG v3.4 (no header footer).pdf", "source_short": "ig34", "page": 125, "atom_index_on_page": 4, "atom_type": "HEADING", "verbatim": "PR – Specification", "parent_section": "§6.1.5 [Procedures (PR)]", "heading_level": 4, "sibling_index": 2, "cross_refs": null, "figure_ref": null, "table_ref": null, "prompt_version": "P0_writer_pdf_v1.2+TOC_anchor+R1-R15"}
{"atom_id": "ig34_p0125_a005", "source": "SDTMIG v3.4 (no header footer).pdf", "source_short": "ig34", "page": 125, "atom_index_on_page": 5, "atom_type": "SENTENCE", "verbatim": "pr.xpt, Procedures — Interventions. One record per recorded procedure per occurrence per subject, Tabulation.", "parent_section": "§6.1.5 [Procedures (PR)]", "heading_level": null, "sibling_index": null, "cross_refs": null, "figure_ref": null, "table_ref": "pr.xpt", "prompt_version": "P0_writer_pdf_v1.2+TOC_anchor+R1-R15"}
{"atom_id": "ig34_p0125_a006", "source": "SDTMIG v3.4 (no header footer).pdf", "source_short": "ig34", "page": 125, "atom_index_on_page": 6, "atom_type": "TABLE_HEADER", "verbatim": "Variable Name | Variable Label | Type | Controlled Terms, Codelist or Format | Role | CDISC Notes | Core", "parent_section": "§6.1.5 [Procedures (PR)]", "heading_level": null, "sibling_index": null, "cross_refs": null, "figure_ref": null, "table_ref": "pr.xpt", "prompt_version": "P0_writer_pdf_v1.2+TOC_anchor+R1-R15"}
{"atom_id": "ig34_p0125_a007", "source": "SDTMIG v3.4 (no header footer).pdf", "source_short": "ig34", "page": 125, "atom_index_on_page": 7, "atom_type": "TABLE_ROW", "verbatim": "STUDYID | Study Identifier | Char | | Identifier | Unique identifier for a study. | Req", "parent_section": "§6.1.5 [Procedures (PR)]", "heading_level": null, "sibling_index": null, "cross_refs": null, "figure_ref": null, "table_ref": "pr.xpt", "prompt_version": "P0_writer_pdf_v1.2+TOC_anchor+R1-R15"}
{"atom_id": "ig34_p0125_a008", "source": "SDTMIG v3.4 (no header footer).pdf", "source_short": "ig34", "page": 125, "atom_index_on_page": 8, "atom_type": "TABLE_ROW", "verbatim": "DOMAIN | Domain Abbreviation | Char | PR | Identifier | Two-character abbreviation for the domain. | Req", "parent_section": "§6.1.5 [Procedures (PR)]", "heading_level": null, "sibling_index": null, "cross_refs": null, "figure_ref": null, "table_ref": "pr.xpt", "prompt_version": "P0_writer_pdf_v1.2+TOC_anchor+R1-R15"}
{"atom_id": "ig34_p0125_a009", "source": "SDTMIG v3.4 (no header footer).pdf", "source_short": "ig34", "page": 125, "atom_index_on_page": 9, "atom_type": "TABLE_ROW", "verbatim": "USUBJID | Unique Subject Identifier | Char | | Identifier | Identifier used to uniquely identify a subject across all studies for all applications or submissions | Req", "parent_section": "§6.1.5 [Procedures (PR)]", "heading_level": null, "sibling_index": null, "cross_refs": null, "figure_ref": null, "table_ref": "pr.xpt", "prompt_version": "P0_writer_pdf_v1.2+TOC_anchor+R1-R15"}
{"atom_id": "ig34_p0125_a010", "source": "SDTMIG v3.4 (no header footer).pdf", "source_short": "ig34", "page": 125, "atom_index_on_page": 10, "atom_type": "TABLE_ROW", "verbatim": "PRSEQ | Sequence Number | Num | | Identifier | Sequence number given to ensure uniqueness of subject records within a domain. May be any valid number. | Req", "parent_section": "§6.1.5 [Procedures (PR)]", "heading_level": null, "sibling_index": null, "cross_refs": null, "figure_ref": null, "table_ref": "pr.xpt", "prompt_version": "P0_writer_pdf_v1.2+TOC_anchor+R1-R15"}
{"atom_id": "ig34_p0125_a011", "source": "SDTMIG v3.4 (no header footer).pdf", "source_short": "ig34", "page": 125, "atom_index_on_page": 11, "atom_type": "TABLE_ROW", "verbatim": "PRGRID | Group ID | Char | | Identifier | Used to tie together a block of related records in a subject in a domain. | Perm", "parent_section": "§6.1.5 [Procedures (PR)]", "heading_level": null, "sibling_index": null, "cross_refs": null, "figure_ref": null, "table_ref": "pr.xpt", "prompt_version": "P0_writer_pdf_v1.2+TOC_anchor+R1-R15"}
{"atom_id": "ig34_p0125_a012", "source": "SDTMIG v3.4 (no header footer).pdf", "source_short": "ig34", "page": 125, "atom_index_on_page": 12, "atom_type": "TABLE_ROW", "verbatim": "PRSPID | Sponsor-Defined Identifier | Char | | Identifier | Sponsor-defined identifier. Example: preprinted line identifier on a CRF; record identifier defined in the sponsor's operational database. | Perm", "parent_section": "§6.1.5 [Procedures (PR)]", "heading_level": null, "sibling_index": null, "cross_refs": null, "figure_ref": null, "table_ref": "pr.xpt", "prompt_version": "P0_writer_pdf_v1.2+TOC_anchor+R1-R15"}
{"atom_id": "ig34_p0125_a013", "source": "SDTMIG v3.4 (no header footer).pdf", "source_short": "ig34", "page": 125, "atom_index_on_page": 13, "atom_type": "TABLE_ROW", "verbatim": "PRLNKID | Link ID | Char | | Identifier | Identifier used to maintain relationships between records. | Perm", "parent_section": "§6.1.5 [Procedures (PR)]", "heading_level": null, "sibling_index": null, "cross_refs": null, "figure_ref": null, "table_ref": "pr.xpt", "prompt_version": "P0_writer_pdf_v1.2+TOC_anchor+R1-R15"}
{"atom_id": "ig34_p0125_a014", "source": "SDTMIG v3.4 (no header footer).pdf", "source_short": "ig34", "page": 125, "atom_index_on_page": 14, "atom_type": "TABLE_ROW", "verbatim": "PRLNKGRP | Link Group ID | Char | | Identifier | Used to facilitate identification of relationships between records. | Perm", "parent_section": "§6.1.5 [Procedures (PR)]", "heading_level": null, "sibling_index": null, "cross_refs": null, "figure_ref": null, "table_ref": "pr.xpt", "prompt_version": "P0_writer_pdf_v1.2+TOC_anchor+R1-R15"}
{"atom_id": "ig34_p0125_a015", "source": "SDTMIG v3.4 (no header footer).pdf", "source_short": "ig34", "page": 125, "atom_index_on_page": 15, "atom_type": "TABLE_ROW", "verbatim": "PRTRT | Reported Name of Procedure | Char | | Topic | Name of procedure performed, either preprinted or collected on a CRF. | Req", "parent_section": "§6.1.5 [Procedures (PR)]", "heading_level": null, "sibling_index": null, "cross_refs": null, "figure_ref": null, "table_ref": "pr.xpt", "prompt_version": "P0_writer_pdf_v1.2+TOC_anchor+R1-R15"}
{"atom_id": "ig34_p0125_a016", "source": "SDTMIG v3.4 (no header footer).pdf", "source_short": "ig34", "page": 125, "atom_index_on_page": 16, "atom_type": "TABLE_ROW", "verbatim": "PRDECOD | Standardized Procedure Name | Char | (PROCEDURE) | Synonym Qualifier | Standardized or dictionary-derived name of PRTRT. If the codelist \"PROCEDURE\" is not used, the sponsor is expected to provide the dictionary name and version used to map the terms in the external codelist element in the Define-XML document. If an intervention, the sponsor may not have a value. | Perm", "parent_section": "§6.1.5 [Procedures (PR)]", "heading_level": null, "sibling_index": null, "cross_refs": null, "figure_ref": null, "table_ref": "pr.xpt", "prompt_version": "P0_writer_pdf_v1.2+TOC_anchor+R1-R15"}
{"atom_id": "ig34_p0125_a017", "source": "SDTMIG v3.4 (no header footer).pdf", "source_short": "ig34", "page": 125, "atom_index_on_page": 17, "atom_type": "TABLE_ROW", "verbatim": "PRCAT | Category | Char | | Grouping Qualifier | Used to define a category of procedure values. | Perm", "parent_section": "§6.1.5 [Procedures (PR)]", "heading_level": null, "sibling_index": null, "cross_refs": null, "figure_ref": null, "table_ref": "pr.xpt", "prompt_version": "P0_writer_pdf_v1.2+TOC_anchor+R1-R15"}
{"atom_id": "ig34_p0125_a018", "source": "SDTMIG v3.4 (no header footer).pdf", "source_short": "ig34", "page": 125, "atom_index_on_page": 18, "atom_type": "TABLE_ROW", "verbatim": "PRSCAT | Subcategory | Char | * | Grouping Qualifier | Used to define a further categorization of PRCAT values. | Perm", "parent_section": "§6.1.5 [Procedures (PR)]", "heading_level": null, "sibling_index": null, "cross_refs": null, "figure_ref": null, "table_ref": "pr.xpt", "prompt_version": "P0_writer_pdf_v1.2+TOC_anchor+R1-R15"}
{"atom_id": "ig34_p0125_a019", "source": "SDTMIG v3.4 (no header footer).pdf", "source_short": "ig34", "page": 125, "atom_index_on_page": 19, "atom_type": "TABLE_ROW", "verbatim": "PRPRESP | Pre-specified | Char | (NY) | Variable Qualifier | Used when a specific procedure is pre-specified on a CRF. Values should be \"Y\" or null. | Perm", "parent_section": "§6.1.5 [Procedures (PR)]", "heading_level": null, "sibling_index": null, "cross_refs": null, "figure_ref": null, "table_ref": "pr.xpt", "prompt_version": "P0_writer_pdf_v1.2+TOC_anchor+R1-R15"}
{"atom_id": "ig34_p0125_a020", "source": "SDTMIG v3.4 (no header footer).pdf", "source_short": "ig34", "page": 125, "atom_index_on_page": 20, "atom_type": "TABLE_ROW", "verbatim": "PROCCUR | Occurrence | Char | (NY) | Record Qualifier | Used to record whether a prespecified procedure occurred when information about the occurrence of a specific procedure is solicited. | Perm", "parent_section": "§6.1.5 [Procedures (PR)]", "heading_level": null, "sibling_index": null, "cross_refs": null, "figure_ref": null, "table_ref": "pr.xpt", "prompt_version": "P0_writer_pdf_v1.2+TOC_anchor+R1-R15+repair"}
{"atom_id": "ig34_p0125_a021", "source": "SDTMIG v3.4 (no header footer).pdf", "source_short": "ig34", "page": 125, "atom_index_on_page": 21, "atom_type": "TABLE_ROW", "verbatim": "PRINDC | Indication | Char | | Record Qualifier | Indication for the procedure. Used only if the procedure result is performed. | Perm", "parent_section": "§6.1.5 [Procedures (PR)]", "heading_level": null, "sibling_index": null, "cross_refs": null, "figure_ref": null, "table_ref": "pr.xpt", "prompt_version": "P0_writer_pdf_v1.2+TOC_anchor+R1-R15"}
{"atom_id": "ig34_p0125_a022", "source": "SDTMIG v3.4 (no header footer).pdf", "source_short": "ig34", "page": 125, "atom_index_on_page": 22, "atom_type": "TABLE_ROW", "verbatim": "PRDOSE | Dose | Num | | Record Qualifier | Amount of PRTRT administered. Not populated when PRDOSTXT is populated. | Perm", "parent_section": "§6.1.5 [Procedures (PR)]", "heading_level": null, "sibling_index": null, "cross_refs": null, "figure_ref": null, "table_ref": "pr.xpt", "prompt_version": "P0_writer_pdf_v1.2+TOC_anchor+R1-R15"}
{"atom_id": "ig34_p0125_a023", "source": "SDTMIG v3.4 (no header footer).pdf", "source_short": "ig34", "page": 125, "atom_index_on_page": 23, "atom_type": "TABLE_ROW", "verbatim": "PRDOSTXT | Dose Description | Char | | Record Qualifier | Dosing information collected in text form. Examples: \"<1\", \"200-400\". Not populated when PRDOSE is populated. | Perm", "parent_section": "§6.1.5 [Procedures (PR)]", "heading_level": null, "sibling_index": null, "cross_refs": null, "figure_ref": null, "table_ref": "pr.xpt", "prompt_version": "P0_writer_pdf_v1.2+TOC_anchor+R1-R15"}
{"atom_id": "ig34_p0125_a024", "source": "SDTMIG v3.4 (no header footer).pdf", "source_short": "ig34", "page": 125, "atom_index_on_page": 24, "atom_type": "TABLE_ROW", "verbatim": "PRDOSU | Dose Units | Char | (UNIT) | Variable Qualifier | Units for PRDOSE, PRDOSTXT, or PRDOSTXT. | Perm", "parent_section": "§6.1.5 [Procedures (PR)]", "heading_level": null, "sibling_index": null, "cross_refs": null, "figure_ref": null, "table_ref": "pr.xpt", "prompt_version": "P0_writer_pdf_v1.2+TOC_anchor+R1-R15"}
{"atom_id": "ig34_p0125_a025", "source": "SDTMIG v3.4 (no header footer).pdf", "source_short": "ig34", "page": 125, "atom_index_on_page": 25, "atom_type": "TABLE_ROW", "verbatim": "PRDOSFRM | Dose Form | Char | (FRM) | Variable Qualifier | Dose form for PRTRT. | Perm", "parent_section": "§6.1.5 [Procedures (PR)]", "heading_level": null, "sibling_index": null, "cross_refs": null, "figure_ref": null, "table_ref": "pr.xpt", "prompt_version": "P0_writer_pdf_v1.2+TOC_anchor+R1-R15"}
{"atom_id": "ig34_p0125_a026", "source": "SDTMIG v3.4 (no header footer).pdf", "source_short": "ig34", "page": 125, "atom_index_on_page": 26, "atom_type": "TABLE_ROW", "verbatim": "PRDOSFRQ | Dosing Frequency per Interval | Char | (FREQ) | Record Qualifier | Usually expressed as the number of doses given per a specific interval. | Perm", "parent_section": "§6.1.5 [Procedures (PR)]", "heading_level": null, "sibling_index": null, "cross_refs": null, "figure_ref": null, "table_ref": "pr.xpt", "prompt_version": "P0_writer_pdf_v1.2+TOC_anchor+R1-R15"}
{"atom_id": "ig34_p0125_a027", "source": "SDTMIG v3.4 (no header footer).pdf", "source_short": "ig34", "page": 125, "atom_index_on_page": 27, "atom_type": "TABLE_ROW", "verbatim": "PRDOSRGM | Intended Dose Regimen | Char | | Record Qualifier | Text description of the intended schedule or regimen for the procedure. | Perm", "parent_section": "§6.1.5 [Procedures (PR)]", "heading_level": null, "sibling_index": null, "cross_refs": null, "figure_ref": null, "table_ref": "pr.xpt", "prompt_version": "P0_writer_pdf_v1.2+TOC_anchor+R1-R15"}
{"atom_id": "ig34_p0125_a028", "source": "SDTMIG v3.4 (no header footer).pdf", "source_short": "ig34", "page": 125, "atom_index_on_page": 28, "atom_type": "TABLE_ROW", "verbatim": "PRROUTE | Route of Administration | Char | (ROUTE) | Variable Qualifier | Route of administration for PRTRT. | Perm", "parent_section": "§6.1.5 [Procedures (PR)]", "heading_level": null, "sibling_index": null, "cross_refs": null, "figure_ref": null, "table_ref": "pr.xpt", "prompt_version": "P0_writer_pdf_v1.2+TOC_anchor+R1-R15"}
