{"atom_id": "ig34_p0124_a001", "source": "SDTMIG v3.4 (no header footer).pdf", "source_short": "ig34", "page": 124, "atom_index_on_page": 1, "atom_type": "TABLE_ROW", "verbatim": "2 | XYZ | ML | XYZ-001-001 | 2 | NUTRITIONAL DRINK | HYPOGLYCEMIA EVALUATION | Y | Y | 8 | oz | | 2015-09-03T08:30 | | | LAST MEAL PRIOR TO | HYPO2 | 2015-09-03T17:00", "parent_section": "§6.1.4 [Meal Data (ML)]", "heading_level": null, "sibling_index": null, "cross_refs": null, "figure_ref": null, "table_ref": "ml.xpt", "prompt_version": "P0_writer_pdf_v1.2+TOC_anchor+R1-R15+OptionE_p124_rerun"}
{"atom_id": "ig34_p0124_a002", "source": "SDTMIG v3.4 (no header footer).pdf", "source_short": "ig34", "page": 124, "atom_index_on_page": 2, "atom_type": "TABLE_ROW", "verbatim": "3 | XYZ | ML | XYZ-001-001 | 3 | MEAL | HYPOGLYCEMIA EVALUATION | Y | Y | | | | 2015-12-31T19:00 | | | LAST MEAL PRIOR TO | HYPO3 | 2016-01-01T10:30", "parent_section": "§6.1.4 [Meal Data (ML)]", "heading_level": null, "sibling_index": null, "cross_refs": null, "figure_ref": null, "table_ref": "ml.xpt", "prompt_version": "P0_writer_pdf_v1.2+TOC_anchor+R1-R15+OptionE_p124_rerun"}
{"atom_id": "ig34_p0124_a003", "source": "SDTMIG v3.4 (no header footer).pdf", "source_short": "ig34", "page": 124, "atom_index_on_page": 3, "atom_type": "TABLE_ROW", "verbatim": "4 | XYZ | ML | XYZ-001-001 | 4 | WILD MUSHROOMS | DILI EVALUATION | Y | Y | | | 2015-12-27 | 2015-12-24 | | -P1W | | | |", "parent_section": "§6.1.4 [Meal Data (ML)]", "heading_level": null, "sibling_index": null, "cross_refs": null, "figure_ref": null, "table_ref": "ml.xpt", "prompt_version": "P0_writer_pdf_v1.2+TOC_anchor+R1-R15+OptionE_p124_rerun"}
{"atom_id": "ig34_p0124_a004", "source": "SDTMIG v3.4 (no header footer).pdf", "source_short": "ig34", "page": 124, "atom_index_on_page": 4, "atom_type": "TABLE_ROW", "verbatim": "5 | XYZ | ML | XYZ-001-001 | 5 | ACKEE FRUIT | DILI EVALUATION | Y | N | | | 2015-12-27 | | | -P1W | | | |", "parent_section": "§6.1.4 [Meal Data (ML)]", "heading_level": null, "sibling_index": null, "cross_refs": null, "figure_ref": null, "table_ref": "ml.xpt", "prompt_version": "P0_writer_pdf_v1.2+TOC_anchor+R1-R15+OptionE_p124_rerun"}
{"atom_id": "ig34_p0124_a005", "source": "SDTMIG v3.4 (no header footer).pdf", "source_short": "ig34", "page": 124, "atom_index_on_page": 5, "atom_type": "TABLE_ROW", "verbatim": "6 | XYZ | ML | XYZ-001-001 | 6 | CYCAD SEEDS | DILI EVALUATION | Y | N | | | 2015-12-27 | | | -P1W | | | |", "parent_section": "§6.1.4 [Meal Data (ML)]", "heading_level": null, "sibling_index": null, "cross_refs": null, "figure_ref": null, "table_ref": "ml.xpt", "prompt_version": "P0_writer_pdf_v1.2+TOC_anchor+R1-R15+OptionE_p124_rerun"}
{"atom_id": "ig34_p0124_a006", "source": "SDTMIG v3.4 (no header footer).pdf", "source_short": "ig34", "page": 124, "atom_index_on_page": 6, "atom_type": "HEADING", "verbatim": "Example 2", "parent_section": "§6.1.4 [Meal Data (ML)]", "heading_level": 5, "sibling_index": 2, "cross_refs": null, "figure_ref": null, "table_ref": null, "prompt_version": "P0_writer_pdf_v1.2+TOC_anchor+R1-R15+OptionE_p124_rerun"}
{"atom_id": "ig34_p0124_a007", "source": "SDTMIG v3.4 (no header footer).pdf", "source_short": "ig34", "page": 124, "atom_index_on_page": 7, "atom_type": "SENTENCE", "verbatim": "This example describes a study that examines the effect of physical modifications in a cafeteria on selection/consumption among school students.", "parent_section": "§6.1.4 [Meal Data (ML)]", "heading_level": null, "sibling_index": null, "cross_refs": null, "figure_ref": null, "table_ref": null, "prompt_version": "P0_writer_pdf_v1.2+TOC_anchor+R1-R15+OptionE_p124_rerun"}
{"atom_id": "ig34_p0124_a008", "source": "SDTMIG v3.4 (no header footer).pdf", "source_short": "ig34", "page": 124, "atom_index_on_page": 8, "atom_type": "TABLE_HEADER", "verbatim": "Group | Arms | Details", "parent_section": "§6.1.4 [Meal Data (ML)]", "heading_level": null, "sibling_index": null, "cross_refs": null, "figure_ref": null, "table_ref": null, "prompt_version": "P0_writer_pdf_v1.2+TOC_anchor+R1-R15+OptionE_p124_rerun"}
{"atom_id": "ig34_p0124_a009", "source": "SDTMIG v3.4 (no header footer).pdf", "source_short": "ig34", "page": 124, "atom_index_on_page": 9, "atom_type": "TABLE_ROW", "verbatim": "1 | Control | Students received standard meals in a standard cafeteria environment.", "parent_section": "§6.1.4 [Meal Data (ML)]", "heading_level": null, "sibling_index": null, "cross_refs": null, "figure_ref": null, "table_ref": null, "prompt_version": "P0_writer_pdf_v1.2+TOC_anchor+R1-R15+OptionE_p124_rerun"}
{"atom_id": "ig34_p0124_a010", "source": "SDTMIG v3.4 (no header footer).pdf", "source_short": "ig34", "page": 124, "atom_index_on_page": 10, "atom_type": "TABLE_ROW", "verbatim": "2 | Experimental: choice architecture | Students were exposed to modifications to the physical environment in the cafeteria to \"nudge\" students towards healthier choices. Physical modifications included: Placing vegetables at the beginning of the lunch line Placing fruits in attractive bowls, trays lined with appealing fabric, and fruit options next to cash registers Promoting fruits and vegetables with prominently displayed signage and images Placing white milk selection more predominantly than chocolate milk (e.g., white milk displayed in front of chocolate milk)", "parent_section": "§6.1.4 [Meal Data (ML)]", "heading_level": null, "sibling_index": null, "cross_refs": null, "figure_ref": null, "table_ref": null, "prompt_version": "P0_writer_pdf_v1.2+TOC_anchor+R1-R15+OptionE_p124_rerun"}
{"atom_id": "ig34_p0124_a011", "source": "SDTMIG v3.4 (no header footer).pdf", "source_short": "ig34", "page": 124, "atom_index_on_page": 11, "atom_type": "SENTENCE", "verbatim": "Food-card data was collected over a 7-month period by students receiving a school meal 1 day per week.", "parent_section": "§6.1.4 [Meal Data (ML)]", "heading_level": null, "sibling_index": null, "cross_refs": null, "figure_ref": null, "table_ref": null, "prompt_version": "P0_writer_pdf_v1.2+TOC_anchor+R1-R15+OptionE_p124_rerun"}
{"atom_id": "ig34_p0124_a012", "source": "SDTMIG v3.4 (no header footer).pdf", "source_short": "ig34", "page": 124, "atom_index_on_page": 12, "atom_type": "SENTENCE", "verbatim": "Students who brought a lunch from home or those not eating lunch in the cafeteria on a study day were excluded.", "parent_section": "§6.1.4 [Meal Data (ML)]", "heading_level": null, "sibling_index": null, "cross_refs": null, "figure_ref": null, "table_ref": null, "prompt_version": "P0_writer_pdf_v1.2+TOC_anchor+R1-R15+OptionE_p124_rerun"}
{"atom_id": "ig34_p0124_a013", "source": "SDTMIG v3.4 (no header footer).pdf", "source_short": "ig34", "page": 124, "atom_index_on_page": 13, "atom_type": "SENTENCE", "verbatim": "The dataset below shows the food-card data collected for the first 3 weeks for a subject.", "parent_section": "§6.1.4 [Meal Data (ML)]", "heading_level": null, "sibling_index": null, "cross_refs": null, "figure_ref": null, "table_ref": null, "prompt_version": "P0_writer_pdf_v1.2+TOC_anchor+R1-R15+OptionE_p124_rerun"}
{"atom_id": "ig34_p0124_a014", "source": "SDTMIG v3.4 (no header footer).pdf", "source_short": "ig34", "page": 124, "atom_index_on_page": 14, "atom_type": "CODE_LITERAL", "verbatim": "ml.xpt", "parent_section": "§6.1.4 [Meal Data (ML)]", "heading_level": null, "sibling_index": null, "cross_refs": null, "figure_ref": null, "table_ref": null, "prompt_version": "P0_writer_pdf_v1.2+TOC_anchor+R1-R15+OptionE_p124_rerun"}
{"atom_id": "ig34_p0124_a015", "source": "SDTMIG v3.4 (no header footer).pdf", "source_short": "ig34", "page": 124, "atom_index_on_page": 15, "atom_type": "TABLE_HEADER", "verbatim": "Row | STUDYID | DOMAIN | USUBJID | MLSEQ | MLTRT | VISITNUM | VISIT | MLSTDTC", "parent_section": "§6.1.4 [Meal Data (ML)]", "heading_level": null, "sibling_index": null, "cross_refs": null, "figure_ref": null, "table_ref": "ml.xpt", "prompt_version": "P0_writer_pdf_v1.2+TOC_anchor+R1-R15+OptionE_p124_rerun"}
{"atom_id": "ig34_p0124_a016", "source": "SDTMIG v3.4 (no header footer).pdf", "source_short": "ig34", "page": 124, "atom_index_on_page": 16, "atom_type": "TABLE_ROW", "verbatim": "1 | ABC123 | ML | ABC123-001 | 1 | FRUIT ROLLUP | 1 | WEEK 1 | 2015-09-09", "parent_section": "§6.1.4 [Meal Data (ML)]", "heading_level": null, "sibling_index": null, "cross_refs": null, "figure_ref": null, "table_ref": "ml.xpt", "prompt_version": "P0_writer_pdf_v1.2+TOC_anchor+R1-R15+OptionE_p124_rerun"}
{"atom_id": "ig34_p0124_a017", "source": "SDTMIG v3.4 (no header footer).pdf", "source_short": "ig34", "page": 124, "atom_index_on_page": 17, "atom_type": "TABLE_ROW", "verbatim": "2 | ABC123 | ML | ABC123-001 | 2 | WHTE MILK | 1 | WEEK 1 | 2015-09-09", "parent_section": "§6.1.4 [Meal Data (ML)]", "heading_level": null, "sibling_index": null, "cross_refs": null, "figure_ref": null, "table_ref": "ml.xpt", "prompt_version": "P0_writer_pdf_v1.2+TOC_anchor+R1-R15+OptionE_p124_rerun"}
{"atom_id": "ig34_p0124_a018", "source": "SDTMIG v3.4 (no header footer).pdf", "source_short": "ig34", "page": 124, "atom_index_on_page": 18, "atom_type": "TABLE_ROW", "verbatim": "3 | ABC123 | ML | ABC123-001 | 3 | PEANUT BUTTER SANDWICH | 1 | WEEK 1 | 2015-09-09", "parent_section": "§6.1.4 [Meal Data (ML)]", "heading_level": null, "sibling_index": null, "cross_refs": null, "figure_ref": null, "table_ref": "ml.xpt", "prompt_version": "P0_writer_pdf_v1.2+TOC_anchor+R1-R15+OptionE_p124_rerun"}
{"atom_id": "ig34_p0124_a019", "source": "SDTMIG v3.4 (no header footer).pdf", "source_short": "ig34", "page": 124, "atom_index_on_page": 19, "atom_type": "TABLE_ROW", "verbatim": "4 | ABC123 | ML | ABC123-001 | 4 | BANANA | 2 | WEEK 2 | 2015-09-17", "parent_section": "§6.1.4 [Meal Data (ML)]", "heading_level": null, "sibling_index": null, "cross_refs": null, "figure_ref": null, "table_ref": "ml.xpt", "prompt_version": "P0_writer_pdf_v1.2+TOC_anchor+R1-R15+OptionE_p124_rerun"}
{"atom_id": "ig34_p0124_a020", "source": "SDTMIG v3.4 (no header footer).pdf", "source_short": "ig34", "page": 124, "atom_index_on_page": 20, "atom_type": "TABLE_ROW", "verbatim": "5 | ABC123 | ML | ABC123-001 | 5 | CHOCOLATE MILK | 2 | WEEK 2 | 2015-09-17", "parent_section": "§6.1.4 [Meal Data (ML)]", "heading_level": null, "sibling_index": null, "cross_refs": null, "figure_ref": null, "table_ref": "ml.xpt", "prompt_version": "P0_writer_pdf_v1.2+TOC_anchor+R1-R15+OptionE_p124_rerun"}
{"atom_id": "ig34_p0124_a021", "source": "SDTMIG v3.4 (no header footer).pdf", "source_short": "ig34", "page": 124, "atom_index_on_page": 21, "atom_type": "TABLE_ROW", "verbatim": "6 | ABC123 | ML | ABC123-001 | 6 | PIZZA | 2 | WEEK 2 | 2015-09-17", "parent_section": "§6.1.4 [Meal Data (ML)]", "heading_level": null, "sibling_index": null, "cross_refs": null, "figure_ref": null, "table_ref": "ml.xpt", "prompt_version": "P0_writer_pdf_v1.2+TOC_anchor+R1-R15+OptionE_p124_rerun"}
{"atom_id": "ig34_p0124_a022", "source": "SDTMIG v3.4 (no header footer).pdf", "source_short": "ig34", "page": 124, "atom_index_on_page": 22, "atom_type": "TABLE_ROW", "verbatim": "7 | ABC123 | ML | ABC123-001 | 7 | APPLE | 3 | WEEK 3 | 2015-09-22", "parent_section": "§6.1.4 [Meal Data (ML)]", "heading_level": null, "sibling_index": null, "cross_refs": null, "figure_ref": null, "table_ref": "ml.xpt", "prompt_version": "P0_writer_pdf_v1.2+TOC_anchor+R1-R15+OptionE_p124_rerun"}
{"atom_id": "ig34_p0124_a023", "source": "SDTMIG v3.4 (no header footer).pdf", "source_short": "ig34", "page": 124, "atom_index_on_page": 23, "atom_type": "TABLE_ROW", "verbatim": "8 | ABC123 | ML | ABC123-001 | 8 | WHITE MILK | 3 | WEEK 3 | 2015-09-22", "parent_section": "§6.1.4 [Meal Data (ML)]", "heading_level": null, "sibling_index": null, "cross_refs": null, "figure_ref": null, "table_ref": "ml.xpt", "prompt_version": "P0_writer_pdf_v1.2+TOC_anchor+R1-R15+OptionE_p124_rerun"}
{"atom_id": "ig34_p0124_a024", "source": "SDTMIG v3.4 (no header footer).pdf", "source_short": "ig34", "page": 124, "atom_index_on_page": 24, "atom_type": "TABLE_ROW", "verbatim": "9 | ABC123 | ML | ABC123-001 | 9 | SALAD | 3 | WEEK 3 | 2015-09-22", "parent_section": "§6.1.4 [Meal Data (ML)]", "heading_level": null, "sibling_index": null, "cross_refs": null, "figure_ref": null, "table_ref": "ml.xpt", "prompt_version": "P0_writer_pdf_v1.2+TOC_anchor+R1-R15+OptionE_p124_rerun"}
