{"atom_id":"ig34_p0111_a001","source":"SDTMIG v3.4 (no header footer).pdf","source_short":"ig34","page":111,"atom_index_on_page":1,"atom_type":"HEADING","verbatim":"6.1.3.3 Exposure/Exposure as Collected Examples","parent_section":"§6.1.3 [Exposure Domains]","heading_level":4,"sibling_index":3,"cross_refs":null,"figure_ref":null,"table_ref":null,"prompt_version":"P0_writer_pdf_v1.2+TOC_anchor+R1-R14"}
{"atom_id":"ig34_p0111_a002","source":"SDTMIG v3.4 (no header footer).pdf","source_short":"ig34","page":111,"atom_index_on_page":2,"atom_type":"HEADING","verbatim":"Example 1","parent_section":"§6.1.3.3 [Exposure/Exposure as Collected Examples]","heading_level":5,"sibling_index":1,"cross_refs":null,"figure_ref":null,"table_ref":null,"prompt_version":"P0_writer_pdf_v1.2+TOC_anchor+R1-R14"}
{"atom_id":"ig34_p0111_a003","source":"SDTMIG v3.4 (no header footer).pdf","source_short":"ig34","page":111,"atom_index_on_page":3,"atom_type":"SENTENCE","verbatim":"This is an example of a double-blind study comparing drug X extended release (ER; 2 500-mg tablets once daily) vs. drug Z (2 250-mg tablets once daily). Per example CRFs, subject ABC1001 took 2 tablets from 2011-01-14 to 2011-01-28 and subject ABC2001 took 2 tablets within the same timeframe but missed dosing on 2011-01-24.","parent_section":"§6.1.3.3 [Exposure/Exposure as Collected Examples]","heading_level":null,"sibling_index":null,"cross_refs":null,"figure_ref":null,"table_ref":null,"prompt_version":"P0_writer_pdf_v1.2+TOC_anchor+R1-R14"}
{"atom_id":"ig34_p0111_a004","source":"SDTMIG v3.4 (no header footer).pdf","source_short":"ig34","page":111,"atom_index_on_page":4,"atom_type":"HEADING","verbatim":"Exposure CRF:","parent_section":"§6.1.3.3 [Exposure/Exposure as Collected Examples]","heading_level":5,"sibling_index":null,"cross_refs":null,"figure_ref":null,"table_ref":null,"prompt_version":"P0_writer_pdf_v1.2+TOC_anchor+R1-R14"}
{"atom_id":"ig34_p0111_a005","source":"SDTMIG v3.4 (no header footer).pdf","source_short":"ig34","page":111,"atom_index_on_page":5,"atom_type":"HEADING","verbatim":"Subject: ABC1001","parent_section":"§6.1.3.3 [Exposure/Exposure as Collected Examples]","heading_level":5,"sibling_index":null,"cross_refs":null,"figure_ref":null,"table_ref":null,"prompt_version":"P0_writer_pdf_v1.2+TOC_anchor+R1-R14"}
{"atom_id":"ig34_p0111_a006","source":"SDTMIG v3.4 (no header footer).pdf","source_short":"ig34","page":111,"atom_index_on_page":6,"atom_type":"TABLE_HEADER","verbatim":"Bottle | Number of Tablets Taken Daily | Reason for Variation | Start Date | End Date","parent_section":"§6.1.3.3 [Exposure/Exposure as Collected Examples]","heading_level":null,"sibling_index":null,"cross_refs":null,"figure_ref":null,"table_ref":"Exposure CRF Subject ABC1001","prompt_version":"P0_writer_pdf_v1.2+TOC_anchor+R1-R14"}
{"atom_id":"ig34_p0111_a007","source":"SDTMIG v3.4 (no header footer).pdf","source_short":"ig34","page":111,"atom_index_on_page":7,"atom_type":"TABLE_ROW","verbatim":"A | 2 | | 2011-01-14 | 2011-01-28","parent_section":"§6.1.3.3 [Exposure/Exposure as Collected Examples]","heading_level":null,"sibling_index":null,"cross_refs":null,"figure_ref":null,"table_ref":"Exposure CRF Subject ABC1001","prompt_version":"P0_writer_pdf_v1.2+TOC_anchor+R1-R14"}
{"atom_id":"ig34_p0111_a008","source":"SDTMIG v3.4 (no header footer).pdf","source_short":"ig34","page":111,"atom_index_on_page":8,"atom_type":"HEADING","verbatim":"Subject: ABC2001","parent_section":"§6.1.3.3 [Exposure/Exposure as Collected Examples]","heading_level":5,"sibling_index":null,"cross_refs":null,"figure_ref":null,"table_ref":null,"prompt_version":"P0_writer_pdf_v1.2+TOC_anchor+R1-R14"}
{"atom_id":"ig34_p0111_a009","source":"SDTMIG v3.4 (no header footer).pdf","source_short":"ig34","page":111,"atom_index_on_page":9,"atom_type":"TABLE_HEADER","verbatim":"Bottle | Number of Tablets Taken Daily | Reason for Variation | Start Date | End Date","parent_section":"§6.1.3.3 [Exposure/Exposure as Collected Examples]","heading_level":null,"sibling_index":null,"cross_refs":null,"figure_ref":null,"table_ref":"Exposure CRF Subject ABC2001","prompt_version":"P0_writer_pdf_v1.2+TOC_anchor+R1-R14"}
{"atom_id":"ig34_p0111_a010","source":"SDTMIG v3.4 (no header footer).pdf","source_short":"ig34","page":111,"atom_index_on_page":10,"atom_type":"TABLE_ROW","verbatim":"A | 2 | | 2011-01-14 | 2011-01-23","parent_section":"§6.1.3.3 [Exposure/Exposure as Collected Examples]","heading_level":null,"sibling_index":null,"cross_refs":null,"figure_ref":null,"table_ref":"Exposure CRF Subject ABC2001","prompt_version":"P0_writer_pdf_v1.2+TOC_anchor+R1-R14"}
{"atom_id":"ig34_p0111_a011","source":"SDTMIG v3.4 (no header footer).pdf","source_short":"ig34","page":111,"atom_index_on_page":11,"atom_type":"TABLE_ROW","verbatim":"A | 0 | Patient mistake | 2011-01-24 | 2011-01-24","parent_section":"§6.1.3.3 [Exposure/Exposure as Collected Examples]","heading_level":null,"sibling_index":null,"cross_refs":null,"figure_ref":null,"table_ref":"Exposure CRF Subject ABC2001","prompt_version":"P0_writer_pdf_v1.2+TOC_anchor+R1-R14"}
{"atom_id":"ig34_p0111_a012","source":"SDTMIG v3.4 (no header footer).pdf","source_short":"ig34","page":111,"atom_index_on_page":12,"atom_type":"TABLE_ROW","verbatim":"A | 2 | | 2011-01-25 | 2011-01-28","parent_section":"§6.1.3.3 [Exposure/Exposure as Collected Examples]","heading_level":null,"sibling_index":null,"cross_refs":null,"figure_ref":null,"table_ref":"Exposure CRF Subject ABC2001","prompt_version":"P0_writer_pdf_v1.2+TOC_anchor+R1-R14"}
{"atom_id":"ig34_p0111_a013","source":"SDTMIG v3.4 (no header footer).pdf","source_short":"ig34","page":111,"atom_index_on_page":13,"atom_type":"SENTENCE","verbatim":"Upon unmasking, it became known that subject ABC1001 received drug X and Subject ABC2001 received drug Z. The EC dataset shows the administrations of study treatment as collected.","parent_section":"§6.1.3.3 [Exposure/Exposure as Collected Examples]","heading_level":null,"sibling_index":null,"cross_refs":null,"figure_ref":null,"table_ref":null,"prompt_version":"P0_writer_pdf_v1.2+TOC_anchor+R1-R14"}
{"atom_id":"ig34_p0111_a014","source":"SDTMIG v3.4 (no header footer).pdf","source_short":"ig34","page":111,"atom_index_on_page":14,"atom_type":"NOTE","verbatim":"Rows 1-2, 4: Show treatments administered.","parent_section":"§6.1.3.3 [Exposure/Exposure as Collected Examples]","heading_level":null,"sibling_index":null,"cross_refs":null,"figure_ref":null,"table_ref":null,"prompt_version":"P0_writer_pdf_v1.2+TOC_anchor+R1-R14"}
{"atom_id":"ig34_p0111_a015","source":"SDTMIG v3.4 (no header footer).pdf","source_short":"ig34","page":111,"atom_index_on_page":15,"atom_type":"NOTE","verbatim":"Row 3: Shows that the zero for Number of Tablets Taken Daily on the CRF was represented as ECOCCUR = \"N\". The reason this treatment did not occur is represented in ECREASOC.","parent_section":"§6.1.3.3 [Exposure/Exposure as Collected Examples]","heading_level":null,"sibling_index":null,"cross_refs":null,"figure_ref":null,"table_ref":null,"prompt_version":"P0_writer_pdf_v1.2+TOC_anchor+R1-R14"}
{"atom_id":"ig34_p0111_a016","source":"SDTMIG v3.4 (no header footer).pdf","source_short":"ig34","page":111,"atom_index_on_page":16,"atom_type":"CODE_LITERAL","verbatim":"ec.xpt","parent_section":"§6.1.3.3 [Exposure/Exposure as Collected Examples]","heading_level":null,"sibling_index":null,"cross_refs":null,"figure_ref":null,"table_ref":null,"prompt_version":"P0_writer_pdf_v1.2+TOC_anchor+R1-R14"}
{"atom_id":"ig34_p0111_a017","source":"SDTMIG v3.4 (no header footer).pdf","source_short":"ig34","page":111,"atom_index_on_page":17,"atom_type":"TABLE_HEADER","verbatim":"Row | STUDYID | DOMAIN | USUBJID | ECSEQ | ECLNKID | ECTRT | ECPRESP | ECOCCUR | ECREASOC | ECDOSE | ECDOSU | ECDOSFRQ | EPOCH | ECSTDTC | ECENDTC | ECSTDY | ECENDY","parent_section":"§6.1.3.3 [Exposure/Exposure as Collected Examples]","heading_level":null,"sibling_index":null,"cross_refs":null,"figure_ref":null,"table_ref":"ec.xpt Example 1","prompt_version":"P0_writer_pdf_v1.2+TOC_anchor+R1-R14"}
{"atom_id":"ig34_p0111_a018","source":"SDTMIG v3.4 (no header footer).pdf","source_short":"ig34","page":111,"atom_index_on_page":18,"atom_type":"TABLE_ROW","verbatim":"1 | ABC | EC | ABC1001 | 1 | A2-20110114 | BOTTLE A | Y | | | 2 | TABLET | QD | TREATMENT | 2011-01-14 | 2011-01-28 | 1 | 15","parent_section":"§6.1.3.3 [Exposure/Exposure as Collected Examples]","heading_level":null,"sibling_index":null,"cross_refs":null,"figure_ref":null,"table_ref":"ec.xpt Example 1","prompt_version":"P0_writer_pdf_v1.2+TOC_anchor+R1-R14"}
{"atom_id":"ig34_p0111_a019","source":"SDTMIG v3.4 (no header footer).pdf","source_short":"ig34","page":111,"atom_index_on_page":19,"atom_type":"TABLE_ROW","verbatim":"2 | ABC | EC | ABC2001 | 1 | A2-20110114 | BOTTLE A | Y | Y | | 2 | TABLET | QD | TREATMENT | 2011-01-14 | 2011-01-23 | 1 | 10","parent_section":"§6.1.3.3 [Exposure/Exposure as Collected Examples]","heading_level":null,"sibling_index":null,"cross_refs":null,"figure_ref":null,"table_ref":"ec.xpt Example 1","prompt_version":"P0_writer_pdf_v1.2+TOC_anchor+R1-R14"}
{"atom_id":"ig34_p0111_a020","source":"SDTMIG v3.4 (no header footer).pdf","source_short":"ig34","page":111,"atom_index_on_page":20,"atom_type":"TABLE_ROW","verbatim":"3 | ABC | EC | ABC2001 | 2 | A0-20110124 | BOTTLE A | Y | N | PATIENT MISTAKE | | TABLET | QD | TREATMENT | 2011-01-24 | 2011-01-24 | 11 | 11","parent_section":"§6.1.3.3 [Exposure/Exposure as Collected Examples]","heading_level":null,"sibling_index":null,"cross_refs":null,"figure_ref":null,"table_ref":"ec.xpt Example 1","prompt_version":"P0_writer_pdf_v1.2+TOC_anchor+R1-R14"}
{"atom_id":"ig34_p0111_a021","source":"SDTMIG v3.4 (no header footer).pdf","source_short":"ig34","page":111,"atom_index_on_page":21,"atom_type":"TABLE_ROW","verbatim":"4 | ABC | EC | ABC2001 | 3 | A2-20110125 | BOTTLE A | Y | Y | | 2 | TABLET | QD | TREATMENT | 2011-01-25 | 2011-01-28 | 12 | 15","parent_section":"§6.1.3.3 [Exposure/Exposure as Collected Examples]","heading_level":null,"sibling_index":null,"cross_refs":null,"figure_ref":null,"table_ref":"ec.xpt Example 1","prompt_version":"P0_writer_pdf_v1.2+TOC_anchor+R1-R14"}
{"atom_id":"ig34_p0111_a022","source":"SDTMIG v3.4 (no header footer).pdf","source_short":"ig34","page":111,"atom_index_on_page":22,"atom_type":"SENTENCE","verbatim":"The EX dataset shows the unmasked administrations. Two tablets from bottle A became 1000 mg of drug X extended release for subject ABC1001, but 500 mg of drug Z for subject ABC2001. Note that there is no record in the EX dataset for non-occurrence of study treatment. The non-occurrence of study drug for subject ABC2001 is reflected in the gap in time between the 2 EX records.","parent_section":"§6.1.3.3 [Exposure/Exposure as Collected Examples]","heading_level":null,"sibling_index":null,"cross_refs":null,"figure_ref":null,"table_ref":null,"prompt_version":"P0_writer_pdf_v1.2+TOC_anchor+R1-R14"}
{"atom_id":"ig34_p0111_a023","source":"SDTMIG v3.4 (no header footer).pdf","source_short":"ig34","page":111,"atom_index_on_page":23,"atom_type":"CODE_LITERAL","verbatim":"ex.xpt","parent_section":"§6.1.3.3 [Exposure/Exposure as Collected Examples]","heading_level":null,"sibling_index":null,"cross_refs":null,"figure_ref":null,"table_ref":null,"prompt_version":"P0_writer_pdf_v1.2+TOC_anchor+R1-R14"}
{"atom_id":"ig34_p0111_a024","source":"SDTMIG v3.4 (no header footer).pdf","source_short":"ig34","page":111,"atom_index_on_page":24,"atom_type":"TABLE_HEADER","verbatim":"Row | STUDYID | DOMAIN | USUBJID | EXSEQ | EXLNKID | EXTRT | EXDOSE | EXDOSU | EXDOSFRM | EXDOSFRQ | EXROUTE | EPOCH | EXSTDTC | EXENDTC | EXSTDY | EXENDY","parent_section":"§6.1.3.3 [Exposure/Exposure as Collected Examples]","heading_level":null,"sibling_index":null,"cross_refs":null,"figure_ref":null,"table_ref":"ex.xpt Example 1","prompt_version":"P0_writer_pdf_v1.2+TOC_anchor+R1-R14"}
{"atom_id":"ig34_p0111_a025","source":"SDTMIG v3.4 (no header footer).pdf","source_short":"ig34","page":111,"atom_index_on_page":25,"atom_type":"TABLE_ROW","verbatim":"1 | ABC | EX | ABC1001 | 1 | A2-20110114 | DRUG X | 1000 | mg | TABLET, EXTENDED RELEASE | QD | ORAL | TREATMENT | 2011-01-14 | 2011-01-28 | 1 | 15","parent_section":"§6.1.3.3 [Exposure/Exposure as Collected Examples]","heading_level":null,"sibling_index":null,"cross_refs":null,"figure_ref":null,"table_ref":"ex.xpt Example 1","prompt_version":"P0_writer_pdf_v1.2+TOC_anchor+R1-R14"}
{"atom_id":"ig34_p0111_a026","source":"SDTMIG v3.4 (no header footer).pdf","source_short":"ig34","page":111,"atom_index_on_page":26,"atom_type":"TABLE_ROW","verbatim":"2 | ABC | EX | ABC2001 | 1 | A2-20110114 | DRUG Z | 500 | mg | TABLET | QD | ORAL | TREATMENT | 2011-01-14 | 2011-01-23 | 1 | 10","parent_section":"§6.1.3.3 [Exposure/Exposure as Collected Examples]","heading_level":null,"sibling_index":null,"cross_refs":null,"figure_ref":null,"table_ref":"ex.xpt Example 1","prompt_version":"P0_writer_pdf_v1.2+TOC_anchor+R1-R14"}
{"atom_id":"ig34_p0111_a027","source":"SDTMIG v3.4 (no header footer).pdf","source_short":"ig34","page":111,"atom_index_on_page":27,"atom_type":"TABLE_ROW","verbatim":"3 | ABC | EX | ABC2001 | 2 | A2-20110125 | DRUG Z | 500 | mg | TABLET | QD | ORAL | TREATMENT | 2011-01-25 | 2011-01-28 | 12 | 15","parent_section":"§6.1.3.3 [Exposure/Exposure as Collected Examples]","heading_level":null,"sibling_index":null,"cross_refs":null,"figure_ref":null,"table_ref":"ex.xpt Example 1","prompt_version":"P0_writer_pdf_v1.2+TOC_anchor+R1-R14"}
{"atom_id":"ig34_p0112_a001","source":"SDTMIG v3.4 (no header footer).pdf","source_short":"ig34","page":112,"atom_index_on_page":1,"atom_type":"SENTENCE","verbatim":"The relrec.xpt example reflects a one-to-one dataset-level relationship between EC and EX using --LNKID.","parent_section":"§6.1.3.3 [Exposure/Exposure as Collected Examples]","heading_level":null,"sibling_index":null,"cross_refs":null,"figure_ref":null,"table_ref":null,"prompt_version":"P0_writer_pdf_v1.2+TOC_anchor+R1-R14"}
{"atom_id":"ig34_p0112_a002","source":"SDTMIG v3.4 (no header footer).pdf","source_short":"ig34","page":112,"atom_index_on_page":2,"atom_type":"CODE_LITERAL","verbatim":"relrec.xpt","parent_section":"§6.1.3.3 [Exposure/Exposure as Collected Examples]","heading_level":null,"sibling_index":null,"cross_refs":null,"figure_ref":null,"table_ref":null,"prompt_version":"P0_writer_pdf_v1.2+TOC_anchor+R1-R14"}
{"atom_id":"ig34_p0112_a003","source":"SDTMIG v3.4 (no header footer).pdf","source_short":"ig34","page":112,"atom_index_on_page":3,"atom_type":"TABLE_HEADER","verbatim":"Row | STUDYID | RDOMAIN | USUBJID | IDVAR | IDVARVAL | RELTYPE | RELID","parent_section":"§6.1.3.3 [Exposure/Exposure as Collected Examples]","heading_level":null,"sibling_index":null,"cross_refs":null,"figure_ref":null,"table_ref":"relrec.xpt Example 1","prompt_version":"P0_writer_pdf_v1.2+TOC_anchor+R1-R14"}
{"atom_id":"ig34_p0112_a004","source":"SDTMIG v3.4 (no header footer).pdf","source_short":"ig34","page":112,"atom_index_on_page":4,"atom_type":"TABLE_ROW","verbatim":"1 | ABC | EC | | ECLNKID | | ONE | 1","parent_section":"§6.1.3.3 [Exposure/Exposure as Collected Examples]","heading_level":null,"sibling_index":null,"cross_refs":null,"figure_ref":null,"table_ref":"relrec.xpt Example 1","prompt_version":"P0_writer_pdf_v1.2+TOC_anchor+R1-R14"}
{"atom_id":"ig34_p0112_a005","source":"SDTMIG v3.4 (no header footer).pdf","source_short":"ig34","page":112,"atom_index_on_page":5,"atom_type":"TABLE_ROW","verbatim":"2 | ABC | EX | | EXLNKID | | ONE | 1","parent_section":"§6.1.3.3 [Exposure/Exposure as Collected Examples]","heading_level":null,"sibling_index":null,"cross_refs":null,"figure_ref":null,"table_ref":"relrec.xpt Example 1","prompt_version":"P0_writer_pdf_v1.2+TOC_anchor+R1-R14"}
{"atom_id":"ig34_p0112_a006","source":"SDTMIG v3.4 (no header footer).pdf","source_short":"ig34","page":112,"atom_index_on_page":6,"atom_type":"HEADING","verbatim":"Example 2","parent_section":"§6.1.3.3 [Exposure/Exposure as Collected Examples]","heading_level":5,"sibling_index":2,"cross_refs":null,"figure_ref":null,"table_ref":null,"prompt_version":"P0_writer_pdf_v1.2+TOC_anchor+R1-R14"}
{"atom_id":"ig34_p0112_a007","source":"SDTMIG v3.4 (no header footer).pdf","source_short":"ig34","page":112,"atom_index_on_page":7,"atom_type":"SENTENCE","verbatim":"This example shows data from an open-label study. A subject received drug X as a 20 mg/mL solution administered across 3 injection sites to deliver a total dose of 3 mg/kg. The subject's weight was 100 kg.","parent_section":"§6.1.3.3 [Exposure/Exposure as Collected Examples]","heading_level":null,"sibling_index":null,"cross_refs":null,"figure_ref":null,"table_ref":null,"prompt_version":"P0_writer_pdf_v1.2+TOC_anchor+R1-R14"}
{"atom_id":"ig34_p0112_a008","source":"SDTMIG v3.4 (no header footer).pdf","source_short":"ig34","page":112,"atom_index_on_page":8,"atom_type":"HEADING","verbatim":"Exposure CRF","parent_section":"§6.1.3.3 [Exposure/Exposure as Collected Examples]","heading_level":5,"sibling_index":null,"cross_refs":null,"figure_ref":null,"table_ref":null,"prompt_version":"P0_writer_pdf_v1.2+TOC_anchor+R1-R14"}
{"atom_id":"ig34_p0112_a009","source":"SDTMIG v3.4 (no header footer).pdf","source_short":"ig34","page":112,"atom_index_on_page":9,"atom_type":"TABLE_HEADER","verbatim":"[Field] | [Value]","parent_section":"§6.1.3.3 [Exposure/Exposure as Collected Examples]","heading_level":null,"sibling_index":null,"cross_refs":null,"figure_ref":null,"table_ref":"Exposure CRF Example 2","prompt_version":"P0_writer_pdf_v1.2+TOC_anchor+R1-R14"}
{"atom_id":"ig34_p0112_a010","source":"SDTMIG v3.4 (no header footer).pdf","source_short":"ig34","page":112,"atom_index_on_page":10,"atom_type":"TABLE_ROW","verbatim":"Visit | 3","parent_section":"§6.1.3.3 [Exposure/Exposure as Collected Examples]","heading_level":null,"sibling_index":null,"cross_refs":null,"figure_ref":null,"table_ref":"Exposure CRF Example 2","prompt_version":"P0_writer_pdf_v1.2+TOC_anchor+R1-R14"}
{"atom_id":"ig34_p0112_a011","source":"SDTMIG v3.4 (no header footer).pdf","source_short":"ig34","page":112,"atom_index_on_page":11,"atom_type":"TABLE_ROW","verbatim":"Date | 2009-05-10","parent_section":"§6.1.3.3 [Exposure/Exposure as Collected Examples]","heading_level":null,"sibling_index":null,"cross_refs":null,"figure_ref":null,"table_ref":"Exposure CRF Example 2","prompt_version":"P0_writer_pdf_v1.2+TOC_anchor+R1-R14"}
{"atom_id":"ig34_p0112_a012","source":"SDTMIG v3.4 (no header footer).pdf","source_short":"ig34","page":112,"atom_index_on_page":12,"atom_type":"TABLE_ROW","verbatim":"Injection 1 | |","parent_section":"§6.1.3.3 [Exposure/Exposure as Collected Examples]","heading_level":null,"sibling_index":null,"cross_refs":null,"figure_ref":null,"table_ref":"Exposure CRF Example 2","prompt_version":"P0_writer_pdf_v1.2+TOC_anchor+R1-R14"}
{"atom_id":"ig34_p0112_a013","source":"SDTMIG v3.4 (no header footer).pdf","source_short":"ig34","page":112,"atom_index_on_page":13,"atom_type":"TABLE_ROW","verbatim":"Volume Given (mL) | 5","parent_section":"§6.1.3.3 [Exposure/Exposure as Collected Examples]","heading_level":null,"sibling_index":null,"cross_refs":null,"figure_ref":null,"table_ref":"Exposure CRF Example 2","prompt_version":"P0_writer_pdf_v1.2+TOC_anchor+R1-R14"}
{"atom_id":"ig34_p0112_a014","source":"SDTMIG v3.4 (no header footer).pdf","source_short":"ig34","page":112,"atom_index_on_page":14,"atom_type":"TABLE_ROW","verbatim":"Location | ABDOMEN","parent_section":"§6.1.3.3 [Exposure/Exposure as Collected Examples]","heading_level":null,"sibling_index":null,"cross_refs":null,"figure_ref":null,"table_ref":"Exposure CRF Example 2","prompt_version":"P0_writer_pdf_v1.2+TOC_anchor+R1-R14"}
{"atom_id":"ig34_p0112_a015","source":"SDTMIG v3.4 (no header footer).pdf","source_short":"ig34","page":112,"atom_index_on_page":15,"atom_type":"TABLE_ROW","verbatim":"Side | LEFT","parent_section":"§6.1.3.3 [Exposure/Exposure as Collected Examples]","heading_level":null,"sibling_index":null,"cross_refs":null,"figure_ref":null,"table_ref":"Exposure CRF Example 2","prompt_version":"P0_writer_pdf_v1.2+TOC_anchor+R1-R14"}
{"atom_id":"ig34_p0112_a016","source":"SDTMIG v3.4 (no header footer).pdf","source_short":"ig34","page":112,"atom_index_on_page":16,"atom_type":"TABLE_ROW","verbatim":"Injection 2 | |","parent_section":"§6.1.3.3 [Exposure/Exposure as Collected Examples]","heading_level":null,"sibling_index":null,"cross_refs":null,"figure_ref":null,"table_ref":"Exposure CRF Example 2","prompt_version":"P0_writer_pdf_v1.2+TOC_anchor+R1-R14"}
{"atom_id":"ig34_p0112_a017","source":"SDTMIG v3.4 (no header footer).pdf","source_short":"ig34","page":112,"atom_index_on_page":17,"atom_type":"TABLE_ROW","verbatim":"Volume Given (mL) | 5","parent_section":"§6.1.3.3 [Exposure/Exposure as Collected Examples]","heading_level":null,"sibling_index":null,"cross_refs":null,"figure_ref":null,"table_ref":"Exposure CRF Example 2","prompt_version":"P0_writer_pdf_v1.2+TOC_anchor+R1-R14"}
{"atom_id":"ig34_p0112_a018","source":"SDTMIG v3.4 (no header footer).pdf","source_short":"ig34","page":112,"atom_index_on_page":18,"atom_type":"TABLE_ROW","verbatim":"Location | ABDOMEN","parent_section":"§6.1.3.3 [Exposure/Exposure as Collected Examples]","heading_level":null,"sibling_index":null,"cross_refs":null,"figure_ref":null,"table_ref":"Exposure CRF Example 2","prompt_version":"P0_writer_pdf_v1.2+TOC_anchor+R1-R14"}
{"atom_id":"ig34_p0112_a019","source":"SDTMIG v3.4 (no header footer).pdf","source_short":"ig34","page":112,"atom_index_on_page":19,"atom_type":"TABLE_ROW","verbatim":"Side | CENTER","parent_section":"§6.1.3.3 [Exposure/Exposure as Collected Examples]","heading_level":null,"sibling_index":null,"cross_refs":null,"figure_ref":null,"table_ref":"Exposure CRF Example 2","prompt_version":"P0_writer_pdf_v1.2+TOC_anchor+R1-R14"}
{"atom_id":"ig34_p0112_a020","source":"SDTMIG v3.4 (no header footer).pdf","source_short":"ig34","page":112,"atom_index_on_page":20,"atom_type":"TABLE_ROW","verbatim":"Injection 3 | |","parent_section":"§6.1.3.3 [Exposure/Exposure as Collected Examples]","heading_level":null,"sibling_index":null,"cross_refs":null,"figure_ref":null,"table_ref":"Exposure CRF Example 2","prompt_version":"P0_writer_pdf_v1.2+TOC_anchor+R1-R14"}
{"atom_id":"ig34_p0112_a021","source":"SDTMIG v3.4 (no header footer).pdf","source_short":"ig34","page":112,"atom_index_on_page":21,"atom_type":"TABLE_ROW","verbatim":"Volume Given (mL) | 5","parent_section":"§6.1.3.3 [Exposure/Exposure as Collected Examples]","heading_level":null,"sibling_index":null,"cross_refs":null,"figure_ref":null,"table_ref":"Exposure CRF Example 2","prompt_version":"P0_writer_pdf_v1.2+TOC_anchor+R1-R14"}
{"atom_id":"ig34_p0112_a022","source":"SDTMIG v3.4 (no header footer).pdf","source_short":"ig34","page":112,"atom_index_on_page":22,"atom_type":"TABLE_ROW","verbatim":"Location | ABDOMEN","parent_section":"§6.1.3.3 [Exposure/Exposure as Collected Examples]","heading_level":null,"sibling_index":null,"cross_refs":null,"figure_ref":null,"table_ref":"Exposure CRF Example 2","prompt_version":"P0_writer_pdf_v1.2+TOC_anchor+R1-R14"}
{"atom_id":"ig34_p0112_a023","source":"SDTMIG v3.4 (no header footer).pdf","source_short":"ig34","page":112,"atom_index_on_page":23,"atom_type":"TABLE_ROW","verbatim":"Side | RIGHT","parent_section":"§6.1.3.3 [Exposure/Exposure as Collected Examples]","heading_level":null,"sibling_index":null,"cross_refs":null,"figure_ref":null,"table_ref":"Exposure CRF Example 2","prompt_version":"P0_writer_pdf_v1.2+TOC_anchor+R1-R14"}
{"atom_id":"ig34_p0112_a024","source":"SDTMIG v3.4 (no header footer).pdf","source_short":"ig34","page":112,"atom_index_on_page":24,"atom_type":"SENTENCE","verbatim":"The collected administration amounts, in mL, and their locations are represented in the EC dataset.","parent_section":"§6.1.3.3 [Exposure/Exposure as Collected Examples]","heading_level":null,"sibling_index":null,"cross_refs":null,"figure_ref":null,"table_ref":null,"prompt_version":"P0_writer_pdf_v1.2+TOC_anchor+R1-R14"}
{"atom_id":"ig34_p0112_a025","source":"SDTMIG v3.4 (no header footer).pdf","source_short":"ig34","page":112,"atom_index_on_page":25,"atom_type":"CODE_LITERAL","verbatim":"ec.xpt","parent_section":"§6.1.3.3 [Exposure/Exposure as Collected Examples]","heading_level":null,"sibling_index":null,"cross_refs":null,"figure_ref":null,"table_ref":null,"prompt_version":"P0_writer_pdf_v1.2+TOC_anchor+R1-R14"}
{"atom_id":"ig34_p0112_a026","source":"SDTMIG v3.4 (no header footer).pdf","source_short":"ig34","page":112,"atom_index_on_page":26,"atom_type":"TABLE_HEADER","verbatim":"Row | STUDYID | DOMAIN | USUBJID | ECSEQ | ECSPID | ECLNKID | ECTRT | ECPRESP | ECOCCUR | ECDOSE | ECDOSU | ECDOSFRM | ECDOSFRQ | ECROUTE | ECLOC | ECLAT | VISITNUM | VISIT | EPOCH | ECSTDTC | ECENDTC | ECSTDY | ECENDY","parent_section":"§6.1.3.3 [Exposure/Exposure as Collected Examples]","heading_level":null,"sibling_index":null,"cross_refs":null,"figure_ref":null,"table_ref":"ec.xpt Example 2","prompt_version":"P0_writer_pdf_v1.2+TOC_anchor+R1-R14"}
{"atom_id":"ig34_p0112_a027","source":"SDTMIG v3.4 (no header footer).pdf","source_short":"ig34","page":112,"atom_index_on_page":27,"atom_type":"TABLE_ROW","verbatim":"1 | ABC | EC | ABC3001 | 1 | INJ1 | V3 | DRUG X | Y | Y | 5 | mL | INJECTION | ONCE | SUBCUTANEOUS | ABDOMINAL CAVITY | LEFT | 3 | VISIT 3 | TREATMENT | 2009-05-10 | 2009-05-10 | 21 | 21","parent_section":"§6.1.3.3 [Exposure/Exposure as Collected Examples]","heading_level":null,"sibling_index":null,"cross_refs":null,"figure_ref":null,"table_ref":"ec.xpt Example 2","prompt_version":"P0_writer_pdf_v1.2+TOC_anchor+R1-R14"}
{"atom_id":"ig34_p0112_a028","source":"SDTMIG v3.4 (no header footer).pdf","source_short":"ig34","page":112,"atom_index_on_page":28,"atom_type":"TABLE_ROW","verbatim":"2 | ABC | EC | ABC3001 | 2 | INJ2 | V3 | DRUG X | Y | Y | 5 | mL | INJECTION | ONCE | SUBCUTANEOUS | ABDOMINAL CAVITY | CENTER | 3 | VISIT 3 | TREATMENT | 2009-05-10 | 2009-05-10 | 21 | 21","parent_section":"§6.1.3.3 [Exposure/Exposure as Collected Examples]","heading_level":null,"sibling_index":null,"cross_refs":null,"figure_ref":null,"table_ref":"ec.xpt Example 2","prompt_version":"P0_writer_pdf_v1.2+TOC_anchor+R1-R14"}
{"atom_id":"ig34_p0112_a029","source":"SDTMIG v3.4 (no header footer).pdf","source_short":"ig34","page":112,"atom_index_on_page":29,"atom_type":"TABLE_ROW","verbatim":"3 | ABC | EC | ABC3001 | 3 | INJ3 | V3 | DRUG X | Y | Y | 5 | mL | INJECTION | ONCE | SUBCUTANEOUS | ABDOMINAL CAVITY | RIGHT | 3 | VISIT 3 | TREATMENT | 2009-05-10 | 2009-05-10 | 21 | 21","parent_section":"§6.1.3.3 [Exposure/Exposure as Collected Examples]","heading_level":null,"sibling_index":null,"cross_refs":null,"figure_ref":null,"table_ref":"ec.xpt Example 2","prompt_version":"P0_writer_pdf_v1.2+TOC_anchor+R1-R14"}
{"atom_id":"ig34_p0112_a030","source":"SDTMIG v3.4 (no header footer).pdf","source_short":"ig34","page":112,"atom_index_on_page":30,"atom_type":"SENTENCE","verbatim":"The sponsor considered the 3 injections to constitute a single administration, so the EX dataset shows the total dose given in the protocol-specified unit, mg/kg. EXLOC = \"ABDOMEN\" is included because this location was common to all injections, but EXLAT was not included. If the sponsor had chosen to represent laterality in the EX record, this would have been handled as described in Section 4.2.8.3, Multiple Values for a Non-result Qualifier Variable.","parent_section":"§6.1.3.3 [Exposure/Exposure as Collected Examples]","heading_level":null,"sibling_index":null,"cross_refs":["Section 4.2.8.3"],"figure_ref":null,"table_ref":null,"prompt_version":"P0_writer_pdf_v1.2+TOC_anchor+R1-R14"}
{"atom_id":"ig34_p0112_a031","source":"SDTMIG v3.4 (no header footer).pdf","source_short":"ig34","page":112,"atom_index_on_page":31,"atom_type":"CODE_LITERAL","verbatim":"ex.xpt","parent_section":"§6.1.3.3 [Exposure/Exposure as Collected Examples]","heading_level":null,"sibling_index":null,"cross_refs":null,"figure_ref":null,"table_ref":null,"prompt_version":"P0_writer_pdf_v1.2+TOC_anchor+R1-R14"}
{"atom_id":"ig34_p0112_a032","source":"SDTMIG v3.4 (no header footer).pdf","source_short":"ig34","page":112,"atom_index_on_page":32,"atom_type":"TABLE_HEADER","verbatim":"Row | STUDYID | DOMAIN | USUBJID | EXSEQ | EXSPID | EXLNKID | EXTRT | EXDOSE | EXDOSU | EXDOSFRM | EXDOSFRQ | EXROUTE | EXLOC | VISITNUM | VISIT | EPOCH | EXSTDTC | EXENDTC | EXSTDY | EXENDY","parent_section":"§6.1.3.3 [Exposure/Exposure as Collected Examples]","heading_level":null,"sibling_index":null,"cross_refs":null,"figure_ref":null,"table_ref":"ex.xpt Example 2","prompt_version":"P0_writer_pdf_v1.2+TOC_anchor+R1-R14"}
{"atom_id":"ig34_p0112_a033","source":"SDTMIG v3.4 (no header footer).pdf","source_short":"ig34","page":112,"atom_index_on_page":33,"atom_type":"TABLE_ROW","verbatim":"1 | ABC | EX | ABC3001 | 1 | | V3 | DRUG X | 3 | mg/kg | INJECTION | ONCE | SUBCUTANEOUS | ABDOMEN | 3 | VISIT 3 | TREATMENT | 2009-05-10 | 2009-05-10 | 21 | 21","parent_section":"§6.1.3.3 [Exposure/Exposure as Collected Examples]","heading_level":null,"sibling_index":null,"cross_refs":null,"figure_ref":null,"table_ref":"ex.xpt Example 2","prompt_version":"P0_writer_pdf_v1.2+TOC_anchor+R1-R14"}
{"atom_id":"ig34_p0113_a001","source":"SDTMIG v3.4 (no header footer).pdf","source_short":"ig34","page":113,"atom_index_on_page":1,"atom_type":"SENTENCE","verbatim":"The relrec.xpt example reflects a many-to-one dataset-level relationship between EC and EX using --LNKID.","parent_section":"§6.1.3.3 [Exposure/Exposure as Collected Examples]","heading_level":null,"sibling_index":null,"cross_refs":null,"figure_ref":null,"table_ref":null,"prompt_version":"P0_writer_pdf_v1.2+TOC_anchor+R1-R14"}
{"atom_id":"ig34_p0113_a002","source":"SDTMIG v3.4 (no header footer).pdf","source_short":"ig34","page":113,"atom_index_on_page":2,"atom_type":"CODE_LITERAL","verbatim":"relrec.xpt","parent_section":"§6.1.3.3 [Exposure/Exposure as Collected Examples]","heading_level":null,"sibling_index":null,"cross_refs":null,"figure_ref":null,"table_ref":null,"prompt_version":"P0_writer_pdf_v1.2+TOC_anchor+R1-R14"}
{"atom_id":"ig34_p0113_a003","source":"SDTMIG v3.4 (no header footer).pdf","source_short":"ig34","page":113,"atom_index_on_page":3,"atom_type":"TABLE_HEADER","verbatim":"Row | STUDYID | RDOMAIN | USUBJID | IDVAR | IDVARVAL | RELTYPE | RELID","parent_section":"§6.1.3.3 [Exposure/Exposure as Collected Examples]","heading_level":null,"sibling_index":null,"cross_refs":null,"figure_ref":null,"table_ref":"relrec.xpt Example 2","prompt_version":"P0_writer_pdf_v1.2+TOC_anchor+R1-R14"}
{"atom_id":"ig34_p0113_a004","source":"SDTMIG v3.4 (no header footer).pdf","source_short":"ig34","page":113,"atom_index_on_page":4,"atom_type":"TABLE_ROW","verbatim":"1 | ABC | EC | | ECLNKID | | MANY | 1","parent_section":"§6.1.3.3 [Exposure/Exposure as Collected Examples]","heading_level":null,"sibling_index":null,"cross_refs":null,"figure_ref":null,"table_ref":"relrec.xpt Example 2","prompt_version":"P0_writer_pdf_v1.2+TOC_anchor+R1-R14"}
{"atom_id":"ig34_p0113_a005","source":"SDTMIG v3.4 (no header footer).pdf","source_short":"ig34","page":113,"atom_index_on_page":5,"atom_type":"TABLE_ROW","verbatim":"2 | ABC | EX | | EXLNKID | | ONE | 1","parent_section":"§6.1.3.3 [Exposure/Exposure as Collected Examples]","heading_level":null,"sibling_index":null,"cross_refs":null,"figure_ref":null,"table_ref":"relrec.xpt Example 2","prompt_version":"P0_writer_pdf_v1.2+TOC_anchor+R1-R14"}
{"atom_id":"ig34_p0113_a006","source":"SDTMIG v3.4 (no header footer).pdf","source_short":"ig34","page":113,"atom_index_on_page":6,"atom_type":"HEADING","verbatim":"Example 3","parent_section":"§6.1.3.3 [Exposure/Exposure as Collected Examples]","heading_level":5,"sibling_index":3,"cross_refs":null,"figure_ref":null,"table_ref":null,"prompt_version":"P0_writer_pdf_v1.2+TOC_anchor+R1-R14"}
{"atom_id":"ig34_p0113_a007","source":"SDTMIG v3.4 (no header footer).pdf","source_short":"ig34","page":113,"atom_index_on_page":7,"atom_type":"SENTENCE","verbatim":"The study in this example was a double-blind study comparing 10, 20, and 30 mg of Drug X once daily vs. placebo. Study treatment was given as 1 tablet each from bottles A, B, and C taken together once daily. The subject in this example took:","parent_section":"§6.1.3.3 [Exposure/Exposure as Collected Examples]","heading_level":null,"sibling_index":null,"cross_refs":null,"figure_ref":null,"table_ref":null,"prompt_version":"P0_writer_pdf_v1.2+TOC_anchor+R1-R14"}
{"atom_id":"ig34_p0113_a008","source":"SDTMIG v3.4 (no header footer).pdf","source_short":"ig34","page":113,"atom_index_on_page":8,"atom_type":"LIST_ITEM","verbatim":"1 tablet from bottles A, B and C from 2011-01-14 to 2011-01-20","parent_section":"§6.1.3.3 [Exposure/Exposure as Collected Examples]","heading_level":null,"sibling_index":null,"cross_refs":null,"figure_ref":null,"table_ref":null,"prompt_version":"P0_writer_pdf_v1.2+TOC_anchor+R1-R14"}
{"atom_id":"ig34_p0113_a009","source":"SDTMIG v3.4 (no header footer).pdf","source_short":"ig34","page":113,"atom_index_on_page":9,"atom_type":"LIST_ITEM","verbatim":"0 tablets from bottle B on 2011-01-21, then 2 tablets on 2011-01-22","parent_section":"§6.1.3.3 [Exposure/Exposure as Collected Examples]","heading_level":null,"sibling_index":null,"cross_refs":null,"figure_ref":null,"table_ref":null,"prompt_version":"P0_writer_pdf_v1.2+TOC_anchor+R1-R14"}
{"atom_id":"ig34_p0113_a010","source":"SDTMIG v3.4 (no header footer).pdf","source_short":"ig34","page":113,"atom_index_on_page":10,"atom_type":"LIST_ITEM","verbatim":"1 tablet from bottles A and C on 2011-01-21 and 2011-01-22","parent_section":"§6.1.3.3 [Exposure/Exposure as Collected Examples]","heading_level":null,"sibling_index":null,"cross_refs":null,"figure_ref":null,"table_ref":null,"prompt_version":"P0_writer_pdf_v1.2+TOC_anchor+R1-R14"}
{"atom_id":"ig34_p0113_a011","source":"SDTMIG v3.4 (no header footer).pdf","source_short":"ig34","page":113,"atom_index_on_page":11,"atom_type":"LIST_ITEM","verbatim":"1 tablet from ottles A, B and C from 2011-01-23 to 2011-01-28","parent_section":"§6.1.3.3 [Exposure/Exposure as Collected Examples]","heading_level":null,"sibling_index":null,"cross_refs":null,"figure_ref":null,"table_ref":null,"prompt_version":"P0_writer_pdf_v1.2+TOC_anchor+R1-R14"}
{"atom_id":"ig34_p0113_a012","source":"SDTMIG v3.4 (no header footer).pdf","source_short":"ig34","page":113,"atom_index_on_page":12,"atom_type":"SENTENCE","verbatim":"The EC dataset shows administrations as collected, in tablets.","parent_section":"§6.1.3.3 [Exposure/Exposure as Collected Examples]","heading_level":null,"sibling_index":null,"cross_refs":null,"figure_ref":null,"table_ref":null,"prompt_version":"P0_writer_pdf_v1.2+TOC_anchor+R1-R14"}
{"atom_id":"ig34_p0113_a013","source":"SDTMIG v3.4 (no header footer).pdf","source_short":"ig34","page":113,"atom_index_on_page":13,"atom_type":"CODE_LITERAL","verbatim":"ec.xpt","parent_section":"§6.1.3.3 [Exposure/Exposure as Collected Examples]","heading_level":null,"sibling_index":null,"cross_refs":null,"figure_ref":null,"table_ref":null,"prompt_version":"P0_writer_pdf_v1.2+TOC_anchor+R1-R14"}
{"atom_id":"ig34_p0113_a014","source":"SDTMIG v3.4 (no header footer).pdf","source_short":"ig34","page":113,"atom_index_on_page":14,"atom_type":"TABLE_HEADER","verbatim":"Row | STUDYID | DOMAIN | USUBJID | ECSEQ | ECTRT | ECPRESP | ECOCCUR | ECDOSE | ECDOSU | ECDOSFRQ | EPOCH | ECSTDTC | ECENDTC | ECSTDY | ECENDY","parent_section":"§6.1.3.3 [Exposure/Exposure as Collected Examples]","heading_level":null,"sibling_index":null,"cross_refs":null,"figure_ref":null,"table_ref":"ec.xpt Example 3","prompt_version":"P0_writer_pdf_v1.2+TOC_anchor+R1-R14"}
{"atom_id":"ig34_p0113_a015","source":"SDTMIG v3.4 (no header footer).pdf","source_short":"ig34","page":113,"atom_index_on_page":15,"atom_type":"TABLE_ROW","verbatim":"1 | ABC | EC | ABC4001 | 1 | BOTTLE A | Y | Y | 1 | TABLET | QD | TREATMENT | 2011-01-14 | 2011-01-28 | 1 | 15","parent_section":"§6.1.3.3 [Exposure/Exposure as Collected Examples]","heading_level":null,"sibling_index":null,"cross_refs":null,"figure_ref":null,"table_ref":"ec.xpt Example 3","prompt_version":"P0_writer_pdf_v1.2+TOC_anchor+R1-R14"}
{"atom_id":"ig34_p0113_a016","source":"SDTMIG v3.4 (no header footer).pdf","source_short":"ig34","page":113,"atom_index_on_page":16,"atom_type":"TABLE_ROW","verbatim":"2 | ABC | EC | ABC4001 | 2 | BOTTLE C | Y | Y | 1 | TABLET | QD | TREATMENT | 2011-01-14 | 2011-01-28 | 1 | 15","parent_section":"§6.1.3.3 [Exposure/Exposure as Collected Examples]","heading_level":null,"sibling_index":null,"cross_refs":null,"figure_ref":null,"table_ref":"ec.xpt Example 3","prompt_version":"P0_writer_pdf_v1.2+TOC_anchor+R1-R14"}
{"atom_id":"ig34_p0113_a017","source":"SDTMIG v3.4 (no header footer).pdf","source_short":"ig34","page":113,"atom_index_on_page":17,"atom_type":"TABLE_ROW","verbatim":"3 | ABC | EC | ABC4001 | 3 | BOTTLE B | Y | Y | 1 | TABLET | QD | TREATMENT | 2011-01-14 | 2011-01-20 | 1 | 7","parent_section":"§6.1.3.3 [Exposure/Exposure as Collected Examples]","heading_level":null,"sibling_index":null,"cross_refs":null,"figure_ref":null,"table_ref":"ec.xpt Example 3","prompt_version":"P0_writer_pdf_v1.2+TOC_anchor+R1-R14"}
{"atom_id":"ig34_p0113_a018","source":"SDTMIG v3.4 (no header footer).pdf","source_short":"ig34","page":113,"atom_index_on_page":18,"atom_type":"TABLE_ROW","verbatim":"4 | ABC | EC | ABC4001 | 4 | BOTTLE B | Y | N | | TABLET | QD | TREATMENT | 2011-01-21 | 2011-01-21 | 8 | 8","parent_section":"§6.1.3.3 [Exposure/Exposure as Collected Examples]","heading_level":null,"sibling_index":null,"cross_refs":null,"figure_ref":null,"table_ref":"ec.xpt Example 3","prompt_version":"P0_writer_pdf_v1.2+TOC_anchor+R1-R14"}
{"atom_id":"ig34_p0113_a019","source":"SDTMIG v3.4 (no header footer).pdf","source_short":"ig34","page":113,"atom_index_on_page":19,"atom_type":"TABLE_ROW","verbatim":"5 | ABC | EC | ABC4001 | 5 | BOTTLE B | Y | Y | 2 | TABLET | QD | TREATMENT | 2011-01-22 | 2011-01-22 | 9 | 9","parent_section":"§6.1.3.3 [Exposure/Exposure as Collected Examples]","heading_level":null,"sibling_index":null,"cross_refs":null,"figure_ref":null,"table_ref":"ec.xpt Example 3","prompt_version":"P0_writer_pdf_v1.2+TOC_anchor+R1-R14"}
{"atom_id":"ig34_p0113_a020","source":"SDTMIG v3.4 (no header footer).pdf","source_short":"ig34","page":113,"atom_index_on_page":20,"atom_type":"TABLE_ROW","verbatim":"6 | ABC | EC | ABC4001 | 6 | BOTTLE B | Y | Y | 1 | TABLET | QD | TREATMENT | 2011-01-23 | 2011-01-28 | 10 | 15","parent_section":"§6.1.3.3 [Exposure/Exposure as Collected Examples]","heading_level":null,"sibling_index":null,"cross_refs":null,"figure_ref":null,"table_ref":"ec.xpt Example 3","prompt_version":"P0_writer_pdf_v1.2+TOC_anchor+R1-R14"}
{"atom_id":"ig34_p0113_a021","source":"SDTMIG v3.4 (no header footer).pdf","source_short":"ig34","page":113,"atom_index_on_page":21,"atom_type":"SENTENCE","verbatim":"Upon unmasking, it became known that the subject was randomized to drug X 20 mg and that:","parent_section":"§6.1.3.3 [Exposure/Exposure as Collected Examples]","heading_level":null,"sibling_index":null,"cross_refs":null,"figure_ref":null,"table_ref":null,"prompt_version":"P0_writer_pdf_v1.2+TOC_anchor+R1-R14"}
{"atom_id":"ig34_p0113_a022","source":"SDTMIG v3.4 (no header footer).pdf","source_short":"ig34","page":113,"atom_index_on_page":22,"atom_type":"LIST_ITEM","verbatim":"Bottle A contained 10 mg/tablet","parent_section":"§6.1.3.3 [Exposure/Exposure as Collected Examples]","heading_level":null,"sibling_index":null,"cross_refs":null,"figure_ref":null,"table_ref":null,"prompt_version":"P0_writer_pdf_v1.2+TOC_anchor+R1-R14"}
{"atom_id":"ig34_p0113_a023","source":"SDTMIG v3.4 (no header footer).pdf","source_short":"ig34","page":113,"atom_index_on_page":23,"atom_type":"LIST_ITEM","verbatim":"Bottle B contained 10 mg/tablet","parent_section":"§6.1.3.3 [Exposure/Exposure as Collected Examples]","heading_level":null,"sibling_index":null,"cross_refs":null,"figure_ref":null,"table_ref":null,"prompt_version":"P0_writer_pdf_v1.2+TOC_anchor+R1-R14"}
{"atom_id":"ig34_p0113_a024","source":"SDTMIG v3.4 (no header footer).pdf","source_short":"ig34","page":113,"atom_index_on_page":24,"atom_type":"LIST_ITEM","verbatim":"Bottle C contained placebo (i.e., 0 mg of active ingredient/tablet)","parent_section":"§6.1.3.3 [Exposure/Exposure as Collected Examples]","heading_level":null,"sibling_index":null,"cross_refs":null,"figure_ref":null,"table_ref":null,"prompt_version":"P0_writer_pdf_v1.2+TOC_anchor+R1-R14"}
{"atom_id":"ig34_p0113_a025","source":"SDTMIG v3.4 (no header footer).pdf","source_short":"ig34","page":113,"atom_index_on_page":25,"atom_type":"SENTENCE","verbatim":"The EX dataset shows the doses administered in the protocol-specified unit (mg). The sponsor considered an administration to consist of the total amount for bottles A, B, and C. The derivation of EX records from multiple EC records should be shown in the Define-XML document.","parent_section":"§6.1.3.3 [Exposure/Exposure as Collected Examples]","heading_level":null,"sibling_index":null,"cross_refs":null,"figure_ref":null,"table_ref":null,"prompt_version":"P0_writer_pdf_v1.2+TOC_anchor+R1-R14"}
{"atom_id":"ig34_p0113_a026","source":"SDTMIG v3.4 (no header footer).pdf","source_short":"ig34","page":113,"atom_index_on_page":26,"atom_type":"CODE_LITERAL","verbatim":"ex.xpt","parent_section":"§6.1.3.3 [Exposure/Exposure as Collected Examples]","heading_level":null,"sibling_index":null,"cross_refs":null,"figure_ref":null,"table_ref":null,"prompt_version":"P0_writer_pdf_v1.2+TOC_anchor+R1-R14"}
{"atom_id":"ig34_p0113_a027","source":"SDTMIG v3.4 (no header footer).pdf","source_short":"ig34","page":113,"atom_index_on_page":27,"atom_type":"TABLE_HEADER","verbatim":"Row | STUDYID | DOMAIN | USUBJID | EXSEQ | EXTRT | EXDOSE | EXDOSU | EXDOSFRM | EXDOSFRQ | EXROUTE | EPOCH | EXSTDTC | EXENDTC | EXSTDY | EXENDY","parent_section":"§6.1.3.3 [Exposure/Exposure as Collected Examples]","heading_level":null,"sibling_index":null,"cross_refs":null,"figure_ref":null,"table_ref":"ex.xpt Example 3","prompt_version":"P0_writer_pdf_v1.2+TOC_anchor+R1-R14"}
{"atom_id":"ig34_p0113_a028","source":"SDTMIG v3.4 (no header footer).pdf","source_short":"ig34","page":113,"atom_index_on_page":28,"atom_type":"TABLE_ROW","verbatim":"1 | ABC | EX | ABC4001 | 1 | DRUG X | 20 | mg | TABLET | QD | ORAL | TREATMENT | 2011-01-14 | 2011-01-20 | 1 | 7","parent_section":"§6.1.3.3 [Exposure/Exposure as Collected Examples]","heading_level":null,"sibling_index":null,"cross_refs":null,"figure_ref":null,"table_ref":"ex.xpt Example 3","prompt_version":"P0_writer_pdf_v1.2+TOC_anchor+R1-R14"}
{"atom_id":"ig34_p0113_a029","source":"SDTMIG v3.4 (no header footer).pdf","source_short":"ig34","page":113,"atom_index_on_page":29,"atom_type":"TABLE_ROW","verbatim":"2 | ABC | EX | ABC4001 | 2 | DRUG X | 10 | mg | TABLET | QD | ORAL | TREATMENT | 2011-01-21 | 2011-01-21 | 8 | 8","parent_section":"§6.1.3.3 [Exposure/Exposure as Collected Examples]","heading_level":null,"sibling_index":null,"cross_refs":null,"figure_ref":null,"table_ref":"ex.xpt Example 3","prompt_version":"P0_writer_pdf_v1.2+TOC_anchor+R1-R14"}
{"atom_id":"ig34_p0113_a030","source":"SDTMIG v3.4 (no header footer).pdf","source_short":"ig34","page":113,"atom_index_on_page":30,"atom_type":"TABLE_ROW","verbatim":"3 | ABC | EX | ABC4001 | 3 | DRUG X | 30 | mg | TABLET | QD | ORAL | TREATMENT | 2011-01-22 | 2011-01-22 | 9 | 9","parent_section":"§6.1.3.3 [Exposure/Exposure as Collected Examples]","heading_level":null,"sibling_index":null,"cross_refs":null,"figure_ref":null,"table_ref":"ex.xpt Example 3","prompt_version":"P0_writer_pdf_v1.2+TOC_anchor+R1-R14"}
{"atom_id":"ig34_p0113_a031","source":"SDTMIG v3.4 (no header footer).pdf","source_short":"ig34","page":113,"atom_index_on_page":31,"atom_type":"TABLE_ROW","verbatim":"4 | ABC | EX | ABC4001 | 4 | DRUG X | 20 | mg | TABLET | QD | ORAL | TREATMENT | 2011-01-23 | 2011-01-28 | 10 | 15","parent_section":"§6.1.3.3 [Exposure/Exposure as Collected Examples]","heading_level":null,"sibling_index":null,"cross_refs":null,"figure_ref":null,"table_ref":"ex.xpt Example 3","prompt_version":"P0_writer_pdf_v1.2+TOC_anchor+R1-R14"}
{"atom_id":"ig34_p0114_a001","source":"SDTMIG v3.4 (no header footer).pdf","source_short":"ig34","page":114,"atom_index_on_page":1,"atom_type":"HEADING","verbatim":"Example 4","parent_section":"§6.1.3.3 [Exposure/Exposure as Collected Examples]","heading_level":5,"sibling_index":4,"cross_refs":null,"figure_ref":null,"table_ref":null,"prompt_version":"P0_writer_pdf_v1.2+TOC_anchor+R1-R14"}
{"atom_id":"ig34_p0114_a002","source":"SDTMIG v3.4 (no header footer).pdf","source_short":"ig34","page":114,"atom_index_on_page":2,"atom_type":"SENTENCE","verbatim":"The study in this example was an open-label study examining the tolerability of different doses of drug A. The study drug was taken orally, daily for 3 months. Dose adjustments were allowed as needed in response to tolerability or efficacy issues.","parent_section":"§6.1.3.3 [Exposure/Exposure as Collected Examples]","heading_level":null,"sibling_index":null,"cross_refs":null,"figure_ref":null,"table_ref":null,"prompt_version":"P0_writer_pdf_v1.2+TOC_anchor+R1-R14"}
{"atom_id":"ig34_p0114_a003","source":"SDTMIG v3.4 (no header footer).pdf","source_short":"ig34","page":114,"atom_index_on_page":3,"atom_type":"SENTENCE","verbatim":"The EX dataset shows administrations collected in the protocol-specified unit, mg. No EC dataset was needed because the open-label administrations were collected in the protocol-specified unit; EC would be an exact duplicate of the entire EX domain.","parent_section":"§6.1.3.3 [Exposure/Exposure as Collected Examples]","heading_level":null,"sibling_index":null,"cross_refs":null,"figure_ref":null,"table_ref":null,"prompt_version":"P0_writer_pdf_v1.2+TOC_anchor+R1-R14"}
{"atom_id":"ig34_p0114_a004","source":"SDTMIG v3.4 (no header footer).pdf","source_short":"ig34","page":114,"atom_index_on_page":4,"atom_type":"CODE_LITERAL","verbatim":"ex.xpt","parent_section":"§6.1.3.3 [Exposure/Exposure as Collected Examples]","heading_level":null,"sibling_index":null,"cross_refs":null,"figure_ref":null,"table_ref":null,"prompt_version":"P0_writer_pdf_v1.2+TOC_anchor+R1-R14"}
{"atom_id":"ig34_p0114_a005","source":"SDTMIG v3.4 (no header footer).pdf","source_short":"ig34","page":114,"atom_index_on_page":5,"atom_type":"TABLE_HEADER","verbatim":"Row | STUDYID | DOMAIN | USUBJID | EXSEQ | EXTRT | EXDOSE | EXDOSU | EXDOSFRM | EXDOSFRQ | EXROUTE | EXADJ | EPOCH | EXSTDTC | EXENDTC","parent_section":"§6.1.3.3 [Exposure/Exposure as Collected Examples]","heading_level":null,"sibling_index":null,"cross_refs":null,"figure_ref":null,"table_ref":"ex.xpt Example 4","prompt_version":"P0_writer_pdf_v1.2+TOC_anchor+R1-R14"}
{"atom_id":"ig34_p0114_a006","source":"SDTMIG v3.4 (no header footer).pdf","source_short":"ig34","page":114,"atom_index_on_page":6,"atom_type":"TABLE_ROW","verbatim":"1 | 37841 | EX | 37841001 | 1 | DRUG A | 20 | mg | TABLET | QD | ORAL | | TREATMENT | 2002-07-01 | 2002-10-01","parent_section":"§6.1.3.3 [Exposure/Exposure as Collected Examples]","heading_level":null,"sibling_index":null,"cross_refs":null,"figure_ref":null,"table_ref":"ex.xpt Example 4","prompt_version":"P0_writer_pdf_v1.2+TOC_anchor+R1-R14"}
{"atom_id":"ig34_p0114_a007","source":"SDTMIG v3.4 (no header footer).pdf","source_short":"ig34","page":114,"atom_index_on_page":7,"atom_type":"TABLE_ROW","verbatim":"2 | 37841 | EX | 37841002 | 1 | DRUG A | 20 | mg | TABLET | QD | ORAL | | TREATMENT | 2002-04-02 | 2002-04-21","parent_section":"§6.1.3.3 [Exposure/Exposure as Collected Examples]","heading_level":null,"sibling_index":null,"cross_refs":null,"figure_ref":null,"table_ref":"ex.xpt Example 4","prompt_version":"P0_writer_pdf_v1.2+TOC_anchor+R1-R14"}
{"atom_id":"ig34_p0114_a008","source":"SDTMIG v3.4 (no header footer).pdf","source_short":"ig34","page":114,"atom_index_on_page":8,"atom_type":"TABLE_ROW","verbatim":"3 | 37841 | EX | 37841002 | 2 | DRUG A | 15 | mg | TABLET | QD | ORAL | Reduced due to toxicity | TREATMENT | 2002-04-22 | 2002-07-01","parent_section":"§6.1.3.3 [Exposure/Exposure as Collected Examples]","heading_level":null,"sibling_index":null,"cross_refs":null,"figure_ref":null,"table_ref":"ex.xpt Example 4","prompt_version":"P0_writer_pdf_v1.2+TOC_anchor+R1-R14"}
{"atom_id":"ig34_p0114_a009","source":"SDTMIG v3.4 (no header footer).pdf","source_short":"ig34","page":114,"atom_index_on_page":9,"atom_type":"TABLE_ROW","verbatim":"4 | 37841 | EX | 37841003 | 1 | DRUG A | 20 | mg | TABLET | QD | ORAL | | TREATMENT | 2002-05-09 | 2002-06-01","parent_section":"§6.1.3.3 [Exposure/Exposure as Collected Examples]","heading_level":null,"sibling_index":null,"cross_refs":null,"figure_ref":null,"table_ref":"ex.xpt Example 4","prompt_version":"P0_writer_pdf_v1.2+TOC_anchor+R1-R14"}
{"atom_id":"ig34_p0114_a010","source":"SDTMIG v3.4 (no header footer).pdf","source_short":"ig34","page":114,"atom_index_on_page":10,"atom_type":"TABLE_ROW","verbatim":"5 | 37841 | EX | 37841003 | 2 | DRUG A | 25 | mg | TABLET | QD | ORAL | Increased due to suboptimal efficacy | TREATMENT | 2002-06-02 | 2002-07-01","parent_section":"§6.1.3.3 [Exposure/Exposure as Collected Examples]","heading_level":null,"sibling_index":null,"cross_refs":null,"figure_ref":null,"table_ref":"ex.xpt Example 4","prompt_version":"P0_writer_pdf_v1.2+TOC_anchor+R1-R14"}
{"atom_id":"ig34_p0114_a011","source":"SDTMIG v3.4 (no header footer).pdf","source_short":"ig34","page":114,"atom_index_on_page":11,"atom_type":"TABLE_ROW","verbatim":"6 | 37841 | EX | 37841003 | 3 | DRUG A | 30 | mg | TABLET | QD | ORAL | Increased due to suboptimal efficacy | TREATMENT | 2002-07-02 | 2002-08-01","parent_section":"§6.1.3.3 [Exposure/Exposure as Collected Examples]","heading_level":null,"sibling_index":null,"cross_refs":null,"figure_ref":null,"table_ref":"ex.xpt Example 4","prompt_version":"P0_writer_pdf_v1.2+TOC_anchor+R1-R14"}
{"atom_id":"ig34_p0114_a012","source":"SDTMIG v3.4 (no header footer).pdf","source_short":"ig34","page":114,"atom_index_on_page":12,"atom_type":"HEADING","verbatim":"Example 5","parent_section":"§6.1.3.3 [Exposure/Exposure as Collected Examples]","heading_level":5,"sibling_index":5,"cross_refs":null,"figure_ref":null,"table_ref":null,"prompt_version":"P0_writer_pdf_v1.2+TOC_anchor+R1-R14"}
{"atom_id":"ig34_p0114_a013","source":"SDTMIG v3.4 (no header footer).pdf","source_short":"ig34","page":114,"atom_index_on_page":13,"atom_type":"SENTENCE","verbatim":"This is an example of a double-blind study design comparing 10 and 20 mg of drug X vs. placebo taken daily, morning and evening, for a week.","parent_section":"§6.1.3.3 [Exposure/Exposure as Collected Examples]","heading_level":null,"sibling_index":null,"cross_refs":null,"figure_ref":null,"table_ref":null,"prompt_version":"P0_writer_pdf_v1.2+TOC_anchor+R1-R14"}
{"atom_id":"ig34_p0114_a014","source":"SDTMIG v3.4 (no header footer).pdf","source_short":"ig34","page":114,"atom_index_on_page":14,"atom_type":"HEADING","verbatim":"Subject ABC5001","parent_section":"§6.1.3.3 [Exposure/Exposure as Collected Examples]","heading_level":5,"sibling_index":null,"cross_refs":null,"figure_ref":null,"table_ref":null,"prompt_version":"P0_writer_pdf_v1.2+TOC_anchor+R1-R14"}
{"atom_id":"ig34_p0114_a015","source":"SDTMIG v3.4 (no header footer).pdf","source_short":"ig34","page":114,"atom_index_on_page":15,"atom_type":"TABLE_HEADER","verbatim":"Bottle | Time Point | Number of Tablets Taken | Start Date | End Date","parent_section":"§6.1.3.3 [Exposure/Exposure as Collected Examples]","heading_level":null,"sibling_index":null,"cross_refs":null,"figure_ref":null,"table_ref":"Exposure CRF Subject ABC5001","prompt_version":"P0_writer_pdf_v1.2+TOC_anchor+R1-R14"}
{"atom_id":"ig34_p0114_a016","source":"SDTMIG v3.4 (no header footer).pdf","source_short":"ig34","page":114,"atom_index_on_page":16,"atom_type":"TABLE_ROW","verbatim":"A | AM | 1 | 2012-01-01 | 2012-01-08","parent_section":"§6.1.3.3 [Exposure/Exposure as Collected Examples]","heading_level":null,"sibling_index":null,"cross_refs":null,"figure_ref":null,"table_ref":"Exposure CRF Subject ABC5001","prompt_version":"P0_writer_pdf_v1.2+TOC_anchor+R1-R14"}
{"atom_id":"ig34_p0114_a017","source":"SDTMIG v3.4 (no header footer).pdf","source_short":"ig34","page":114,"atom_index_on_page":17,"atom_type":"TABLE_ROW","verbatim":"B | PM | 1 | 2012-01-01 | 2012-01-08","parent_section":"§6.1.3.3 [Exposure/Exposure as Collected Examples]","heading_level":null,"sibling_index":null,"cross_refs":null,"figure_ref":null,"table_ref":"Exposure CRF Subject ABC5001","prompt_version":"P0_writer_pdf_v1.2+TOC_anchor+R1-R14"}
{"atom_id":"ig34_p0114_a018","source":"SDTMIG v3.4 (no header footer).pdf","source_short":"ig34","page":114,"atom_index_on_page":18,"atom_type":"HEADING","verbatim":"Subject ABC5002","parent_section":"§6.1.3.3 [Exposure/Exposure as Collected Examples]","heading_level":5,"sibling_index":null,"cross_refs":null,"figure_ref":null,"table_ref":null,"prompt_version":"P0_writer_pdf_v1.2+TOC_anchor+R1-R14"}
{"atom_id":"ig34_p0114_a019","source":"SDTMIG v3.4 (no header footer).pdf","source_short":"ig34","page":114,"atom_index_on_page":19,"atom_type":"TABLE_HEADER","verbatim":"Bottle | Time Point | Number of Tablets Taken | Start Date | End Date","parent_section":"§6.1.3.3 [Exposure/Exposure as Collected Examples]","heading_level":null,"sibling_index":null,"cross_refs":null,"figure_ref":null,"table_ref":"Exposure CRF Subject ABC5002","prompt_version":"P0_writer_pdf_v1.2+TOC_anchor+R1-R14"}
{"atom_id":"ig34_p0114_a020","source":"SDTMIG v3.4 (no header footer).pdf","source_short":"ig34","page":114,"atom_index_on_page":20,"atom_type":"TABLE_ROW","verbatim":"A | AM | 1 | 2012-02-01 | 2012-02-08","parent_section":"§6.1.3.3 [Exposure/Exposure as Collected Examples]","heading_level":null,"sibling_index":null,"cross_refs":null,"figure_ref":null,"table_ref":"Exposure CRF Subject ABC5002","prompt_version":"P0_writer_pdf_v1.2+TOC_anchor+R1-R14"}
{"atom_id":"ig34_p0114_a021","source":"SDTMIG v3.4 (no header footer).pdf","source_short":"ig34","page":114,"atom_index_on_page":21,"atom_type":"TABLE_ROW","verbatim":"B | PM | 1 | 2012-02-01 | 2012-02-08","parent_section":"§6.1.3.3 [Exposure/Exposure as Collected Examples]","heading_level":null,"sibling_index":null,"cross_refs":null,"figure_ref":null,"table_ref":"Exposure CRF Subject ABC5002","prompt_version":"P0_writer_pdf_v1.2+TOC_anchor+R1-R14"}
{"atom_id":"ig34_p0114_a022","source":"SDTMIG v3.4 (no header footer).pdf","source_short":"ig34","page":114,"atom_index_on_page":22,"atom_type":"HEADING","verbatim":"Subject ABC5003","parent_section":"§6.1.3.3 [Exposure/Exposure as Collected Examples]","heading_level":5,"sibling_index":null,"cross_refs":null,"figure_ref":null,"table_ref":null,"prompt_version":"P0_writer_pdf_v1.2+TOC_anchor+R1-R14"}
{"atom_id":"ig34_p0114_a023","source":"SDTMIG v3.4 (no header footer).pdf","source_short":"ig34","page":114,"atom_index_on_page":23,"atom_type":"TABLE_HEADER","verbatim":"Bottle | Time Point | Number of Tablets Taken | Start Date | End Date","parent_section":"§6.1.3.3 [Exposure/Exposure as Collected Examples]","heading_level":null,"sibling_index":null,"cross_refs":null,"figure_ref":null,"table_ref":"Exposure CRF Subject ABC5003","prompt_version":"P0_writer_pdf_v1.2+TOC_anchor+R1-R14"}
{"atom_id":"ig34_p0114_a024","source":"SDTMIG v3.4 (no header footer).pdf","source_short":"ig34","page":114,"atom_index_on_page":24,"atom_type":"TABLE_ROW","verbatim":"A | AM | 1 | 2012-03-01 | 2012-03-08","parent_section":"§6.1.3.3 [Exposure/Exposure as Collected Examples]","heading_level":null,"sibling_index":null,"cross_refs":null,"figure_ref":null,"table_ref":"Exposure CRF Subject ABC5003","prompt_version":"P0_writer_pdf_v1.2+TOC_anchor+R1-R14"}
{"atom_id":"ig34_p0114_a025","source":"SDTMIG v3.4 (no header footer).pdf","source_short":"ig34","page":114,"atom_index_on_page":25,"atom_type":"TABLE_ROW","verbatim":"B | PM | 1 | 2012-03-01 | 2012-03-08","parent_section":"§6.1.3.3 [Exposure/Exposure as Collected Examples]","heading_level":null,"sibling_index":null,"cross_refs":null,"figure_ref":null,"table_ref":"Exposure CRF Subject ABC5003","prompt_version":"P0_writer_pdf_v1.2+TOC_anchor+R1-R14"}
{"atom_id":"ig34_p0114_a026","source":"SDTMIG v3.4 (no header footer).pdf","source_short":"ig34","page":114,"atom_index_on_page":26,"atom_type":"SENTENCE","verbatim":"The EC dataset shows the administrations as collected. The time-point variables ECTPT and ECTPTNUM were used to describe the time of day of administration. This use of time-point variables is novel, representing data about multiple time points, 1 on each day of administration, rather than data for a single time point.","parent_section":"§6.1.3.3 [Exposure/Exposure as Collected Examples]","heading_level":null,"sibling_index":null,"cross_refs":null,"figure_ref":null,"table_ref":null,"prompt_version":"P0_writer_pdf_v1.2+TOC_anchor+R1-R14"}
{"atom_id":"ig34_p0115_a001","source":"SDTMIG v3.4 (no header footer).pdf","source_short":"ig34","page":115,"atom_index_on_page":1,"atom_type":"CODE_LITERAL","verbatim":"ec.xpt","parent_section":"§6.1.3.3 [Exposure/Exposure as Collected Examples]","heading_level":null,"sibling_index":null,"cross_refs":null,"figure_ref":null,"table_ref":null,"prompt_version":"P0_writer_pdf_v1.2+TOC_anchor+R1-R14"}
{"atom_id":"ig34_p0115_a002","source":"SDTMIG v3.4 (no header footer).pdf","source_short":"ig34","page":115,"atom_index_on_page":2,"atom_type":"TABLE_HEADER","verbatim":"Row | STUDYID | DOMAIN | USUBJID | ECSEQ | ECLNKID | ECTRT | ECPRESP | ECOCCUR | ECDOSE | ECDOSU | ECDOSFRQ | EPOCH | ECSTDTC | ECENDTC | ECSTDY | ECENDY | ECTPT | ECTPTNUM","parent_section":"§6.1.3.3 [Exposure/Exposure as Collected Examples]","heading_level":null,"sibling_index":null,"cross_refs":null,"figure_ref":null,"table_ref":"ec.xpt Example 5","prompt_version":"P0_writer_pdf_v1.2+TOC_anchor+R1-R14"}
{"atom_id":"ig34_p0115_a003","source":"SDTMIG v3.4 (no header footer).pdf","source_short":"ig34","page":115,"atom_index_on_page":3,"atom_type":"TABLE_ROW","verbatim":"1 | ABC | EC | ABC5001 | 1 | 20120101-20120108-AM | BOTTLE A | Y | Y | 1 | TABLET | QD | TREATMENT | 2012-01-01 | 2012-01-08 | 1 | 8 | AM | 1","parent_section":"§6.1.3.3 [Exposure/Exposure as Collected Examples]","heading_level":null,"sibling_index":null,"cross_refs":null,"figure_ref":null,"table_ref":"ec.xpt Example 5","prompt_version":"P0_writer_pdf_v1.2+TOC_anchor+R1-R14"}
{"atom_id":"ig34_p0115_a004","source":"SDTMIG v3.4 (no header footer).pdf","source_short":"ig34","page":115,"atom_index_on_page":4,"atom_type":"TABLE_ROW","verbatim":"2 | ABC | EC | ABC5001 | 2 | 20120101-20120108-PM | BOTTLE B | Y | Y | 1 | TABLET | QD | TREATMENT | 2012-01-01 | 2012-01-08 | 1 | 8 | PM | 2","parent_section":"§6.1.3.3 [Exposure/Exposure as Collected Examples]","heading_level":null,"sibling_index":null,"cross_refs":null,"figure_ref":null,"table_ref":"ec.xpt Example 5","prompt_version":"P0_writer_pdf_v1.2+TOC_anchor+R1-R14"}
{"atom_id":"ig34_p0115_a005","source":"SDTMIG v3.4 (no header footer).pdf","source_short":"ig34","page":115,"atom_index_on_page":5,"atom_type":"TABLE_ROW","verbatim":"3 | ABC | EC | ABC5002 | 1 | 20120201-20120208-AM | BOTTLE A | Y | Y | 1 | TABLET | QD | TREATMENT | 2012-02-01 | 2012-02-08 | 1 | 8 | AM | 1","parent_section":"§6.1.3.3 [Exposure/Exposure as Collected Examples]","heading_level":null,"sibling_index":null,"cross_refs":null,"figure_ref":null,"table_ref":"ec.xpt Example 5","prompt_version":"P0_writer_pdf_v1.2+TOC_anchor+R1-R14"}
{"atom_id":"ig34_p0115_a006","source":"SDTMIG v3.4 (no header footer).pdf","source_short":"ig34","page":115,"atom_index_on_page":6,"atom_type":"TABLE_ROW","verbatim":"4 | ABC | EC | ABC5002 | 2 | 20120201-20120208-PM | BOTTLE B | Y | Y | 1 | TABLET | QD | TREATMENT | 2012-02-01 | 2012-02-08 | 1 | 8 | PM | 2","parent_section":"§6.1.3.3 [Exposure/Exposure as Collected Examples]","heading_level":null,"sibling_index":null,"cross_refs":null,"figure_ref":null,"table_ref":"ec.xpt Example 5","prompt_version":"P0_writer_pdf_v1.2+TOC_anchor+R1-R14"}
{"atom_id":"ig34_p0115_a007","source":"SDTMIG v3.4 (no header footer).pdf","source_short":"ig34","page":115,"atom_index_on_page":7,"atom_type":"TABLE_ROW","verbatim":"5 | ABC | EC | ABC5003 | 1 | 20120301-20120308-AM | BOTTLE A | Y | Y | 1 | TABLET | QD | TREATMENT | 2012-03-01 | 2012-03-08 | 1 | 8 | AM | 1","parent_section":"§6.1.3.3 [Exposure/Exposure as Collected Examples]","heading_level":null,"sibling_index":null,"cross_refs":null,"figure_ref":null,"table_ref":"ec.xpt Example 5","prompt_version":"P0_writer_pdf_v1.2+TOC_anchor+R1-R14"}
{"atom_id":"ig34_p0115_a008","source":"SDTMIG v3.4 (no header footer).pdf","source_short":"ig34","page":115,"atom_index_on_page":8,"atom_type":"TABLE_ROW","verbatim":"6 | ABC | EC | ABC5003 | 2 | 20120301-20120308-PM | BOTTLE B | Y | Y | 1 | TABLET | QD | TREATMENT | 2012-03-01 | 2012-03-08 | 1 | 8 | PM | 2","parent_section":"§6.1.3.3 [Exposure/Exposure as Collected Examples]","heading_level":null,"sibling_index":null,"cross_refs":null,"figure_ref":null,"table_ref":"ec.xpt Example 5","prompt_version":"P0_writer_pdf_v1.2+TOC_anchor+R1-R14"}
{"atom_id":"ig34_p0115_a009","source":"SDTMIG v3.4 (no header footer).pdf","source_short":"ig34","page":115,"atom_index_on_page":9,"atom_type":"SENTENCE","verbatim":"The EX dataset shows the unmasked administrations in the protocol specified unit, mg. Amount of placebo was represented as 0 mg. The sponsor chose to represent the administrations at the time-point level.","parent_section":"§6.1.3.3 [Exposure/Exposure as Collected Examples]","heading_level":null,"sibling_index":null,"cross_refs":null,"figure_ref":null,"table_ref":null,"prompt_version":"P0_writer_pdf_v1.2+TOC_anchor+R1-R14"}
{"atom_id":"ig34_p0115_a010","source":"SDTMIG v3.4 (no header footer).pdf","source_short":"ig34","page":115,"atom_index_on_page":10,"atom_type":"NOTE","verbatim":"Rows 1-2: Show administrations for a subject who was randomized to the 20 mg drug X arm.","parent_section":"§6.1.3.3 [Exposure/Exposure as Collected Examples]","heading_level":null,"sibling_index":null,"cross_refs":null,"figure_ref":null,"table_ref":null,"prompt_version":"P0_writer_pdf_v1.2+TOC_anchor+R1-R14"}
{"atom_id":"ig34_p0115_a011","source":"SDTMIG v3.4 (no header footer).pdf","source_short":"ig34","page":115,"atom_index_on_page":11,"atom_type":"NOTE","verbatim":"Rows 3-4: Show administrations for a subject who was randomized to the 10 mg drug X arm.","parent_section":"§6.1.3.3 [Exposure/Exposure as Collected Examples]","heading_level":null,"sibling_index":null,"cross_refs":null,"figure_ref":null,"table_ref":null,"prompt_version":"P0_writer_pdf_v1.2+TOC_anchor+R1-R14"}
{"atom_id":"ig34_p0115_a012","source":"SDTMIG v3.4 (no header footer).pdf","source_short":"ig34","page":115,"atom_index_on_page":12,"atom_type":"NOTE","verbatim":"Rows 5-6: Show administrations for a subject who was randomized to the placebo arm.","parent_section":"§6.1.3.3 [Exposure/Exposure as Collected Examples]","heading_level":null,"sibling_index":null,"cross_refs":null,"figure_ref":null,"table_ref":null,"prompt_version":"P0_writer_pdf_v1.2+TOC_anchor+R1-R14"}
{"atom_id":"ig34_p0115_a013","source":"SDTMIG v3.4 (no header footer).pdf","source_short":"ig34","page":115,"atom_index_on_page":13,"atom_type":"CODE_LITERAL","verbatim":"ex.xpt","parent_section":"§6.1.3.3 [Exposure/Exposure as Collected Examples]","heading_level":null,"sibling_index":null,"cross_refs":null,"figure_ref":null,"table_ref":null,"prompt_version":"P0_writer_pdf_v1.2+TOC_anchor+R1-R14"}
{"atom_id":"ig34_p0115_a014","source":"SDTMIG v3.4 (no header footer).pdf","source_short":"ig34","page":115,"atom_index_on_page":14,"atom_type":"TABLE_HEADER","verbatim":"Row | STUDYID | DOMAIN | USUBJID | EXSEQ | EXLNKID | EXTRT | EXDOSE | EXDOSU | EXDOSFRM | EXDOSFRQ | EXROUTE | EPOCH | EXSTDTC | EXENDTC | EXSTDY | EXENDY | EXTPT | EXTPTNUM","parent_section":"§6.1.3.3 [Exposure/Exposure as Collected Examples]","heading_level":null,"sibling_index":null,"cross_refs":null,"figure_ref":null,"table_ref":"ex.xpt Example 5","prompt_version":"P0_writer_pdf_v1.2+TOC_anchor+R1-R14"}
{"atom_id":"ig34_p0115_a015","source":"SDTMIG v3.4 (no header footer).pdf","source_short":"ig34","page":115,"atom_index_on_page":15,"atom_type":"TABLE_ROW","verbatim":"1 | ABC | EX | ABC5001 | 1 | 20120101-20120108-AM | DRUG X | 10 | mg | TABLET | QD | ORAL | TREATMENT | 2012-01-01 | 2012-01-08 | 1 | 8 | AM | 1","parent_section":"§6.1.3.3 [Exposure/Exposure as Collected Examples]","heading_level":null,"sibling_index":null,"cross_refs":null,"figure_ref":null,"table_ref":"ex.xpt Example 5","prompt_version":"P0_writer_pdf_v1.2+TOC_anchor+R1-R14"}
{"atom_id":"ig34_p0115_a016","source":"SDTMIG v3.4 (no header footer).pdf","source_short":"ig34","page":115,"atom_index_on_page":16,"atom_type":"TABLE_ROW","verbatim":"2 | ABC | EX | ABC5001 | 2 | 20120101-20120108-PM | DRUG X | 10 | mg | TABLET | QD | ORAL | TREATMENT | 2012-01-01 | 2012-01-08 | 1 | 8 | PM | 2","parent_section":"§6.1.3.3 [Exposure/Exposure as Collected Examples]","heading_level":null,"sibling_index":null,"cross_refs":null,"figure_ref":null,"table_ref":"ex.xpt Example 5","prompt_version":"P0_writer_pdf_v1.2+TOC_anchor+R1-R14"}
{"atom_id":"ig34_p0115_a017","source":"SDTMIG v3.4 (no header footer).pdf","source_short":"ig34","page":115,"atom_index_on_page":17,"atom_type":"TABLE_ROW","verbatim":"3 | ABC | EX | ABC5002 | 1 | 20120201-20120208-AM | DRUG X | 10 | mg | TABLET | QD | ORAL | TREATMENT | 2012-02-01 | 2012-02-08 | 1 | 8 | AM | 1","parent_section":"§6.1.3.3 [Exposure/Exposure as Collected Examples]","heading_level":null,"sibling_index":null,"cross_refs":null,"figure_ref":null,"table_ref":"ex.xpt Example 5","prompt_version":"P0_writer_pdf_v1.2+TOC_anchor+R1-R14"}
{"atom_id":"ig34_p0115_a018","source":"SDTMIG v3.4 (no header footer).pdf","source_short":"ig34","page":115,"atom_index_on_page":18,"atom_type":"TABLE_ROW","verbatim":"4 | ABC | EX | ABC5002 | 2 | 20120201-20120208-PM | PLACEBO | 0 | mg | TABLET | QD | ORAL | TREATMENT | 2012-02-01 | 2012-02-08 | 1 | 8 | PM | 2","parent_section":"§6.1.3.3 [Exposure/Exposure as Collected Examples]","heading_level":null,"sibling_index":null,"cross_refs":null,"figure_ref":null,"table_ref":"ex.xpt Example 5","prompt_version":"P0_writer_pdf_v1.2+TOC_anchor+R1-R14"}
{"atom_id":"ig34_p0115_a019","source":"SDTMIG v3.4 (no header footer).pdf","source_short":"ig34","page":115,"atom_index_on_page":19,"atom_type":"TABLE_ROW","verbatim":"5 | ABC | EX | ABC5003 | 1 | 20120301-20120308-AM | PLACEBO | 0 | mg | TABLET | QD | ORAL | TREATMENT | 2012-03-01 | 2012-03-08 | 1 | 8 | AM | 1","parent_section":"§6.1.3.3 [Exposure/Exposure as Collected Examples]","heading_level":null,"sibling_index":null,"cross_refs":null,"figure_ref":null,"table_ref":"ex.xpt Example 5","prompt_version":"P0_writer_pdf_v1.2+TOC_anchor+R1-R14"}
{"atom_id":"ig34_p0115_a020","source":"SDTMIG v3.4 (no header footer).pdf","source_short":"ig34","page":115,"atom_index_on_page":20,"atom_type":"TABLE_ROW","verbatim":"6 | ABC | EX | ABC5003 | 2 | 20120301-20120308-PM | PLACEBO | 0 | mg | TABLET | QD | ORAL | TREATMENT | 2012-03-01 | 2012-03-08 | 1 | 8 | PM | 2","parent_section":"§6.1.3.3 [Exposure/Exposure as Collected Examples]","heading_level":null,"sibling_index":null,"cross_refs":null,"figure_ref":null,"table_ref":"ex.xpt Example 5","prompt_version":"P0_writer_pdf_v1.2+TOC_anchor+R1-R14"}
{"atom_id":"ig34_p0115_a021","source":"SDTMIG v3.4 (no header footer).pdf","source_short":"ig34","page":115,"atom_index_on_page":21,"atom_type":"SENTENCE","verbatim":"The relrec.xpt example reflects a one-to-one dataset-level relationship between EC and EX using --LNKID.","parent_section":"§6.1.3.3 [Exposure/Exposure as Collected Examples]","heading_level":null,"sibling_index":null,"cross_refs":null,"figure_ref":null,"table_ref":null,"prompt_version":"P0_writer_pdf_v1.2+TOC_anchor+R1-R14"}
{"atom_id":"ig34_p0115_a022","source":"SDTMIG v3.4 (no header footer).pdf","source_short":"ig34","page":115,"atom_index_on_page":22,"atom_type":"CODE_LITERAL","verbatim":"relrec.xpt","parent_section":"§6.1.3.3 [Exposure/Exposure as Collected Examples]","heading_level":null,"sibling_index":null,"cross_refs":null,"figure_ref":null,"table_ref":null,"prompt_version":"P0_writer_pdf_v1.2+TOC_anchor+R1-R14"}
{"atom_id":"ig34_p0115_a023","source":"SDTMIG v3.4 (no header footer).pdf","source_short":"ig34","page":115,"atom_index_on_page":23,"atom_type":"TABLE_HEADER","verbatim":"Row | STUDYID | RDOMAIN | USUBJID | IDVAR | IDVARVAL | RELTYPE | RELID","parent_section":"§6.1.3.3 [Exposure/Exposure as Collected Examples]","heading_level":null,"sibling_index":null,"cross_refs":null,"figure_ref":null,"table_ref":"relrec.xpt Example 5","prompt_version":"P0_writer_pdf_v1.2+TOC_anchor+R1-R14"}
{"atom_id":"ig34_p0115_a024","source":"SDTMIG v3.4 (no header footer).pdf","source_short":"ig34","page":115,"atom_index_on_page":24,"atom_type":"TABLE_ROW","verbatim":"1 | ABC | EC | | ECLNKID | | ONE | 1","parent_section":"§6.1.3.3 [Exposure/Exposure as Collected Examples]","heading_level":null,"sibling_index":null,"cross_refs":null,"figure_ref":null,"table_ref":"relrec.xpt Example 5","prompt_version":"P0_writer_pdf_v1.2+TOC_anchor+R1-R14"}
{"atom_id":"ig34_p0115_a025","source":"SDTMIG v3.4 (no header footer).pdf","source_short":"ig34","page":115,"atom_index_on_page":25,"atom_type":"TABLE_ROW","verbatim":"2 | ABC | EX | | EXLNKID | | ONE | 1","parent_section":"§6.1.3.3 [Exposure/Exposure as Collected Examples]","heading_level":null,"sibling_index":null,"cross_refs":null,"figure_ref":null,"table_ref":"relrec.xpt Example 5","prompt_version":"P0_writer_pdf_v1.2+TOC_anchor+R1-R14"}
{"atom_id":"ig34_p0115_a026","source":"SDTMIG v3.4 (no header footer).pdf","source_short":"ig34","page":115,"atom_index_on_page":26,"atom_type":"HEADING","verbatim":"Example 6","parent_section":"§6.1.3.3 [Exposure/Exposure as Collected Examples]","heading_level":5,"sibling_index":6,"cross_refs":null,"figure_ref":null,"table_ref":null,"prompt_version":"P0_writer_pdf_v1.2+TOC_anchor+R1-R14"}
{"atom_id":"ig34_p0115_a027","source":"SDTMIG v3.4 (no header footer).pdf","source_short":"ig34","page":115,"atom_index_on_page":27,"atom_type":"SENTENCE","verbatim":"The study in this example was a single-crossover study comparing once-daily oral administration of drug A 20 mg capsules with drug B 30 mg coated tablets. The study drug was taken for 3 consecutive mornings, 30 minutes prior to a standardized breakfast. There was a 6-day washout period between treatments.","parent_section":"§6.1.3.3 [Exposure/Exposure as Collected Examples]","heading_level":null,"sibling_index":null,"cross_refs":null,"figure_ref":null,"table_ref":null,"prompt_version":"P0_writer_pdf_v1.2+TOC_anchor+R1-R14"}
{"atom_id":"ig34_p0115_a028","source":"SDTMIG v3.4 (no header footer).pdf","source_short":"ig34","page":115,"atom_index_on_page":28,"atom_type":"SENTENCE","verbatim":"The following CRFs show data for 2 subjects.","parent_section":"§6.1.3.3 [Exposure/Exposure as Collected Examples]","heading_level":null,"sibling_index":null,"cross_refs":null,"figure_ref":null,"table_ref":null,"prompt_version":"P0_writer_pdf_v1.2+TOC_anchor+R1-R14"}
{"atom_id":"ig34_p0115_a029","source":"SDTMIG v3.4 (no header footer).pdf","source_short":"ig34","page":115,"atom_index_on_page":29,"atom_type":"HEADING","verbatim":"Subject 56789001","parent_section":"§6.1.3.3 [Exposure/Exposure as Collected Examples]","heading_level":5,"sibling_index":null,"cross_refs":null,"figure_ref":null,"table_ref":null,"prompt_version":"P0_writer_pdf_v1.2+TOC_anchor+R1-R14"}
{"atom_id":"ig34_p0115_a030","source":"SDTMIG v3.4 (no header footer).pdf","source_short":"ig34","page":115,"atom_index_on_page":30,"atom_type":"TABLE_HEADER","verbatim":"Period 1: Day | Bottle 1 # of capsules | Bottle 2 # of tablets | Start Date/Time | End Date/Time | Period 2: Day | Bottle 1 # of capsules | Bottle 2 # of tablets | Start Date/Time | End Date/Time","parent_section":"§6.1.3.3 [Exposure/Exposure as Collected Examples]","heading_level":null,"sibling_index":null,"cross_refs":null,"figure_ref":null,"table_ref":"Exposure CRF Subject 56789001","prompt_version":"P0_writer_pdf_v1.2+TOC_anchor+R1-R14"}
{"atom_id":"ig34_p0115_a031","source":"SDTMIG v3.4 (no header footer).pdf","source_short":"ig34","page":115,"atom_index_on_page":31,"atom_type":"TABLE_ROW","verbatim":"1 | 1 | 1 | 2002-07-01T07:30 | 2002-07-01T07:30 | 1 | 1 | 1 | 2002-07-09T07:30 | 2002-07-09T07:30","parent_section":"§6.1.3.3 [Exposure/Exposure as Collected Examples]","heading_level":null,"sibling_index":null,"cross_refs":null,"figure_ref":null,"table_ref":"Exposure CRF Subject 56789001","prompt_version":"P0_writer_pdf_v1.2+TOC_anchor+R1-R14"}
{"atom_id":"ig34_p0115_a032","source":"SDTMIG v3.4 (no header footer).pdf","source_short":"ig34","page":115,"atom_index_on_page":32,"atom_type":"TABLE_ROW","verbatim":"2 | 1 | 1 | 2002-07-02T07:30 | 2002-07-02T07:30 | 2 | 1 | 1 | 2002-07-10T07:30 | 2002-07-10T07:30","parent_section":"§6.1.3.3 [Exposure/Exposure as Collected Examples]","heading_level":null,"sibling_index":null,"cross_refs":null,"figure_ref":null,"table_ref":"Exposure CRF Subject 56789001","prompt_version":"P0_writer_pdf_v1.2+TOC_anchor+R1-R14"}
{"atom_id":"ig34_p0115_a033","source":"SDTMIG v3.4 (no header footer).pdf","source_short":"ig34","page":115,"atom_index_on_page":33,"atom_type":"TABLE_ROW","verbatim":"3 | 1 | 1 | 2002-07-03T07:32 | 2002-07-03T07:32 | 3 | 1 | 1 | 2002-07-11T07:34 | 2002-07-11T07:34","parent_section":"§6.1.3.3 [Exposure/Exposure as Collected Examples]","heading_level":null,"sibling_index":null,"cross_refs":null,"figure_ref":null,"table_ref":"Exposure CRF Subject 56789001","prompt_version":"P0_writer_pdf_v1.2+TOC_anchor+R1-R14"}
