{"atom_id": "ig34_p0081_a012", "verdict": "PASS", "dimensions": {"verbatim": "match", "atom_type": "correct", "parent_section": "correct", "heading_fields": "correct"}, "finding": "HEADING 'SE – Examples' at p.81 bottom matches PDF verbatim. heading_level=3 reasonable (H2=§5.3 SE, H3=SE–Description/Overview, SE–Specification, SE–Assumptions, SE–Examples). sibling_index=3 aligns (4th H3 sibling if 0-indexed). parent_section §5.3 SE correct per TOC.", "pdf_quote": "SE – Examples", "reviewer_action": "none"}
{"atom_id": "ig34_p0082_a009", "verdict": "PASS", "dimensions": {"verbatim": "match", "atom_type": "correct", "parent_section": "correct", "heading_fields": "n/a"}, "finding": "CODE_LITERAL 'se.xpt' at p.82 middle as dataset filename label above Example 1 table. Verbatim match. atom_type CODE_LITERAL correct for xpt filename. parent_section §5.3 SE correct.", "pdf_quote": "se.xpt", "reviewer_action": "none"}
{"atom_id": "ig34_p0083_a010", "verdict": "PASS", "dimensions": {"verbatim": "match", "atom_type": "correct", "parent_section": "correct", "heading_fields": "n/a"}, "finding": "TABLE_HEADER for se.xpt Example 2 at p.83. Pipe-delimited header 'Row | USUBJID | SESEQ | ETCD | SESTDTC | SEENDTC | SEUPDES | TAETORD | EPOCH' matches PDF table column sequence verbatim. parent_section §5.3 SE correct.", "pdf_quote": "Row | USUBJID | SESEQ | ETCD | SESTDTC | SEENDTC | SEUPDES | TAETORD | EPOCH", "reviewer_action": "none"}
{"atom_id": "ig34_p0084_a018", "verdict": "PASS", "dimensions": {"verbatim": "match", "atom_type": "correct", "parent_section": "correct", "heading_fields": "n/a"}, "finding": "NOTE footnote ¹ at p.84 (SM Specification table). Verbatim 'In this column, an asterisk (*) indicates that the variable may be subject to controlled terminology. CDISC/NCI codelist values are enclosed in parentheses.' matches PDF. atom_type NOTE correct. parent_section §5.4 SM correct (page 84 opens §5.4 SM section).", "pdf_quote": "¹In this column, an asterisk (*) indicates that the variable may be subject to controlled terminology. CDISC/NCI codelist values are enclosed in parentheses.", "reviewer_action": "none"}
{"atom_id": "ig34_p0085_a001", "verdict": "PASS", "dimensions": {"verbatim": "match", "atom_type": "correct", "parent_section": "correct", "heading_fields": "n/a"}, "finding": "LIST_ITEM 'b.' at p.85 top, continuation of Assumption 2 from p.84. Verbatim full sentence match. atom_type LIST_ITEM correct (nested sub-list 'b.'). parent_section §5.4 SM correct.", "pdf_quote": "b. For types of disease milestones that can occur multiple times, MIDS will usually be an abbreviated version of MIDSTYPE and will always end with a sequence number. Sequence numbers should start with 1 and indicate the chronological order of the instances of this type of disease milestone.", "reviewer_action": "none"}
{"atom_id": "ig34_p0086_a018", "verdict": "PASS", "dimensions": {"verbatim": "match", "atom_type": "correct", "parent_section": "correct", "heading_fields": "n/a"}, "finding": "TABLE_ROW STUDYID row in sv.xpt Specification table at p.86. Row fields STUDYID | Study Identifier | Char | (empty CT) | Identifier | Unique identifier for a study. | Req match PDF verbatim. atom_type TABLE_ROW correct. parent_section §5.5 SV correct per TOC.", "pdf_quote": "STUDYID | Study Identifier | Char | | Identifier | Unique identifier for a study. | Req", "reviewer_action": "none"}
{"atom_id": "ig34_p0087_a001", "verdict": "FAIL", "dimensions": {"verbatim": "paraphrase", "atom_type": "correct", "parent_section": "correct", "heading_fields": "n/a"}, "finding": "TABLE_ROW SVCNTMOD at p.87 top. Controlled Terms cell in atom reads 'C\\(NCI\\)GCD' but PDF shows '(CNTMODE)' (hyperlinked CT codelist name). This is a significant verbatim corruption — 'CNTMODE' (the actual NCI codelist name for Contact Mode) was transcribed as 'C(NCI)GCD' which is not a valid codelist identifier and appears to be a hallucinated/mangled token. All other fields (Contact Mode, Char, Record Qualifier, description, Perm) match. atom_type TABLE_ROW correct, parent_section §5.5 SV correct.", "pdf_quote": "SVCNTMOD | Contact Mode | Char | (CNTMODE) | Record Qualifier | The way in which the visit was conducted. Examples: \"IN PERSON\", \"TELEPHONE CALL\", \"IVRS\". | Perm", "reviewer_action": "escalate_HIGH"}
{"atom_id": "ig34_p0088_a001", "verdict": "PASS", "dimensions": {"verbatim": "match", "atom_type": "correct", "parent_section": "correct", "heading_fields": "n/a"}, "finding": "LIST_ITEM continuation of Assumption 6 from p.87 bottom into p.88 top. Verbatim text 'VISITNUM populated. If the occasion is considered a visit...' matches PDF. atom_type LIST_ITEM correct. parent_section §5.5 SV correct. Minor schema observation: figure_ref populated with '§4.4.5' is more appropriately a cross_ref (which is also populated correctly); not a rubric FAIL dim but worth note.", "pdf_quote": "VISITNUM populated. If the occasion is considered a visit, its date/times must be included in the SV table and a value of VISITNUM must be assigned. Refer to Section 4.4.5, Clinical Encounters and Visits, for information on the population of visit variables in unplanned visits.", "reviewer_action": "inline_fix_suggest"}
{"atom_id": "ig34_p0089_a003", "verdict": "PASS", "dimensions": {"verbatim": "match", "atom_type": "correct", "parent_section": "correct", "heading_fields": "n/a"}, "finding": "SENTENCE introducing Example 1 under SV–Examples at p.89 top. Verbatim 'This example shows the planned visit schedule for a study, along with disposition and study events data for 3 subjects.' matches PDF. atom_type SENTENCE correct. parent_section §5.5 SV correct.", "pdf_quote": "This example shows the planned visit schedule for a study, along with disposition and study events data for 3 subjects.", "reviewer_action": "none"}
{"atom_id": "ig34_p0090_a001", "verdict": "PARTIAL", "dimensions": {"verbatim": "drift", "atom_type": "correct", "parent_section": "correct", "heading_fields": "n/a"}, "finding": "TABLE_ROW row 5 of ds.xpt at p.90 top. All cell values correct verbatim (5, 123456, DS, 101, 1, INFORMED CONSENT OBTAINED, INFORMED CONSENT OBTAINED, PROTOCOL MILESTONE, SCREENING, 2020-02-13, empty, 2020-02-13, -6). However, ds.xpt has 13 cols per p.89 header (DSSCAT between DSCAT and EPOCH), so for row 5 DSSCAT should be empty. Atom pipe-count shows 13 fields if empty DSSCAT is collapsed between 'PROTOCOL MILESTONE' and 'SCREENING' — but inspection of PDF p.90 row 5 confirms DSSCAT IS empty for this row (unlike row 6 WITHDRAWAL BY SUBJECT which has STUDY PARTICIPATION in DSSCAT). Therefore the 13-field pipe structure is actually structurally consistent with empty DSSCAT. MINOR drift: ambiguity in empty cell representation — reader cannot distinguish empty DSSCAT from missing column. Recommend using explicit empty-cell marker ('| |') consistently for non-populated intermediate cells.", "pdf_quote": "5 | 123456 | DS | 101 | 1 | INFORMED CONSENT OBTAINED | INFORMED CONSENT OBTAINED | PROTOCOL MILESTONE | | SCREENING | 2020-02-13 | 2020-02-13 | -6", "reviewer_action": "inline_fix_suggest"}
