{"atom_id":"ig34_p0271_a016","reviewer":"general-purpose","slot":37,"audit_pivot":18,"family":"general-purpose","family_burn":1,"dim_atom_type":"PASS","dim_verbatim":"PASS","dim_parent_section":"PASS","dim_heading_fields":"PASS","weighted_verdict":"PASS","notes":"PP – Specification HEADING L6 sib=2 under §6.3.5.9.2 PP correct (PP-Description=sib1 / PP-Specification=sib2); en-dash verbatim match"}
{"atom_id":"ig34_p0272_a012","reviewer":"general-purpose","slot":37,"audit_pivot":18,"family":"general-purpose","family_burn":1,"dim_atom_type":"PASS","dim_verbatim":"PASS","dim_parent_section":"PASS","dim_heading_fields":"N/A","weighted_verdict":"PASS","notes":"PPTPTREF TABLE_ROW exact match: name/label/Char/Timing/CDISC notes/Perm all verbatim against PDF p.272 spec table"}
{"atom_id":"ig34_p0273_a037","reviewer":"general-purpose","slot":37,"audit_pivot":18,"family":"general-purpose","family_burn":1,"dim_atom_type":"PASS","dim_verbatim":"FAIL","dim_parent_section":"PASS","dim_heading_fields":"N/A","weighted_verdict":"FAIL","notes":"EDITORIAL_CORRECTION violation: PDF p.273 Row 4 says 'pre-corrdinating' (PDF-source typo, missing 'o'); atom corrected to 'pre-coordinating'. Multi-character drift = verbatim FAIL per v1.2 strict policy. Should preserve PDF verbatim including typos OR mark EDITORIAL_CORRECTION verdict explicitly"}
{"atom_id":"ig34_p0274_a003","reviewer":"general-purpose","slot":37,"audit_pivot":18,"family":"general-purpose","family_burn":1,"dim_atom_type":"PASS","dim_verbatim":"PASS","dim_parent_section":"PASS","dim_heading_fields":"N/A","weighted_verdict":"PASS","notes":"TABLE_HEADER 19 columns Row|STUDYID|...|PPRFTDTC matches PDF p.274 Example 2 first pp.xpt header verbatim; column order intact"}
{"atom_id":"ig34_p0275_a012","reviewer":"general-purpose","slot":37,"audit_pivot":18,"family":"general-purpose","family_burn":1,"dim_atom_type":"PASS","dim_verbatim":"PASS","dim_parent_section":"PASS","dim_heading_fields":"PASS","weighted_verdict":"PASS","notes":"§6.3.5.9.3 Relating PP Records to PC Records HEADING L5 sib=3 under §6.3.5.9 group container correct (sib chain: §6.3.5.9.1 PC=1 / §6.3.5.9.2 PP=2 / §6.3.5.9.3=3); NEW7 L4-group-container precedent correctly applied"}
{"atom_id":"ig34_p0276_a028","reviewer":"general-purpose","slot":37,"audit_pivot":18,"family":"general-purpose","family_burn":1,"dim_atom_type":"PASS","dim_verbatim":"PASS","dim_parent_section":"PASS","dim_heading_fields":"N/A","weighted_verdict":"PASS","notes":"TABLE_ROW 29 fields row 22 (PCSEQ=22, DY8_DRGX×4, PCREFID=123-0002-22, etc.) matches PDF p.276 pc.xpt verbatim including blank PCBLFL field"}
{"atom_id":"ig34_p0277_a002","reviewer":"general-purpose","slot":37,"audit_pivot":18,"family":"general-purpose","family_burn":1,"dim_atom_type":"PASS","dim_verbatim":"PASS","dim_parent_section":"PASS","dim_heading_fields":"N/A","weighted_verdict":"PASS","notes":"CODE_LITERAL 'pp.xpt' filename literal matches PDF p.277 dataset label above PP table; parent §6.3.5.9.3 correct"}
{"atom_id":"ig34_p0278_a010","reviewer":"general-purpose","slot":37,"audit_pivot":18,"family":"general-purpose","family_burn":1,"dim_atom_type":"PASS","dim_verbatim":"PASS","dim_parent_section":"PARTIAL","dim_heading_fields":"N/A","weighted_verdict":"PARTIAL","notes":"TABLE_ROW row 8 matches PDF p.278 Method B Example 1 relrec.xpt verbatim (PCSEQ/8/blank/1). Parent_section 'Example 1' SHORTCUT FORM — per NEW7 L6 sub-batch handoff codification round 4 mandatory, canonical full-form should be '§6.3.5.9.3 Relating PP Records to PC Records — Example 1'. Recurrence of O-P1-79 motif"}
{"atom_id":"ig34_p0279_a037","reviewer":"general-purpose","slot":37,"audit_pivot":18,"family":"general-purpose","family_burn":1,"dim_atom_type":"PASS","dim_verbatim":"PASS","dim_parent_section":"PARTIAL","dim_heading_fields":"PASS","weighted_verdict":"PASS","notes":"HEADING 'Method A (Many to Many, Using PCGRPID and PPGRPID)' L7 sib=1 under Example 2 — NEW7 deep-nesting L7 correctly applied (L4 §6.3.5.9 group / L5 §6.3.5.9.3 / L6 Example 2 / L7 Method A). Parent_section 'Example 2' shortcut form — same NEW7 caveat as atom 8 (canonical = '§6.3.5.9.3 — Example 2'). Avg 0.875 = just-PASS"}
{"atom_id":"ig34_p0280_a030","reviewer":"general-purpose","slot":37,"audit_pivot":18,"family":"general-purpose","family_burn":1,"dim_atom_type":"PASS","dim_verbatim":"FAIL","dim_parent_section":"FAIL","dim_heading_fields":"N/A","weighted_verdict":"FAIL","notes":"DOUBLE-FAIL: Atom claims 'Row 14 | PP | PPSEQ | 4 | | 1' on p.280 in Example 2. PDF p.280 top continuation table is Example 1 Method D where Row 14 = PP PPSEQ=**2** (PPSEQ=4 would be Row 16). Atom misattributes to Example 2 (which on p.280 only has Method B rows 1-11, no Row 14 visible) AND PPSEQ value mismatch (4 vs 2). Same NEW7 L6 sub-batch context drift family as O-P1-68/O-P1-79 — example boundary confusion + row-value drift"}
