{"audit_id":"rule_a_P2_B-03_batch_75_v01","atom_id":"md_dmNV_ex_a001","sample_role":"boundary_H1","verdict":"PASS","verbatim_byte_exact":true,"line_range_correct":true,"parent_section_correct":true,"atom_type_correct":true,"heading_level":1,"sibling_index":1,"figure_ref":null,"cross_refs_correct":true,"schema_keys_complete":true,"extracted_by_object":true,"hooks_checked":["R-2.8-1","R-D5","C-8","schema_v1.2.1"],"notes":"H1 root sib=1 universal R-2.8-1 verified; verbatim '# NV — Examples' byte-exact L1; em-dash U+2014 preserved","reviewer_subagent_type":"pr-review-toolkit:code-reviewer","ts":"2026-05-06T23:50:00Z"}
{"audit_id":"rule_a_P2_B-03_batch_75_v02","atom_id":"md_dmNV_ex_a002","sample_role":"boundary_H2_Ex1","verdict":"PASS","verbatim_byte_exact":true,"line_range_correct":true,"parent_section_correct":true,"atom_type_correct":true,"heading_level":2,"sibling_index":1,"figure_ref":null,"cross_refs_correct":true,"schema_keys_complete":true,"extracted_by_object":true,"hooks_checked":["R-2.8-1","schema_v1.2.1","§2.5"],"notes":"H2 Ex1 sib=1 first H2 child of root; parent_section=§NV [NV — Examples] root; verbatim '## Example 1' byte-exact L3","reviewer_subagent_type":"pr-review-toolkit:code-reviewer","ts":"2026-05-06T23:50:00Z"}
{"audit_id":"rule_a_P2_B-03_batch_75_v03","atom_id":"md_dmNV_ex_a005","sample_role":"boundary_bold_caption_SENTENCE","verdict":"PASS","verbatim_byte_exact":true,"line_range_correct":true,"parent_section_correct":true,"atom_type_correct":true,"heading_level":null,"sibling_index":null,"figure_ref":null,"cross_refs_correct":true,"schema_keys_complete":true,"extracted_by_object":true,"hooks_checked":["R-D5","schema_v1.2.1"],"notes":"Bold-caption '**Rows 1-2:**' L9 atom_type=SENTENCE per §R-D5 (non-Note caption ≠ HEADING/NOTE); hl+sib explicit null","reviewer_subagent_type":"pr-review-toolkit:code-reviewer","ts":"2026-05-06T23:50:00Z"}
{"audit_id":"rule_a_P2_B-03_batch_75_v04","atom_id":"md_dmNV_ex_a009","sample_role":"boundary_first_TABLE_HEADER","verdict":"PASS","verbatim_byte_exact":true,"line_range_correct":true,"parent_section_correct":true,"atom_type_correct":true,"heading_level":null,"sibling_index":null,"figure_ref":null,"cross_refs_correct":true,"schema_keys_complete":true,"extracted_by_object":true,"hooks_checked":["R-2.8-2","Hook A1","schema_v1.2.1"],"notes":"TABLE_HEADER L15-16 span=1 (header + alignment row) v1.9 standard; sib=null per R-2.8-2; 20-column nv.xpt header pipes preserved byte-exact","reviewer_subagent_type":"pr-review-toolkit:code-reviewer","ts":"2026-05-06T23:50:00Z"}
{"audit_id":"rule_a_P2_B-03_batch_75_v05","atom_id":"md_dmNV_ex_a010","sample_role":"boundary_first_TABLE_ROW_post_H2","verdict":"PASS","verbatim_byte_exact":true,"line_range_correct":true,"parent_section_correct":true,"atom_type_correct":true,"heading_level":null,"sibling_index":null,"figure_ref":null,"cross_refs_correct":true,"schema_keys_complete":true,"extracted_by_object":true,"hooks_checked":["§2.9","schema_v1.2.1"],"notes":"First TABLE_ROW post H2 Ex1 L17 nv.xpt row 1 PRECUNEUS; pipes + empty NVDIR cell '| |' preserved byte-exact; hl+sib explicit null","reviewer_subagent_type":"pr-review-toolkit:code-reviewer","ts":"2026-05-06T23:50:00Z"}
{"audit_id":"rule_a_P2_B-03_batch_75_v06","atom_id":"md_dmNV_ex_a025","sample_role":"boundary_L37_cross_ref_rich_SENTENCE","verdict":"PASS","verbatim_byte_exact":true,"line_range_correct":true,"parent_section_correct":true,"atom_type_correct":true,"heading_level":null,"sibling_index":null,"figure_ref":null,"cross_refs_correct":true,"schema_keys_complete":true,"extracted_by_object":true,"hooks_checked":["§R-D7.3","schema_v1.2.1"],"notes":"L37 RELREC narrative cross_refs=['PR','AG','DU'] inline (PR/AG/DU mentions verified in verbatim); em-dash U+2014 + double-hyphen --LNKID/--REFID preserved byte-exact","reviewer_subagent_type":"pr-review-toolkit:code-reviewer","ts":"2026-05-06T23:50:00Z"}
{"audit_id":"rule_a_P2_B-03_batch_75_v07","atom_id":"md_dmNV_ex_a041","sample_role":"boundary_H2_Ex2","verdict":"PASS","verbatim_byte_exact":true,"line_range_correct":true,"parent_section_correct":true,"atom_type_correct":true,"heading_level":2,"sibling_index":2,"figure_ref":null,"cross_refs_correct":true,"schema_keys_complete":true,"extracted_by_object":true,"hooks_checked":["§2.5","schema_v1.2.1"],"notes":"H2 Ex2 sib=2 second H2 child of root; parent_section=§NV [NV — Examples] root; verbatim '## Example 2' byte-exact L59","reviewer_subagent_type":"pr-review-toolkit:code-reviewer","ts":"2026-05-06T23:50:00Z"}
{"audit_id":"rule_a_P2_B-03_batch_75_v08","atom_id":"md_dmNV_ex_a061","sample_role":"boundary_final_SENTENCE","verdict":"PASS","verbatim_byte_exact":true,"line_range_correct":true,"parent_section_correct":true,"atom_type_correct":true,"heading_level":null,"sibling_index":null,"figure_ref":null,"cross_refs_correct":true,"schema_keys_complete":true,"extracted_by_object":true,"hooks_checked":["§R-D7.3","schema_v1.2.1"],"notes":"Final SENTENCE L87 trailing-narrative parent §NV.2 [Example 2] (per §R-D7.6 inherit closest H2); cross_refs=['DI','DO','DU'] all 3 mentioned in verbatim; SDTMIG-MD reference preserved","reviewer_subagent_type":"pr-review-toolkit:code-reviewer","ts":"2026-05-06T23:50:00Z"}
{"audit_id":"rule_a_P2_B-03_batch_75_v09","atom_id":"md_dmNV_ex_a042","sample_role":"stratified_plain_SENTENCE_Ex2","verdict":"PASS","verbatim_byte_exact":true,"line_range_correct":true,"parent_section_correct":true,"atom_type_correct":true,"heading_level":null,"sibling_index":null,"figure_ref":null,"cross_refs_correct":true,"schema_keys_complete":true,"extracted_by_object":true,"hooks_checked":["schema_v1.2.1"],"notes":"L61 plain narrative SENTENCE 大段 multi-clause Ex2 intro; em-dash U+2014 (— including / — are) preserved byte-exact x2; double-quote 'EEG'/'VISUAL EVOKED POTENTIAL' preserved","reviewer_subagent_type":"pr-review-toolkit:code-reviewer","ts":"2026-05-06T23:50:00Z"}
{"audit_id":"rule_a_P2_B-03_batch_75_v10","atom_id":"md_dmNV_ex_a055","sample_role":"stratified_TABLE_ROW_Ex2_INTP","verdict":"PASS","verbatim_byte_exact":true,"line_range_correct":true,"parent_section_correct":true,"atom_type_correct":true,"heading_level":null,"sibling_index":null,"figure_ref":null,"cross_refs_correct":true,"schema_keys_complete":true,"extracted_by_object":true,"hooks_checked":["§2.9","schema_v1.2.1"],"notes":"L80 TABLE_ROW Ex2 row 5 INTP RIGHT eye; multiple empty cells '| |' (NVORRESU/NVSTRESN/NVSTRESU/NVORNRLO/NVORNRHI/NVNRIND) pipe-separated preserved byte-exact; hl+sib explicit null","reviewer_subagent_type":"pr-review-toolkit:code-reviewer","ts":"2026-05-06T23:50:00Z"}
{"audit_id":"rule_a_P2_B-03_batch_75_v11","atom_id":"md_dmNV_ex_a026","sample_role":"stratified_cross_ref_bearing_atom","verdict":"PASS","verbatim_byte_exact":true,"line_range_correct":true,"parent_section_correct":true,"atom_type_correct":true,"heading_level":null,"sibling_index":null,"figure_ref":null,"cross_refs_correct":true,"schema_keys_complete":true,"extracted_by_object":true,"hooks_checked":["§R-D7.3","schema_v1.2.1"],"notes":"L39 SENTENCE cross_refs=['DU'] (Device-in-Use mention only); '(see SDTMIG-MD, Device-in-Use (DU) domain assumptions)' parenthetical reference + double-hyphen --REFID/--LNKID preserved byte-exact","reviewer_subagent_type":"pr-review-toolkit:code-reviewer","ts":"2026-05-06T23:50:00Z"}
