{"atom_id": "ig34_p0301_a015", "page": 301, "atom_type": "HEADING", "dim_atom_id": "PASS", "dim_verbatim": "PASS", "dim_atom_type": "PASS", "dim_parent_section": "PASS", "dim_heading_fields": "PASS", "dim_special": "PASS", "overall": "PASS", "notes": "L6 Example 1 hl=6 sib=1 RESTART per OE domain per NEW7 L6 chain; verbatim 'Example 1' verified against PDF p.301 OE – Examples block; parent §6.3.7.5 OE matches L4 domain canonical full-form per NEW6 L5+ atom rule"}
{"atom_id": "ig34_p0302_a009", "page": 302, "atom_type": "TABLE_ROW", "dim_atom_id": "PASS", "dim_verbatim": "FAIL", "dim_atom_type": "PASS", "dim_parent_section": "PASS", "dim_heading_fields": "PASS", "dim_special": "FAIL", "overall": "FAIL", "notes": "VERBATIM DRIFT: 'OESEO' written but PDF p.302 suppoe.xpt row 1 IDVAR cell shows 'OESEQ' (Q → O single-char substitution, Latin-Latin adjacent-key swap). R10 strict verbatim FAIL. NEW2 single-char iteration self-validation MISSED (NEW2 catches Cyrillic→Latin only; v1.3 §D explicitly notes Latin-Latin adjacent swap limitation = same motif as round 3 CPSCMRKS↔CPCSMRKS catch-by-NEW8). NEW8 substring n-gram cross-check vs canonical CDISC RE/OE Identifier list would flag OESEO ∉ canonical list (OESEQ ∈ canonical Identifier set) — recommend NEW8 self-validate hook upgrade. Note: PDF visually renders 'XXX- 450-110' with intra-cell space, atom rendering normalized to 'XXX-450-110' which is a separate minor R10 deviation (acceptable per OCR cell-wrap collapse, not flagged here as primary defect). All other 9 fields verified row-by-row from p.302 suppoe.xpt."}
{"atom_id": "ig34_p0303_a021", "page": 303, "atom_type": "CODE_LITERAL", "dim_atom_id": "PASS", "dim_verbatim": "PASS", "dim_atom_type": "PASS", "dim_parent_section": "PASS", "dim_heading_fields": "PASS", "dim_special": "PASS", "overall": "PASS", "notes": "Dataset filename suppoe.xpt correctly typed CODE_LITERAL per NEW4 STRICT (*.xpt ALWAYS CODE_LITERAL regardless of caption position); verbatim 'suppoe.xpt' verified against PDF p.303 (appears as caption before SUPPQUAL example 3 table)"}
{"atom_id": "ig34_p0304_a015", "page": 304, "atom_type": "HEADING", "dim_atom_id": "PASS", "dim_verbatim": "PASS", "dim_atom_type": "PASS", "dim_parent_section": "PASS", "dim_heading_fields": "PASS", "dim_special": "PASS", "overall": "PASS", "notes": "L6 Example 4 hl=6 sib=4 continues OE domain Examples chain (Example 1 sib=1 p.301 → Example 2 sib=2 p.302 → Example 3 sib=3 p.303 → Example 4 sib=4 p.304); cross-batch sibling continuity per R15 maintained; verbatim 'Example 4' verified against PDF p.304 OE Examples"}
{"atom_id": "ig34_p0305_a011", "page": 305, "atom_type": "HEADING", "dim_atom_id": "PASS", "dim_verbatim": "PASS", "dim_atom_type": "PASS", "dim_parent_section": "PASS", "dim_heading_fields": "PASS", "dim_special": "PASS", "overall": "PASS", "notes": "L4 §6.3.7.6 RP HEADING parent CORRECTLY set to L3 group canonical full-form '§6.3.7 Morphology/Physiology Domains' (NEW6.b L4 self-parent NEVER); hl=4 sib=6 per TOC ground truth (5th sib OE → 6th sib RP); verbatim '6.3.7.6 Reproductive System Findings (RP)' verified against PDF p.305 section header"}
{"atom_id": "ig34_p0306_a013", "page": 306, "atom_type": "TABLE_ROW", "dim_atom_id": "PASS", "dim_verbatim": "PASS", "dim_atom_type": "PASS", "dim_parent_section": "PASS", "dim_heading_fields": "PASS", "dim_special": "PASS", "overall": "PASS", "notes": "EPOCH spec row verified against PDF p.306 RP Spec table (Variable Name=EPOCH / Variable Label=Epoch / Type=Char / CT=(EPOCH) / Role=Timing / CDISC Notes='Epoch associated with the date/time at which the assessment was made.' / Core=Perm); outer-pipe convention per R8/O-P1-26 ✓; (EPOCH) controlled terminology link rendered as plain text per cross-batch convention"}
{"atom_id": "ig34_p0307_a020", "page": 307, "atom_type": "TABLE_ROW", "dim_atom_id": "PASS", "dim_verbatim": "PASS", "dim_atom_type": "PASS", "dim_parent_section": "PASS", "dim_heading_fields": "PASS", "dim_special": "PASS", "overall": "PASS", "notes": "Row 13 of rp.xpt (subject 2324-P0002, RPTESTCD=BRTHLVN/Number of Live Births=1, SCREENING) verified field-by-field against PDF p.307; outer-pipe + empty-cell preservation per R8 (4 empty cells correctly rendered as '| |' RPORRESU/RPSTRESU/RPDUR/RPBLFL — wait: RPBLFL=Y not empty, recount: empty cells = RPORRESU + RPSTRESU + RPDUR all blank PDF; sample shows | 1 | | 1 | 1 | | | Y | which preserves 3 empty cells correctly between RPORRES=1 and RPBLFL=Y); BRTHLVN ∈ RPTESTCD canonical CDISC list ✓"}
{"atom_id": "ig34_p0308_a002", "page": 308, "atom_type": "HEADING", "dim_atom_id": "PASS", "dim_verbatim": "PASS", "dim_atom_type": "PASS", "dim_parent_section": "PASS", "dim_heading_fields": "PASS", "dim_special": "PASS", "overall": "PASS", "notes": "L5 'RE – Description/Overview' hl=5 sib=1 RESTART per RE domain per NEW7 L5 chain (Description=1 / Specification=2 / Assumptions=3 / Examples=4); en-dash '–' preserved per R10 strict (no normalization to hyphen); parent §6.3.7.7 Respiratory System Findings (RE) is L4 domain canonical full-form per NEW6 L5+ atom rule"}
{"atom_id": "ig34_p0309_a005", "page": 309, "atom_type": "TABLE_ROW", "dim_atom_id": "PASS", "dim_verbatim": "PASS", "dim_atom_type": "PASS", "dim_parent_section": "PASS", "dim_heading_fields": "PASS", "dim_special": "PASS", "overall": "PASS", "notes": "REREASND spec row verified against PDF p.309 RE Spec table (Variable Name=REREASND / Variable Label=Reason Not Done / Type=Char / CT=blank / Role=Record Qualifier / CDISC Notes preserves 3 quoted strings 'BROKEN EQUIPMENT', 'SUBJECT REFUSED', 'NOT DONE' per R6 codelist verbatim / Core=Perm); empty Controlled Terms cell rendered as '| |' per R8; REREASND, RESTAT ∈ canonical RE Record Qualifier list ✓"}
{"atom_id": "ig34_p0310_a016", "page": 310, "atom_type": "LIST_ITEM", "dim_atom_id": "PASS", "dim_verbatim": "PASS", "dim_atom_type": "PASS", "dim_parent_section": "PASS", "dim_heading_fields": "PASS", "dim_special": "PASS", "overall": "PASS", "notes": "Row 5 explanation under RE Example 1 verified against PDF p.310 (PEF test, REORREF, peak flow meter, SPDEVID); LIST_ITEM type correctly applied per Row-N: explanation convention (NOT promoted to HEADING per R13); REORREF ∈ canonical RE Variable Qualifier list ✓; SPDEVID ∈ canonical RE Identifier list ✓; tab '\\t' separator after 'Row 5:' label preserved per R10 strict"}
