{"atom_id":"ig34_p0261_a011","atom_type_verdict":"PASS","atom_type_reason":"TABLE_ROW correctly identifies relspec.xpt Row 6 (a tabular data row in BE/RELSPEC example).","verbatim_verdict":"PASS","verbatim_reason":"All 7 cells match PDF p.261 relspec.xpt Row 6 exactly (Row=6, STUDYID=ABC, USUBJID=ABC-01-101, REFID=100.5, SPEC=LAVAGE FLUID, PARENT=100, LEVEL=2).","parent_section_verdict":"PASS","parent_section_reason":"§6.3.5.7 Microbiology Domains is the L4 group container hosting the cross-domain MB/MS/BE example tables on p.261-263; consistent with NEW6.b L4 self-parent convention for cross-domain examples under group container.","heading_fields_verdict":"N/A","heading_fields_reason":"Non-HEADING atom; heading_level/sibling_index null as expected.","overall":"PASS"}
{"atom_id":"ig34_p0262_a030","atom_type_verdict":"PASS","atom_type_reason":"TABLE_ROW correctly identifies suppms.xpt Row 2 (tabular data row in supplemental qualifier table).","verbatim_verdict":"PASS","verbatim_reason":"All 10 cells match PDF p.262 suppms.xpt Row 2 exactly (Row=2, STUDYID=ABC, RDOMAIN=MS, USUBJID=ABC-01-101, IDVAR=MBREFID, IDVARVAL=100.5, QNAM=MSMEDTYPE, QLABEL=Medium Type, QVAL=LOWENSTEIN-JENSEN, QORIG=Collected).","parent_section_verdict":"PASS","parent_section_reason":"§6.3.5.7 Microbiology Domains group container correctly assigned (MS supplemental qualifier table is part of MS domain, which sits under §6.3.5.7 group).","heading_fields_verdict":"N/A","heading_fields_reason":"Non-HEADING atom.","overall":"PASS"}
{"atom_id":"ig34_p0263_a015","atom_type_verdict":"PASS","atom_type_reason":"HEADING correctly identifies the 'Example 4' L6 sub-heading on p.263.","verbatim_verdict":"PASS","verbatim_reason":"Verbatim 'Example 4' matches PDF p.263 mid-page heading exactly.","parent_section_verdict":"PASS","parent_section_reason":"§6.3.5.7 Microbiology Domains group container correct; Examples 1-4 are cross-domain (MB+MS shared) under the L4 group, not under individual MB or MS sub-domains.","heading_fields_verdict":"PASS","heading_fields_reason":"hl=6 ✓ (L6 Example level), sib=4 ✓ (Example 1, 2, 3 on prior pages → Example 4 = sib=4 per NEW7 L6 RESTART convention).","overall":"PASS"}
{"atom_id":"ig34_p0264_a013","atom_type_verdict":"PASS","atom_type_reason":"TABLE_ROW correctly identifies the MITEST row in MI Specification table.","verbatim_verdict":"PASS","verbatim_reason":"All 7 cells match PDF p.264 MI Specification MITEST row exactly: 'MITEST | Microscopic Examination Name | Char | (MITS) | Synonym Qualifier | [CDISC Notes verbatim incl. examples HER2/BRCA1/TTF1] | Req'. Quoted literal examples preserved char-for-char.","parent_section_verdict":"PASS","parent_section_reason":"§6.3.5.8 Microscopic Findings (MI) is the L4 domain owning the Specification table on p.264.","heading_fields_verdict":"N/A","heading_fields_reason":"Non-HEADING atom.","overall":"PASS"}
{"atom_id":"ig34_p0265_a018","atom_type_verdict":"PASS","atom_type_reason":"LIST_ITEM correctly identifies numbered Assumption #1 in MI – Assumptions section.","verbatim_verdict":"PASS","verbatim_reason":"Full text of Assumption 1 matches PDF p.265 char-for-char including 'cytochemical/immunocytochemical stains' parenthetical and four sentences. Leading '1.' marker preserved.","parent_section_verdict":"PASS","parent_section_reason":"§6.3.5.8 MI is the L4 domain hosting MI – Assumptions sub-section.","heading_fields_verdict":"N/A","heading_fields_reason":"Non-HEADING atom.","overall":"PASS"}
{"atom_id":"ig34_p0266_a001","atom_type_verdict":"PASS","atom_type_reason":"HEADING correctly identifies 'MI – Examples' L5 sub-section header at top of p.266.","verbatim_verdict":"PASS","verbatim_reason":"'MI – Examples' matches PDF p.266 top exactly (en-dash preserved).","parent_section_verdict":"PASS","parent_section_reason":"NEW6.b L4 self-parent EFFECTIVE: MI – Examples is itself a sub-section of §6.3.5.8 MI; parent_section=§6.3.5.8 MI is the canonical L4 self-parent assignment per round 3+4 NEW6.b precedent.","heading_fields_verdict":"PASS","heading_fields_reason":"hl=5 ✓ (L5 sub-section under L4 MI domain), sib=4 ✓ (per L5 sub-section convention: Description=1, Specification=2, Assumptions=3, Examples=4).","overall":"PASS"}
{"atom_id":"ig34_p0267_a001","atom_type_verdict":"PASS","atom_type_reason":"HEADING correctly identifies 'Example 3' L6 sub-heading at top of p.267 under MI – Examples.","verbatim_verdict":"PASS","verbatim_reason":"'Example 3' matches PDF p.267 top exactly.","parent_section_verdict":"PASS","parent_section_reason":"§6.3.5.8 MI parent is canonical L4 domain attribution; Example 3 is the third Example heading after Example 1 and Example 2 (both on p.266). NEW7 L6 sub-batch handoff procedural enforcement check satisfied: prior sub-batch end-state preserved (Example 2 sib=2 on p.266 → Example 3 sib=3 on p.267 with no restart).","heading_fields_verdict":"PASS","heading_fields_reason":"hl=6 ✓, sib=3 ✓ (Example 1 + Example 2 on p.266 + Example 3 on p.267 = 3rd in §6.3.5.8 MI Example RESTART per NEW7 L6 convention).","overall":"PASS"}
{"atom_id":"ig34_p0268_a005","atom_type_verdict":"PASS","atom_type_reason":"TABLE_ROW correctly identifies PCSCAT row in PC Specification table.","verbatim_verdict":"PASS","verbatim_reason":"All 7 cells match PDF p.268 PCSCAT row exactly: 'PCSCAT | Test Subcategory | Char | * | Grouping Qualifier | A further categorization of a test category. | Perm'.","parent_section_verdict":"PASS","parent_section_reason":"§6.3.5.9.1 Pharmacokinetics Concentrations (PC) is the L5 sub-section under §6.3.5.9 group container; PC Specification table belongs here per L5 RESTART precedent (round-5 NEW7 L5 group-container precedent).","heading_fields_verdict":"N/A","heading_fields_reason":"Non-HEADING atom.","overall":"PASS"}
{"atom_id":"ig34_p0269_a011","atom_type_verdict":"PASS","atom_type_reason":"TABLE_ROW correctly identifies PCTPT row in PC Specification table.","verbatim_verdict":"PASS","verbatim_reason":"All 7 cells match PDF p.269 PCTPT row exactly: 'PCTPT | Planned Time Point Name | Char | [empty controlled-terms] | Timing | [CDISC Notes verbatim incl. quoted examples Start/5 min post] | Perm'. Empty-string column preserved as ' | | '.","parent_section_verdict":"PASS","parent_section_reason":"§6.3.5.9.1 PC continuation of Specification table from p.268.","heading_fields_verdict":"N/A","heading_fields_reason":"Non-HEADING atom.","overall":"PASS"}
{"atom_id":"ig34_p0270_a031","atom_type_verdict":"PASS","atom_type_reason":"TABLE_ROW correctly identifies pc.xpt Row 19 (wide 32-column data row).","verbatim_verdict":"PASS","verbatim_reason":"All 32 cells match PDF p.270 pc.xpt Row 19 exactly including blank-cell placeholders (4 consecutive empty cells preserved as ' | | | | '), -PT6H sign in PCEVLINT, ISO 8601 timestamps with colon, and PCEVLINT '-PT6H' negative duration. Wide-TABLE_ROW corruption pattern (writer-family 8th batch P1 cumulative) NOT detected here.","parent_section_verdict":"PASS","parent_section_reason":"§6.3.5.9.1 PC L5 sub-section; pc.xpt Example 1 row data belongs under PC.","heading_fields_verdict":"N/A","heading_fields_reason":"Non-HEADING atom.","overall":"PASS"}
