{"atom_id":"ig34_p0101_a022","verdict":"PASS","atom_type_verdict":"OK","verbatim_verdict":"OK","parent_section_verdict":"OK","heading_fields_verdict":"N/A","rationale":"Row 10 LIST_ITEM verbatim character-for-character matches PDF p.101 (CM Example 1 narrative). Sibling_index=3 consistent with prior Rows 1-6=1, Rows 7-9=2, Row 10=3 narrative-row pattern. parent_section §6.1.2 CM correct (Example 1 sits inside CM-Examples, which is the Examples sub-block of §6.1.2). No verbatim drift, no fabricated text.","pdf_evidence":"p.101 'Row 10: Records for subject ABC-0003 are collapsed into a single entry that spans the relevant time period, with a frequency of \"PRN\". This is shown as an example only, not as a recommendation. This approach assumes that knowing exactly when aspirin was used is not important for evaluating safety and efficacy in this study.'","severity":"PASS"}
{"atom_id":"ig34_p0102_a022","verdict":"PARTIAL","atom_type_verdict":"OK","verbatim_verdict":"DRIFT","parent_section_verdict":"OK","heading_fields_verdict":"N/A","rationale":"PDF p.102 Example 3 cm.xpt Row 1 has 10 columns: Row=1, STUDYID=ABC123, DOMAIN=CM, USUBJID=1, CMSEQ=1, CMTRT=ZOLOFT, CMPRESP=Y, CMOCCUR=Y, CMSTAT=(empty), CMREASND=(empty). Atom verbatim shows 9 pipe-separated tokens '1 | ABC123 | CM | 1 | 1 | ZOLOFT | Y | Y | |' which renders as 8 values + 1 empty cell — missing one trailing empty cell representation. PDF has 2 trailing empty cells, atom has 1. R8 empty-cell rule violated for second trailing empty (CMREASND).","pdf_evidence":"p.102 Example 3 cm.xpt header: 'Row | STUDYID | DOMAIN | USUBJID | CMSEQ | CMTRT | CMPRESP | CMOCCUR | CMSTAT | CMREASND' (10 cols). Row 1: '1 | ABC123 | CM | 1 | 1 | ZOLOFT | Y | Y | (empty) | (empty)'. Should be '1 | ABC123 | CM | 1 | 1 | ZOLOFT | Y | Y | | |' with two trailing empty pipes (3 final pipes total).","severity":"LOW"}
{"atom_id":"ig34_p0103_a012","verdict":"PASS","atom_type_verdict":"OK","verbatim_verdict":"OK","parent_section_verdict":"OK","heading_fields_verdict":"N/A","rationale":"'cm.xpt' CODE_LITERAL appears on p.103 above the Example 5 cm.xpt table (continuation of CM-Examples block from p.101-103). parent_section=§6.1.2 CM correct per R9 (filename takes section where it physically appears, not abstract domain ownership). cm.xpt is on p.103 inside CM Example 5 narrative, which is still §6.1.2.","pdf_evidence":"p.103 mid-page: 'These medications were not prespecified, so CMPRESP is null.' followed by 'cm.xpt' literal then Example 5 cm.xpt data table.","severity":"PASS"}
{"atom_id":"ig34_p0104_a007","verdict":"PASS","atom_type_verdict":"OK","verbatim_verdict":"OK","parent_section_verdict":"OK","heading_fields_verdict":"N/A","rationale":"EX spec table TABLE_HEADER 7-column verbatim matches PDF. PDF prints 'Format¹' with superscript footnote marker; atom renders 'Format' without superscript — consistent with project convention (footnote superscripts stripped, footnote text preserved as separate atom on the row beneath the table). parent_section §6.1.3.1 EX correct (table header sits inside EX – Specification on p.104).","pdf_evidence":"p.104 EX – Specification table header row: 'Variable Name | Variable Label | Type | Controlled Terms, Codelist or Format¹ | Role | CDISC Notes | Core'. Footnote ¹ defined later on p.105: 'In this column, an asterisk (*) indicates that the variable may be subject to controlled terminology...'","severity":"PASS"}
{"atom_id":"ig34_p0105_a017","verdict":"PASS","atom_type_verdict":"OK","verbatim_verdict":"OK","parent_section_verdict":"OK","heading_fields_verdict":"OK","rationale":"'EX – Assumptions' HEADING with em-dash (–) matches PDF p.105 character-for-character. heading_level=5 correct (L5 sub-heading inside L4 §6.1.3.1 EX, sibling to 'EX – Description/Overview' and 'EX – Specification'). sibling_index=3 correct (Description/Overview=1, Specification=2, Assumptions=3). parent_section §6.1.3.1 EX correct.","pdf_evidence":"p.105 bottom: 'EX – Assumptions' (em-dash, not hyphen) followed by '1. EX structure and use' list.","severity":"PASS"}
{"atom_id":"ig34_p0106_a003","verdict":"PASS","atom_type_verdict":"OK","verbatim_verdict":"OK","parent_section_verdict":"OK","heading_fields_verdict":"N/A","rationale":"LIST_ITEM ii under §6.1.3.1 EX Assumption 1.c verbatim matches PDF p.106 exactly: 'Derived from automated dispensing device that records administrations'. sibling_index=2 correct (i=1, ii=2 within the i-v list under 1.c). parent_section §6.1.3.1 EX correct.","pdf_evidence":"p.106 top: '1.c. The EX domain is required for all studies... Common methods for determining exposure (from most direct to least direct) include the following: i. Derived from actual observation... ii. Derived from automated dispensing device that records administrations iii. Derived from subject recall...'","severity":"PASS"}
{"atom_id":"ig34_p0107_a008","verdict":"PASS","atom_type_verdict":"OK","verbatim_verdict":"OK","parent_section_verdict":"OK","heading_fields_verdict":"OK","rationale":"§6.1.3.2 EC HEADING verbatim '6.1.3.2  Exposure as Collected (EC)' (with double-space between number and title, preserved per PDF rendering). heading_level=4 correct (L4 sub-section inside §6.1.3, parallel to §6.1.3.1 EX). sibling_index=2 correct (§6.1.3.1=1, §6.1.3.2=2). parent_section §6.1.3 [Exposure Domains] correct (atom IS §6.1.3.2, so parent is §6.1.3).","pdf_evidence":"p.107 mid-page: '6.1.3.2  Exposure as Collected (EC)' bold heading, followed by 'EC – Description/Overview' L5 sub-heading.","severity":"PASS"}
{"atom_id":"ig34_p0108_a014","verdict":"PASS","atom_type_verdict":"OK","verbatim_verdict":"OK","parent_section_verdict":"OK","heading_fields_verdict":"N/A","rationale":"ECLOT TABLE_ROW 7-column verbatim matches PDF p.108. Empty CT (Controlled Terms) cell correctly rendered as '| |' per R8. parent_section §6.1.3.2 EC correct (EC spec table on p.108 is continuation from p.107).","pdf_evidence":"p.108 EC spec table ECLOT row: 'ECLOT | Lot Number | Char | (empty CT) | Record Qualifier | Lot number of the ECTRT product. | Perm'. CT column blank, atom correctly renders as '| |'.","severity":"PASS"}
{"atom_id":"ig34_p0109_a009","verdict":"PASS","atom_type_verdict":"OK","verbatim_verdict":"OK","parent_section_verdict":"OK","heading_fields_verdict":"N/A","rationale":"ECRFTDTC TABLE_ROW 7-column verbatim character-for-character matches PDF p.109. CT='ISO 8601 datetime or interval' preserved exactly. CDISC Notes 'Date/time for a fixed reference time point defined by ECTPTREF.' verbatim matches including trailing period. parent_section §6.1.3.2 EC correct.","pdf_evidence":"p.109 EC spec table ECRFTDTC row: 'ECRFTDTC | Date/Time of Reference Time Point | Char | ISO 8601 datetime or interval | Timing | Date/time for a fixed reference time point defined by ECTPTREF. | Perm'.","severity":"PASS"}
{"atom_id":"ig34_p0110_a002","verdict":"PASS","atom_type_verdict":"OK","verbatim_verdict":"OK","parent_section_verdict":"OK","heading_fields_verdict":"N/A","rationale":"LIST_ITEM 3.c under EC – Assumptions Timing variables verbatim matches PDF p.110: 'Appropriate timing variable(s) should be populated. Note: Details on Scheduled records may describe timing at a higher level than Performed records.' Bold 'Appropriate timing variable(s) should be populated. Note:' formatting normalized to plain text per project convention (consistent with prior batches). sibling_index=3 correct (3.a=1, 3.b=2, 3.c=3 within Assumption 3 sub-list). parent_section §6.1.3.2 EC correct.","pdf_evidence":"p.110 mid-page: '3. (continued from p.109) ... c. Appropriate timing variable(s) should be populated. Note: Details on Scheduled records may describe timing at a higher level than Performed records.'","severity":"PASS"}
