{"atom_id":"ig34_p0211_a002","page":211,"verdict":"PASS","atom_type":"OK","verbatim":"OK","parent_section":"OK","heading_fields":"OK","note":"Example 2 HEADING L6 sib=2 matches visible label; R15 cross-batch continuity correct; parent §6.3.5.3 Cell Phenotype Findings (CP) L4 canonical form OK"}
{"atom_id":"ig34_p0212_a003","page":212,"verdict":"PASS","atom_type":"OK","verbatim":"OK","parent_section":"OK","heading_fields":"N_A","note":"TABLE_ROW row 8 cp.xpt Example 2 apoptosis assay; empty cell preserved with spaces between pipes; STUDYID/DOMAIN/USUBJID/CPSEQ fields and CPDTC 2020-08-16T12:20 match PDF; LYM APOPTOSIS COUNT/NUMBER FRACTION/FLOW CYTOMETRY correct"}
{"atom_id":"ig34_p0213_a016","page":213,"verdict":"PASS","atom_type":"OK","verbatim":"OK","parent_section":"OK","heading_fields":"N_A","note":"TABLE_ROW row 9 cp.xpt Example 3 monocyte assay; MNS/Mono Sub/CDxx-CDyy+ and two empty cells preserved; MONOCYTE CD SUBSETS/NUMBER CONCENTRATION/FLOW CYTOMETRY correct; CPDTC 2020-08-16T08:00 OK"}
{"atom_id":"ig34_p0214_a014","page":214,"verdict":"PARTIAL","atom_type":"OK","verbatim":"MINOR_DRIFT","parent_section":"OK","heading_fields":"N_A","note":"TABLE_ROW row 7 cp.xpt Example 4 (CCR5 T-helper assay); USUBJID position shows STMMX (appears to be CPGRPID value) instead of expected ABCD-001-002; CPSEQ=3 in position 5 suggests 1-column left shift dropping USUBJID; content of later fields (STIMULATED/UNSTIMULATED CPANMETH, TLCRCC/Stimulation Index, CALCULATION method) match PDF; 1-column shift is minor drift (row identifiable by context)"}
{"atom_id":"ig34_p0215_a011","page":215,"verdict":"PASS","atom_type":"OK","verbatim":"OK","parent_section":"OK","heading_fields":"OK","note":"Example 6 HEADING L6 sib=6 matches visible label on p.215; R15 cross-batch continuity sib=6 correct per audit context; parent §6.3.5.3 Cell Phenotype Findings (CP) L4 canonical form OK"}
{"atom_id":"ig34_p0216_a009","page":216,"verdict":"PARTIAL","atom_type":"OK","verbatim":"MINOR_DRIFT","parent_section":"OK","heading_fields":"N_A","note":"TABLE_ROW row 7 cp.xpt Example 6 DC Plasmacytoid assay; USUBJID ABC0-001-001 vs ABCD-001-001 in PDF (D→0 single character substitution, likely OCR artifact); DCPDCSCP/DC Plasmacytoid Sub/ACTIVATED/CD83+ and pDC AND pDC SUBSETS/44.50/NUMBER FRACTION correct; timestamp 2021-01-30T07:10:00 space artifact acceptable per R11"}
{"atom_id":"ig34_p0217_a013","page":217,"verdict":"PASS","atom_type":"OK","verbatim":"OK","parent_section":"OK","heading_fields":"N_A","note":"SENTENCE exact verbatim match in Example 7 description paragraph; Substances involved...therapeutic intervention processes matches PDF p.217 character-by-character; parent §6.3.5.3 CP OK (still CP section)"}
{"atom_id":"ig34_p0218_a019","page":218,"verdict":"PASS","atom_type":"OK","verbatim":"OK","parent_section":"OK","heading_fields":"N_A","note":"LIST_ITEM Rows 9-11 verbatim exact match; full multi-sentence text matches PDF p.218 Example 8 description including CDxx antibody occupancy / Row 3 mean target bound / Row 6 mean target total references; parent §6.3.5.3 CP OK"}
{"atom_id":"ig34_p0219_a010","page":219,"verdict":"FAIL","atom_type":"OK","verbatim":"MAJOR_DRIFT","parent_section":"OK","heading_fields":"N_A","note":"TABLE_ROW row 8 cp.xpt Example 9 receptor occupancy; FAIL: verbatim has '7-lymphocytes' where PDF shows 'T-lymphocytes' (T→7 character substitution, semantic impact on cell type identification); also USUBJID ABC0-001-001 vs ABCD-001-001 (D→0, secondary); compound verbatim errors exceed PARTIAL threshold"}
{"atom_id":"ig34_p0220_a021","page":220,"verdict":"PASS","atom_type":"OK","verbatim":"OK","parent_section":"OK","heading_fields":"OK","note":"GF L4 HEADING; Option-H-fix verified: parent_section=§6.3.5 Specimen-based Findings Domains (L3 group, not self-parent); verbatim '6.3.5.4 Genomics Findings (GF)' exact match PDF p.220; heading_level=4 OK; sib=4 correct (BE=1/BS=2/CP=3/GF=4 under §6.3.5)"}
