{"atom_id": "ig34_p0431_a021", "verdict": "PASS", "atom_type_ok": true, "verbatim_ok": true, "parent_section_ok": true, "schema_ok": true, "notes": "SENTENCE 'Because IDVAR identifies the keys that can be used to merge/join records between the datasets, --SEQ cannot be used.' PDF p.431 line 27 byte-exact confirmed via pdftotext -layout. Single complete sentence, no paragraph-concat. parent_section '§8.3.1 RELREC Dataset Relationship Example' canonical natural form (L4 child of L3 §8.3.1, no further L4 chain — natural form per round 10 D-MS-NEW-10-6 logic). executor N21 PASS."}
{"atom_id": "ig34_p0432_a015", "verdict": "PASS", "atom_type_ok": true, "verbatim_ok": true, "parent_section_ok": true, "schema_ok": true, "notes": "TABLE_HEADER 'Variable Name | Variable Label | Type | Controlled Terms, Codelist or Format1 | Role | CDISC Notes | Core'. PDF p.432 SUPP-- spec table column row byte-exact confirmed (preserves 'Format1' superscript per footnote convention). atom_type TABLE_HEADER correct (column header row). parent_section '§8.4.1 Supplemental Qualifiers (SUPP--)' natural form L3 leaf pattern under §8.4 (consistent with §6.3.x domain spec table headers in round 7-9 cumulative). schema table_id 'supp_spec_p432' present."}
{"atom_id": "ig34_p0433_a031", "verdict": "PASS", "atom_type_ok": true, "verbatim_ok": true, "parent_section_ok": true, "schema_ok": true, "notes": "SENTENCE 'The parent domain (RDOMAIN) is QS, and IDVAR is QSCAT.' PDF p.433 line 39 byte-exact confirmed in Example 2 (suppqs.xpt language questionnaire example). parent_section '§8.4.3 SUPP-- Examples' natural form L3 child of §8.4 (no further L4 chain). Single complete sentence, no concat motif. NOTE: PDF shows 'Example' header without Arabic numeral (Example 1 is on p.433 line 21; Example 2 is implied by content but unnumbered — kickoff predicted both numbered, atom assigns parent_section correctly regardless of Example numbering)."}
{"atom_id": "ig34_p0434_a020", "verdict": "PASS", "atom_type_ok": true, "verbatim_ok": true, "parent_section_ok": true, "schema_ok": true, "notes": "SENTENCE 'STUDYID, USUBJID, and DOMAIN (with the value CO) must always be populated.' PDF p.434 line 16 byte-exact confirmed. parent_section '§8.5 Relating Comments to a Parent Domain' natural form CORRECT per round 10 D-MS-NEW-10-6 logic — §8.5 is L2 with NO L3 children, so chapter-short-bracket convention does NOT apply (only applies when section has L3+ children); natural form '§8.5 Relating Comments to a Parent Domain' is canonical for L3 leaf-only chains. Consistent with §8.7/§8.8 pattern (RELSUB/RELSPEC) below. Compliance with N11 logic verified."}
{"atom_id": "ig34_p0435_a025", "verdict": "PASS", "atom_type_ok": true, "verbatim_ok": true, "parent_section_ok": true, "schema_ok": true, "notes": "SENTENCE 'It may not always be clear whether a set of data represents a single topic or more, and thus whether it should be combined into 1 domain or split into 2 or more domains.' PDF p.435 line 30 byte-exact confirmed. parent_section '§8.6.2 Guidelines for Forming New Domains' natural form L3 leaf (no L4 children under §8.6.2). Single sentence, no concat. Note: §8.6 has L3 children 8.6.1/2/3 so §8.6 itself uses chapter-short-bracket form '§8.6 [HOW TO DETERMINE WHERE DATA BELONG IN SDTM-COMPLIANT DATA TABULATIONS]' as parent of §8.6.3 HEADING (verified in p0436_a003) — N11 logic correctly applied at the heading-atom transition."}
{"atom_id": "ig34_p0436_a005", "verdict": "PASS", "atom_type_ok": true, "verbatim_ok": true, "parent_section_ok": true, "schema_ok": true, "notes": "SENTENCE 'The relationship between interventions, findings, and findings about interventions would be handled similarly.' PDF p.436 line 11 byte-exact confirmed. parent_section '§8.6.3 Guidelines for Differentiating Between Interventions, Events, Findings, and Findings About Events or Interventions' natural form L3 leaf (long heading text preserved verbatim, no truncation). N6 INTRA-AGENT consistency check — same executor agent across 44a→44b boundary (SendMessage continuation per round 10 batch 43 N6 NEW PRECEDENT) preserves §8.6.3 heading form zero-drift between p.436 atoms and p.437 atoms (verified via grep: p0437_a001..009 all use identical full §8.6.3 heading text)."}
{"atom_id": "ig34_p0437_a009", "verdict": "PASS", "atom_type_ok": true, "verbatim_ok": true, "parent_section_ok": true, "schema_ok": true, "notes": "SENTENCE 'If there are multiple assessments of an event, then each should be stored in a separate FA record.' PDF p.437 line 20 byte-exact confirmed (preceded by 'Data that do not describe the event as a whole should not be stored in the record for that event or in a --SUPP record tied to that event.'). parent_section '§8.6.3 Guidelines for Differentiating Between Interventions, Events, Findings, and Findings About Events or Interventions' canonical (consistent with sibling sample p0436_a005). Single sentence."}
{"atom_id": "ig34_p0438_a017", "verdict": "PASS", "atom_type_ok": true, "verbatim_ok": true, "parent_section_ok": true, "schema_ok": true, "notes": "LIST_ITEM '5.    RSUBJID must be a USUBJID value present in the Demographics (DM) domain. RSUBJID must be populated in every record.' PDF p.438 line 31-32 byte-exact confirmed (4-space indent within '5.' marker preserved per LIST_ITEM convention). atom_type LIST_ITEM correct (numbered assumption item under RELSUB – Assumptions). parent_section 'RELSUB – Assumptions' uses en-dash (UTF-8 0xE2 0x80 0x93) consistent with PDF rendering and consistent with §8.2 RELREC – Assumptions / §8.3 RELREC – Specification round 10 batch 43 leaf-pattern N9+N10 cross-leaf-domain validated 4th cumulative pattern. Note: assumption item 5 contains TWO sentences joined under single numbered item per PDF source — concat is INTENTIONAL list-item structure, not N19 paragraph-concat motif (LIST_ITEM N19 exempt)."}
{"atom_id": "ig34_p0439_a022", "verdict": "PASS", "atom_type_ok": true, "verbatim_ok": true, "parent_section_ok": true, "schema_ok": true, "notes": "TABLE_ROW '5 | HEM021 | HEM021-003 | HEM021-001 | CHILD, BIOLOGICAL'. PDF p.439 relsub.xpt example table row 5 byte-exact confirmed (HEM021-003 USUBJID, HEM021-001 RSUBJID, SREL='CHILD, BIOLOGICAL' per fraternal twins example narrative). atom_type TABLE_ROW correct. parent_section 'RELSUB – Examples' en-dash consistent with N9 leaf-pattern §8.7 RELSUB chain (Description/Overview / Specification / Assumptions / Examples — full N9 4-leaf-pattern verified intact for RELSUB special-purpose dataset). table_id 'relsub_p439_ex1' canonical."}
{"atom_id": "ig34_p0440_a010", "verdict": "PASS", "atom_type_ok": true, "verbatim_ok": true, "parent_section_ok": true, "schema_ok": true, "notes": "SENTENCE 'A specimen with a LEVEL value of \"1\" and a blank value for PARENT indicates a collected sample.' PDF p.440 line 14 byte-exact confirmed (within RELSPEC – Examples narrative explaining sample lineage figure). parent_section 'RELSPEC – Examples' en-dash consistent with §8.8 RELSPEC N9 4-leaf-pattern (Description/Overview / Specification / Assumptions / Examples) sister to §8.7 RELSUB pattern. Quoted '\"1\"' double-quotes preserved per source (no smart-quote substitution motif). NOTE: Figure 'Sample Specimen Relationship' is on p.440 (verified) but no FIGURE atom captured in p0440 atoms — Figure caption is rendered as embedded image with no extractable caption text in the PDF (text shows only 'Figure. Sample Specimen Relationship' heading line); main-session reconciler-scope check whether FIGURE atom required — informational, not blocking."}
