{"atom_id":"md_dmEX_assn_a001","verdict":"PASS","checks":{"a":"PASS","b":"PASS","c":"PASS","d":"PASS","e":"PASS","f":"PASS","g":"PASS","h":"PASS"},"issues":[],"note":"file H1 boundary; verbatim '# EX — Assumptions' byte-exact L1; HEADING h_lvl=1 sib_idx=null parent=§EX [EX — Assumptions] (file root self-ref canonical)"}
{"atom_id":"md_dmEX_assn_a002","verdict":"PASS","checks":{"a":"PASS","b":"PASS","c":"PASS","d":"PASS","e":"PASS","f":"PASS","g":"PASS","h":"PASS"},"issues":[],"note":"start boundary; '1. EX structure and use' L3 ordered list canonical LIST_ITEM per §R-D7.2; sib_idx=null per round 03 LIST_ITEM lock"}
{"atom_id":"md_dmEX_assn_a003","verdict":"PASS","checks":{"a":"PASS","b":"PASS","c":"PASS","d":"PASS","e":"PASS","f":"PASS","g":"PASS","h":"PASS"},"issues":[],"note":"start boundary; sub-bullet 'a.' nested 3-space indent preserved L4; LIST_ITEM canonical"}
{"atom_id":"md_dmEX_assn_a005","verdict":"PASS","checks":{"a":"PASS","b":"PASS","c":"PASS","d":"PASS","e":"PASS","f":"PASS","g":"PASS","h":"PASS"},"issues":[],"note":"stratified (sub-bullet w/ trailing colon intro 'include the following:'); L6 byte-exact; trailing colon intro ≠ NOTE pattern (Hook D-NOTE-BQ negative); LIST_ITEM canonical"}
{"atom_id":"md_dmEX_assn_a013","verdict":"PASS","checks":{"a":"PASS","b":"PASS","c":"PASS","d":"PASS","e":"PASS","f":"PASS","g":"PASS","h":"PASS"},"issues":[],"note":"mid boundary; deepest 6-space indent 'ii.' Roman numeral preserved L14; canonical LIST_ITEM"}
{"atom_id":"md_dmEX_assn_a014","verdict":"PASS","checks":{"a":"PASS","b":"PASS","c":"PASS","d":"PASS","e":"PASS","f":"PASS","g":"PASS","h":"PASS"},"issues":[],"note":"mid boundary (numbered top-level item start); '2. Exposure treatment description' L16 canonical LIST_ITEM per §R-D7.2"}
{"atom_id":"md_dmEX_assn_a015","verdict":"PASS","checks":{"a":"PASS","b":"PASS","c":"PASS","d":"PASS","e":"PASS","f":"PASS","g":"PASS","h":"PASS"},"issues":[],"note":"stratified (codelist literals ASPIRIN/100MG TABLET/PLACEBO/EXTRT/EXDOSE); L17 byte-exact incl JSON-escaped double-quotes; longest-text density acceptable"}
{"atom_id":"md_dmEX_assn_a020","verdict":"PASS","checks":{"a":"PASS","b":"PASS","c":"PASS","d":"PASS","e":"PASS","f":"PASS","g":"PASS","h":"PASS"},"issues":[],"note":"stratified (longest text density — multi-sentence narrative L24, ~7 sentences, ~1140 chars); byte-exact preserved including JSON-escaped quotes around 'start visit'/'end visit'"}
{"atom_id":"md_dmEX_assn_a025","verdict":"PASS","checks":{"a":"PASS","b":"PASS","c":"PASS","d":"PASS","e":"PASS","f":"PASS","g":"PASS","h":"PASS"},"issues":[],"note":"end boundary; codelist '--DOSTOT'/'EXDOSTOT'/'EXDOSE'/'EXDOSTXT'/'EXDOSFRQ' L31 byte-exact"}
{"atom_id":"md_dmEX_assn_a026","verdict":"PASS","checks":{"a":"PASS","b":"PASS","c":"PASS","d":"PASS","e":"PASS","f":"PASS","g":"PASS","h":"PASS"},"issues":[],"note":"end boundary; cross-domain refs EC/EX/EXVAMT/EXVAMTU/ECDOSE/ECDOSU/ECVAMT/ECVAMTU L32 byte-exact"}
{"atom_id":"md_dmEX_assn_a027","verdict":"PASS","checks":{"a":"PASS","b":"PASS","c":"PASS","d":"PASS","e":"PASS","f":"PASS","g":"PASS","h":"PASS"},"issues":[],"note":"file-end boundary; SDTM codelist literals '--PRESP, --OCCUR, --STAT, --REASND' L33 byte-exact incl 4 hyphenated qualifier prefixes"}
