{"verdict_id":"v001","atom_id":"md_dmIE_ex_a001","verbatim_byte_exact":true,"atom_type_correct":true,"heading_level_correct":true,"sibling_index_correct":true,"parent_section_correct":true,"file_correct":true,"line_range_correct":true,"cross_refs_correct":true,"figure_ref_correct":true,"verdict":"PASS","notes":"H1 file root '# IE — Examples' L1 byte-exact match; sib=1 per H1 universal precedent; parent_section=§IE [IE — Examples] file root canonical; cross_refs=[] (no inline section ref in H1)"}
{"verdict_id":"v002","atom_id":"md_dmIE_ex_a002","verbatim_byte_exact":true,"atom_type_correct":true,"heading_level_correct":true,"sibling_index_correct":true,"parent_section_correct":true,"file_correct":true,"line_range_correct":true,"cross_refs_correct":true,"figure_ref_correct":true,"verdict":"PASS","notes":"H2 '## Example 1' L3 byte-exact match; sib=1 (only H2 in file); parent_section=§IE [IE — Examples] file root per pre-H2 carve (HEADING atom itself); h_lvl=2 correct; cross_refs=[]"}
{"verdict_id":"v003","atom_id":"md_dmIE_ex_a003","verbatim_byte_exact":true,"atom_type_correct":true,"heading_level_correct":true,"sibling_index_correct":true,"parent_section_correct":true,"file_correct":true,"line_range_correct":true,"cross_refs_correct":true,"figure_ref_correct":true,"verdict":"PASS","notes":"SENTENCE L5 'This example shows records for 3 subjects...' byte-exact match; sib=null h_lvl=null per SENTENCE rule; parent_section=§IE.1 [Example 1] correct (under-H2); cross_refs=[] (no inline section ref)"}
{"verdict_id":"v004","atom_id":"md_dmIE_ex_a004","verbatim_byte_exact":true,"atom_type_correct":true,"heading_level_correct":true,"sibling_index_correct":true,"parent_section_correct":true,"file_correct":true,"line_range_correct":true,"cross_refs_correct":true,"figure_ref_correct":true,"verdict":"PASS","notes":"SENTENCE L7 '**Rows 1-2:** Show data...' byte-exact match; bold-caption SENTENCE canonical per R-D5 (non-Note/Exception caption pattern '**Rows N-N:**' = SENTENCE not HEADING/NOTE); sib=null h_lvl=null; parent=§IE.1 [Example 1]; cross_refs=[]"}
{"verdict_id":"v005","atom_id":"md_dmIE_ex_a005","verbatim_byte_exact":true,"atom_type_correct":true,"heading_level_correct":true,"sibling_index_correct":true,"parent_section_correct":true,"file_correct":true,"line_range_correct":true,"cross_refs_correct":true,"figure_ref_correct":true,"verdict":"PASS","notes":"SENTENCE L9 '**Rows 3-4:** Show data...' byte-exact match; bold-caption SENTENCE canonical per R-D5; sib=null h_lvl=null; parent=§IE.1 [Example 1]; cross_refs=[]"}
{"verdict_id":"v006","atom_id":"md_dmIE_ex_a006","verbatim_byte_exact":true,"atom_type_correct":true,"heading_level_correct":true,"sibling_index_correct":true,"parent_section_correct":true,"file_correct":true,"line_range_correct":true,"cross_refs_correct":true,"figure_ref_correct":true,"verdict":"PASS","notes":"SENTENCE L11 '**ie.xpt**' byte-exact match; bold-caption filename SENTENCE per R-D5 (filename caption = SENTENCE; canonical pattern across round 03/04 examples.md preceding TABLE_HEADER); sib=null h_lvl=null; parent=§IE.1 [Example 1]; cross_refs=[]"}
{"verdict_id":"v007","atom_id":"md_dmIE_ex_a007","verbatim_byte_exact":true,"atom_type_correct":true,"heading_level_correct":true,"sibling_index_correct":true,"parent_section_correct":true,"file_correct":true,"line_range_correct":true,"cross_refs_correct":true,"figure_ref_correct":true,"verdict":"PASS","notes":"TABLE_HEADER L13-14 byte-exact match (header row + alignment row, 16 columns: Row|STUDYID|DOMAIN|USUBJID|IESEQ|IESPID|IETESTCD|IETEST|IECAT|IEORRES|IESTRESC|VISITNUM|VISIT|VISITDY|IEDTC|IEDY); line_end-line_start=1 v1.9 standard 2-row (NOT v1.8 pilot legacy 1-row — atom outside ch04 a001-a218 range, B-03 domain scope); Hook A1 PASS; sib=null h_lvl=null per TABLE_HEADER rule; parent=§IE.1 [Example 1]; cross_refs=[]"}
{"verdict_id":"v008","atom_id":"md_dmIE_ex_a008","verbatim_byte_exact":true,"atom_type_correct":true,"heading_level_correct":true,"sibling_index_correct":true,"parent_section_correct":true,"file_correct":true,"line_range_correct":true,"cross_refs_correct":true,"figure_ref_correct":true,"verdict":"PASS","notes":"TABLE_ROW L15 row 1 (XYZ-0007 IESEQ=1 IESPID=17 EXCL17 Ventricular Rate EXCLUSION Y/Y WEEK -8 1999-01-10 IEDY=-58) byte-exact match 16 columns; sib=null h_lvl=null per TABLE_ROW rule; parent=§IE.1 [Example 1]; cross_refs=[]"}
{"verdict_id":"v009","atom_id":"md_dmIE_ex_a009","verbatim_byte_exact":true,"atom_type_correct":true,"heading_level_correct":true,"sibling_index_correct":true,"parent_section_correct":true,"file_correct":true,"line_range_correct":true,"cross_refs_correct":true,"figure_ref_correct":true,"verdict":"PASS","notes":"TABLE_ROW L16 row 2 (XYZ-0007 IESEQ=2 IESPID=3 INCL03 Acceptable mammogram... INCLUSION N/N) byte-exact match 16 columns including question-mark in IETEST; sib=null h_lvl=null; parent=§IE.1 [Example 1]; cross_refs=[]"}
{"verdict_id":"v010","atom_id":"md_dmIE_ex_a010","verbatim_byte_exact":true,"atom_type_correct":true,"heading_level_correct":true,"sibling_index_correct":true,"parent_section_correct":true,"file_correct":true,"line_range_correct":true,"cross_refs_correct":true,"figure_ref_correct":true,"verdict":"PASS","notes":"TABLE_ROW L17 row 3 (XYZ-0047 IESEQ=1 IESPID=3 INCL03 Acceptable mammogram... INCLUSION N/N IEDTC=1999-01-12 IEDY=-56) byte-exact match 16 columns; sib=null h_lvl=null; parent=§IE.1 [Example 1]; cross_refs=[]"}
{"verdict_id":"v011","atom_id":"md_dmIE_ex_a011","verbatim_byte_exact":true,"atom_type_correct":true,"heading_level_correct":true,"sibling_index_correct":true,"parent_section_correct":true,"file_correct":true,"line_range_correct":true,"cross_refs_correct":true,"figure_ref_correct":true,"verdict":"PASS","notes":"TABLE_ROW L18 row 4 (XYZ-0096 IESEQ=1 IESPID=3 INCL03 Acceptable mammogram... INCLUSION N/N IEDTC=1999-01-13 IEDY=-55) byte-exact match 16 columns + final atom in batch; sib=null h_lvl=null; parent=§IE.1 [Example 1]; cross_refs=[]"}
