{"atom_id": "ig34_p0161_a0022", "page": 161, "atom_type_verdict": "PASS", "verbatim_verdict": "PASS", "parent_section_verdict": "PASS", "heading_fields_verdict": "PASS", "overall": "PASS", "rule_violations": [], "evidence": "PDF p.161 'Example 6' bold heading below ds.xpt Example 5 table; R15 cross-batch sib continuity holds (batch 16 DS-Examples ended sib=4, Example 5 in batch 17 sib=5, Example 6 sib=6); R3 HEADING + R5/NEW6 parent §6.2.4 Disposition (DS) full-form canonical.", "fix_recommendation": "none"}
{"atom_id": "ig34_p0162_a0002", "page": 162, "atom_type_verdict": "PASS", "verbatim_verdict": "PASS", "parent_section_verdict": "PASS", "heading_fields_verdict": "N/A", "overall": "PASS", "rule_violations": [], "evidence": "PDF p.162 top 'ds.xpt' caption above Example 6 ds.xpt table; R9/NEW4 dataset filename *.xpt strict CODE_LITERAL; NEW3 heading_level/sibling_index = null (correct, JSON null not missing key); parent §6.2.4 DS NEW6 full-form.", "fix_recommendation": "none"}
{"atom_id": "ig34_p0163_a0022", "page": 163, "atom_type_verdict": "PASS", "verbatim_verdict": "PASS", "parent_section_verdict": "PASS", "heading_fields_verdict": "N/A", "overall": "PASS", "rule_violations": [], "evidence": "PDF p.163 te.xpt Row 1 (Example 10 supporting): XYZ TE SCRN Screen 'Informed Consent' '1 week after start of Element' P7D — 8 cells outer-pipe (O-P1-26) match TE header (Row|STUDYID|DOMAIN|ETCD|ELEMENT|TESTRL|TEENRL|TEDUR); R11 cell count match; parent §6.2.4 DS contextually correct (te.xpt is supporting dataset for DS Example 10).", "fix_recommendation": "none"}
{"atom_id": "ig34_p0164_a0019", "page": 164, "atom_type_verdict": "PASS", "verbatim_verdict": "PASS", "parent_section_verdict": "PASS", "heading_fields_verdict": "N/A", "overall": "PASS", "rule_violations": [], "evidence": "PDF p.164 dm.xpt Row 1 (Example 10 supporting DM): XYZ DM XYZ-767-001 001 2016-02-14 2016-04-19 2016-02-02 2016-04-24 01 'ADAMS, M' DG1INDG 'Drug-1+Investigation-Drug' DG1INDG 'Drug-1+Investigation-Drug' [empty ARMNRS] [empty ACTARMUD] — 17 cells incl 2 trailing empties (R11 R8); parent §6.2.4 DS contextually correct (dm.xpt is supporting dataset for DS Example 10 narrative on p.164 'The DM dataset includes...').", "fix_recommendation": "none"}
{"atom_id": "ig34_p0165_a0028", "page": 165, "atom_type_verdict": "PASS", "verbatim_verdict": "PASS", "parent_section_verdict": "PASS", "heading_fields_verdict": "N/A", "overall": "PASS", "rule_violations": [], "evidence": "PDF p.165 ds.xpt Row 10 (Example 10 main): XYZ DS XYZ-767-002 3 COMPLETED COMPLETED 'DISPOSITION EVENT' DRUG2 'TREATMENT 1' 2016-03-23 — 11 cells outer-pipe match DS header; R10 verbatim wrap-cell preserved; parent §6.2.4 DS NEW6 full-form.", "fix_recommendation": "none"}
{"atom_id": "ig34_p0166_a0004", "page": 166, "atom_type_verdict": "PASS", "verbatim_verdict": "FAIL", "parent_section_verdict": "PASS", "heading_fields_verdict": "N/A", "overall": "FAIL", "rule_violations": ["R10", "NEW2"], "evidence": "PDF p.166 te.xpt Row 3 ground truth: ETCD='ABC' / TEENRL='4 weeks after start of Element' / TEDUR='P4W'. Atom records ETCD='ABC-' (spurious trailing dash), TEENRL='3 weeks...' (3 vs 4), TEDUR='PAW' (A vs 4 char-level digit-to-letter corruption breaking ISO 8601 duration). Three distinct char-level verbatim errors in one row — R10 spec-table preservation + NEW2 char-level typo check both violated.", "fix_recommendation": "Option H repair: rewrite verbatim to '| 3 | DS10 | TE | ABC | Trt ABC | First dose of treatment Element, where treatment is AB +C | 4 weeks after start of Element | P4W |'. Recommend writer-family rerun cross-check on remaining 134 batch 17b atoms for similar wrap-row corruption (ABC vs ABC- pattern, P4W vs PAW digit-letter swap)."}
{"atom_id": "ig34_p0167_a0017", "page": 167, "atom_type_verdict": "PASS", "verbatim_verdict": "PASS", "parent_section_verdict": "PASS", "heading_fields_verdict": "PASS", "overall": "PASS", "rule_violations": [], "evidence": "PDF p.167 mid-page bold heading '6.2.5 Healthcare Encounters (HO)'; R3 HEADING TOC-anchored (PDF p.4 TOC §6.2.5 HO); R15 cross-batch sib continuity ✓ (§6.2.1 AE sib=1 / 6.2.2 BE sib=2 / 6.2.3 CE sib=3 / 6.2.4 DS sib=4 / 6.2.5 HO sib=5); heading_level=3 ✓ under §6.2 L2; parent_section §6.2 [MODELS FOR EVENTS DOMAINS] bracket form CORRECT per kickoff NEW6 explicit chapter-parent exception.", "fix_recommendation": "none"}
{"atom_id": "ig34_p0168_a0008", "page": 168, "atom_type_verdict": "PASS", "verbatim_verdict": "PASS", "parent_section_verdict": "PASS", "heading_fields_verdict": "N/A", "overall": "PASS", "rule_violations": [], "evidence": "PDF p.168 HOCAT spec row: 'HOCAT | Category for Healthcare Encounter | Char | * | Grouping Qualifier | Used to define a category of topic-related values. | Perm' — 7 cells match spec header (Variable Name|Label|Type|Controlled Terms|Role|CDISC Notes|Core); R10 verbatim exact incl '*' Controlled Terms marker; NEW2 char-level no typo; parent §6.2.5 Healthcare Encounters (HO) NEW6 full-form canonical.", "fix_recommendation": "none"}
{"atom_id": "ig34_p0169_a0012", "page": 169, "atom_type_verdict": "PASS", "verbatim_verdict": "PASS", "parent_section_verdict": "PASS", "heading_fields_verdict": "PASS", "overall": "PASS", "rule_violations": [], "evidence": "PDF p.169 'HO – Examples' bold sub-section header; R3 HEADING; NEW7 L4 deterministic chain Description=1 (p.167) / Specification=2 (p.167) / Assumptions=3 (p.168) / Examples=4 (p.169) ✓ sib=4 correctly assigned by canonical order NOT mid-page emergence; verbatim em-dash '–' preserved (not hyphen '-'); parent §6.2.5 HO NEW6 full-form.", "fix_recommendation": "none"}
{"atom_id": "ig34_p0170_a0010", "page": 170, "atom_type_verdict": "PASS", "verbatim_verdict": "PASS", "parent_section_verdict": "PASS", "heading_fields_verdict": "N/A", "overall": "PASS", "rule_violations": [], "evidence": "PDF p.170 ho.xpt Example 2 Row 6: ABC HO ABC123101 6 'OUTPATIENT PHYSICAL THERAPY' [empty HOCAT] 'FOLLOW-UP CARE' 2011-07-12 2011-07-12 [empty HOENRTPT] [empty HOENTPT] — 12 cells outer-pipe match Example 2 ho.xpt header (Row|STUDYID|DOMAIN|USUBJID|HOSEQ|HOTERM|HOCAT|HOSTDTC|HOENDTC|HOENRTPT|HOENTPT); R8 mid-cell empty `| |` literal preserved (HOCAT empty); R11 trailing 2 empties preserved; parent §6.2.5 HO NEW6 full-form.", "fix_recommendation": "none"}
