[
 {
  "id": "q01",
  "category": "single_domain",
  "n": 15,
  "dup_seats": 0,
  "max_cluster": 1,
  "max_cluster_section": "AEDECOD",
  "distinct_sections": 15,
  "max_cluster_section_tied": true,
  "composition": [
   {
    "source": "domains/AE/spec.md",
    "section": "AEDECOD",
    "sim": 0.5896,
    "via_lookup": true
   },
   {
    "source": "domains/AE/spec.md",
    "section": "AETERM",
    "sim": 0.5779,
    "via_lookup": true
   },
   {
    "source": "domains/AE/spec.md",
    "section": "Controlled Terminology",
    "sim": 0.5528,
    "via_lookup": true
   },
   {
    "source": "domains/AE/spec.md",
    "section": "AEREFID",
    "sim": 0.5474,
    "via_lookup": true
   },
   {
    "source": "domains/AE/assumptions.md",
    "section": "item_2",
    "sim": 0.6642,
    "via_lookup": false
   },
   {
    "source": "domains/AE/examples.md",
    "section": "Example 1",
    "sim": 0.5286,
    "via_lookup": false
   },
   {
    "source": "domains/FA/examples.md",
    "section": "Example 6",
    "sim": 0.4937,
    "via_lookup": false
   },
   {
    "source": "domains/DV/assumptions.md",
    "section": "item_1",
    "sim": 8.2477,
    "via_lookup": false
   },
   {
    "source": "domains/AE/assumptions.md",
    "section": "item_9",
    "sim": 0.6105,
    "via_lookup": false
   },
   {
    "source": "chapters/ch02_fundamentals.md",
    "section": "2.1 Observations and Variables",
    "sim": 8.1125,
    "via_lookup": false
   },
   {
    "source": "domains/AE/assumptions.md",
    "section": "item_5",
    "sim": 0.5791,
    "via_lookup": false
   },
   {
    "source": "chapters/ch04_general_assumptions.md",
    "section": "4.5.3 Text Strings that Exceed the Maximum Length for General Observation-class Domain Variables",
    "sim": 7.8902,
    "via_lookup": false
   },
   {
    "source": "chapters/ch04_general_assumptions.md",
    "section": "4.3.6 Storing Topic Variables for General Domain Models",
    "sim": 7.6047,
    "via_lookup": false
   },
   {
    "source": "chapters/ch04_general_assumptions.md",
    "section": "4.2.8 Multiple Values for a Variable",
    "sim": 7.5183,
    "via_lookup": false
   },
   {
    "source": "domains/AE/assumptions.md",
    "section": "item_10",
    "sim": 0.5484,
    "via_lookup": false
   }
  ]
 },
 {
  "id": "q02",
  "category": "single_domain",
  "n": 15,
  "dup_seats": 1,
  "max_cluster": 2,
  "max_cluster_section": "DOMAIN",
  "distinct_sections": 14,
  "max_cluster_section_tied": false,
  "composition": [
   {
    "source": "domains/DM/spec.md",
    "section": "DOMAIN",
    "sim": 0.4813,
    "via_lookup": true
   },
   {
    "source": "domains/DM/spec.md",
    "section": "General References",
    "sim": 0.4255,
    "via_lookup": true
   },
   {
    "source": "domains/DM/spec.md",
    "section": "Model Definition",
    "sim": 0.4052,
    "via_lookup": true
   },
   {
    "source": "domains/DM/spec.md",
    "section": "Controlled Terminology",
    "sim": 0.404,
    "via_lookup": true
   },
   {
    "source": "chapters/ch04_general_assumptions.md",
    "section": "4.1.5 SDTM Core Designations",
    "sim": 0.5671,
    "via_lookup": false
   },
   {
    "source": "chapters/ch04_general_assumptions.md",
    "section": "4.2.2 Two-character Domain Identifier",
    "sim": 0.5056,
    "via_lookup": false
   },
   {
    "source": "domains/DM/assumptions.md",
    "section": "overview",
    "sim": 0.608,
    "via_lookup": false
   },
   {
    "source": "chapters/ch02_fundamentals.md",
    "section": "2.5 The SDTM Standard Domain Models",
    "sim": 0.5022,
    "via_lookup": false
   },
   {
    "source": "chapters/ch03_submitting_data.md",
    "section": "3.2.2 Conformance",
    "sim": 0.4938,
    "via_lookup": false
   },
   {
    "source": "chapters/ch01_introduction.md",
    "section": "1.4 How to Read this Implementation Guide",
    "sim": 0.5014,
    "via_lookup": false
   },
   {
    "source": "model/01_concepts_and_terms.md",
    "section": "2.1 Model Concepts and Terms — Variables",
    "sim": 0.5049,
    "via_lookup": false
   },
   {
    "source": "chapters/ch02_fundamentals.md",
    "section": "2.6 Creating a New Domain",
    "sim": 0.4822,
    "via_lookup": false
   },
   {
    "source": "domains/SV/spec.md",
    "section": "DOMAIN",
    "sim": 0.4818,
    "via_lookup": false
   },
   {
    "source": "VARIABLE_INDEX.md",
    "section": "§一 通用变量: DOMAIN",
    "sim": 0.5396,
    "via_lookup": false
   },
   {
    "source": "domains/RELSUB/examples.md",
    "section": "Example 1",
    "sim": 7.3907,
    "via_lookup": false
   }
  ]
 },
 {
  "id": "q03",
  "category": "single_domain",
  "n": 15,
  "dup_seats": 2,
  "max_cluster": 2,
  "max_cluster_section": "item_2",
  "distinct_sections": 13,
  "max_cluster_section_tied": true,
  "composition": [
   {
    "source": "domains/AE/assumptions.md",
    "section": "item_1",
    "sim": 0.5934,
    "via_lookup": false
   },
   {
    "source": "domains/FA/examples.md",
    "section": "Example 6",
    "sim": 0.5044,
    "via_lookup": false
   },
   {
    "source": "domains/AE/assumptions.md",
    "section": "item_2",
    "sim": 0.5602,
    "via_lookup": false
   },
   {
    "source": "domains/AE/assumptions.md",
    "section": "item_4",
    "sim": 0.5769,
    "via_lookup": false
   },
   {
    "source": "domains/AE/assumptions.md",
    "section": "item_7",
    "sim": 0.5722,
    "via_lookup": false
   },
   {
    "source": "chapters/ch08_relationships.md",
    "section": "8.6.3 Guidelines for Differentiating Between Interventions, Events, Findings, and Findings About Events or Interventions",
    "sim": 0.461,
    "via_lookup": false
   },
   {
    "source": "domains/AE/assumptions.md",
    "section": "item_8",
    "sim": 0.4622,
    "via_lookup": false
   },
   {
    "source": "domains/MH/assumptions.md",
    "section": "item_2",
    "sim": 0.5182,
    "via_lookup": false
   },
   {
    "source": "domains/DS/examples.md",
    "section": "Example 4",
    "sim": 0.4609,
    "via_lookup": false
   },
   {
    "source": "domains/FA/examples.md",
    "section": "Example 4",
    "sim": 0.5056,
    "via_lookup": false
   },
   {
    "source": "domains/RELREC/assumptions.md",
    "section": "overview",
    "sim": 9.2378,
    "via_lookup": false
   },
   {
    "source": "domains/SUPPQUAL/examples.md",
    "section": "Example 1",
    "sim": 8.7532,
    "via_lookup": false
   },
   {
    "source": "domains/CE/assumptions.md",
    "section": "item_3",
    "sim": 0.5373,
    "via_lookup": false
   },
   {
    "source": "domains/FA/assumptions.md",
    "section": "item_6",
    "sim": 7.9347,
    "via_lookup": false
   },
   {
    "source": "VARIABLE_INDEX.md",
    "section": "AE — Adverse Events (Events)",
    "sim": 0.5323,
    "via_lookup": false
   }
  ]
 },
 {
  "id": "q04",
  "category": "single_domain",
  "n": 15,
  "dup_seats": 2,
  "max_cluster": 2,
  "max_cluster_section": "item_1",
  "distinct_sections": 13,
  "max_cluster_section_tied": true,
  "composition": [
   {
    "source": "domains/TV/spec.md",
    "section": "Related Domains",
    "sim": 0.5886,
    "via_lookup": true
   },
   {
    "source": "domains/TV/spec.md",
    "section": "VISIT",
    "sim": 0.4734,
    "via_lookup": true
   },
   {
    "source": "domains/TV/spec.md",
    "section": "TVSTRL",
    "sim": 0.4706,
    "via_lookup": true
   },
   {
    "source": "domains/TV/spec.md",
    "section": "Model Definition",
    "sim": 0.4701,
    "via_lookup": true
   },
   {
    "source": "domains/SV/assumptions.md",
    "section": "item_1",
    "sim": 0.6873,
    "via_lookup": false
   },
   {
    "source": "domains/TV/assumptions.md",
    "section": "overview",
    "sim": 0.6385,
    "via_lookup": false
   },
   {
    "source": "domains/TV/examples.md",
    "section": "Trial Visits Issues",
    "sim": 0.6648,
    "via_lookup": false
   },
   {
    "source": "domains/TV/assumptions.md",
    "section": "item_1",
    "sim": 0.6176,
    "via_lookup": false
   },
   {
    "source": "VARIABLE_INDEX.md",
    "section": "TV — Trial Visits (Trial Design)",
    "sim": 0.7203,
    "via_lookup": false
   },
   {
    "source": "chapters/ch04_general_assumptions.md",
    "section": "4.4.5 Clinical Encounters and Visits",
    "sim": 0.5738,
    "via_lookup": false
   },
   {
    "source": "domains/TV/examples.md",
    "section": "Example 1",
    "sim": 0.5566,
    "via_lookup": false
   },
   {
    "source": "domains/SV/assumptions.md",
    "section": "overview",
    "sim": 0.535,
    "via_lookup": false
   },
   {
    "source": "domains/TA/examples.md",
    "section": "Trial Arms Issues",
    "sim": 0.5252,
    "via_lookup": false
   },
   {
    "source": "model/01_concepts_and_terms.md",
    "section": "2.1 Model Concepts and Terms — Variables",
    "sim": 0.5464,
    "via_lookup": false
   },
   {
    "source": "model/03_special_purpose_domains.md",
    "section": "Subject Visits (SV)",
    "sim": 0.5357,
    "via_lookup": false
   }
  ]
 },
 {
  "id": "q05",
  "category": "single_domain",
  "n": 15,
  "dup_seats": 0,
  "max_cluster": 1,
  "max_cluster_section": "PETESTCD",
  "distinct_sections": 15,
  "max_cluster_section_tied": true,
  "composition": [
   {
    "source": "domains/PE/spec.md",
    "section": "PETESTCD",
    "sim": 0.731,
    "via_lookup": true
   },
   {
    "source": "domains/PE/spec.md",
    "section": "PETEST",
    "sim": 0.7026,
    "via_lookup": true
   },
   {
    "source": "domains/PE/spec.md",
    "section": "PELOC",
    "sim": 0.5645,
    "via_lookup": true
   },
   {
    "source": "domains/PE/spec.md",
    "section": "PEDTC",
    "sim": 0.5643,
    "via_lookup": true
   },
   {
    "source": "VARIABLE_INDEX.md",
    "section": "PE — Physical Examination (Findings)",
    "sim": 0.7191,
    "via_lookup": false
   },
   {
    "source": "domains/PE/assumptions.md",
    "section": "overview",
    "sim": 0.6231,
    "via_lookup": false
   },
   {
    "source": "domains/PE/examples.md",
    "section": "Example 1",
    "sim": 0.6542,
    "via_lookup": false
   },
   {
    "source": "domains/PE/assumptions.md",
    "section": "item_1",
    "sim": 0.5993,
    "via_lookup": false
   },
   {
    "source": "domains/PE/assumptions.md",
    "section": "item_2",
    "sim": 0.6235,
    "via_lookup": false
   },
   {
    "source": "chapters/ch03_submitting_data.md",
    "section": "3.2 Using the CDISC Domain Models in Regulatory Submissions — Dataset Metadata",
    "sim": 0.5379,
    "via_lookup": false
   },
   {
    "source": "chapters/ch04_general_assumptions.md",
    "section": "4.5.1 Original and Standardized Results",
    "sim": 0.5428,
    "via_lookup": false
   },
   {
    "source": "chapters/ch08_relationships.md",
    "section": "8.6.3 Guidelines for Differentiating Between Interventions, Events, Findings, and Findings About Events or Interventions",
    "sim": 17.1579,
    "via_lookup": false
   },
   {
    "source": "domains/OE/examples.md",
    "section": "Example 3",
    "sim": 0.5645,
    "via_lookup": false
   },
   {
    "source": "terminology/supplementary/supplementary_part4.md",
    "section": "Mini-Mental State Examination Functional Test Test Name",
    "sim": 15.1471,
    "via_lookup": false
   },
   {
    "source": "domains/RE/examples.md",
    "section": "Example 2",
    "sim": 0.557,
    "via_lookup": false
   }
  ]
 },
 {
  "id": "q21",
  "category": "single_domain",
  "n": 15,
  "dup_seats": 0,
  "max_cluster": 1,
  "max_cluster_section": "LBTESTCD",
  "distinct_sections": 15,
  "max_cluster_section_tied": true,
  "composition": [
   {
    "source": "domains/LB/spec.md",
    "section": "LBTESTCD",
    "sim": 0.7836,
    "via_lookup": true
   },
   {
    "source": "terminology/core/lb_part2.md",
    "section": "lb_part2",
    "sim": 0.5222,
    "via_lookup": true
   },
   {
    "source": "VARIABLE_INDEX.md",
    "section": "§三 CT 交叉引用: C65047",
    "sim": 0.7479,
    "via_lookup": false
   },
   {
    "source": "domains/LB/spec.md",
    "section": "Controlled Terminology",
    "sim": 0.7109,
    "via_lookup": false
   },
   {
    "source": "domains/LB/assumptions.md",
    "section": "item_8",
    "sim": 0.7497,
    "via_lookup": false
   },
   {
    "source": "domains/LB/examples.md",
    "section": "Example 1",
    "sim": 0.6638,
    "via_lookup": false
   },
   {
    "source": "VARIABLE_INDEX.md",
    "section": "§三 CT 交叉引用: C67154",
    "sim": 0.7178,
    "via_lookup": false
   },
   {
    "source": "VARIABLE_INDEX.md",
    "section": "§三 CT 交叉引用: C102580",
    "sim": 0.6561,
    "via_lookup": false
   },
   {
    "source": "VARIABLE_INDEX.md",
    "section": "§三 CT 交叉引用: C179589",
    "sim": 0.6367,
    "via_lookup": false
   },
   {
    "source": "domains/LB/spec.md",
    "section": "LBTEST",
    "sim": 0.7576,
    "via_lookup": false
   },
   {
    "source": "domains/RS/assumptions.md",
    "section": "item_4",
    "sim": 10.5505,
    "via_lookup": false
   },
   {
    "source": "chapters/ch04_general_assumptions.md",
    "section": "4.5.1 Original and Standardized Results",
    "sim": 9.8589,
    "via_lookup": false
   },
   {
    "source": "domains/IS/assumptions.md",
    "section": "item_6",
    "sim": 9.6006,
    "via_lookup": false
   },
   {
    "source": "domains/LB/spec.md",
    "section": "LBSCAT",
    "sim": 0.7057,
    "via_lookup": false
   },
   {
    "source": "domains/CP/assumptions.md",
    "section": "overview",
    "sim": 9.5478,
    "via_lookup": false
   }
  ]
 },
 {
  "id": "q22",
  "category": "single_domain",
  "n": 15,
  "dup_seats": 0,
  "max_cluster": 1,
  "max_cluster_section": "Controlled Terminology",
  "distinct_sections": 15,
  "max_cluster_section_tied": true,
  "composition": [
   {
    "source": "domains/VS/spec.md",
    "section": "Controlled Terminology",
    "sim": 0.7384,
    "via_lookup": true
   },
   {
    "source": "terminology/core/vs.md",
    "section": "Units for Vital Signs Results",
    "sim": 0.5886,
    "via_lookup": true
   },
   {
    "source": "domains/VS/spec.md",
    "section": "VSTESTCD",
    "sim": 0.6468,
    "via_lookup": false
   },
   {
    "source": "VARIABLE_INDEX.md",
    "section": "VS — Vital Signs (Findings)",
    "sim": 0.6527,
    "via_lookup": false
   },
   {
    "source": "domains/VS/assumptions.md",
    "section": "item_3",
    "sim": 0.6914,
    "via_lookup": false
   },
   {
    "source": "VARIABLE_INDEX.md",
    "section": "§三 CT 交叉引用: C66741",
    "sim": 0.5933,
    "via_lookup": false
   },
   {
    "source": "domains/VS/assumptions.md",
    "section": "item_2",
    "sim": 0.6163,
    "via_lookup": false
   },
   {
    "source": "domains/VS/spec.md",
    "section": "VSTEST",
    "sim": 0.67,
    "via_lookup": false
   },
   {
    "source": "domains/VS/spec.md",
    "section": "VSLOC",
    "sim": 0.5833,
    "via_lookup": false
   },
   {
    "source": "domains/VS/spec.md",
    "section": "VSDY",
    "sim": 0.5774,
    "via_lookup": false
   },
   {
    "source": "domains/VS/spec.md",
    "section": "VSPOS",
    "sim": 0.5438,
    "via_lookup": false
   },
   {
    "source": "chapters/ch02_fundamentals.md",
    "section": "2.3 The General Observation Classes",
    "sim": 13.5042,
    "via_lookup": false
   },
   {
    "source": "domains/RELREC/assumptions.md",
    "section": "overview",
    "sim": 10.489,
    "via_lookup": false
   },
   {
    "source": "chapters/ch04_general_assumptions.md",
    "section": "4.5.5 Clinical Significance for Findings Observation Class Data",
    "sim": 9.8871,
    "via_lookup": false
   },
   {
    "source": "domains/VS/spec.md",
    "section": "VSSTAT",
    "sim": 0.6155,
    "via_lookup": false
   }
  ]
 },
 {
  "id": "q23",
  "category": "single_domain",
  "n": 15,
  "dup_seats": 0,
  "max_cluster": 1,
  "max_cluster_section": "CMTRT",
  "distinct_sections": 15,
  "max_cluster_section_tied": true,
  "composition": [
   {
    "source": "domains/CM/spec.md",
    "section": "CMTRT",
    "sim": 0.6741,
    "via_lookup": true
   },
   {
    "source": "domains/CM/spec.md",
    "section": "CMCLAS",
    "sim": 0.6041,
    "via_lookup": true
   },
   {
    "source": "domains/CM/spec.md",
    "section": "CMCLASCD",
    "sim": 0.5928,
    "via_lookup": true
   },
   {
    "source": "domains/CM/spec.md",
    "section": "CMCAT",
    "sim": 0.5843,
    "via_lookup": true
   },
   {
    "source": "domains/CM/assumptions.md",
    "section": "item_2",
    "sim": 0.6597,
    "via_lookup": false
   },
   {
    "source": "domains/CM/assumptions.md",
    "section": "overview",
    "sim": 0.6279,
    "via_lookup": false
   },
   {
    "source": "VARIABLE_INDEX.md",
    "section": "CM — Concomitant/Prior Medications (Interventions)",
    "sim": 0.6347,
    "via_lookup": false
   },
   {
    "source": "chapters/ch02_fundamentals.md",
    "section": "2.3 The General Observation Classes",
    "sim": 0.5298,
    "via_lookup": false
   },
   {
    "source": "domains/CM/assumptions.md",
    "section": "item_5",
    "sim": 0.573,
    "via_lookup": false
   },
   {
    "source": "domains/CM/assumptions.md",
    "section": "item_3",
    "sim": 0.5629,
    "via_lookup": false
   },
   {
    "source": "chapters/ch08_relationships.md",
    "section": "8.2.2 RELREC Dataset Examples",
    "sim": 15.7677,
    "via_lookup": false
   },
   {
    "source": "chapters/ch08_relationships.md",
    "section": "8.1.1 --GRPID Example",
    "sim": 15.5922,
    "via_lookup": false
   },
   {
    "source": "domains/CM/examples.md",
    "section": "Example 3",
    "sim": 15.2634,
    "via_lookup": false
   },
   {
    "source": "domains/FA/spec.md",
    "section": "Related Domains",
    "sim": 14.5856,
    "via_lookup": false
   },
   {
    "source": "domains/CM/spec.md",
    "section": "CMRSDISC",
    "sim": 0.5777,
    "via_lookup": false
   }
  ]
 },
 {
  "id": "q24",
  "category": "single_domain",
  "n": 15,
  "dup_seats": 3,
  "max_cluster": 2,
  "max_cluster_section": "Related Domains",
  "distinct_sections": 12,
  "max_cluster_section_tied": true,
  "composition": [
   {
    "source": "domains/EX/spec.md",
    "section": "EXDOSTXT",
    "sim": 0.5484,
    "via_lookup": true
   },
   {
    "source": "domains/EX/spec.md",
    "section": "EXELTM",
    "sim": 0.5451,
    "via_lookup": true
   },
   {
    "source": "domains/EX/spec.md",
    "section": "Related Domains",
    "sim": 0.5408,
    "via_lookup": true
   },
   {
    "source": "domains/EX/spec.md",
    "section": "EXCAT",
    "sim": 0.5365,
    "via_lookup": true
   },
   {
    "source": "domains/EX/assumptions.md",
    "section": "item_2",
    "sim": 0.6559,
    "via_lookup": false
   },
   {
    "source": "domains/EX/assumptions.md",
    "section": "item_1",
    "sim": 0.6116,
    "via_lookup": false
   },
   {
    "source": "domains/EX/assumptions.md",
    "section": "item_5",
    "sim": 0.6203,
    "via_lookup": false
   },
   {
    "source": "domains/EX/assumptions.md",
    "section": "item_4",
    "sim": 0.5522,
    "via_lookup": false
   },
   {
    "source": "VARIABLE_INDEX.md",
    "section": "EX — Exposure (Interventions)",
    "sim": 0.6061,
    "via_lookup": false
   },
   {
    "source": "domains/EC/assumptions.md",
    "section": "item_1",
    "sim": 0.5287,
    "via_lookup": false
   },
   {
    "source": "domains/EC/spec.md",
    "section": "Related Domains",
    "sim": 0.5973,
    "via_lookup": false
   },
   {
    "source": "domains/EX/assumptions.md",
    "section": "item_6",
    "sim": 0.5755,
    "via_lookup": false
   },
   {
    "source": "chapters/ch04_general_assumptions.md",
    "section": "4.3.6 Storing Topic Variables for General Domain Models",
    "sim": 0.5515,
    "via_lookup": false
   },
   {
    "source": "domains/EX/examples.md",
    "section": "Example 2",
    "sim": 0.5277,
    "via_lookup": false
   },
   {
    "source": "domains/SR/examples.md",
    "section": "Example 2",
    "sim": 0.5076,
    "via_lookup": false
   }
  ]
 },
 {
  "id": "q25",
  "category": "single_domain",
  "n": 15,
  "dup_seats": 1,
  "max_cluster": 2,
  "max_cluster_section": "Example 3",
  "distinct_sections": 14,
  "max_cluster_section_tied": false,
  "composition": [
   {
    "source": "domains/MH/spec.md",
    "section": "MHTERM",
    "sim": 0.6764,
    "via_lookup": true
   },
   {
    "source": "domains/MH/spec.md",
    "section": "Controlled Terminology",
    "sim": 0.6117,
    "via_lookup": true
   },
   {
    "source": "domains/MH/spec.md",
    "section": "MHOCCUR",
    "sim": 0.5934,
    "via_lookup": true
   },
   {
    "source": "domains/MH/spec.md",
    "section": "MHSCAT",
    "sim": 0.5859,
    "via_lookup": true
   },
   {
    "source": "domains/MH/assumptions.md",
    "section": "overview",
    "sim": 0.7367,
    "via_lookup": false
   },
   {
    "source": "VARIABLE_INDEX.md",
    "section": "MH — Medical History (Events)",
    "sim": 0.7079,
    "via_lookup": false
   },
   {
    "source": "domains/MH/assumptions.md",
    "section": "item_4",
    "sim": 0.6768,
    "via_lookup": false
   },
   {
    "source": "domains/MH/examples.md",
    "section": "Example 2",
    "sim": 0.6213,
    "via_lookup": false
   },
   {
    "source": "domains/MH/examples.md",
    "section": "Example 1",
    "sim": 0.6059,
    "via_lookup": false
   },
   {
    "source": "domains/MH/assumptions.md",
    "section": "item_3",
    "sim": 0.6448,
    "via_lookup": false
   },
   {
    "source": "domains/FA/examples.md",
    "section": "Example 3",
    "sim": 0.593,
    "via_lookup": false
   },
   {
    "source": "domains/MH/examples.md",
    "section": "Example 3",
    "sim": 0.6056,
    "via_lookup": false
   },
   {
    "source": "domains/MH/assumptions.md",
    "section": "item_2",
    "sim": 0.6714,
    "via_lookup": false
   },
   {
    "source": "domains/MH/examples.md",
    "section": "Example 5",
    "sim": 0.5564,
    "via_lookup": false
   },
   {
    "source": "domains/MH/spec.md",
    "section": "MHREASND",
    "sim": 0.5732,
    "via_lookup": false
   }
  ]
 },
 {
  "id": "q26",
  "category": "single_domain",
  "n": 15,
  "dup_seats": 1,
  "max_cluster": 2,
  "max_cluster_section": "Example 2",
  "distinct_sections": 14,
  "max_cluster_section_tied": false,
  "composition": [
   {
    "source": "domains/EG/spec.md",
    "section": "Controlled Terminology",
    "sim": 0.7263,
    "via_lookup": true
   },
   {
    "source": "terminology/core/eg_part3.md",
    "section": "Holter ECG Test Code",
    "sim": 0.6321,
    "via_lookup": true
   },
   {
    "source": "terminology/core/eg_part2.md",
    "section": "ECG Test Method",
    "sim": 0.5161,
    "via_lookup": true
   },
   {
    "source": "domains/EG/spec.md",
    "section": "EGTESTCD",
    "sim": 0.7253,
    "via_lookup": false
   },
   {
    "source": "VARIABLE_INDEX.md",
    "section": "§三 CT 交叉引用: C120523",
    "sim": 0.6745,
    "via_lookup": false
   },
   {
    "source": "VARIABLE_INDEX.md",
    "section": "§三 CT 交叉引用: C71153",
    "sim": 0.6789,
    "via_lookup": false
   },
   {
    "source": "VARIABLE_INDEX.md",
    "section": "EG — ECG Test Results (Findings)",
    "sim": 0.6977,
    "via_lookup": false
   },
   {
    "source": "domains/EG/examples.md",
    "section": "Example 2",
    "sim": 0.6064,
    "via_lookup": false
   },
   {
    "source": "domains/EG/examples.md",
    "section": "Example 1",
    "sim": 0.6102,
    "via_lookup": false
   },
   {
    "source": "domains/EG/assumptions.md",
    "section": "item_10",
    "sim": 0.6243,
    "via_lookup": false
   },
   {
    "source": "VARIABLE_INDEX.md",
    "section": "§三 CT 交叉引用: C120524",
    "sim": 0.6556,
    "via_lookup": false
   },
   {
    "source": "VARIABLE_INDEX.md",
    "section": "§三 CT 交叉引用: C71152",
    "sim": 0.6488,
    "via_lookup": false
   },
   {
    "source": "VARIABLE_INDEX.md",
    "section": "§三 CT 交叉引用: C120522",
    "sim": 0.5933,
    "via_lookup": false
   },
   {
    "source": "domains/PR/examples.md",
    "section": "Example 2",
    "sim": 12.5078,
    "via_lookup": false
   },
   {
    "source": "domains/EG/spec.md",
    "section": "EGTEST",
    "sim": 0.7226,
    "via_lookup": false
   }
  ]
 },
 {
  "id": "q27",
  "category": "single_domain",
  "n": 15,
  "dup_seats": 1,
  "max_cluster": 2,
  "max_cluster_section": "IETEST",
  "distinct_sections": 14,
  "max_cluster_section_tied": false,
  "composition": [
   {
    "source": "domains/IE/spec.md",
    "section": "IETEST",
    "sim": 0.6769,
    "via_lookup": true
   },
   {
    "source": "domains/IE/spec.md",
    "section": "IETESTCD",
    "sim": 0.6069,
    "via_lookup": true
   },
   {
    "source": "domains/IE/spec.md",
    "section": "IEORRES",
    "sim": 0.5334,
    "via_lookup": true
   },
   {
    "source": "domains/IE/spec.md",
    "section": "IESTRESC",
    "sim": 0.5254,
    "via_lookup": true
   },
   {
    "source": "domains/TI/spec.md",
    "section": "IETEST",
    "sim": 0.716,
    "via_lookup": false
   },
   {
    "source": "VARIABLE_INDEX.md",
    "section": "§一 通用变量: IETEST",
    "sim": 0.7093,
    "via_lookup": false
   },
   {
    "source": "domains/TI/assumptions.md",
    "section": "item_4",
    "sim": 0.6677,
    "via_lookup": false
   },
   {
    "source": "domains/IE/assumptions.md",
    "section": "item_1",
    "sim": 0.6364,
    "via_lookup": false
   },
   {
    "source": "VARIABLE_INDEX.md",
    "section": "§一 通用变量: IETESTCD",
    "sim": 0.6908,
    "via_lookup": false
   },
   {
    "source": "domains/IE/assumptions.md",
    "section": "item_3",
    "sim": 0.6552,
    "via_lookup": false
   },
   {
    "source": "VARIABLE_INDEX.md",
    "section": "§一 通用变量: IECAT",
    "sim": 0.6413,
    "via_lookup": false
   },
   {
    "source": "terminology/core/general_part2.md",
    "section": "Category of Inclusion/Exclusion",
    "sim": 0.591,
    "via_lookup": false
   },
   {
    "source": "VARIABLE_INDEX.md",
    "section": "IE — Inclusion/Exclusion Criteria Not Met (Findings)",
    "sim": 0.6327,
    "via_lookup": false
   },
   {
    "source": "domains/DV/assumptions.md",
    "section": "item_2",
    "sim": 0.5259,
    "via_lookup": false
   },
   {
    "source": "VARIABLE_INDEX.md",
    "section": "§一 通用变量: IESCAT",
    "sim": 0.5613,
    "via_lookup": false
   }
  ]
 },
 {
  "id": "q06",
  "category": "cross_domain",
  "n": 15,
  "dup_seats": 0,
  "max_cluster": 1,
  "max_cluster_section": "QVAL",
  "distinct_sections": 15,
  "max_cluster_section_tied": true,
  "composition": [
   {
    "source": "domains/SUPPQUAL/spec.md",
    "section": "QVAL",
    "sim": 0.5533,
    "via_lookup": true
   },
   {
    "source": "domains/SUPPQUAL/spec.md",
    "section": "QNAM",
    "sim": 0.4872,
    "via_lookup": true
   },
   {
    "source": "domains/SUPPQUAL/spec.md",
    "section": "QEVAL",
    "sim": 0.4705,
    "via_lookup": true
   },
   {
    "source": "domains/SUPPQUAL/spec.md",
    "section": "Controlled Terminology",
    "sim": 0.4563,
    "via_lookup": true
   },
   {
    "source": "domains/SUPPQUAL/assumptions.md",
    "section": "overview",
    "sim": 0.741,
    "via_lookup": false
   },
   {
    "source": "chapters/ch08_relationships.md",
    "section": "8.4.2 Submitting Supplemental Qualifiers in Separate Datasets",
    "sim": 0.7305,
    "via_lookup": false
   },
   {
    "source": "chapters/ch08_relationships.md",
    "section": "8.3.1 RELREC Dataset Relationship Example",
    "sim": 0.6571,
    "via_lookup": false
   },
   {
    "source": "chapters/ch08_relationships.md",
    "section": "8.4.4 When Not to Use Supplemental Qualifiers",
    "sim": 0.5621,
    "via_lookup": false
   },
   {
    "source": "VARIABLE_INDEX.md",
    "section": "SUPPQUAL — Supplemental Qualifiers for [domain name] (Relationship)",
    "sim": 0.7332,
    "via_lookup": false
   },
   {
    "source": "model/06_relationship_datasets.md",
    "section": "6.2 Supplemental Qualifiers (SUPP--)",
    "sim": 0.7295,
    "via_lookup": false
   },
   {
    "source": "chapters/ch04_general_assumptions.md",
    "section": "4.5.3 Text Strings that Exceed the Maximum Length for General Observation-class Domain Variables",
    "sim": 0.535,
    "via_lookup": false
   },
   {
    "source": "chapters/ch08_relationships.md",
    "section": "8.4.1 Supplemental Qualifiers (SUPP--)",
    "sim": 0.7412,
    "via_lookup": false
   },
   {
    "source": "chapters/ch08_relationships.md",
    "section": "Key Rules",
    "sim": 0.6733,
    "via_lookup": false
   },
   {
    "source": "chapters/ch04_general_assumptions.md",
    "section": "4.5.4 Evaluators in the Interventions and Events Observation Classes",
    "sim": 0.5831,
    "via_lookup": false
   },
   {
    "source": "domains/EX/assumptions.md",
    "section": "item_6",
    "sim": 0.5047,
    "via_lookup": false
   }
  ]
 },
 {
  "id": "q07",
  "category": "cross_domain",
  "n": 15,
  "dup_seats": 4,
  "max_cluster": 5,
  "max_cluster_section": "EPOCH",
  "distinct_sections": 11,
  "max_cluster_section_tied": false,
  "composition": [
   {
    "source": "VARIABLE_INDEX.md",
    "section": "§一 通用变量: EPOCH",
    "sim": 0.7585,
    "via_lookup": true
   },
   {
    "source": "chapters/ch04_general_assumptions.md",
    "section": "4.1.3 Additional Timing Variables",
    "sim": 0.7,
    "via_lookup": false
   },
   {
    "source": "model/01_concepts_and_terms.md",
    "section": "2.1 Model Concepts and Terms — Variables",
    "sim": 11.1172,
    "via_lookup": false
   },
   {
    "source": "chapters/ch02_fundamentals.md",
    "section": "2.2 Datasets and Domains",
    "sim": 10.2774,
    "via_lookup": false
   },
   {
    "source": "domains/SR/spec.md",
    "section": "EPOCH",
    "sim": 0.6839,
    "via_lookup": false
   },
   {
    "source": "chapters/ch02_fundamentals.md",
    "section": "2.5 The SDTM Standard Domain Models",
    "sim": 10.2286,
    "via_lookup": false
   },
   {
    "source": "domains/TA/assumptions.md",
    "section": "item_12",
    "sim": 0.6823,
    "via_lookup": false
   },
   {
    "source": "domains/CO/assumptions.md",
    "section": "overview",
    "sim": 10.2008,
    "via_lookup": false
   },
   {
    "source": "domains/CP/spec.md",
    "section": "EPOCH",
    "sim": 0.6779,
    "via_lookup": false
   },
   {
    "source": "chapters/ch04_general_assumptions.md",
    "section": "4.5.9 Baseline Values",
    "sim": 9.6164,
    "via_lookup": false
   },
   {
    "source": "domains/FA/spec.md",
    "section": "EPOCH",
    "sim": 0.6774,
    "via_lookup": false
   },
   {
    "source": "chapters/ch01_introduction.md",
    "section": "1.2 Organization of this Document",
    "sim": 8.8022,
    "via_lookup": false
   },
   {
    "source": "domains/PP/spec.md",
    "section": "EPOCH",
    "sim": 0.676,
    "via_lookup": false
   },
   {
    "source": "domains/SV/assumptions.md",
    "section": "item_15",
    "sim": 8.4044,
    "via_lookup": false
   },
   {
    "source": "domains/PC/spec.md",
    "section": "EPOCH",
    "sim": 0.6746,
    "via_lookup": false
   }
  ]
 },
 {
  "id": "q08",
  "category": "cross_domain",
  "n": 15,
  "dup_seats": 6,
  "max_cluster": 7,
  "max_cluster_section": "USUBJID",
  "distinct_sections": 9,
  "max_cluster_section_tied": false,
  "composition": [
   {
    "source": "VARIABLE_INDEX.md",
    "section": "§一 通用变量: USUBJID",
    "sim": 0.7061,
    "via_lookup": true
   },
   {
    "source": "domains/SUPPQUAL/spec.md",
    "section": "USUBJID",
    "sim": 0.7075,
    "via_lookup": false
   },
   {
    "source": "chapters/ch04_general_assumptions.md",
    "section": "4.5.9 Baseline Values",
    "sim": 10.1009,
    "via_lookup": false
   },
   {
    "source": "model/04_associated_persons.md",
    "section": "Overview",
    "sim": 9.2504,
    "via_lookup": false
   },
   {
    "source": "domains/DM/spec.md",
    "section": "USUBJID",
    "sim": 0.6923,
    "via_lookup": false
   },
   {
    "source": "domains/TR/assumptions.md",
    "section": "item_1",
    "sim": 9.1455,
    "via_lookup": false
   },
   {
    "source": "domains/PP/spec.md",
    "section": "USUBJID",
    "sim": 0.6855,
    "via_lookup": false
   },
   {
    "source": "chapters/ch02_fundamentals.md",
    "section": "2.6 Creating a New Domain",
    "sim": 9.1455,
    "via_lookup": false
   },
   {
    "source": "domains/RELSPEC/spec.md",
    "section": "USUBJID",
    "sim": 0.6845,
    "via_lookup": false
   },
   {
    "source": "domains/TR/assumptions.md",
    "section": "item_2",
    "sim": 9.0949,
    "via_lookup": false
   },
   {
    "source": "domains/RELSUB/spec.md",
    "section": "USUBJID",
    "sim": 0.6825,
    "via_lookup": false
   },
   {
    "source": "domains/RELREC/examples.md",
    "section": "Dataset Relationship Example",
    "sim": 8.4036,
    "via_lookup": false
   },
   {
    "source": "domains/CO/spec.md",
    "section": "USUBJID",
    "sim": 0.6815,
    "via_lookup": false
   },
   {
    "source": "chapters/ch08_relationships.md",
    "section": "8.3.1 RELREC Dataset Relationship Example",
    "sim": 8.3796,
    "via_lookup": false
   },
   {
    "source": "domains/CV/spec.md",
    "section": "USUBJID",
    "sim": 0.6788,
    "via_lookup": false
   }
  ]
 },
 {
  "id": "q09",
  "category": "cross_domain",
  "n": 15,
  "dup_seats": 2,
  "max_cluster": 2,
  "max_cluster_section": "Related Domains",
  "distinct_sections": 13,
  "max_cluster_section_tied": true,
  "composition": [
   {
    "source": "domains/RELREC/spec.md",
    "section": "RELID",
    "sim": 0.4613,
    "via_lookup": true
   },
   {
    "source": "domains/CM/spec.md",
    "section": "Related Domains",
    "sim": 0.5328,
    "via_lookup": true
   },
   {
    "source": "domains/AE/spec.md",
    "section": "AECONTRT",
    "sim": 0.5188,
    "via_lookup": true
   },
   {
    "source": "chapters/ch08_relationships.md",
    "section": "8.1.1 --GRPID Example",
    "sim": 0.6174,
    "via_lookup": false
   },
   {
    "source": "domains/RELREC/examples.md",
    "section": "Peer Record Examples",
    "sim": 0.583,
    "via_lookup": false
   },
   {
    "source": "domains/RELREC/assumptions.md",
    "section": "overview",
    "sim": 0.5376,
    "via_lookup": false
   },
   {
    "source": "chapters/ch08_relationships.md",
    "section": "8.2.2 RELREC Dataset Examples",
    "sim": 0.5828,
    "via_lookup": false
   },
   {
    "source": "domains/CM/assumptions.md",
    "section": "item_3",
    "sim": 0.5367,
    "via_lookup": false
   },
   {
    "source": "domains/AE/assumptions.md",
    "section": "item_6",
    "sim": 0.5092,
    "via_lookup": false
   },
   {
    "source": "domains/RS/assumptions.md",
    "section": "item_6",
    "sim": 0.4998,
    "via_lookup": false
   },
   {
    "source": "chapters/ch08_relationships.md",
    "section": "8.6.3 Guidelines for Differentiating Between Interventions, Events, Findings, and Findings About Events or Interventions",
    "sim": 0.5078,
    "via_lookup": false
   },
   {
    "source": "domains/AE/assumptions.md",
    "section": "item_4",
    "sim": 0.5021,
    "via_lookup": false
   },
   {
    "source": "domains/AE/assumptions.md",
    "section": "item_7",
    "sim": 0.5035,
    "via_lookup": false
   },
   {
    "source": "domains/AE/spec.md",
    "section": "Related Domains",
    "sim": 14.4393,
    "via_lookup": false
   },
   {
    "source": "VARIABLE_INDEX.md",
    "section": "AE — Adverse Events (Events)",
    "sim": 0.5278,
    "via_lookup": false
   }
  ]
 },
 {
  "id": "q10",
  "category": "cross_domain",
  "n": 15,
  "dup_seats": 3,
  "max_cluster": 3,
  "max_cluster_section": "item_2",
  "distinct_sections": 12,
  "max_cluster_section_tied": false,
  "composition": [
   {
    "source": "domains/TR/spec.md",
    "section": "Controlled Terminology",
    "sim": 0.6207,
    "via_lookup": true
   },
   {
    "source": "domains/RS/spec.md",
    "section": "Controlled Terminology",
    "sim": 0.6213,
    "via_lookup": true
   },
   {
    "source": "domains/RS/assumptions.md",
    "section": "item_4",
    "sim": 0.7131,
    "via_lookup": false
   },
   {
    "source": "domains/TR/assumptions.md",
    "section": "item_2",
    "sim": 0.7055,
    "via_lookup": false
   },
   {
    "source": "domains/TR/assumptions.md",
    "section": "overview",
    "sim": 0.6927,
    "via_lookup": false
   },
   {
    "source": "domains/RS/assumptions.md",
    "section": "item_5",
    "sim": 0.7032,
    "via_lookup": false
   },
   {
    "source": "domains/RS/assumptions.md",
    "section": "item_2",
    "sim": 0.6699,
    "via_lookup": false
   },
   {
    "source": "domains/TU/assumptions.md",
    "section": "item_6",
    "sim": 0.6487,
    "via_lookup": false
   },
   {
    "source": "domains/TU/assumptions.md",
    "section": "item_2",
    "sim": 0.6228,
    "via_lookup": false
   },
   {
    "source": "domains/RS/examples.md",
    "section": "RS — Examples - Disease Response",
    "sim": 0.6383,
    "via_lookup": false
   },
   {
    "source": "domains/TR/assumptions.md",
    "section": "item_1",
    "sim": 0.6364,
    "via_lookup": false
   },
   {
    "source": "terminology/core/oncology_part2.md",
    "section": "Oncology Response Assessment Test Name",
    "sim": 0.6468,
    "via_lookup": false
   },
   {
    "source": "domains/TU/spec.md",
    "section": "Related Domains",
    "sim": 0.6022,
    "via_lookup": false
   },
   {
    "source": "terminology/core/oncology_part1.md",
    "section": "Oncology Response Assessment Test Code",
    "sim": 0.6259,
    "via_lookup": false
   },
   {
    "source": "domains/TR/assumptions.md",
    "section": "item_3",
    "sim": 0.626,
    "via_lookup": false
   }
  ]
 },
 {
  "id": "q28",
  "category": "cross_domain",
  "n": 15,
  "dup_seats": 3,
  "max_cluster": 4,
  "max_cluster_section": "Related Domains",
  "distinct_sections": 12,
  "max_cluster_section_tied": false,
  "composition": [
   {
    "source": "VARIABLE_INDEX.md",
    "section": "FA — Findings About Events or Interventions (Findings About)",
    "sim": 0.6349,
    "via_lookup": true
   },
   {
    "source": "domains/FA/spec.md",
    "section": "FAOBJ",
    "sim": 0.5916,
    "via_lookup": true
   },
   {
    "source": "domains/AE/spec.md",
    "section": "Related Domains",
    "sim": 0.6387,
    "via_lookup": true
   },
   {
    "source": "domains/CM/spec.md",
    "section": "Related Domains",
    "sim": 0.4692,
    "via_lookup": true
   },
   {
    "source": "domains/FA/assumptions.md",
    "section": "item_6",
    "sim": 0.6934,
    "via_lookup": false
   },
   {
    "source": "chapters/ch02_fundamentals.md",
    "section": "Findings About — Naming Findings About Domains (Reference Material)",
    "sim": 0.6707,
    "via_lookup": false
   },
   {
    "source": "model/02_observation_classes.md",
    "section": "3.1.3 The Findings Observation Class",
    "sim": 0.653,
    "via_lookup": false
   },
   {
    "source": "chapters/ch08_relationships.md",
    "section": "8.6.3 Guidelines for Differentiating Between Interventions, Events, Findings, and Findings About Events or Interventions",
    "sim": 0.6032,
    "via_lookup": false
   },
   {
    "source": "domains/FA/assumptions.md",
    "section": "item_4",
    "sim": 0.6555,
    "via_lookup": false
   },
   {
    "source": "domains/FA/examples.md",
    "section": "Example 4",
    "sim": 0.5775,
    "via_lookup": false
   },
   {
    "source": "domains/FA/examples.md",
    "section": "Example 6",
    "sim": 0.5786,
    "via_lookup": false
   },
   {
    "source": "domains/SR/spec.md",
    "section": "Related Domains",
    "sim": 0.5885,
    "via_lookup": false
   },
   {
    "source": "domains/FA/assumptions.md",
    "section": "item_2",
    "sim": 0.6459,
    "via_lookup": false
   },
   {
    "source": "domains/FA/examples.md",
    "section": "Example 2",
    "sim": 0.5489,
    "via_lookup": false
   },
   {
    "source": "domains/FA/spec.md",
    "section": "Related Domains",
    "sim": 0.5419,
    "via_lookup": false
   }
  ]
 },
 {
  "id": "q29",
  "category": "cross_domain",
  "n": 15,
  "dup_seats": 9,
  "max_cluster": 7,
  "max_cluster_section": "Related Domains",
  "distinct_sections": 6,
  "max_cluster_section_tied": false,
  "composition": [
   {
    "source": "domains/TA/spec.md",
    "section": "Related Domains",
    "sim": 0.7523,
    "via_lookup": true
   },
   {
    "source": "domains/TE/spec.md",
    "section": "Related Domains",
    "sim": 0.7351,
    "via_lookup": true
   },
   {
    "source": "domains/TV/spec.md",
    "section": "Related Domains",
    "sim": 0.7528,
    "via_lookup": true
   },
   {
    "source": "domains/TE/assumptions.md",
    "section": "overview",
    "sim": 0.7357,
    "via_lookup": false
   },
   {
    "source": "domains/TA/assumptions.md",
    "section": "overview",
    "sim": 0.7245,
    "via_lookup": false
   },
   {
    "source": "domains/TM/spec.md",
    "section": "Related Domains",
    "sim": 0.6634,
    "via_lookup": false
   },
   {
    "source": "domains/TS/spec.md",
    "section": "Related Domains",
    "sim": 0.6627,
    "via_lookup": false
   },
   {
    "source": "domains/TD/spec.md",
    "section": "Related Domains",
    "sim": 0.6567,
    "via_lookup": false
   },
   {
    "source": "domains/TE/examples.md",
    "section": "Trial Elements Issues",
    "sim": 0.665,
    "via_lookup": false
   },
   {
    "source": "domains/TI/assumptions.md",
    "section": "overview",
    "sim": 0.657,
    "via_lookup": false
   },
   {
    "source": "domains/TA/examples.md",
    "section": "Example 1",
    "sim": 0.6411,
    "via_lookup": false
   },
   {
    "source": "domains/TA/examples.md",
    "section": "Trial Arms Issues",
    "sim": 0.6217,
    "via_lookup": false
   },
   {
    "source": "model/05_study_level_data.md",
    "section": "5.1 Trial Design Model",
    "sim": 0.6236,
    "via_lookup": false
   },
   {
    "source": "domains/TI/spec.md",
    "section": "Related Domains",
    "sim": 0.65,
    "via_lookup": false
   },
   {
    "source": "domains/TV/examples.md",
    "section": "Example 1",
    "sim": 0.6161,
    "via_lookup": false
   }
  ]
 },
 {
  "id": "q30",
  "category": "cross_domain",
  "n": 15,
  "dup_seats": 3,
  "max_cluster": 3,
  "max_cluster_section": "overview",
  "distinct_sections": 12,
  "max_cluster_section_tied": false,
  "composition": [
   {
    "source": "VARIABLE_INDEX.md",
    "section": "§一 通用变量: RDOMAIN",
    "sim": 0.6784,
    "via_lookup": true
   },
   {
    "source": "VARIABLE_INDEX.md",
    "section": "§一 通用变量: IDVAR",
    "sim": 0.5735,
    "via_lookup": true
   },
   {
    "source": "domains/CO/spec.md",
    "section": "Controlled Terminology",
    "sim": 0.6505,
    "via_lookup": true
   },
   {
    "source": "domains/CO/assumptions.md",
    "section": "item_3",
    "sim": 0.7155,
    "via_lookup": false
   },
   {
    "source": "chapters/ch08_relationships.md",
    "section": "8.4.4 When Not to Use Supplemental Qualifiers",
    "sim": 0.6729,
    "via_lookup": false
   },
   {
    "source": "domains/CO/assumptions.md",
    "section": "overview",
    "sim": 0.6876,
    "via_lookup": false
   },
   {
    "source": "model/03_special_purpose_domains.md",
    "section": "Comments (CO)",
    "sim": 0.682,
    "via_lookup": false
   },
   {
    "source": "model/01_concepts_and_terms.md",
    "section": "2.1 Model Concepts and Terms — Variables",
    "sim": 0.6219,
    "via_lookup": false
   },
   {
    "source": "domains/CO/examples.md",
    "section": "Example 1",
    "sim": 0.5672,
    "via_lookup": false
   },
   {
    "source": "domains/CO/assumptions.md",
    "section": "item_4",
    "sim": 0.655,
    "via_lookup": false
   },
   {
    "source": "domains/CO/assumptions.md",
    "section": "item_1",
    "sim": 0.637,
    "via_lookup": false
   },
   {
    "source": "domains/RELREC/assumptions.md",
    "section": "overview",
    "sim": 15.1092,
    "via_lookup": false
   },
   {
    "source": "chapters/ch01_introduction.md",
    "section": "1.2 Organization of this Document",
    "sim": 14.0225,
    "via_lookup": false
   },
   {
    "source": "domains/SUPPQUAL/assumptions.md",
    "section": "overview",
    "sim": 13.984,
    "via_lookup": false
   },
   {
    "source": "domains/RELREC/spec.md",
    "section": "Controlled Terminology",
    "sim": 0.6421,
    "via_lookup": false
   }
  ]
 },
 {
  "id": "q31",
  "category": "cross_domain",
  "n": 15,
  "dup_seats": 6,
  "max_cluster": 4,
  "max_cluster_section": "item_1",
  "distinct_sections": 9,
  "max_cluster_section_tied": false,
  "composition": [
   {
    "source": "domains/EC/spec.md",
    "section": "Related Domains",
    "sim": 0.5814,
    "via_lookup": true
   },
   {
    "source": "domains/EX/spec.md",
    "section": "Related Domains",
    "sim": 0.5963,
    "via_lookup": true
   },
   {
    "source": "domains/EX/assumptions.md",
    "section": "item_5",
    "sim": 0.7328,
    "via_lookup": false
   },
   {
    "source": "domains/EC/assumptions.md",
    "section": "item_1",
    "sim": 0.7316,
    "via_lookup": false
   },
   {
    "source": "domains/EX/assumptions.md",
    "section": "item_1",
    "sim": 0.5907,
    "via_lookup": false
   },
   {
    "source": "domains/CM/spec.md",
    "section": "Related Domains",
    "sim": 0.5456,
    "via_lookup": false
   },
   {
    "source": "domains/AG/assumptions.md",
    "section": "item_1",
    "sim": 0.5254,
    "via_lookup": false
   },
   {
    "source": "domains/EC/assumptions.md",
    "section": "item_6",
    "sim": 0.5493,
    "via_lookup": false
   },
   {
    "source": "domains/EX/assumptions.md",
    "section": "item_4",
    "sim": 0.498,
    "via_lookup": false
   },
   {
    "source": "domains/EX/assumptions.md",
    "section": "item_6",
    "sim": 0.5855,
    "via_lookup": false
   },
   {
    "source": "domains/ML/assumptions.md",
    "section": "item_1",
    "sim": 0.4539,
    "via_lookup": false
   },
   {
    "source": "domains/TA/assumptions.md",
    "section": "item_12",
    "sim": 0.449,
    "via_lookup": false
   },
   {
    "source": "domains/EX/examples.md",
    "section": "Example 7",
    "sim": 0.4999,
    "via_lookup": false
   },
   {
    "source": "domains/EX/examples.md",
    "section": "Example 3",
    "sim": 0.4584,
    "via_lookup": false
   },
   {
    "source": "domains/EX/examples.md",
    "section": "Example 4",
    "sim": 0.4491,
    "via_lookup": false
   }
  ]
 },
 {
  "id": "q32",
  "category": "cross_domain",
  "n": 15,
  "dup_seats": 3,
  "max_cluster": 3,
  "max_cluster_section": "VISITNUM",
  "distinct_sections": 12,
  "max_cluster_section_tied": false,
  "composition": [
   {
    "source": "VARIABLE_INDEX.md",
    "section": "§一 通用变量: VISIT",
    "sim": 0.6095,
    "via_lookup": true
   },
   {
    "source": "VARIABLE_INDEX.md",
    "section": "§一 通用变量: VISITNUM",
    "sim": 0.6544,
    "via_lookup": true
   },
   {
    "source": "domains/SV/spec.md",
    "section": "VISITNUM",
    "sim": 0.6544,
    "via_lookup": true
   },
   {
    "source": "model/03_special_purpose_domains.md",
    "section": "Subject Visits (SV)",
    "sim": 0.7047,
    "via_lookup": false
   },
   {
    "source": "chapters/ch04_general_assumptions.md",
    "section": "4.4.5 Clinical Encounters and Visits",
    "sim": 0.6664,
    "via_lookup": false
   },
   {
    "source": "domains/SV/assumptions.md",
    "section": "overview",
    "sim": 0.6646,
    "via_lookup": false
   },
   {
    "source": "domains/TV/assumptions.md",
    "section": "item_6",
    "sim": 0.7003,
    "via_lookup": false
   },
   {
    "source": "VARIABLE_INDEX.md",
    "section": "SV — Subject Visits (Special-Purpose)",
    "sim": 0.6871,
    "via_lookup": false
   },
   {
    "source": "domains/SV/assumptions.md",
    "section": "item_6",
    "sim": 17.1913,
    "via_lookup": false
   },
   {
    "source": "domains/FA/spec.md",
    "section": "VISITNUM",
    "sim": 0.6682,
    "via_lookup": false
   },
   {
    "source": "chapters/ch08_relationships.md",
    "section": "8.6.3 Guidelines for Differentiating Between Interventions, Events, Findings, and Findings About Events or Interventions",
    "sim": 16.9637,
    "via_lookup": false
   },
   {
    "source": "domains/AG/spec.md",
    "section": "VISITNUM",
    "sim": 0.6666,
    "via_lookup": false
   },
   {
    "source": "chapters/ch03_submitting_data.md",
    "section": "3.2 Using the CDISC Domain Models in Regulatory Submissions — Dataset Metadata",
    "sim": 15.7505,
    "via_lookup": false
   },
   {
    "source": "domains/TV/examples.md",
    "section": "Trial Visits Issues",
    "sim": 15.3293,
    "via_lookup": false
   },
   {
    "source": "domains/AG/spec.md",
    "section": "VISIT",
    "sim": 0.6639,
    "via_lookup": false
   }
  ]
 },
 {
  "id": "q33",
  "category": "cross_domain",
  "n": 15,
  "dup_seats": 1,
  "max_cluster": 2,
  "max_cluster_section": "Assumptions",
  "distinct_sections": 14,
  "max_cluster_section_tied": false,
  "composition": [
   {
    "source": "domains/RELSPEC/spec.md",
    "section": "Related Domains",
    "sim": 0.5814,
    "via_lookup": true
   },
   {
    "source": "domains/RELREC/spec.md",
    "section": "RELID",
    "sim": 0.6534,
    "via_lookup": true
   },
   {
    "source": "domains/RELREC/assumptions.md",
    "section": "overview",
    "sim": 0.7707,
    "via_lookup": false
   },
   {
    "source": "chapters/ch08_relationships.md",
    "section": "8.2.1 Related Records (RELREC)",
    "sim": 0.7621,
    "via_lookup": false
   },
   {
    "source": "chapters/ch08_relationships.md",
    "section": "Assumptions",
    "sim": 0.7252,
    "via_lookup": false
   },
   {
    "source": "chapters/ch08_relationships.md",
    "section": "8.2.2 RELREC Dataset Examples",
    "sim": 0.7546,
    "via_lookup": false
   },
   {
    "source": "model/06_relationship_datasets.md",
    "section": "Summary of Relationship Datasets",
    "sim": 0.6774,
    "via_lookup": false
   },
   {
    "source": "domains/RELSPEC/assumptions.md",
    "section": "item_2",
    "sim": 0.7814,
    "via_lookup": false
   },
   {
    "source": "model/06_relationship_datasets.md",
    "section": "6.1 Related Records (RELREC)",
    "sim": 0.7169,
    "via_lookup": false
   },
   {
    "source": "domains/RELSPEC/assumptions.md",
    "section": "item_1",
    "sim": 0.7932,
    "via_lookup": false
   },
   {
    "source": "model/06_relationship_datasets.md",
    "section": "6.7 Related Specimens (RELSPEC)",
    "sim": 0.7104,
    "via_lookup": false
   },
   {
    "source": "chapters/ch08_relationships.md",
    "section": "8.3.1 RELREC Dataset Relationship Example",
    "sim": 0.6384,
    "via_lookup": false
   },
   {
    "source": "chapters/ch08_relationships.md",
    "section": "8.1.1 --GRPID Example",
    "sim": 0.6725,
    "via_lookup": false
   },
   {
    "source": "chapters/ch08_relationships.md",
    "section": "Assumptions",
    "sim": 0.6634,
    "via_lookup": false
   },
   {
    "source": "domains/RELREC/examples.md",
    "section": "Peer Record Examples",
    "sim": 0.6322,
    "via_lookup": false
   }
  ]
 },
 {
  "id": "q34",
  "category": "cross_domain",
  "n": 15,
  "dup_seats": 0,
  "max_cluster": 1,
  "max_cluster_section": "§三 CT 交叉引用: C66742",
  "distinct_sections": 15,
  "max_cluster_section_tied": true,
  "composition": [
   {
    "source": "VARIABLE_INDEX.md",
    "section": "§三 CT 交叉引用: C66742",
    "sim": 0.547,
    "via_lookup": true
   },
   {
    "source": "terminology/core/general_part4.md",
    "section": "No Yes Response",
    "sim": 0.585,
    "via_lookup": true
   },
   {
    "source": "chapters/ch04_general_assumptions.md",
    "section": "4.3.3 Controlled Terminology Values",
    "sim": 0.6157,
    "via_lookup": false
   },
   {
    "source": "chapters/ch04_general_assumptions.md",
    "section": "4.3.1 Controlled Terms, Codelist or Format Column",
    "sim": 0.6352,
    "via_lookup": false
   },
   {
    "source": "chapters/ch01_introduction.md",
    "section": "1.4 How to Read this Implementation Guide",
    "sim": 15.2662,
    "via_lookup": false
   },
   {
    "source": "VARIABLE_INDEX.md",
    "section": "§三 CT 交叉引用: C66734",
    "sim": 0.6213,
    "via_lookup": false
   },
   {
    "source": "chapters/ch04_general_assumptions.md",
    "section": "4.1.6 Additional Guidance on Dataset Naming",
    "sim": 14.2528,
    "via_lookup": false
   },
   {
    "source": "VARIABLE_INDEX.md",
    "section": "§三 CT 交叉引用: C85491",
    "sim": 0.6103,
    "via_lookup": false
   },
   {
    "source": "domains/CO/assumptions.md",
    "section": "overview",
    "sim": 12.8234,
    "via_lookup": false
   },
   {
    "source": "VARIABLE_INDEX.md",
    "section": "§三 CT 交叉引用: C66731",
    "sim": 0.6077,
    "via_lookup": false
   },
   {
    "source": "chapters/ch02_fundamentals.md",
    "section": "2.5 The SDTM Standard Domain Models",
    "sim": 12.5842,
    "via_lookup": false
   },
   {
    "source": "VARIABLE_INDEX.md",
    "section": "§三 CT 交叉引用: C66726",
    "sim": 0.6072,
    "via_lookup": false
   },
   {
    "source": "chapters/ch04_general_assumptions.md",
    "section": "4.5.7 Presence or Absence of Prespecified Interventions and Events",
    "sim": 12.5508,
    "via_lookup": false
   },
   {
    "source": "domains/RELREC/spec.md",
    "section": "Controlled Terminology",
    "sim": 0.6056,
    "via_lookup": false
   },
   {
    "source": "VARIABLE_INDEX.md",
    "section": "§三 CT 交叉引用: C66727",
    "sim": 0.6053,
    "via_lookup": false
   }
  ]
 },
 {
  "id": "q11",
  "category": "concept",
  "n": 15,
  "dup_seats": 0,
  "max_cluster": 1,
  "max_cluster_section": "2.3 The General Observation Classes",
  "distinct_sections": 15,
  "max_cluster_section_tied": true,
  "composition": [
   {
    "source": "chapters/ch02_fundamentals.md",
    "section": "2.3 The General Observation Classes",
    "sim": 0.7222,
    "via_lookup": false
   },
   {
    "source": "chapters/ch02_fundamentals.md",
    "section": "2.4 Datasets Other than General Observation Class Domains",
    "sim": 0.6501,
    "via_lookup": false
   },
   {
    "source": "chapters/ch03_submitting_data.md",
    "section": "3.1 Standard Metadata for Dataset Contents and Attributes",
    "sim": 0.5733,
    "via_lookup": false
   },
   {
    "source": "model/02_observation_classes.md",
    "section": "Overview",
    "sim": 0.7205,
    "via_lookup": false
   },
   {
    "source": "model/01_concepts_and_terms.md",
    "section": "2.1 Model Concepts and Terms — Variables",
    "sim": 0.5632,
    "via_lookup": false
   },
   {
    "source": "chapters/ch02_fundamentals.md",
    "section": "2.5 The SDTM Standard Domain Models",
    "sim": 0.5734,
    "via_lookup": false
   },
   {
    "source": "chapters/ch01_introduction.md",
    "section": "1.2 Organization of this Document",
    "sim": 0.5872,
    "via_lookup": false
   },
   {
    "source": "chapters/ch04_general_assumptions.md",
    "section": "4.1.1 Review Study Data Tabulation Model and Implementation Guide",
    "sim": 0.5353,
    "via_lookup": false
   },
   {
    "source": "chapters/ch04_general_assumptions.md",
    "section": "4.1.4 Order of the Variables",
    "sim": 0.5452,
    "via_lookup": false
   },
   {
    "source": "terminology/supplementary/supplementary_part5.md",
    "section": "SDTM Version Response",
    "sim": 0.5473,
    "via_lookup": false
   },
   {
    "source": "chapters/ch02_fundamentals.md",
    "section": "2.1 Observations and Variables",
    "sim": 0.6139,
    "via_lookup": false
   },
   {
    "source": "terminology/supplementary/supplementary_part5.md",
    "section": "SDTMIG Version Response",
    "sim": 0.5378,
    "via_lookup": false
   },
   {
    "source": "chapters/ch04_general_assumptions.md",
    "section": "4.1.5 SDTM Core Designations",
    "sim": 0.537,
    "via_lookup": false
   },
   {
    "source": "chapters/ch02_fundamentals.md",
    "section": "2.2 Datasets and Domains",
    "sim": 0.5285,
    "via_lookup": false
   },
   {
    "source": "chapters/ch04_general_assumptions.md",
    "section": "4.2.2 Two-character Domain Identifier",
    "sim": 8.6435,
    "via_lookup": false
   }
  ]
 },
 {
  "id": "q12",
  "category": "concept",
  "n": 15,
  "dup_seats": 2,
  "max_cluster": 3,
  "max_cluster_section": "Controlled Terminology",
  "distinct_sections": 13,
  "max_cluster_section_tied": false,
  "composition": [
   {
    "source": "chapters/ch04_general_assumptions.md",
    "section": "4.1.5 SDTM Core Designations",
    "sim": 0.6572,
    "via_lookup": false
   },
   {
    "source": "chapters/ch01_introduction.md",
    "section": "1.4 How to Read this Implementation Guide",
    "sim": 0.5478,
    "via_lookup": false
   },
   {
    "source": "VARIABLE_INDEX.md",
    "section": "SR — Skin Response (Findings About)",
    "sim": 0.5685,
    "via_lookup": false
   },
   {
    "source": "chapters/ch03_submitting_data.md",
    "section": "3.1 Standard Metadata for Dataset Contents and Attributes",
    "sim": 0.533,
    "via_lookup": false
   },
   {
    "source": "domains/SUPPQUAL/spec.md",
    "section": "Controlled Terminology",
    "sim": 0.6055,
    "via_lookup": false
   },
   {
    "source": "domains/CO/spec.md",
    "section": "Controlled Terminology",
    "sim": 0.5926,
    "via_lookup": false
   },
   {
    "source": "domains/DM/examples.md",
    "section": "Example 7",
    "sim": 5.6618,
    "via_lookup": false
   },
   {
    "source": "terminology/supplementary/supplementary_part5.md",
    "section": "SDTM Version Response",
    "sim": 0.5856,
    "via_lookup": false
   },
   {
    "source": "chapters/ch04_general_assumptions.md",
    "section": "4.3.3 Controlled Terminology Values",
    "sim": 5.5521,
    "via_lookup": false
   },
   {
    "source": "domains/AE/spec.md",
    "section": "AEREL",
    "sim": 5.4823,
    "via_lookup": false
   },
   {
    "source": "domains/RELSPEC/assumptions.md",
    "section": "overview",
    "sim": 0.5604,
    "via_lookup": false
   },
   {
    "source": "terminology/questionnaires/questionnaires_part21.md",
    "section": "Hypoglycemic Confidence Scale Questionnaire Test Name",
    "sim": 5.454,
    "via_lookup": false
   },
   {
    "source": "VARIABLE_INDEX.md",
    "section": "§一 通用变量: ETCD",
    "sim": 0.5571,
    "via_lookup": false
   },
   {
    "source": "VARIABLE_INDEX.md",
    "section": "TS — Trial Summary (Trial Design)",
    "sim": 5.2,
    "via_lookup": false
   },
   {
    "source": "domains/RELREC/spec.md",
    "section": "Controlled Terminology",
    "sim": 0.5537,
    "via_lookup": false
   }
  ]
 },
 {
  "id": "q13",
  "category": "concept",
  "n": 15,
  "dup_seats": 0,
  "max_cluster": 1,
  "max_cluster_section": "2.1 Observations and Variables",
  "distinct_sections": 15,
  "max_cluster_section_tied": true,
  "composition": [
   {
    "source": "chapters/ch02_fundamentals.md",
    "section": "2.1 Observations and Variables",
    "sim": 0.5542,
    "via_lookup": false
   },
   {
    "source": "model/01_concepts_and_terms.md",
    "section": "2.1 Model Concepts and Terms — Variables",
    "sim": 0.4934,
    "via_lookup": false
   },
   {
    "source": "chapters/ch08_relationships.md",
    "section": "8.4.1 Supplemental Qualifiers (SUPP--)",
    "sim": 0.4721,
    "via_lookup": false
   },
   {
    "source": "VARIABLE_INDEX.md",
    "section": "SUPPQUAL — Supplemental Qualifiers for [domain name] (Relationship)",
    "sim": 0.5466,
    "via_lookup": false
   },
   {
    "source": "VARIABLE_INDEX.md",
    "section": "§一 通用变量: IDVAR",
    "sim": 0.5325,
    "via_lookup": false
   },
   {
    "source": "model/05_study_level_data.md",
    "section": "5.2 Study References",
    "sim": 6.7905,
    "via_lookup": false
   },
   {
    "source": "chapters/ch04_general_assumptions.md",
    "section": "4.1.4 Order of the Variables",
    "sim": 0.5259,
    "via_lookup": false
   },
   {
    "source": "chapters/ch02_fundamentals.md",
    "section": "2.6 Creating a New Domain",
    "sim": 6.1061,
    "via_lookup": false
   },
   {
    "source": "domains/ML/assumptions.md",
    "section": "item_3",
    "sim": 0.5228,
    "via_lookup": false
   },
   {
    "source": "model/05_study_level_data.md",
    "section": "5.1 Trial Design Model",
    "sim": 6.0884,
    "via_lookup": false
   },
   {
    "source": "VARIABLE_INDEX.md",
    "section": "§一 通用变量: IDVARVAL",
    "sim": 0.5164,
    "via_lookup": false
   },
   {
    "source": "model/02_observation_classes.md",
    "section": "3.1.3 The Findings Observation Class",
    "sim": 5.8976,
    "via_lookup": false
   },
   {
    "source": "domains/RELREC/spec.md",
    "section": "IDVAR",
    "sim": 0.5128,
    "via_lookup": false
   },
   {
    "source": "model/06_relationship_datasets.md",
    "section": "6.1 Related Records (RELREC)",
    "sim": 5.8137,
    "via_lookup": false
   },
   {
    "source": "domains/DS/assumptions.md",
    "section": "item_6",
    "sim": 0.5124,
    "via_lookup": false
   }
  ]
 },
 {
  "id": "q14",
  "category": "concept",
  "n": 15,
  "dup_seats": 1,
  "max_cluster": 2,
  "max_cluster_section": "item_1",
  "distinct_sections": 14,
  "max_cluster_section_tied": false,
  "composition": [
   {
    "source": "chapters/ch02_fundamentals.md",
    "section": "2.6 Creating a New Domain",
    "sim": 0.6333,
    "via_lookup": false
   },
   {
    "source": "chapters/ch04_general_assumptions.md",
    "section": "4.1.6 Additional Guidance on Dataset Naming",
    "sim": 0.6007,
    "via_lookup": false
   },
   {
    "source": "chapters/ch02_fundamentals.md",
    "section": "2.5 The SDTM Standard Domain Models",
    "sim": 0.5951,
    "via_lookup": false
   },
   {
    "source": "chapters/ch01_introduction.md",
    "section": "1.4 How to Read this Implementation Guide",
    "sim": 0.4893,
    "via_lookup": false
   },
   {
    "source": "chapters/ch03_submitting_data.md",
    "section": "3.1 Standard Metadata for Dataset Contents and Attributes",
    "sim": 0.4959,
    "via_lookup": false
   },
   {
    "source": "chapters/ch02_fundamentals.md",
    "section": "2.7 SDTM Variables Not Allowed in the SDTMIG",
    "sim": 0.4833,
    "via_lookup": false
   },
   {
    "source": "chapters/ch04_general_assumptions.md",
    "section": "4.2.2 Two-character Domain Identifier",
    "sim": 0.4939,
    "via_lookup": false
   },
   {
    "source": "model/01_concepts_and_terms.md",
    "section": "2.1 Model Concepts and Terms — Variables",
    "sim": 0.5033,
    "via_lookup": false
   },
   {
    "source": "chapters/ch02_fundamentals.md",
    "section": "2.2 Datasets and Domains",
    "sim": 0.5016,
    "via_lookup": false
   },
   {
    "source": "chapters/ch01_introduction.md",
    "section": "1.2 Organization of this Document",
    "sim": 0.4579,
    "via_lookup": false
   },
   {
    "source": "chapters/ch02_fundamentals.md",
    "section": "Findings About — Naming Findings About Domains (Reference Material)",
    "sim": 0.4519,
    "via_lookup": false
   },
   {
    "source": "chapters/ch02_fundamentals.md",
    "section": "Section 1 Context (Reference Material)",
    "sim": 0.4688,
    "via_lookup": false
   },
   {
    "source": "domains/CO/assumptions.md",
    "section": "item_1",
    "sim": 0.5003,
    "via_lookup": false
   },
   {
    "source": "domains/TU/assumptions.md",
    "section": "item_1",
    "sim": 7.6695,
    "via_lookup": false
   },
   {
    "source": "domains/TR/assumptions.md",
    "section": "item_3",
    "sim": 7.5108,
    "via_lookup": false
   }
  ]
 },
 {
  "id": "q15",
  "category": "concept",
  "n": 15,
  "dup_seats": 0,
  "max_cluster": 1,
  "max_cluster_section": "4.1.5 SDTM Core Designations",
  "distinct_sections": 15,
  "max_cluster_section_tied": true,
  "composition": [
   {
    "source": "chapters/ch04_general_assumptions.md",
    "section": "4.1.5 SDTM Core Designations",
    "sim": 0.7807,
    "via_lookup": false
   },
   {
    "source": "chapters/ch02_fundamentals.md",
    "section": "2.5 The SDTM Standard Domain Models",
    "sim": 0.7066,
    "via_lookup": false
   },
   {
    "source": "chapters/ch01_introduction.md",
    "section": "1.4 How to Read this Implementation Guide",
    "sim": 0.6094,
    "via_lookup": false
   },
   {
    "source": "chapters/ch04_general_assumptions.md",
    "section": "4.3.7 Use of \"Yes\" and \"No\" Values",
    "sim": 0.5995,
    "via_lookup": false
   },
   {
    "source": "chapters/ch03_submitting_data.md",
    "section": "3.2.2 Conformance",
    "sim": 0.6067,
    "via_lookup": false
   },
   {
    "source": "chapters/ch04_general_assumptions.md",
    "section": "4.3.3 Controlled Terminology Values",
    "sim": 0.5965,
    "via_lookup": false
   },
   {
    "source": "model/01_concepts_and_terms.md",
    "section": "2.1 Model Concepts and Terms — Variables",
    "sim": 0.6895,
    "via_lookup": false
   },
   {
    "source": "model/02_observation_classes.md",
    "section": "Overview",
    "sim": 0.6004,
    "via_lookup": false
   },
   {
    "source": "model/01_concepts_and_terms.md",
    "section": "2.2 Table Structure",
    "sim": 0.6426,
    "via_lookup": false
   },
   {
    "source": "chapters/ch02_fundamentals.md",
    "section": "2.1 Observations and Variables",
    "sim": 0.6694,
    "via_lookup": false
   },
   {
    "source": "chapters/ch02_fundamentals.md",
    "section": "2.7 SDTM Variables Not Allowed in the SDTMIG",
    "sim": 0.6828,
    "via_lookup": false
   },
   {
    "source": "chapters/ch04_general_assumptions.md",
    "section": "4.5.7 Presence or Absence of Prespecified Interventions and Events",
    "sim": 0.5901,
    "via_lookup": false
   },
   {
    "source": "domains/DM/assumptions.md",
    "section": "item_5",
    "sim": 0.607,
    "via_lookup": false
   },
   {
    "source": "chapters/ch04_general_assumptions.md",
    "section": "4.2.2 Two-character Domain Identifier",
    "sim": 0.6032,
    "via_lookup": false
   },
   {
    "source": "chapters/ch08_relationships.md",
    "section": "8.6.3 Guidelines for Differentiating Between Interventions, Events, Findings, and Findings About Events or Interventions",
    "sim": 11.6587,
    "via_lookup": false
   }
  ]
 },
 {
  "id": "q35",
  "category": "concept",
  "n": 15,
  "dup_seats": 0,
  "max_cluster": 1,
  "max_cluster_section": "4.2.1 Variable-Naming Conventions",
  "distinct_sections": 15,
  "max_cluster_section_tied": true,
  "composition": [
   {
    "source": "chapters/ch04_general_assumptions.md",
    "section": "4.2.1 Variable-Naming Conventions",
    "sim": 0.6071,
    "via_lookup": false
   },
   {
    "source": "chapters/ch04_general_assumptions.md",
    "section": "4.3.3 Controlled Terminology Values",
    "sim": 0.6773,
    "via_lookup": false
   },
   {
    "source": "model/01_concepts_and_terms.md",
    "section": "2.1 Model Concepts and Terms — Variables",
    "sim": 0.623,
    "via_lookup": false
   },
   {
    "source": "model/01_concepts_and_terms.md",
    "section": "2.2 Table Structure",
    "sim": 0.5926,
    "via_lookup": false
   },
   {
    "source": "chapters/ch01_introduction.md",
    "section": "1.4 How to Read this Implementation Guide",
    "sim": 0.5794,
    "via_lookup": false
   },
   {
    "source": "chapters/ch10_appendices.md",
    "section": "Appendix C: Controlled Terminology",
    "sim": 0.6138,
    "via_lookup": false
   },
   {
    "source": "chapters/ch04_general_assumptions.md",
    "section": "4.3.1 Controlled Terms, Codelist or Format Column",
    "sim": 0.6889,
    "via_lookup": false
   },
   {
    "source": "chapters/ch04_general_assumptions.md",
    "section": "4.2.9 Variable Lengths",
    "sim": 0.6662,
    "via_lookup": false
   },
   {
    "source": "chapters/ch04_general_assumptions.md",
    "section": "4.1.5 SDTM Core Designations",
    "sim": 10.4477,
    "via_lookup": false
   },
   {
    "source": "domains/TS/assumptions.md",
    "section": "item_8",
    "sim": 0.6237,
    "via_lookup": false
   },
   {
    "source": "chapters/ch08_relationships.md",
    "section": "8.3.1 RELREC Dataset Relationship Example",
    "sim": 10.1267,
    "via_lookup": false
   },
   {
    "source": "chapters/ch04_general_assumptions.md",
    "section": "4.5.9 Baseline Values",
    "sim": 9.3181,
    "via_lookup": false
   },
   {
    "source": "chapters/ch04_general_assumptions.md",
    "section": "4.3.2 Controlled Terminology Text Case",
    "sim": 0.6151,
    "via_lookup": false
   },
   {
    "source": "domains/TA/examples.md",
    "section": "Trial Arms Issues",
    "sim": 9.1055,
    "via_lookup": false
   },
   {
    "source": "VARIABLE_INDEX.md",
    "section": "§一 通用变量: ETCD",
    "sim": 0.6148,
    "via_lookup": false
   }
  ]
 },
 {
  "id": "q36",
  "category": "concept",
  "n": 15,
  "dup_seats": 0,
  "max_cluster": 1,
  "max_cluster_section": "2.1 Model Concepts and Terms — Variables",
  "distinct_sections": 15,
  "max_cluster_section_tied": true,
  "composition": [
   {
    "source": "model/01_concepts_and_terms.md",
    "section": "2.1 Model Concepts and Terms — Variables",
    "sim": 0.7001,
    "via_lookup": false
   },
   {
    "source": "chapters/ch02_fundamentals.md",
    "section": "2.5 The SDTM Standard Domain Models",
    "sim": 0.6825,
    "via_lookup": false
   },
   {
    "source": "chapters/ch04_general_assumptions.md",
    "section": "4.4.8 Date and Time Reported in a Domain Based on Findings",
    "sim": 0.6533,
    "via_lookup": false
   },
   {
    "source": "chapters/ch04_general_assumptions.md",
    "section": "4.1.3 Additional Timing Variables",
    "sim": 0.6567,
    "via_lookup": false
   },
   {
    "source": "model/02_observation_classes.md",
    "section": "3.1.5 Timing Variables for All Classes",
    "sim": 0.6519,
    "via_lookup": false
   },
   {
    "source": "domains/BE/assumptions.md",
    "section": "item_6",
    "sim": 0.6647,
    "via_lookup": false
   },
   {
    "source": "chapters/ch04_general_assumptions.md",
    "section": "4.4.1 Formats for Date/Time Variables",
    "sim": 0.6668,
    "via_lookup": false
   },
   {
    "source": "chapters/ch04_general_assumptions.md",
    "section": "4.2.2 Two-character Domain Identifier",
    "sim": 0.6425,
    "via_lookup": false
   },
   {
    "source": "chapters/ch02_fundamentals.md",
    "section": "2.2 Datasets and Domains",
    "sim": 0.635,
    "via_lookup": false
   },
   {
    "source": "domains/SV/assumptions.md",
    "section": "item_15",
    "sim": 0.6353,
    "via_lookup": false
   },
   {
    "source": "chapters/ch02_fundamentals.md",
    "section": "2.7 SDTM Variables Not Allowed in the SDTMIG",
    "sim": 0.6428,
    "via_lookup": false
   },
   {
    "source": "chapters/ch01_introduction.md",
    "section": "1.4 How to Read this Implementation Guide",
    "sim": 0.6428,
    "via_lookup": false
   },
   {
    "source": "model/02_observation_classes.md",
    "section": "Overview",
    "sim": 0.6166,
    "via_lookup": false
   },
   {
    "source": "chapters/ch04_general_assumptions.md",
    "section": "4.3.7 Use of \"Yes\" and \"No\" Values",
    "sim": 0.6118,
    "via_lookup": false
   },
   {
    "source": "domains/DS/assumptions.md",
    "section": "item_4",
    "sim": 0.7123,
    "via_lookup": false
   }
  ]
 },
 {
  "id": "q37",
  "category": "concept",
  "n": 15,
  "dup_seats": 2,
  "max_cluster": 3,
  "max_cluster_section": "Overview",
  "distinct_sections": 13,
  "max_cluster_section_tied": false,
  "composition": [
   {
    "source": "chapters/ch02_fundamentals.md",
    "section": "2.4 Datasets Other than General Observation Class Domains",
    "sim": 0.7989,
    "via_lookup": false
   },
   {
    "source": "model/01_concepts_and_terms.md",
    "section": "2.1 Model Concepts and Terms — Variables",
    "sim": 0.666,
    "via_lookup": false
   },
   {
    "source": "chapters/ch02_fundamentals.md",
    "section": "2.2 Datasets and Domains",
    "sim": 0.7276,
    "via_lookup": false
   },
   {
    "source": "model/02_observation_classes.md",
    "section": "Overview",
    "sim": 0.6625,
    "via_lookup": false
   },
   {
    "source": "chapters/ch01_introduction.md",
    "section": "1.2 Organization of this Document",
    "sim": 0.6265,
    "via_lookup": false
   },
   {
    "source": "chapters/ch02_fundamentals.md",
    "section": "2.5 The SDTM Standard Domain Models",
    "sim": 0.6985,
    "via_lookup": false
   },
   {
    "source": "model/03_special_purpose_domains.md",
    "section": "Overview",
    "sim": 0.657,
    "via_lookup": false
   },
   {
    "source": "chapters/ch04_general_assumptions.md",
    "section": "4.1.1 Review Study Data Tabulation Model and Implementation Guide",
    "sim": 0.5978,
    "via_lookup": false
   },
   {
    "source": "chapters/ch03_submitting_data.md",
    "section": "3.2.2 Conformance",
    "sim": 0.6056,
    "via_lookup": false
   },
   {
    "source": "chapters/ch04_general_assumptions.md",
    "section": "4.1.6 Additional Guidance on Dataset Naming",
    "sim": 0.6633,
    "via_lookup": false
   },
   {
    "source": "chapters/ch01_introduction.md",
    "section": "1.4 How to Read this Implementation Guide",
    "sim": 0.624,
    "via_lookup": false
   },
   {
    "source": "chapters/ch03_submitting_data.md",
    "section": "3.2 Using the CDISC Domain Models in Regulatory Submissions — Dataset Metadata",
    "sim": 0.589,
    "via_lookup": false
   },
   {
    "source": "model/06_relationship_datasets.md",
    "section": "Overview",
    "sim": 0.6569,
    "via_lookup": false
   },
   {
    "source": "domains/RELREC/assumptions.md",
    "section": "overview",
    "sim": 11.0285,
    "via_lookup": false
   },
   {
    "source": "chapters/ch03_submitting_data.md",
    "section": "3.1 Standard Metadata for Dataset Contents and Attributes",
    "sim": 0.6414,
    "via_lookup": false
   }
  ]
 },
 {
  "id": "q38",
  "category": "concept",
  "n": 15,
  "dup_seats": 13,
  "max_cluster": 14,
  "max_cluster_section": "DOMAIN",
  "distinct_sections": 2,
  "max_cluster_section_tied": false,
  "composition": [
   {
    "source": "chapters/ch04_general_assumptions.md",
    "section": "4.1.6 Additional Guidance on Dataset Naming",
    "sim": 0.676,
    "via_lookup": false
   },
   {
    "source": "domains/SV/spec.md",
    "section": "DOMAIN",
    "sim": 0.6696,
    "via_lookup": false
   },
   {
    "source": "domains/DS/spec.md",
    "section": "DOMAIN",
    "sim": 0.6691,
    "via_lookup": false
   },
   {
    "source": "domains/PP/spec.md",
    "section": "DOMAIN",
    "sim": 0.6691,
    "via_lookup": false
   },
   {
    "source": "domains/LB/spec.md",
    "section": "DOMAIN",
    "sim": 0.6691,
    "via_lookup": false
   },
   {
    "source": "domains/IS/spec.md",
    "section": "DOMAIN",
    "sim": 0.6691,
    "via_lookup": false
   },
   {
    "source": "domains/DV/spec.md",
    "section": "DOMAIN",
    "sim": 0.6689,
    "via_lookup": false
   },
   {
    "source": "domains/OE/spec.md",
    "section": "DOMAIN",
    "sim": 0.6689,
    "via_lookup": false
   },
   {
    "source": "domains/MB/spec.md",
    "section": "DOMAIN",
    "sim": 0.669,
    "via_lookup": false
   },
   {
    "source": "domains/TV/spec.md",
    "section": "DOMAIN",
    "sim": 0.669,
    "via_lookup": false
   },
   {
    "source": "domains/PR/spec.md",
    "section": "DOMAIN",
    "sim": 0.6691,
    "via_lookup": false
   },
   {
    "source": "domains/SU/spec.md",
    "section": "DOMAIN",
    "sim": 0.6689,
    "via_lookup": false
   },
   {
    "source": "domains/PE/spec.md",
    "section": "DOMAIN",
    "sim": 0.6689,
    "via_lookup": false
   },
   {
    "source": "domains/SS/spec.md",
    "section": "DOMAIN",
    "sim": 0.6689,
    "via_lookup": false
   },
   {
    "source": "domains/RS/spec.md",
    "section": "DOMAIN",
    "sim": 0.6689,
    "via_lookup": false
   }
  ]
 },
 {
  "id": "q39",
  "category": "concept",
  "n": 15,
  "dup_seats": 7,
  "max_cluster": 8,
  "max_cluster_section": "Model Definition",
  "distinct_sections": 8,
  "max_cluster_section_tied": false,
  "composition": [
   {
    "source": "domains/IS/spec.md",
    "section": "Model Definition",
    "sim": 0.7123,
    "via_lookup": false
   },
   {
    "source": "chapters/ch08_relationships.md",
    "section": "8.6.3 Guidelines for Differentiating Between Interventions, Events, Findings, and Findings About Events or Interventions",
    "sim": 16.7076,
    "via_lookup": false
   },
   {
    "source": "domains/MI/spec.md",
    "section": "Model Definition",
    "sim": 0.7123,
    "via_lookup": false
   },
   {
    "source": "model/02_observation_classes.md",
    "section": "3.1.3 The Findings Observation Class",
    "sim": 15.727,
    "via_lookup": false
   },
   {
    "source": "domains/RP/spec.md",
    "section": "Model Definition",
    "sim": 0.7123,
    "via_lookup": false
   },
   {
    "source": "chapters/ch08_relationships.md",
    "section": "8.6.1 Guidelines for Determining the General Observation Class",
    "sim": 13.0318,
    "via_lookup": false
   },
   {
    "source": "domains/LB/spec.md",
    "section": "Model Definition",
    "sim": 0.7122,
    "via_lookup": false
   },
   {
    "source": "chapters/ch02_fundamentals.md",
    "section": "2.3 The General Observation Classes",
    "sim": 12.0712,
    "via_lookup": false
   },
   {
    "source": "domains/SS/spec.md",
    "section": "Model Definition",
    "sim": 0.7122,
    "via_lookup": false
   },
   {
    "source": "chapters/ch04_general_assumptions.md",
    "section": "4.1.4 Order of the Variables",
    "sim": 11.5773,
    "via_lookup": false
   },
   {
    "source": "domains/TU/spec.md",
    "section": "Model Definition",
    "sim": 0.7122,
    "via_lookup": false
   },
   {
    "source": "domains/FA/assumptions.md",
    "section": "item_6",
    "sim": 10.7466,
    "via_lookup": false
   },
   {
    "source": "domains/CV/spec.md",
    "section": "Model Definition",
    "sim": 0.7122,
    "via_lookup": false
   },
   {
    "source": "chapters/ch02_fundamentals.md",
    "section": "Findings About — Naming Findings About Domains (Reference Material)",
    "sim": 10.7074,
    "via_lookup": false
   },
   {
    "source": "domains/EG/spec.md",
    "section": "Model Definition",
    "sim": 0.7122,
    "via_lookup": false
   }
  ]
 },
 {
  "id": "q40",
  "category": "concept",
  "n": 15,
  "dup_seats": 2,
  "max_cluster": 2,
  "max_cluster_section": "item_4",
  "distinct_sections": 13,
  "max_cluster_section_tied": true,
  "composition": [
   {
    "source": "chapters/ch04_general_assumptions.md",
    "section": "4.1.8 Origin Metadata",
    "sim": 0.6411,
    "via_lookup": false
   },
   {
    "source": "chapters/ch02_fundamentals.md",
    "section": "2.5 The SDTM Standard Domain Models",
    "sim": 0.5898,
    "via_lookup": false
   },
   {
    "source": "model/01_concepts_and_terms.md",
    "section": "2.1 Model Concepts and Terms — Variables",
    "sim": 0.6331,
    "via_lookup": false
   },
   {
    "source": "chapters/ch02_fundamentals.md",
    "section": "2.2 Datasets and Domains",
    "sim": 0.5775,
    "via_lookup": false
   },
   {
    "source": "chapters/ch03_submitting_data.md",
    "section": "3.2.2 Conformance",
    "sim": 0.5445,
    "via_lookup": false
   },
   {
    "source": "domains/FT/assumptions.md",
    "section": "item_4",
    "sim": 0.589,
    "via_lookup": false
   },
   {
    "source": "domains/QS/assumptions.md",
    "section": "item_4",
    "sim": 0.589,
    "via_lookup": false
   },
   {
    "source": "model/06_relationship_datasets.md",
    "section": "Overview",
    "sim": 0.5606,
    "via_lookup": false
   },
   {
    "source": "chapters/ch04_general_assumptions.md",
    "section": "4.1.5 SDTM Core Designations",
    "sim": 0.5625,
    "via_lookup": false
   },
   {
    "source": "chapters/ch01_introduction.md",
    "section": "1.4 How to Read this Implementation Guide",
    "sim": 0.5621,
    "via_lookup": false
   },
   {
    "source": "chapters/ch04_general_assumptions.md",
    "section": "4.2.6 Grouping Variables and Categorization",
    "sim": 0.5282,
    "via_lookup": false
   },
   {
    "source": "chapters/ch04_general_assumptions.md",
    "section": "4.3.7 Use of \"Yes\" and \"No\" Values",
    "sim": 0.5397,
    "via_lookup": false
   },
   {
    "source": "domains/LB/assumptions.md",
    "section": "item_6",
    "sim": 0.6417,
    "via_lookup": false
   },
   {
    "source": "model/01_concepts_and_terms.md",
    "section": "2.2 Table Structure",
    "sim": 0.6181,
    "via_lookup": false
   },
   {
    "source": "model/05_study_level_data.md",
    "section": "Overview",
    "sim": 0.6092,
    "via_lookup": false
   }
  ]
 },
 {
  "id": "q41",
  "category": "concept",
  "n": 15,
  "dup_seats": 2,
  "max_cluster": 2,
  "max_cluster_section": "overview",
  "distinct_sections": 13,
  "max_cluster_section_tied": true,
  "composition": [
   {
    "source": "chapters/ch02_fundamentals.md",
    "section": "2.4 Datasets Other than General Observation Class Domains",
    "sim": 0.7017,
    "via_lookup": false
   },
   {
    "source": "model/01_concepts_and_terms.md",
    "section": "2.1 Model Concepts and Terms — Variables",
    "sim": 0.6589,
    "via_lookup": false
   },
   {
    "source": "model/05_study_level_data.md",
    "section": "Overview",
    "sim": 0.8163,
    "via_lookup": false
   },
   {
    "source": "chapters/ch04_general_assumptions.md",
    "section": "4.1.1 Review Study Data Tabulation Model and Implementation Guide",
    "sim": 0.66,
    "via_lookup": false
   },
   {
    "source": "domains/TA/assumptions.md",
    "section": "overview",
    "sim": 0.6195,
    "via_lookup": false
   },
   {
    "source": "domains/TI/assumptions.md",
    "section": "overview",
    "sim": 0.6483,
    "via_lookup": false
   },
   {
    "source": "chapters/ch10_appendices.md",
    "section": "Appendix B: Glossary and Abbreviations",
    "sim": 0.6334,
    "via_lookup": false
   },
   {
    "source": "chapters/ch01_introduction.md",
    "section": "1.2 Organization of this Document",
    "sim": 0.6098,
    "via_lookup": false
   },
   {
    "source": "chapters/ch02_fundamentals.md",
    "section": "2.5 The SDTM Standard Domain Models",
    "sim": 0.6429,
    "via_lookup": false
   },
   {
    "source": "chapters/ch02_fundamentals.md",
    "section": "2.1 Observations and Variables",
    "sim": 0.6613,
    "via_lookup": false
   },
   {
    "source": "chapters/ch01_introduction.md",
    "section": "1.1 Purpose",
    "sim": 0.6315,
    "via_lookup": false
   },
   {
    "source": "terminology/core/trial_design.md",
    "section": "Trial Summary Parameter Test Name",
    "sim": 0.5946,
    "via_lookup": false
   },
   {
    "source": "terminology/core/trial_design.md",
    "section": "Trial Summary Parameter Test Code",
    "sim": 0.5783,
    "via_lookup": false
   },
   {
    "source": "domains/TI/spec.md",
    "section": "Model Definition",
    "sim": 0.6612,
    "via_lookup": false
   },
   {
    "source": "domains/TA/spec.md",
    "section": "Model Definition",
    "sim": 0.6611,
    "via_lookup": false
   }
  ]
 },
 {
  "id": "q16",
  "category": "mixed",
  "n": 15,
  "dup_seats": 0,
  "max_cluster": 1,
  "max_cluster_section": "Severity/Intensity Scale for Adverse Events",
  "distinct_sections": 15,
  "max_cluster_section_tied": true,
  "composition": [
   {
    "source": "terminology/core/ae.md",
    "section": "Severity/Intensity Scale for Adverse Events",
    "sim": 0.5065,
    "via_lookup": true
   },
   {
    "source": "VARIABLE_INDEX.md",
    "section": "§三 CT 交叉引用: C66769",
    "sim": 0.663,
    "via_lookup": false
   },
   {
    "source": "domains/DM/examples.md",
    "section": "Example 7",
    "sim": 8.5109,
    "via_lookup": false
   },
   {
    "source": "domains/AE/assumptions.md",
    "section": "item_2",
    "sim": 0.6134,
    "via_lookup": false
   },
   {
    "source": "terminology/questionnaires/questionnaires_part27.md",
    "section": "Patient-Reported Outcomes Version of the Common Terminology Criteria for Adverse Events Item Library Version 1.0 Questionnaire Test Code",
    "sim": 7.3599,
    "via_lookup": false
   },
   {
    "source": "domains/AE/spec.md",
    "section": "AESEV",
    "sim": 0.602,
    "via_lookup": false
   },
   {
    "source": "terminology/questionnaires/questionnaires_part28.md",
    "section": "Patient-Reported Outcomes Version of the Common Terminology Criteria for Adverse Events Item Library Version 1.0 Questionnaire Test Name",
    "sim": 7.1293,
    "via_lookup": false
   },
   {
    "source": "VARIABLE_INDEX.md",
    "section": "§三 CT 交叉引用: C165643",
    "sim": 0.5919,
    "via_lookup": false
   },
   {
    "source": "chapters/ch04_general_assumptions.md",
    "section": "4.3.3 Controlled Terminology Values",
    "sim": 6.8909,
    "via_lookup": false
   },
   {
    "source": "VARIABLE_INDEX.md",
    "section": "§三 CT 交叉引用: C66767",
    "sim": 0.5887,
    "via_lookup": false
   },
   {
    "source": "VARIABLE_INDEX.md",
    "section": "§三 CT 交叉引用: C111110",
    "sim": 0.5756,
    "via_lookup": false
   },
   {
    "source": "domains/EG/assumptions.md",
    "section": "item_10",
    "sim": 6.3678,
    "via_lookup": false
   },
   {
    "source": "VARIABLE_INDEX.md",
    "section": "§三 CT 交叉引用: C66768",
    "sim": 0.5753,
    "via_lookup": false
   },
   {
    "source": "terminology/supplementary/supplementary_part4.md",
    "section": "Mini-Mental State Examination Functional Test Test Code",
    "sim": 6.3153,
    "via_lookup": false
   },
   {
    "source": "VARIABLE_INDEX.md",
    "section": "§三 CT 交叉引用: C78735",
    "sim": 0.567,
    "via_lookup": false
   }
  ]
 },
 {
  "id": "q17",
  "category": "mixed",
  "n": 15,
  "dup_seats": 0,
  "max_cluster": 1,
  "max_cluster_section": "4.4.1 Formats for Date/Time Variables",
  "distinct_sections": 15,
  "max_cluster_section_tied": true,
  "composition": [
   {
    "source": "chapters/ch04_general_assumptions.md",
    "section": "4.4.1 Formats for Date/Time Variables",
    "sim": 0.763,
    "via_lookup": false
   },
   {
    "source": "model/01_concepts_and_terms.md",
    "section": "2.1 Model Concepts and Terms — Variables",
    "sim": 0.6154,
    "via_lookup": false
   },
   {
    "source": "chapters/ch04_general_assumptions.md",
    "section": "4.3.7 Use of \"Yes\" and \"No\" Values",
    "sim": 0.6041,
    "via_lookup": false
   },
   {
    "source": "chapters/ch04_general_assumptions.md",
    "section": "4.2.1 Variable-Naming Conventions",
    "sim": 0.5796,
    "via_lookup": false
   },
   {
    "source": "chapters/ch02_fundamentals.md",
    "section": "2.7 SDTM Variables Not Allowed in the SDTMIG",
    "sim": 0.5742,
    "via_lookup": false
   },
   {
    "source": "chapters/ch01_introduction.md",
    "section": "1.4 How to Read this Implementation Guide",
    "sim": 9.9548,
    "via_lookup": false
   },
   {
    "source": "domains/VS/spec.md",
    "section": "VSDTC",
    "sim": 0.6402,
    "via_lookup": false
   },
   {
    "source": "chapters/ch04_general_assumptions.md",
    "section": "4.4.2 Date/Time Precision",
    "sim": 0.6206,
    "via_lookup": false
   },
   {
    "source": "chapters/ch02_fundamentals.md",
    "section": "2.5 The SDTM Standard Domain Models",
    "sim": 9.0061,
    "via_lookup": false
   },
   {
    "source": "model/01_concepts_and_terms.md",
    "section": "2.2 Table Structure",
    "sim": 0.6139,
    "via_lookup": false
   },
   {
    "source": "terminology/questionnaires/questionnaires_part40.md",
    "section": "Treatment Satisfaction Questionnaire for Medication Version 1.4 Questionnaire Test Code",
    "sim": 8.1195,
    "via_lookup": false
   },
   {
    "source": "domains/DM/spec.md",
    "section": "DMDTC",
    "sim": 0.6035,
    "via_lookup": false
   },
   {
    "source": "terminology/questionnaires/questionnaires_part40.md",
    "section": "Treatment Satisfaction Questionnaire for Medication Version 1.4 Questionnaire Test Name",
    "sim": 8.1028,
    "via_lookup": false
   },
   {
    "source": "domains/SS/spec.md",
    "section": "SSDTC",
    "sim": 0.6024,
    "via_lookup": false
   },
   {
    "source": "terminology/supplementary/supplementary_part5.md",
    "section": "SDTM Version Response",
    "sim": 0.6011,
    "via_lookup": false
   }
  ]
 },
 {
  "id": "q18",
  "category": "mixed",
  "n": 15,
  "dup_seats": 2,
  "max_cluster": 3,
  "max_cluster_section": "item_2",
  "distinct_sections": 13,
  "max_cluster_section_tied": false,
  "composition": [
   {
    "source": "domains/AE/spec.md",
    "section": "AEDECOD",
    "sim": 0.6111,
    "via_lookup": true
   },
   {
    "source": "domains/AE/spec.md",
    "section": "AETERM",
    "sim": 0.5646,
    "via_lookup": true
   },
   {
    "source": "domains/AE/spec.md",
    "section": "AEPTCD",
    "sim": 0.5637,
    "via_lookup": true
   },
   {
    "source": "domains/AE/spec.md",
    "section": "AELLTCD",
    "sim": 0.5579,
    "via_lookup": true
   },
   {
    "source": "chapters/ch04_general_assumptions.md",
    "section": "4.3.5 Storing Controlled Terminology for Synonym Qualifier Variables (MedDRA and WHODrug)",
    "sim": 0.6726,
    "via_lookup": false
   },
   {
    "source": "domains/AE/assumptions.md",
    "section": "item_2",
    "sim": 0.6289,
    "via_lookup": false
   },
   {
    "source": "domains/MH/assumptions.md",
    "section": "item_2",
    "sim": 0.63,
    "via_lookup": false
   },
   {
    "source": "domains/CM/assumptions.md",
    "section": "item_2",
    "sim": 0.5837,
    "via_lookup": false
   },
   {
    "source": "terminology/core/trial_design.md",
    "section": "Dictionary Name",
    "sim": 0.6045,
    "via_lookup": false
   },
   {
    "source": "VARIABLE_INDEX.md",
    "section": "AE — Adverse Events (Events)",
    "sim": 0.574,
    "via_lookup": false
   },
   {
    "source": "model/02_observation_classes.md",
    "section": "3.1.2 The Events Observation Class",
    "sim": 0.5833,
    "via_lookup": false
   },
   {
    "source": "domains/MH/spec.md",
    "section": "MHDECOD",
    "sim": 0.6001,
    "via_lookup": false
   },
   {
    "source": "domains/AE/examples.md",
    "section": "Example 1",
    "sim": 0.5638,
    "via_lookup": false
   },
   {
    "source": "domains/AG/assumptions.md",
    "section": "item_3",
    "sim": 0.525,
    "via_lookup": false
   },
   {
    "source": "domains/AE/spec.md",
    "section": "AEHLTCD",
    "sim": 0.549,
    "via_lookup": false
   }
  ]
 },
 {
  "id": "q19",
  "category": "mixed",
  "n": 15,
  "dup_seats": 0,
  "max_cluster": 1,
  "max_cluster_section": "DSDECOD",
  "distinct_sections": 15,
  "max_cluster_section_tied": true,
  "composition": [
   {
    "source": "domains/DS/spec.md",
    "section": "DSDECOD",
    "sim": 0.8037,
    "via_lookup": true
   },
   {
    "source": "terminology/core/disposition.md",
    "section": "Category of Disposition Event",
    "sim": 0.6895,
    "via_lookup": true
   },
   {
    "source": "domains/DS/assumptions.md",
    "section": "item_3",
    "sim": 0.7557,
    "via_lookup": false
   },
   {
    "source": "domains/DS/spec.md",
    "section": "Controlled Terminology",
    "sim": 0.7248,
    "via_lookup": false
   },
   {
    "source": "domains/DS/assumptions.md",
    "section": "item_2",
    "sim": 0.7185,
    "via_lookup": false
   },
   {
    "source": "domains/DS/spec.md",
    "section": "DSSCAT",
    "sim": 0.7035,
    "via_lookup": false
   },
   {
    "source": "domains/DS/assumptions.md",
    "section": "item_5",
    "sim": 0.6564,
    "via_lookup": false
   },
   {
    "source": "VARIABLE_INDEX.md",
    "section": "DS — Disposition (Events)",
    "sim": 0.6711,
    "via_lookup": false
   },
   {
    "source": "VARIABLE_INDEX.md",
    "section": "§三 CT 交叉引用: C74558",
    "sim": 0.7247,
    "via_lookup": false
   },
   {
    "source": "VARIABLE_INDEX.md",
    "section": "§三 CT 交叉引用: C150811",
    "sim": 0.7225,
    "via_lookup": false
   },
   {
    "source": "domains/LB/assumptions.md",
    "section": "item_7",
    "sim": 14.9401,
    "via_lookup": false
   },
   {
    "source": "VARIABLE_INDEX.md",
    "section": "§三 CT 交叉引用: C66727",
    "sim": 0.7081,
    "via_lookup": false
   },
   {
    "source": "domains/DS/examples.md",
    "section": "Example 1",
    "sim": 14.375,
    "via_lookup": false
   },
   {
    "source": "VARIABLE_INDEX.md",
    "section": "§三 CT 交叉引用: C114118",
    "sim": 0.7044,
    "via_lookup": false
   },
   {
    "source": "domains/DS/assumptions.md",
    "section": "item_4",
    "sim": 14.3678,
    "via_lookup": false
   }
  ]
 },
 {
  "id": "q20",
  "category": "mixed",
  "n": 15,
  "dup_seats": 0,
  "max_cluster": 1,
  "max_cluster_section": "RFSTDTC",
  "distinct_sections": 15,
  "max_cluster_section_tied": true,
  "composition": [
   {
    "source": "domains/DM/spec.md",
    "section": "RFSTDTC",
    "sim": 0.6239,
    "via_lookup": true
   },
   {
    "source": "domains/DM/spec.md",
    "section": "RFENDTC",
    "sim": 0.5839,
    "via_lookup": true
   },
   {
    "source": "domains/DM/spec.md",
    "section": "RFXENDTC",
    "sim": 0.55,
    "via_lookup": true
   },
   {
    "source": "domains/DM/spec.md",
    "section": "RFXSTDTC",
    "sim": 0.547,
    "via_lookup": true
   },
   {
    "source": "domains/DM/assumptions.md",
    "section": "item_7",
    "sim": 0.665,
    "via_lookup": false
   },
   {
    "source": "domains/DM/assumptions.md",
    "section": "item_10",
    "sim": 0.6584,
    "via_lookup": false
   },
   {
    "source": "domains/MH/spec.md",
    "section": "MHENRF",
    "sim": 0.5575,
    "via_lookup": false
   },
   {
    "source": "domains/CE/spec.md",
    "section": "CEENRF",
    "sim": 0.5352,
    "via_lookup": false
   },
   {
    "source": "domains/AG/spec.md",
    "section": "AGENRF",
    "sim": 0.537,
    "via_lookup": false
   },
   {
    "source": "domains/CE/spec.md",
    "section": "CESTRF",
    "sim": 0.5198,
    "via_lookup": false
   },
   {
    "source": "domains/CM/spec.md",
    "section": "CMENRF",
    "sim": 0.5304,
    "via_lookup": false
   },
   {
    "source": "domains/AE/spec.md",
    "section": "AEENRF",
    "sim": 0.5098,
    "via_lookup": false
   },
   {
    "source": "domains/CM/spec.md",
    "section": "CMSTRF",
    "sim": 0.5116,
    "via_lookup": false
   },
   {
    "source": "domains/DM/assumptions.md",
    "section": "item_9",
    "sim": 0.5808,
    "via_lookup": false
   },
   {
    "source": "model/03_special_purpose_domains.md",
    "section": "Demographics (DM)",
    "sim": 16.8732,
    "via_lookup": false
   }
  ]
 },
 {
  "id": "q42",
  "category": "mixed",
  "n": 15,
  "dup_seats": 0,
  "max_cluster": 1,
  "max_cluster_section": "LBNRIND",
  "distinct_sections": 15,
  "max_cluster_section_tied": true,
  "composition": [
   {
    "source": "domains/LB/spec.md",
    "section": "LBNRIND",
    "sim": 0.7713,
    "via_lookup": true
   },
   {
    "source": "domains/LB/spec.md",
    "section": "LBORNRHI",
    "sim": 0.6933,
    "via_lookup": true
   },
   {
    "source": "domains/LB/spec.md",
    "section": "LBORNRLO",
    "sim": 0.6928,
    "via_lookup": true
   },
   {
    "source": "domains/LB/spec.md",
    "section": "LBSTNRLO",
    "sim": 0.669,
    "via_lookup": true
   },
   {
    "source": "domains/LB/assumptions.md",
    "section": "item_3",
    "sim": 0.7638,
    "via_lookup": false
   },
   {
    "source": "domains/LB/assumptions.md",
    "section": "item_2",
    "sim": 0.7123,
    "via_lookup": false
   },
   {
    "source": "domains/LB/examples.md",
    "section": "Example 1",
    "sim": 0.605,
    "via_lookup": false
   },
   {
    "source": "terminology/core/general_part4.md",
    "section": "Reference Range Indicator",
    "sim": 0.6134,
    "via_lookup": false
   },
   {
    "source": "domains/IS/spec.md",
    "section": "ISNRIND",
    "sim": 0.6215,
    "via_lookup": false
   },
   {
    "source": "domains/LB/spec.md",
    "section": "LBSTNRC",
    "sim": 0.6452,
    "via_lookup": false
   },
   {
    "source": "domains/CP/spec.md",
    "section": "CPNRIND",
    "sim": 0.597,
    "via_lookup": false
   },
   {
    "source": "VARIABLE_INDEX.md",
    "section": "LB — Laboratory Test Results (Findings)",
    "sim": 0.5732,
    "via_lookup": false
   },
   {
    "source": "domains/OE/spec.md",
    "section": "OERESCAT",
    "sim": 7.9646,
    "via_lookup": false
   },
   {
    "source": "domains/LB/spec.md",
    "section": "LBSTNRHI",
    "sim": 0.6597,
    "via_lookup": false
   },
   {
    "source": "domains/RS/assumptions.md",
    "section": "item_5",
    "sim": 7.8564,
    "via_lookup": false
   }
  ]
 },
 {
  "id": "q43",
  "category": "mixed",
  "n": 15,
  "dup_seats": 0,
  "max_cluster": 1,
  "max_cluster_section": "SEX",
  "distinct_sections": 15,
  "max_cluster_section_tied": true,
  "composition": [
   {
    "source": "domains/DM/spec.md",
    "section": "SEX",
    "sim": 0.6578,
    "via_lookup": true
   },
   {
    "source": "terminology/core/dm.md",
    "section": "Sex",
    "sim": 0.6074,
    "via_lookup": true
   },
   {
    "source": "VARIABLE_INDEX.md",
    "section": "§三 CT 交叉引用: C66731",
    "sim": 0.8,
    "via_lookup": false
   },
   {
    "source": "VARIABLE_INDEX.md",
    "section": "§三 CT 交叉引用: C66790",
    "sim": 0.7043,
    "via_lookup": false
   },
   {
    "source": "VARIABLE_INDEX.md",
    "section": "§三 CT 交叉引用: C74457",
    "sim": 0.6891,
    "via_lookup": false
   },
   {
    "source": "VARIABLE_INDEX.md",
    "section": "§三 CT 交叉引用: C66781",
    "sim": 0.6726,
    "via_lookup": false
   },
   {
    "source": "VARIABLE_INDEX.md",
    "section": "§三 CT 交叉引用: C142179",
    "sim": 0.6441,
    "via_lookup": false
   },
   {
    "source": "VARIABLE_INDEX.md",
    "section": "§三 CT 交叉引用: C124297",
    "sim": 0.6471,
    "via_lookup": false
   },
   {
    "source": "chapters/ch01_introduction.md",
    "section": "1.4 How to Read this Implementation Guide",
    "sim": 11.7264,
    "via_lookup": false
   },
   {
    "source": "VARIABLE_INDEX.md",
    "section": "§三 CT 交叉引用: C66734",
    "sim": 0.6939,
    "via_lookup": false
   },
   {
    "source": "VARIABLE_INDEX.md",
    "section": "§三 CT 交叉引用: C66726",
    "sim": 0.69,
    "via_lookup": false
   },
   {
    "source": "VARIABLE_INDEX.md",
    "section": "§三 CT 交叉引用: C66727",
    "sim": 0.6842,
    "via_lookup": false
   },
   {
    "source": "VARIABLE_INDEX.md",
    "section": "§三 CT 交叉引用: C116107",
    "sim": 0.6787,
    "via_lookup": false
   },
   {
    "source": "chapters/ch04_general_assumptions.md",
    "section": "4.1.6 Additional Guidance on Dataset Naming",
    "sim": 10.0326,
    "via_lookup": false
   },
   {
    "source": "VARIABLE_INDEX.md",
    "section": "§三 CT 交叉引用: C170443",
    "sim": 0.6771,
    "via_lookup": false
   }
  ]
 },
 {
  "id": "q44",
  "category": "mixed",
  "n": 15,
  "dup_seats": 1,
  "max_cluster": 2,
  "max_cluster_section": "Controlled Terminology",
  "distinct_sections": 14,
  "max_cluster_section_tied": false,
  "composition": [
   {
    "source": "domains/VS/spec.md",
    "section": "Controlled Terminology",
    "sim": 0.7284,
    "via_lookup": true
   },
   {
    "source": "terminology/core/vs.md",
    "section": "Units for Vital Signs Results",
    "sim": 0.548,
    "via_lookup": true
   },
   {
    "source": "domains/VS/spec.md",
    "section": "VSTEST",
    "sim": 0.6737,
    "via_lookup": false
   },
   {
    "source": "VARIABLE_INDEX.md",
    "section": "§三 CT 交叉引用: C66741",
    "sim": 0.6601,
    "via_lookup": false
   },
   {
    "source": "domains/VS/spec.md",
    "section": "VSTESTCD",
    "sim": 0.6183,
    "via_lookup": false
   },
   {
    "source": "domains/VS/assumptions.md",
    "section": "item_3",
    "sim": 0.6869,
    "via_lookup": false
   },
   {
    "source": "VARIABLE_INDEX.md",
    "section": "§三 CT 交叉引用: C66770",
    "sim": 0.6176,
    "via_lookup": false
   },
   {
    "source": "VARIABLE_INDEX.md",
    "section": "VS — Vital Signs (Findings)",
    "sim": 0.5633,
    "via_lookup": false
   },
   {
    "source": "domains/VS/examples.md",
    "section": "Example 1",
    "sim": 19.8542,
    "via_lookup": false
   },
   {
    "source": "terminology/core/vs.md",
    "section": "Vital Signs Test Code",
    "sim": 17.2345,
    "via_lookup": false
   },
   {
    "source": "VARIABLE_INDEX.md",
    "section": "§三 CT 交叉引用: C67153",
    "sim": 0.6562,
    "via_lookup": false
   },
   {
    "source": "terminology/core/vs.md",
    "section": "Vital Signs Test Name",
    "sim": 16.53,
    "via_lookup": false
   },
   {
    "source": "domains/CV/spec.md",
    "section": "Controlled Terminology",
    "sim": 0.6367,
    "via_lookup": false
   },
   {
    "source": "chapters/ch04_general_assumptions.md",
    "section": "4.5.5 Clinical Significance for Findings Observation Class Data",
    "sim": 14.8213,
    "via_lookup": false
   },
   {
    "source": "VARIABLE_INDEX.md",
    "section": "§三 CT 交叉引用: C124300",
    "sim": 0.6129,
    "via_lookup": false
   }
  ]
 },
 {
  "id": "q45",
  "category": "mixed",
  "n": 15,
  "dup_seats": 0,
  "max_cluster": 1,
  "max_cluster_section": "RACE",
  "distinct_sections": 15,
  "max_cluster_section_tied": true,
  "composition": [
   {
    "source": "domains/DM/spec.md",
    "section": "RACE",
    "sim": 0.6135,
    "via_lookup": true
   },
   {
    "source": "terminology/core/dm.md",
    "section": "Race",
    "sim": 0.5464,
    "via_lookup": true
   },
   {
    "source": "domains/DM/assumptions.md",
    "section": "item_6",
    "sim": 0.6038,
    "via_lookup": false
   },
   {
    "source": "VARIABLE_INDEX.md",
    "section": "§三 CT 交叉引用: C74457",
    "sim": 0.6801,
    "via_lookup": false
   },
   {
    "source": "domains/DM/examples.md",
    "section": "Example 6",
    "sim": 0.5663,
    "via_lookup": false
   },
   {
    "source": "domains/DM/examples.md",
    "section": "Example 4",
    "sim": 0.5707,
    "via_lookup": false
   },
   {
    "source": "domains/DM/examples.md",
    "section": "Example 7",
    "sim": 14.9224,
    "via_lookup": false
   },
   {
    "source": "domains/DV/assumptions.md",
    "section": "item_1",
    "sim": 10.2146,
    "via_lookup": false
   },
   {
    "source": "VARIABLE_INDEX.md",
    "section": "§三 CT 交叉引用: C66734",
    "sim": 0.5912,
    "via_lookup": false
   },
   {
    "source": "VARIABLE_INDEX.md",
    "section": "§三 CT 交叉引用: C66790",
    "sim": 0.5682,
    "via_lookup": false
   },
   {
    "source": "terminology/questionnaires/questionnaires_part27.md",
    "section": "Patient-Reported Outcomes Version of the Common Terminology Criteria for Adverse Events Item Library Version 1.0 Questionnaire Test Code",
    "sim": 9.7051,
    "via_lookup": false
   },
   {
    "source": "terminology/questionnaires/questionnaires_part28.md",
    "section": "Patient-Reported Outcomes Version of the Common Terminology Criteria for Adverse Events Item Library Version 1.0 Questionnaire Test Name",
    "sim": 9.4751,
    "via_lookup": false
   },
   {
    "source": "domains/CO/spec.md",
    "section": "Controlled Terminology",
    "sim": 0.5657,
    "via_lookup": false
   },
   {
    "source": "VARIABLE_INDEX.md",
    "section": "§三 CT 交叉引用: C142179",
    "sim": 0.5558,
    "via_lookup": false
   },
   {
    "source": "terminology/supplementary/supplementary_part4.md",
    "section": "Mini-Mental State Examination 2 Standard Version Functional Test Test Name",
    "sim": 8.9583,
    "via_lookup": false
   }
  ]
 },
 {
  "id": "q46",
  "category": "mixed",
  "n": 15,
  "dup_seats": 1,
  "max_cluster": 2,
  "max_cluster_section": "item_2",
  "distinct_sections": 14,
  "max_cluster_section_tied": false,
  "composition": [
   {
    "source": "domains/AE/spec.md",
    "section": "AEOUT",
    "sim": 0.7992,
    "via_lookup": true
   },
   {
    "source": "terminology/core/ae.md",
    "section": "Outcome of Event",
    "sim": 0.6989,
    "via_lookup": true
   },
   {
    "source": "domains/AE/spec.md",
    "section": "Controlled Terminology",
    "sim": 0.6593,
    "via_lookup": false
   },
   {
    "source": "VARIABLE_INDEX.md",
    "section": "§三 CT 交叉引用: C66768",
    "sim": 0.6789,
    "via_lookup": false
   },
   {
    "source": "VARIABLE_INDEX.md",
    "section": "AE — Adverse Events (Events)",
    "sim": 0.6276,
    "via_lookup": false
   },
   {
    "source": "domains/AE/assumptions.md",
    "section": "item_2",
    "sim": 0.7025,
    "via_lookup": false
   },
   {
    "source": "domains/AE/examples.md",
    "section": "Example 1",
    "sim": 0.6052,
    "via_lookup": false
   },
   {
    "source": "domains/DD/assumptions.md",
    "section": "item_2",
    "sim": 15.2792,
    "via_lookup": false
   },
   {
    "source": "domains/AE/examples.md",
    "section": "Example 6",
    "sim": 12.8773,
    "via_lookup": false
   },
   {
    "source": "domains/AE/spec.md",
    "section": "AETERM",
    "sim": 0.628,
    "via_lookup": false
   },
   {
    "source": "domains/AE/spec.md",
    "section": "AECAT",
    "sim": 0.6235,
    "via_lookup": false
   },
   {
    "source": "domains/AE/assumptions.md",
    "section": "item_7",
    "sim": 12.2271,
    "via_lookup": false
   },
   {
    "source": "domains/AE/spec.md",
    "section": "AEACN",
    "sim": 0.6183,
    "via_lookup": false
   },
   {
    "source": "domains/DS/examples.md",
    "section": "Example 4",
    "sim": 12.1524,
    "via_lookup": false
   },
   {
    "source": "VARIABLE_INDEX.md",
    "section": "§三 CT 交叉引用: C111110",
    "sim": 0.6117,
    "via_lookup": false
   }
  ]
 },
 {
  "id": "q47",
  "category": "mixed",
  "n": 15,
  "dup_seats": 2,
  "max_cluster": 2,
  "max_cluster_section": "item_9",
  "distinct_sections": 13,
  "max_cluster_section_tied": true,
  "composition": [
   {
    "source": "VARIABLE_INDEX.md",
    "section": "QS — Questionnaires (Findings)",
    "sim": 0.6735,
    "via_lookup": true
   },
   {
    "source": "domains/QS/spec.md",
    "section": "QSCAT",
    "sim": 0.6924,
    "via_lookup": true
   },
   {
    "source": "chapters/ch04_general_assumptions.md",
    "section": "4.1.7 Splitting Domains",
    "sim": 0.6635,
    "via_lookup": false
   },
   {
    "source": "domains/SUPPQUAL/examples.md",
    "section": "Example 2",
    "sim": 0.6613,
    "via_lookup": false
   },
   {
    "source": "chapters/ch08_relationships.md",
    "section": "8.6.2 Guidelines for Forming New Domains",
    "sim": 0.5786,
    "via_lookup": false
   },
   {
    "source": "chapters/ch08_relationships.md",
    "section": "8.4.3 Examples",
    "sim": 0.5776,
    "via_lookup": false
   },
   {
    "source": "domains/QS/spec.md",
    "section": "QSTESTCD",
    "sim": 0.6458,
    "via_lookup": false
   },
   {
    "source": "model/01_concepts_and_terms.md",
    "section": "2.1 Model Concepts and Terms — Variables",
    "sim": 0.5429,
    "via_lookup": false
   },
   {
    "source": "domains/QS/assumptions.md",
    "section": "item_9",
    "sim": 0.538,
    "via_lookup": false
   },
   {
    "source": "domains/FT/assumptions.md",
    "section": "item_9",
    "sim": 0.538,
    "via_lookup": false
   },
   {
    "source": "chapters/ch02_fundamentals.md",
    "section": "2.6 Creating a New Domain",
    "sim": 14.3934,
    "via_lookup": false
   },
   {
    "source": "terminology/questionnaires/questionnaires_part28.md",
    "section": "Pediatric Outcomes Data Collection Instrument, Adolescent Parent-Reported Version Questionnaire Test Name",
    "sim": 14.2651,
    "via_lookup": false
   },
   {
    "source": "domains/QS/assumptions.md",
    "section": "item_1",
    "sim": 0.6505,
    "via_lookup": false
   },
   {
    "source": "terminology/questionnaires/questionnaires_part29.md",
    "section": "Pediatric Outcomes Data Collection Instrument, Pediatric Parent-Reported Version Questionnaire Test Name",
    "sim": 14.252,
    "via_lookup": false
   },
   {
    "source": "domains/FT/assumptions.md",
    "section": "item_1",
    "sim": 0.6505,
    "via_lookup": false
   }
  ]
 },
 {
  "id": "q48",
  "category": "mixed",
  "n": 15,
  "dup_seats": 0,
  "max_cluster": 1,
  "max_cluster_section": "Controlled Terminology",
  "distinct_sections": 15,
  "max_cluster_section_tied": true,
  "composition": [
   {
    "source": "domains/FA/spec.md",
    "section": "Controlled Terminology",
    "sim": 0.679,
    "via_lookup": true
   },
   {
    "source": "terminology/core/findings_about.md",
    "section": "Findings About Test Code",
    "sim": 0.4066,
    "via_lookup": true
   },
   {
    "source": "VARIABLE_INDEX.md",
    "section": "§三 CT 交叉引用: C101832",
    "sim": 0.7634,
    "via_lookup": false
   },
   {
    "source": "VARIABLE_INDEX.md",
    "section": "§三 CT 交叉引用: C101833",
    "sim": 0.7333,
    "via_lookup": false
   },
   {
    "source": "domains/FA/assumptions.md",
    "section": "item_4",
    "sim": 0.6339,
    "via_lookup": false
   },
   {
    "source": "domains/FA/spec.md",
    "section": "FATESTCD",
    "sim": 0.6772,
    "via_lookup": false
   },
   {
    "source": "model/02_observation_classes.md",
    "section": "3.1.3 The Findings Observation Class",
    "sim": 17.4925,
    "via_lookup": false
   },
   {
    "source": "chapters/ch02_fundamentals.md",
    "section": "Findings About — Naming Findings About Domains (Reference Material)",
    "sim": 14.1142,
    "via_lookup": false
   },
   {
    "source": "VARIABLE_INDEX.md",
    "section": "§三 CT 交叉引用: C181178",
    "sim": 0.6668,
    "via_lookup": false
   },
   {
    "source": "VARIABLE_INDEX.md",
    "section": "§三 CT 交叉引用: C115304",
    "sim": 0.6647,
    "via_lookup": false
   },
   {
    "source": "chapters/ch10_appendices.md",
    "section": "Appendix E: Revision History",
    "sim": 12.0898,
    "via_lookup": false
   },
   {
    "source": "domains/FT/spec.md",
    "section": "FTTESTCD",
    "sim": 0.658,
    "via_lookup": false
   },
   {
    "source": "domains/FA/examples.md",
    "section": "Example 1",
    "sim": 11.7001,
    "via_lookup": false
   },
   {
    "source": "VARIABLE_INDEX.md",
    "section": "§三 CT 交叉引用: C85839",
    "sim": 0.6395,
    "via_lookup": false
   },
   {
    "source": "chapters/ch01_introduction.md",
    "section": "1.3 Relationship to Prior CDISC Documents",
    "sim": 11.4699,
    "via_lookup": false
   }
  ]
 },
 {
  "id": "s01",
  "category": "single_domain",
  "n": 15,
  "dup_seats": 0,
  "max_cluster": 1,
  "max_cluster_section": "SEX",
  "distinct_sections": 15,
  "max_cluster_section_tied": true,
  "composition": [
   {
    "source": "domains/DM/spec.md",
    "section": "SEX",
    "sim": 0.6528,
    "via_lookup": true
   },
   {
    "source": "terminology/core/dm.md",
    "section": "Sex",
    "sim": 0.6521,
    "via_lookup": true
   },
   {
    "source": "VARIABLE_INDEX.md",
    "section": "§三 CT 交叉引用: C66731",
    "sim": 0.7772,
    "via_lookup": false
   },
   {
    "source": "VARIABLE_INDEX.md",
    "section": "§三 CT 交叉引用: C66790",
    "sim": 0.643,
    "via_lookup": false
   },
   {
    "source": "VARIABLE_INDEX.md",
    "section": "§三 CT 交叉引用: C74457",
    "sim": 0.6332,
    "via_lookup": false
   },
   {
    "source": "VARIABLE_INDEX.md",
    "section": "§三 CT 交叉引用: C66781",
    "sim": 0.6193,
    "via_lookup": false
   },
   {
    "source": "domains/DM/spec.md",
    "section": "Controlled Terminology",
    "sim": 0.5863,
    "via_lookup": false
   },
   {
    "source": "domains/DM/examples.md",
    "section": "Example 7",
    "sim": 11.0333,
    "via_lookup": false
   },
   {
    "source": "domains/TS/assumptions.md",
    "section": "item_18",
    "sim": 10.4017,
    "via_lookup": false
   },
   {
    "source": "domains/DM/assumptions.md",
    "section": "item_6",
    "sim": 10.3988,
    "via_lookup": false
   },
   {
    "source": "VARIABLE_INDEX.md",
    "section": "§三 CT 交叉引用: C66726",
    "sim": 0.6412,
    "via_lookup": false
   },
   {
    "source": "terminology/questionnaires/questionnaires_part27.md",
    "section": "Patient-Reported Outcomes Version of the Common Terminology Criteria for Adverse Events Item Library Version 1.0 Questionnaire Test Code",
    "sim": 9.8398,
    "via_lookup": false
   },
   {
    "source": "chapters/ch08_relationships.md",
    "section": "Key Rules",
    "sim": 9.7481,
    "via_lookup": false
   },
   {
    "source": "VARIABLE_INDEX.md",
    "section": "§三 CT 交叉引用: C66734",
    "sim": 0.6219,
    "via_lookup": false
   },
   {
    "source": "terminology/questionnaires/questionnaires_part28.md",
    "section": "Patient-Reported Outcomes Version of the Common Terminology Criteria for Adverse Events Item Library Version 1.0 Questionnaire Test Name",
    "sim": 9.5636,
    "via_lookup": false
   }
  ]
 },
 {
  "id": "s02",
  "category": "concept",
  "n": 15,
  "dup_seats": 0,
  "max_cluster": 1,
  "max_cluster_section": "QNAM",
  "distinct_sections": 15,
  "max_cluster_section_tied": true,
  "composition": [
   {
    "source": "domains/SUPPQUAL/spec.md",
    "section": "QNAM",
    "sim": 0.6726,
    "via_lookup": true
   },
   {
    "source": "domains/SUPPQUAL/spec.md",
    "section": "QVAL",
    "sim": 0.6267,
    "via_lookup": true
   },
   {
    "source": "domains/SUPPQUAL/spec.md",
    "section": "QLABEL",
    "sim": 0.5758,
    "via_lookup": true
   },
   {
    "source": "domains/SUPPQUAL/spec.md",
    "section": "QEVAL",
    "sim": 0.4786,
    "via_lookup": true
   },
   {
    "source": "chapters/ch04_general_assumptions.md",
    "section": "4.5.3 Text Strings that Exceed the Maximum Length for General Observation-class Domain Variables",
    "sim": 0.5437,
    "via_lookup": false
   },
   {
    "source": "chapters/ch08_relationships.md",
    "section": "Key Rules",
    "sim": 0.6734,
    "via_lookup": false
   },
   {
    "source": "chapters/ch04_general_assumptions.md",
    "section": "4.2.1 Variable-Naming Conventions",
    "sim": 0.5102,
    "via_lookup": false
   },
   {
    "source": "chapters/ch04_general_assumptions.md",
    "section": "4.5.4 Evaluators in the Interventions and Events Observation Classes",
    "sim": 0.5625,
    "via_lookup": false
   },
   {
    "source": "chapters/ch08_relationships.md",
    "section": "8.4.2 Submitting Supplemental Qualifiers in Separate Datasets",
    "sim": 0.5955,
    "via_lookup": false
   },
   {
    "source": "VARIABLE_INDEX.md",
    "section": "SUPPQUAL — Supplemental Qualifiers for [domain name] (Relationship)",
    "sim": 0.6939,
    "via_lookup": false
   },
   {
    "source": "chapters/ch04_general_assumptions.md",
    "section": "4.2.9 Variable Lengths",
    "sim": 13.5957,
    "via_lookup": false
   },
   {
    "source": "chapters/ch08_relationships.md",
    "section": "8.4.1 Supplemental Qualifiers (SUPP--)",
    "sim": 0.6554,
    "via_lookup": false
   },
   {
    "source": "domains/DM/examples.md",
    "section": "Example 7",
    "sim": 12.6299,
    "via_lookup": false
   },
   {
    "source": "terminology/supplementary/supplementary_part4.md",
    "section": "Mini-Mental State Examination 2 Standard Version Functional Test Test Name",
    "sim": 11.9443,
    "via_lookup": false
   },
   {
    "source": "model/06_relationship_datasets.md",
    "section": "6.2 Supplemental Qualifiers (SUPP--)",
    "sim": 0.6103,
    "via_lookup": false
   }
  ]
 },
 {
  "id": "s03",
  "category": "cross_domain",
  "n": 15,
  "dup_seats": 0,
  "max_cluster": 1,
  "max_cluster_section": "RFXENDTC",
  "distinct_sections": 15,
  "max_cluster_section_tied": true,
  "composition": [
   {
    "source": "domains/DM/spec.md",
    "section": "RFXENDTC",
    "sim": 0.6568,
    "via_lookup": true
   },
   {
    "source": "domains/EX/spec.md",
    "section": "EXENDTC",
    "sim": 0.5798,
    "via_lookup": true
   },
   {
    "source": "domains/DM/assumptions.md",
    "section": "item_10",
    "sim": 0.637,
    "via_lookup": false
   },
   {
    "source": "domains/DM/spec.md",
    "section": "RFXSTDTC",
    "sim": 0.6269,
    "via_lookup": false
   },
   {
    "source": "domains/DM/spec.md",
    "section": "RFCENDTC",
    "sim": 0.5537,
    "via_lookup": false
   },
   {
    "source": "domains/EX/assumptions.md",
    "section": "item_4",
    "sim": 0.5313,
    "via_lookup": false
   },
   {
    "source": "domains/EX/assumptions.md",
    "section": "item_5",
    "sim": 0.5203,
    "via_lookup": false
   },
   {
    "source": "domains/DM/assumptions.md",
    "section": "item_7",
    "sim": 0.6711,
    "via_lookup": false
   },
   {
    "source": "model/03_special_purpose_domains.md",
    "section": "Demographics (DM)",
    "sim": 14.6137,
    "via_lookup": false
   },
   {
    "source": "chapters/ch04_general_assumptions.md",
    "section": "4.5.9 Baseline Values",
    "sim": 14.2419,
    "via_lookup": false
   },
   {
    "source": "domains/DM/assumptions.md",
    "section": "item_9",
    "sim": 0.5943,
    "via_lookup": false
   },
   {
    "source": "domains/DM/examples.md",
    "section": "Example 6",
    "sim": 13.8273,
    "via_lookup": false
   },
   {
    "source": "domains/EX/spec.md",
    "section": "EXSTDY",
    "sim": 0.5633,
    "via_lookup": false
   },
   {
    "source": "domains/CP/spec.md",
    "section": "CPCSMRKS",
    "sim": 13.1192,
    "via_lookup": false
   },
   {
    "source": "model/01_concepts_and_terms.md",
    "section": "2.1 Model Concepts and Terms — Variables",
    "sim": 12.9733,
    "via_lookup": false
   }
  ]
 },
 {
  "id": "s04",
  "category": "mixed",
  "n": 15,
  "dup_seats": 0,
  "max_cluster": 1,
  "max_cluster_section": "AEACN",
  "distinct_sections": 15,
  "max_cluster_section_tied": true,
  "composition": [
   {
    "source": "domains/AE/spec.md",
    "section": "AEACN",
    "sim": 0.7623,
    "via_lookup": true
   },
   {
    "source": "terminology/core/ae.md",
    "section": "Action Taken with Study Treatment",
    "sim": 0.6319,
    "via_lookup": true
   },
   {
    "source": "domains/AE/spec.md",
    "section": "Controlled Terminology",
    "sim": 0.6766,
    "via_lookup": false
   },
   {
    "source": "VARIABLE_INDEX.md",
    "section": "§三 CT 交叉引用: C66767",
    "sim": 0.7072,
    "via_lookup": false
   },
   {
    "source": "domains/AE/assumptions.md",
    "section": "item_6",
    "sim": 0.676,
    "via_lookup": false
   },
   {
    "source": "domains/AE/spec.md",
    "section": "AEREL",
    "sim": 0.6258,
    "via_lookup": false
   },
   {
    "source": "domains/AE/spec.md",
    "section": "AEACNOTH",
    "sim": 0.6376,
    "via_lookup": false
   },
   {
    "source": "domains/AE/examples.md",
    "section": "Example 1",
    "sim": 0.6126,
    "via_lookup": false
   },
   {
    "source": "chapters/ch04_general_assumptions.md",
    "section": "4.2.8 Multiple Values for a Variable",
    "sim": 19.4224,
    "via_lookup": false
   },
   {
    "source": "VARIABLE_INDEX.md",
    "section": "§三 CT 交叉引用: C111110",
    "sim": 0.6971,
    "via_lookup": false
   },
   {
    "source": "domains/AE/assumptions.md",
    "section": "item_2",
    "sim": 0.6843,
    "via_lookup": false
   },
   {
    "source": "VARIABLE_INDEX.md",
    "section": "§三 CT 交叉引用: C66769",
    "sim": 0.6804,
    "via_lookup": false
   },
   {
    "source": "chapters/ch04_general_assumptions.md",
    "section": "4.2.7 Submitting Free Text from the CRF",
    "sim": 16.2882,
    "via_lookup": false
   },
   {
    "source": "chapters/ch04_general_assumptions.md",
    "section": "4.5.3 Text Strings that Exceed the Maximum Length for General Observation-class Domain Variables",
    "sim": 15.469,
    "via_lookup": false
   },
   {
    "source": "domains/AE/spec.md",
    "section": "AEHLTCD",
    "sim": 0.6686,
    "via_lookup": false
   }
  ]
 },
 {
  "id": "s05",
  "category": "single_domain",
  "n": 15,
  "dup_seats": 1,
  "max_cluster": 2,
  "max_cluster_section": "item_1",
  "distinct_sections": 14,
  "max_cluster_section_tied": false,
  "composition": [
   {
    "source": "domains/VS/spec.md",
    "section": "Controlled Terminology",
    "sim": 0.6638,
    "via_lookup": true
   },
   {
    "source": "terminology/core/vs.md",
    "section": "Units for Vital Signs Results",
    "sim": 0.5108,
    "via_lookup": true
   },
   {
    "source": "VARIABLE_INDEX.md",
    "section": "§三 CT 交叉引用: C66741",
    "sim": 0.7254,
    "via_lookup": false
   },
   {
    "source": "VARIABLE_INDEX.md",
    "section": "§三 CT 交叉引用: C67153",
    "sim": 0.703,
    "via_lookup": false
   },
   {
    "source": "VARIABLE_INDEX.md",
    "section": "§三 CT 交叉引用: C66770",
    "sim": 0.6478,
    "via_lookup": false
   },
   {
    "source": "chapters/ch01_introduction.md",
    "section": "1.4 How to Read this Implementation Guide",
    "sim": 15.0573,
    "via_lookup": false
   },
   {
    "source": "VARIABLE_INDEX.md",
    "section": "§三 CT 交叉引用: C120525",
    "sim": 0.6939,
    "via_lookup": false
   },
   {
    "source": "domains/VS/examples.md",
    "section": "Example 1",
    "sim": 14.2035,
    "via_lookup": false
   },
   {
    "source": "VARIABLE_INDEX.md",
    "section": "§三 CT 交叉引用: C124300",
    "sim": 0.6927,
    "via_lookup": false
   },
   {
    "source": "chapters/ch04_general_assumptions.md",
    "section": "4.3.3 Controlled Terminology Values",
    "sim": 13.7707,
    "via_lookup": false
   },
   {
    "source": "VARIABLE_INDEX.md",
    "section": "§三 CT 交叉引用: C116104",
    "sim": 0.686,
    "via_lookup": false
   },
   {
    "source": "domains/FT/assumptions.md",
    "section": "item_1",
    "sim": 13.6176,
    "via_lookup": false
   },
   {
    "source": "VARIABLE_INDEX.md",
    "section": "§三 CT 交叉引用: C124305",
    "sim": 0.6816,
    "via_lookup": false
   },
   {
    "source": "domains/QS/assumptions.md",
    "section": "item_1",
    "sim": 13.6176,
    "via_lookup": false
   },
   {
    "source": "domains/VS/assumptions.md",
    "section": "item_3",
    "sim": 0.6773,
    "via_lookup": false
   }
  ]
 },
 {
  "id": "q54",
  "category": "single_domain",
  "n": 15,
  "dup_seats": 0,
  "max_cluster": 1,
  "max_cluster_section": "DVTERM",
  "distinct_sections": 15,
  "max_cluster_section_tied": true,
  "composition": [
   {
    "source": "domains/DV/spec.md",
    "section": "DVTERM",
    "sim": 0.7538,
    "via_lookup": true
   },
   {
    "source": "domains/DV/spec.md",
    "section": "DVDECOD",
    "sim": 0.6638,
    "via_lookup": true
   },
   {
    "source": "domains/DV/spec.md",
    "section": "DVSCAT",
    "sim": 0.6494,
    "via_lookup": true
   },
   {
    "source": "domains/DV/spec.md",
    "section": "DVENDTC",
    "sim": 0.579,
    "via_lookup": true
   },
   {
    "source": "domains/DV/assumptions.md",
    "section": "item_1",
    "sim": 0.7551,
    "via_lookup": false
   },
   {
    "source": "VARIABLE_INDEX.md",
    "section": "DV — Protocol Deviations (Events)",
    "sim": 0.7049,
    "via_lookup": false
   },
   {
    "source": "domains/DV/examples.md",
    "section": "Example 1",
    "sim": 0.6157,
    "via_lookup": false
   },
   {
    "source": "domains/DV/assumptions.md",
    "section": "item_2",
    "sim": 0.5632,
    "via_lookup": false
   },
   {
    "source": "domains/DV/assumptions.md",
    "section": "item_3",
    "sim": 0.595,
    "via_lookup": false
   },
   {
    "source": "chapters/ch04_general_assumptions.md",
    "section": "4.3.6 Storing Topic Variables for General Domain Models",
    "sim": 0.5763,
    "via_lookup": false
   },
   {
    "source": "model/01_concepts_and_terms.md",
    "section": "2.1 Model Concepts and Terms — Variables",
    "sim": 0.5486,
    "via_lookup": false
   },
   {
    "source": "chapters/ch02_fundamentals.md",
    "section": "2.3 The General Observation Classes",
    "sim": 0.5369,
    "via_lookup": false
   },
   {
    "source": "domains/BE/spec.md",
    "section": "BETERM",
    "sim": 0.555,
    "via_lookup": false
   },
   {
    "source": "chapters/ch02_fundamentals.md",
    "section": "2.1 Observations and Variables",
    "sim": 0.525,
    "via_lookup": false
   },
   {
    "source": "model/02_observation_classes.md",
    "section": "3.1.3 The Findings Observation Class",
    "sim": 11.2931,
    "via_lookup": false
   }
  ]
 },
 {
  "id": "q55",
  "category": "single_domain",
  "n": 15,
  "dup_seats": 0,
  "max_cluster": 1,
  "max_cluster_section": "DSTERM",
  "distinct_sections": 15,
  "max_cluster_section_tied": true,
  "composition": [
   {
    "source": "domains/DS/spec.md",
    "section": "DSTERM",
    "sim": 0.6292,
    "via_lookup": true
   },
   {
    "source": "domains/DS/spec.md",
    "section": "DSSCAT",
    "sim": 0.5722,
    "via_lookup": true
   },
   {
    "source": "domains/DS/spec.md",
    "section": "DSDECOD",
    "sim": 0.5432,
    "via_lookup": true
   },
   {
    "source": "domains/DS/spec.md",
    "section": "DSDTC",
    "sim": 0.5266,
    "via_lookup": true
   },
   {
    "source": "domains/DS/assumptions.md",
    "section": "item_4",
    "sim": 0.5831,
    "via_lookup": false
   },
   {
    "source": "chapters/ch02_fundamentals.md",
    "section": "2.3 The General Observation Classes",
    "sim": 0.5371,
    "via_lookup": false
   },
   {
    "source": "VARIABLE_INDEX.md",
    "section": "DS — Disposition (Events)",
    "sim": 0.6455,
    "via_lookup": false
   },
   {
    "source": "domains/DS/assumptions.md",
    "section": "item_3",
    "sim": 0.598,
    "via_lookup": false
   },
   {
    "source": "domains/DS/examples.md",
    "section": "Example 2",
    "sim": 11.6707,
    "via_lookup": false
   },
   {
    "source": "domains/DS/examples.md",
    "section": "Example 1",
    "sim": 11.3772,
    "via_lookup": false
   },
   {
    "source": "domains/DS/examples.md",
    "section": "Example 7",
    "sim": 11.074,
    "via_lookup": false
   },
   {
    "source": "model/01_concepts_and_terms.md",
    "section": "2.1 Model Concepts and Terms — Variables",
    "sim": 0.5543,
    "via_lookup": false
   },
   {
    "source": "domains/DS/examples.md",
    "section": "Example 8",
    "sim": 10.934,
    "via_lookup": false
   },
   {
    "source": "model/02_observation_classes.md",
    "section": "Overview",
    "sim": 0.545,
    "via_lookup": false
   },
   {
    "source": "chapters/ch04_general_assumptions.md",
    "section": "4.2.8 Multiple Values for a Variable",
    "sim": 10.7849,
    "via_lookup": false
   }
  ]
 },
 {
  "id": "q56",
  "category": "single_domain",
  "n": 15,
  "dup_seats": 0,
  "max_cluster": 1,
  "max_cluster_section": "SUDOSE",
  "distinct_sections": 15,
  "max_cluster_section_tied": true,
  "composition": [
   {
    "source": "domains/SU/spec.md",
    "section": "SUDOSE",
    "sim": 0.6606,
    "via_lookup": true
   },
   {
    "source": "domains/SU/spec.md",
    "section": "SUDOSTOT",
    "sim": 0.6408,
    "via_lookup": true
   },
   {
    "source": "domains/SU/spec.md",
    "section": "SUCLAS",
    "sim": 0.6342,
    "via_lookup": true
   },
   {
    "source": "domains/SU/spec.md",
    "section": "SUCLASCD",
    "sim": 0.6277,
    "via_lookup": true
   },
   {
    "source": "VARIABLE_INDEX.md",
    "section": "SU — Substance Use (Interventions)",
    "sim": 0.7107,
    "via_lookup": false
   },
   {
    "source": "domains/SU/assumptions.md",
    "section": "item_2",
    "sim": 0.6671,
    "via_lookup": false
   },
   {
    "source": "domains/SU/examples.md",
    "section": "Example 1",
    "sim": 0.5998,
    "via_lookup": false
   },
   {
    "source": "domains/SU/assumptions.md",
    "section": "item_3",
    "sim": 0.6107,
    "via_lookup": false
   },
   {
    "source": "domains/SU/assumptions.md",
    "section": "item_1",
    "sim": 0.6019,
    "via_lookup": false
   },
   {
    "source": "domains/SU/spec.md",
    "section": "SUTRT",
    "sim": 0.5923,
    "via_lookup": false
   },
   {
    "source": "domains/SU/spec.md",
    "section": "SUDECOD",
    "sim": 0.5516,
    "via_lookup": false
   },
   {
    "source": "domains/SU/spec.md",
    "section": "SUOCCUR",
    "sim": 0.5782,
    "via_lookup": false
   },
   {
    "source": "chapters/ch02_fundamentals.md",
    "section": "2.3 The General Observation Classes",
    "sim": 10.575,
    "via_lookup": false
   },
   {
    "source": "domains/FA/spec.md",
    "section": "Related Domains",
    "sim": 10.5211,
    "via_lookup": false
   },
   {
    "source": "domains/SU/spec.md",
    "section": "SUCAT",
    "sim": 0.6114,
    "via_lookup": false
   }
  ]
 },
 {
  "id": "q57",
  "category": "single_domain",
  "n": 15,
  "dup_seats": 4,
  "max_cluster": 4,
  "max_cluster_section": "item_1",
  "distinct_sections": 11,
  "max_cluster_section_tied": false,
  "composition": [
   {
    "source": "domains/PR/spec.md",
    "section": "PRTRT",
    "sim": 0.7274,
    "via_lookup": true
   },
   {
    "source": "domains/PR/spec.md",
    "section": "PRDECOD",
    "sim": 0.6199,
    "via_lookup": true
   },
   {
    "source": "domains/PR/spec.md",
    "section": "PRROUTE",
    "sim": 0.6094,
    "via_lookup": true
   },
   {
    "source": "domains/PR/spec.md",
    "section": "PRGRPID",
    "sim": 0.605,
    "via_lookup": true
   },
   {
    "source": "domains/PR/examples.md",
    "section": "Example 1",
    "sim": 0.5823,
    "via_lookup": false
   },
   {
    "source": "VARIABLE_INDEX.md",
    "section": "PR — Procedures (Interventions)",
    "sim": 0.6724,
    "via_lookup": false
   },
   {
    "source": "domains/PR/assumptions.md",
    "section": "item_1",
    "sim": 0.6075,
    "via_lookup": false
   },
   {
    "source": "domains/PR/examples.md",
    "section": "Example 2",
    "sim": 0.5466,
    "via_lookup": false
   },
   {
    "source": "domains/CE/examples.md",
    "section": "Example 3",
    "sim": 12.353,
    "via_lookup": false
   },
   {
    "source": "domains/DV/assumptions.md",
    "section": "item_1",
    "sim": 10.1973,
    "via_lookup": false
   },
   {
    "source": "chapters/ch02_fundamentals.md",
    "section": "2.3 The General Observation Classes",
    "sim": 9.3423,
    "via_lookup": false
   },
   {
    "source": "domains/CV/assumptions.md",
    "section": "item_1",
    "sim": 8.6276,
    "via_lookup": false
   },
   {
    "source": "domains/RE/assumptions.md",
    "section": "item_1",
    "sim": 8.5863,
    "via_lookup": false
   },
   {
    "source": "domains/PR/spec.md",
    "section": "PRTPT",
    "sim": 0.6029,
    "via_lookup": false
   },
   {
    "source": "domains/OE/examples.md",
    "section": "Example 3",
    "sim": 8.474,
    "via_lookup": false
   }
  ]
 },
 {
  "id": "q58",
  "category": "single_domain",
  "n": 15,
  "dup_seats": 1,
  "max_cluster": 2,
  "max_cluster_section": "overview",
  "distinct_sections": 14,
  "max_cluster_section_tied": false,
  "composition": [
   {
    "source": "domains/TS/spec.md",
    "section": "Controlled Terminology",
    "sim": 0.7559,
    "via_lookup": true
   },
   {
    "source": "terminology/core/trial_design.md",
    "section": "Dictionary Name",
    "sim": 0.5276,
    "via_lookup": true
   },
   {
    "source": "VARIABLE_INDEX.md",
    "section": "TS — Trial Summary (Trial Design)",
    "sim": 0.7473,
    "via_lookup": false
   },
   {
    "source": "VARIABLE_INDEX.md",
    "section": "§三 CT 交叉引用: C66738",
    "sim": 0.6897,
    "via_lookup": false
   },
   {
    "source": "domains/TS/spec.md",
    "section": "TSPARMCD",
    "sim": 0.7025,
    "via_lookup": false
   },
   {
    "source": "model/05_study_level_data.md",
    "section": "5.1 Trial Design Model",
    "sim": 0.5922,
    "via_lookup": false
   },
   {
    "source": "domains/TS/assumptions.md",
    "section": "item_8",
    "sim": 0.6527,
    "via_lookup": false
   },
   {
    "source": "domains/TS/assumptions.md",
    "section": "overview",
    "sim": 0.6609,
    "via_lookup": false
   },
   {
    "source": "VARIABLE_INDEX.md",
    "section": "§三 CT 交叉引用: C67152",
    "sim": 0.6827,
    "via_lookup": false
   },
   {
    "source": "domains/TI/assumptions.md",
    "section": "overview",
    "sim": 0.5783,
    "via_lookup": false
   },
   {
    "source": "domains/TS/assumptions.md",
    "section": "item_9",
    "sim": 0.6469,
    "via_lookup": false
   },
   {
    "source": "domains/TS/assumptions.md",
    "section": "item_12",
    "sim": 0.6442,
    "via_lookup": false
   },
   {
    "source": "domains/TS/assumptions.md",
    "section": "item_13",
    "sim": 0.583,
    "via_lookup": false
   },
   {
    "source": "domains/TS/assumptions.md",
    "section": "item_17",
    "sim": 0.5901,
    "via_lookup": false
   },
   {
    "source": "VARIABLE_INDEX.md",
    "section": "§三 CT 交叉引用: C66788",
    "sim": 0.5796,
    "via_lookup": false
   }
  ]
 },
 {
  "id": "q59",
  "category": "single_domain",
  "n": 15,
  "dup_seats": 0,
  "max_cluster": 1,
  "max_cluster_section": "DDTESTCD",
  "distinct_sections": 15,
  "max_cluster_section_tied": true,
  "composition": [
   {
    "source": "domains/DD/spec.md",
    "section": "DDTESTCD",
    "sim": 0.766,
    "via_lookup": true
   },
   {
    "source": "terminology/core/other_part4.md",
    "section": "SDTM Death Diagnosis and Details Test Code",
    "sim": 0.6943,
    "via_lookup": true
   },
   {
    "source": "VARIABLE_INDEX.md",
    "section": "§三 CT 交叉引用: C116108",
    "sim": 0.7986,
    "via_lookup": false
   },
   {
    "source": "domains/DD/spec.md",
    "section": "Controlled Terminology",
    "sim": 0.7584,
    "via_lookup": false
   },
   {
    "source": "VARIABLE_INDEX.md",
    "section": "§三 CT 交叉引用: C116107",
    "sim": 0.7712,
    "via_lookup": false
   },
   {
    "source": "domains/DD/spec.md",
    "section": "DDTEST",
    "sim": 0.7599,
    "via_lookup": false
   },
   {
    "source": "VARIABLE_INDEX.md",
    "section": "DD — Death Details (Findings)",
    "sim": 0.6634,
    "via_lookup": false
   },
   {
    "source": "terminology/core/other_part4.md",
    "section": "SDTM Death Diagnosis and Details Test Name",
    "sim": 0.6757,
    "via_lookup": false
   },
   {
    "source": "domains/DD/assumptions.md",
    "section": "item_4",
    "sim": 0.7042,
    "via_lookup": false
   },
   {
    "source": "domains/DD/examples.md",
    "section": "Example 1",
    "sim": 11.4335,
    "via_lookup": false
   },
   {
    "source": "VARIABLE_INDEX.md",
    "section": "§三 CT 交叉引用: C85839",
    "sim": 0.7086,
    "via_lookup": false
   },
   {
    "source": "domains/DD/examples.md",
    "section": "Example 2",
    "sim": 11.0722,
    "via_lookup": false
   },
   {
    "source": "domains/DD/assumptions.md",
    "section": "item_2",
    "sim": 10.4909,
    "via_lookup": false
   },
   {
    "source": "VARIABLE_INDEX.md",
    "section": "§三 CT 交叉引用: C96779",
    "sim": 0.6888,
    "via_lookup": false
   },
   {
    "source": "domains/DD/assumptions.md",
    "section": "item_1",
    "sim": 9.0211,
    "via_lookup": false
   }
  ]
 },
 {
  "id": "q60",
  "category": "single_domain",
  "n": 15,
  "dup_seats": 1,
  "max_cluster": 2,
  "max_cluster_section": "Example 1",
  "distinct_sections": 14,
  "max_cluster_section_tied": false,
  "composition": [
   {
    "source": "domains/CE/spec.md",
    "section": "CETERM",
    "sim": 0.6749,
    "via_lookup": true
   },
   {
    "source": "domains/CE/spec.md",
    "section": "CECAT",
    "sim": 0.6509,
    "via_lookup": true
   },
   {
    "source": "domains/CE/spec.md",
    "section": "CESCAT",
    "sim": 0.6345,
    "via_lookup": true
   },
   {
    "source": "domains/CE/spec.md",
    "section": "CEPRESP",
    "sim": 0.6182,
    "via_lookup": true
   },
   {
    "source": "VARIABLE_INDEX.md",
    "section": "CE — Clinical Events (Events)",
    "sim": 0.7135,
    "via_lookup": false
   },
   {
    "source": "domains/CE/assumptions.md",
    "section": "item_6",
    "sim": 0.6587,
    "via_lookup": false
   },
   {
    "source": "domains/CE/examples.md",
    "section": "Example 2",
    "sim": 0.5962,
    "via_lookup": false
   },
   {
    "source": "domains/CE/assumptions.md",
    "section": "item_1",
    "sim": 0.6275,
    "via_lookup": false
   },
   {
    "source": "domains/CE/examples.md",
    "section": "Example 1",
    "sim": 0.5698,
    "via_lookup": false
   },
   {
    "source": "chapters/ch02_fundamentals.md",
    "section": "2.3 The General Observation Classes",
    "sim": 0.5675,
    "via_lookup": false
   },
   {
    "source": "chapters/ch08_relationships.md",
    "section": "8.6.3 Guidelines for Differentiating Between Interventions, Events, Findings, and Findings About Events or Interventions",
    "sim": 13.6942,
    "via_lookup": false
   },
   {
    "source": "domains/CE/examples.md",
    "section": "Example 3",
    "sim": 12.3973,
    "via_lookup": false
   },
   {
    "source": "model/02_observation_classes.md",
    "section": "3.1.3 The Findings Observation Class",
    "sim": 12.1012,
    "via_lookup": false
   },
   {
    "source": "domains/SM/examples.md",
    "section": "Example 1",
    "sim": 11.2566,
    "via_lookup": false
   },
   {
    "source": "chapters/ch08_relationships.md",
    "section": "8.6.1 Guidelines for Determining the General Observation Class",
    "sim": 11.1979,
    "via_lookup": false
   }
  ]
 },
 {
  "id": "q61",
  "category": "single_domain",
  "n": 15,
  "dup_seats": 0,
  "max_cluster": 1,
  "max_cluster_section": "MBTESTCD",
  "distinct_sections": 15,
  "max_cluster_section_tied": true,
  "composition": [
   {
    "source": "domains/MB/spec.md",
    "section": "MBTESTCD",
    "sim": 0.7379,
    "via_lookup": true
   },
   {
    "source": "terminology/core/microbiology_part2.md",
    "section": "microbiology_part2",
    "sim": 0.5274,
    "via_lookup": true
   },
   {
    "source": "domains/MB/assumptions.md",
    "section": "item_1",
    "sim": 0.7556,
    "via_lookup": false
   },
   {
    "source": "VARIABLE_INDEX.md",
    "section": "§三 CT 交叉引用: C120527",
    "sim": 0.691,
    "via_lookup": false
   },
   {
    "source": "domains/MB/spec.md",
    "section": "Controlled Terminology",
    "sim": 0.7115,
    "via_lookup": false
   },
   {
    "source": "VARIABLE_INDEX.md",
    "section": "MB — Microbiology Specimen (Findings)",
    "sim": 0.6751,
    "via_lookup": false
   },
   {
    "source": "domains/MB/examples.md",
    "section": "Example 1",
    "sim": 0.6598,
    "via_lookup": false
   },
   {
    "source": "domains/MB/assumptions.md",
    "section": "overview",
    "sim": 0.6545,
    "via_lookup": false
   },
   {
    "source": "domains/MB/examples.md",
    "section": "Example 3",
    "sim": 0.6737,
    "via_lookup": false
   },
   {
    "source": "domains/MB/spec.md",
    "section": "MBTSTDTL",
    "sim": 0.7,
    "via_lookup": false
   },
   {
    "source": "domains/MB/examples.md",
    "section": "Example 2",
    "sim": 0.6314,
    "via_lookup": false
   },
   {
    "source": "domains/MB/examples.md",
    "section": "§6.3.5.7.3 Microbiology Specimen and Microbiology Susceptibility Examples",
    "sim": 0.6333,
    "via_lookup": false
   },
   {
    "source": "terminology/core/microbiology_part1.md",
    "section": "Microbiology Findings Test Details",
    "sim": 0.6684,
    "via_lookup": false
   },
   {
    "source": "VARIABLE_INDEX.md",
    "section": "§三 CT 交叉引用: C120528",
    "sim": 0.6523,
    "via_lookup": false
   },
   {
    "source": "domains/MB/spec.md",
    "section": "MBTEST",
    "sim": 0.7148,
    "via_lookup": false
   }
  ]
 },
 {
  "id": "q62",
  "category": "single_domain",
  "n": 15,
  "dup_seats": 1,
  "max_cluster": 2,
  "max_cluster_section": "Controlled Terminology",
  "distinct_sections": 14,
  "max_cluster_section_tied": false,
  "composition": [
   {
    "source": "domains/SS/spec.md",
    "section": "Controlled Terminology",
    "sim": 0.7494,
    "via_lookup": true
   },
   {
    "source": "terminology/core/other_part5.md",
    "section": "Subject Status Test Code",
    "sim": 0.6685,
    "via_lookup": true
   },
   {
    "source": "VARIABLE_INDEX.md",
    "section": "§三 CT 交叉引用: C124305",
    "sim": 0.7199,
    "via_lookup": false
   },
   {
    "source": "VARIABLE_INDEX.md",
    "section": "SS — Subject Status (Findings)",
    "sim": 0.6906,
    "via_lookup": false
   },
   {
    "source": "VARIABLE_INDEX.md",
    "section": "§三 CT 交叉引用: C124306",
    "sim": 0.712,
    "via_lookup": false
   },
   {
    "source": "domains/SS/spec.md",
    "section": "SSTESTCD",
    "sim": 0.6926,
    "via_lookup": false
   },
   {
    "source": "VARIABLE_INDEX.md",
    "section": "§三 CT 交叉引用: C124304",
    "sim": 0.6683,
    "via_lookup": false
   },
   {
    "source": "domains/SS/spec.md",
    "section": "SSTEST",
    "sim": 0.6966,
    "via_lookup": false
   },
   {
    "source": "chapters/ch01_introduction.md",
    "section": "1.4 How to Read this Implementation Guide",
    "sim": 10.4013,
    "via_lookup": false
   },
   {
    "source": "domains/SU/examples.md",
    "section": "Example 1",
    "sim": 9.9164,
    "via_lookup": false
   },
   {
    "source": "domains/SC/spec.md",
    "section": "Controlled Terminology",
    "sim": 0.6745,
    "via_lookup": false
   },
   {
    "source": "terminology/questionnaires/questionnaires_part27.md",
    "section": "Patient-Reported Outcomes Version of the Common Terminology Criteria for Adverse Events Item Library Version 1.0 Questionnaire Test Code",
    "sim": 9.5908,
    "via_lookup": false
   },
   {
    "source": "domains/IS/assumptions.md",
    "section": "item_7",
    "sim": 9.4949,
    "via_lookup": false
   },
   {
    "source": "terminology/questionnaires/questionnaires_part28.md",
    "section": "Patient-Reported Outcomes Version of the Common Terminology Criteria for Adverse Events Item Library Version 1.0 Questionnaire Test Name",
    "sim": 9.4,
    "via_lookup": false
   },
   {
    "source": "terminology/core/other_part5.md",
    "section": "Subject Status Test Name",
    "sim": 0.6658,
    "via_lookup": false
   }
  ]
 },
 {
  "id": "q63",
  "category": "single_domain",
  "n": 15,
  "dup_seats": 0,
  "max_cluster": 1,
  "max_cluster_section": "SCSCAT",
  "distinct_sections": 15,
  "max_cluster_section_tied": true,
  "composition": [
   {
    "source": "domains/SC/spec.md",
    "section": "SCSCAT",
    "sim": 0.6075,
    "via_lookup": true
   },
   {
    "source": "domains/SC/spec.md",
    "section": "SCCAT",
    "sim": 0.5412,
    "via_lookup": true
   },
   {
    "source": "domains/SC/spec.md",
    "section": "Controlled Terminology",
    "sim": 0.5168,
    "via_lookup": true
   },
   {
    "source": "domains/SC/spec.md",
    "section": "SCORRES",
    "sim": 0.4908,
    "via_lookup": true
   },
   {
    "source": "domains/SC/assumptions.md",
    "section": "item_1",
    "sim": 0.6234,
    "via_lookup": false
   },
   {
    "source": "chapters/ch02_fundamentals.md",
    "section": "2.3 The General Observation Classes",
    "sim": 0.5881,
    "via_lookup": false
   },
   {
    "source": "domains/SC/examples.md",
    "section": "SC – Specification (p340)",
    "sim": 0.612,
    "via_lookup": false
   },
   {
    "source": "domains/SC/assumptions.md",
    "section": "item_3",
    "sim": 0.5226,
    "via_lookup": false
   },
   {
    "source": "chapters/ch08_relationships.md",
    "section": "8.6.1 Guidelines for Determining the General Observation Class",
    "sim": 0.4999,
    "via_lookup": false
   },
   {
    "source": "model/01_concepts_and_terms.md",
    "section": "2.1 Model Concepts and Terms — Variables",
    "sim": 0.5022,
    "via_lookup": false
   },
   {
    "source": "terminology/core/general_part4.md",
    "section": "SDTM Domain Abbreviation",
    "sim": 0.5029,
    "via_lookup": false
   },
   {
    "source": "VARIABLE_INDEX.md",
    "section": "SC — Subject Characteristics (Findings)",
    "sim": 0.6357,
    "via_lookup": false
   },
   {
    "source": "domains/SC/examples.md",
    "section": "Example 2",
    "sim": 11.2579,
    "via_lookup": false
   },
   {
    "source": "domains/SUPPQUAL/assumptions.md",
    "section": "overview",
    "sim": 11.2506,
    "via_lookup": false
   },
   {
    "source": "chapters/ch03_submitting_data.md",
    "section": "3.2 Using the CDISC Domain Models in Regulatory Submissions — Dataset Metadata",
    "sim": 10.4869,
    "via_lookup": false
   }
  ]
 },
 {
  "id": "q64",
  "category": "single_domain",
  "n": 15,
  "dup_seats": 3,
  "max_cluster": 2,
  "max_cluster_section": "Related Domains",
  "distinct_sections": 12,
  "max_cluster_section_tied": true,
  "composition": [
   {
    "source": "domains/PC/spec.md",
    "section": "PCORRESU",
    "sim": 0.5528,
    "via_lookup": true
   },
   {
    "source": "domains/PC/spec.md",
    "section": "Related Domains",
    "sim": 0.544,
    "via_lookup": true
   },
   {
    "source": "domains/PC/spec.md",
    "section": "PCGRPID",
    "sim": 0.5292,
    "via_lookup": true
   },
   {
    "source": "domains/PC/spec.md",
    "section": "PCTEST",
    "sim": 0.5153,
    "via_lookup": true
   },
   {
    "source": "domains/PC/assumptions.md",
    "section": "overview",
    "sim": 0.7164,
    "via_lookup": false
   },
   {
    "source": "chapters/ch08_relationships.md",
    "section": "8.6.2 Guidelines for Forming New Domains",
    "sim": 0.5931,
    "via_lookup": false
   },
   {
    "source": "domains/PC/assumptions.md",
    "section": "item_3",
    "sim": 0.5979,
    "via_lookup": false
   },
   {
    "source": "domains/PP/assumptions.md",
    "section": "item_1",
    "sim": 0.5663,
    "via_lookup": false
   },
   {
    "source": "domains/CM/assumptions.md",
    "section": "item_1",
    "sim": 0.5517,
    "via_lookup": false
   },
   {
    "source": "domains/PP/spec.md",
    "section": "Related Domains",
    "sim": 0.5707,
    "via_lookup": false
   },
   {
    "source": "domains/PC/examples.md",
    "section": "Method D (One to One, Using PCSEQ and PPSEQ)",
    "sim": 0.5824,
    "via_lookup": false
   },
   {
    "source": "domains/RELREC/examples.md",
    "section": "Peer Record Examples",
    "sim": 0.5272,
    "via_lookup": false
   },
   {
    "source": "terminology/core/general_part4.md",
    "section": "SDTM Domain Abbreviation",
    "sim": 0.5261,
    "via_lookup": false
   },
   {
    "source": "domains/PC/assumptions.md",
    "section": "item_3",
    "sim": 0.5192,
    "via_lookup": false
   },
   {
    "source": "VARIABLE_INDEX.md",
    "section": "PC — Pharmacokinetics Concentrations (Findings)",
    "sim": 0.6358,
    "via_lookup": false
   }
  ]
 },
 {
  "id": "q65",
  "category": "single_domain",
  "n": 15,
  "dup_seats": 2,
  "max_cluster": 2,
  "max_cluster_section": "item_1",
  "distinct_sections": 13,
  "max_cluster_section_tied": true,
  "composition": [
   {
    "source": "domains/DA/spec.md",
    "section": "DAORRES",
    "sim": 0.5255,
    "via_lookup": true
   },
   {
    "source": "domains/DA/spec.md",
    "section": "Model Definition",
    "sim": 0.4869,
    "via_lookup": true
   },
   {
    "source": "domains/DA/spec.md",
    "section": "Controlled Terminology",
    "sim": 0.4529,
    "via_lookup": true
   },
   {
    "source": "domains/DA/spec.md",
    "section": "DASTAT",
    "sim": 0.4434,
    "via_lookup": true
   },
   {
    "source": "chapters/ch02_fundamentals.md",
    "section": "2.3 The General Observation Classes",
    "sim": 0.551,
    "via_lookup": false
   },
   {
    "source": "VARIABLE_INDEX.md",
    "section": "DA — Product Accountability (Findings)",
    "sim": 0.5747,
    "via_lookup": false
   },
   {
    "source": "chapters/ch08_relationships.md",
    "section": "8.6.1 Guidelines for Determining the General Observation Class",
    "sim": 0.4883,
    "via_lookup": false
   },
   {
    "source": "domains/EC/assumptions.md",
    "section": "item_1",
    "sim": 11.6515,
    "via_lookup": false
   },
   {
    "source": "model/02_observation_classes.md",
    "section": "Overview",
    "sim": 0.5583,
    "via_lookup": false
   },
   {
    "source": "domains/EX/assumptions.md",
    "section": "item_1",
    "sim": 10.5729,
    "via_lookup": false
   },
   {
    "source": "chapters/ch08_relationships.md",
    "section": "8.6.3 Guidelines for Differentiating Between Interventions, Events, Findings, and Findings About Events or Interventions",
    "sim": 10.3494,
    "via_lookup": false
   },
   {
    "source": "chapters/ch02_fundamentals.md",
    "section": "2.4 Datasets Other than General Observation Class Domains",
    "sim": 0.5498,
    "via_lookup": false
   },
   {
    "source": "chapters/ch03_submitting_data.md",
    "section": "3.2 Using the CDISC Domain Models in Regulatory Submissions — Dataset Metadata",
    "sim": 10.1944,
    "via_lookup": false
   },
   {
    "source": "model/03_special_purpose_domains.md",
    "section": "Overview",
    "sim": 0.5482,
    "via_lookup": false
   },
   {
    "source": "model/02_observation_classes.md",
    "section": "3.1.3 The Findings Observation Class",
    "sim": 9.1834,
    "via_lookup": false
   }
  ]
 },
 {
  "id": "q66",
  "category": "cross_domain",
  "n": 15,
  "dup_seats": 3,
  "max_cluster": 3,
  "max_cluster_section": "VISIT",
  "distinct_sections": 12,
  "max_cluster_section_tied": false,
  "composition": [
   {
    "source": "VARIABLE_INDEX.md",
    "section": "§一 通用变量: VISITNUM",
    "sim": 0.7574,
    "via_lookup": true
   },
   {
    "source": "domains/EX/assumptions.md",
    "section": "item_4",
    "sim": 0.6769,
    "via_lookup": false
   },
   {
    "source": "chapters/ch04_general_assumptions.md",
    "section": "4.4.5 Clinical Encounters and Visits",
    "sim": 0.6828,
    "via_lookup": false
   },
   {
    "source": "VARIABLE_INDEX.md",
    "section": "§一 通用变量: VISIT",
    "sim": 0.7442,
    "via_lookup": false
   },
   {
    "source": "VARIABLE_INDEX.md",
    "section": "§一 通用变量: VISITDY",
    "sim": 0.7293,
    "via_lookup": false
   },
   {
    "source": "model/01_concepts_and_terms.md",
    "section": "2.1 Model Concepts and Terms — Variables",
    "sim": 10.5436,
    "via_lookup": false
   },
   {
    "source": "chapters/ch02_fundamentals.md",
    "section": "2.5 The SDTM Standard Domain Models",
    "sim": 9.7706,
    "via_lookup": false
   },
   {
    "source": "chapters/ch03_submitting_data.md",
    "section": "3.1 Standard Metadata for Dataset Contents and Attributes",
    "sim": 9.3638,
    "via_lookup": false
   },
   {
    "source": "domains/SU/assumptions.md",
    "section": "item_4",
    "sim": 0.685,
    "via_lookup": false
   },
   {
    "source": "chapters/ch02_fundamentals.md",
    "section": "2.6 Creating a New Domain",
    "sim": 7.9967,
    "via_lookup": false
   },
   {
    "source": "domains/AG/spec.md",
    "section": "VISIT",
    "sim": 0.6567,
    "via_lookup": false
   },
   {
    "source": "chapters/ch04_general_assumptions.md",
    "section": "4.2.2 Two-character Domain Identifier",
    "sim": 7.8095,
    "via_lookup": false
   },
   {
    "source": "domains/FA/spec.md",
    "section": "VISIT",
    "sim": 0.6563,
    "via_lookup": false
   },
   {
    "source": "chapters/ch04_general_assumptions.md",
    "section": "4.3.7 Use of \"Yes\" and \"No\" Values",
    "sim": 7.2524,
    "via_lookup": false
   },
   {
    "source": "domains/IE/spec.md",
    "section": "VISIT",
    "sim": 0.6538,
    "via_lookup": false
   }
  ]
 },
 {
  "id": "q67",
  "category": "cross_domain",
  "n": 15,
  "dup_seats": 0,
  "max_cluster": 1,
  "max_cluster_section": "§三 CT 交叉引用: C66742",
  "distinct_sections": 15,
  "max_cluster_section_tied": true,
  "composition": [
   {
    "source": "VARIABLE_INDEX.md",
    "section": "§三 CT 交叉引用: C66742",
    "sim": 0.4808,
    "via_lookup": true
   },
   {
    "source": "domains/AE/spec.md",
    "section": "AESEV",
    "sim": 0.5335,
    "via_lookup": true
   },
   {
    "source": "terminology/core/general_part4.md",
    "section": "No Yes Response",
    "sim": 0.6359,
    "via_lookup": true
   },
   {
    "source": "chapters/ch04_general_assumptions.md",
    "section": "4.3.7 Use of \"Yes\" and \"No\" Values",
    "sim": 0.5827,
    "via_lookup": false
   },
   {
    "source": "domains/AE/examples.md",
    "section": "Example 1",
    "sim": 0.5539,
    "via_lookup": false
   },
   {
    "source": "chapters/ch02_fundamentals.md",
    "section": "2.7 SDTM Variables Not Allowed in the SDTMIG",
    "sim": 0.5535,
    "via_lookup": false
   },
   {
    "source": "domains/AE/assumptions.md",
    "section": "item_7",
    "sim": 17.9148,
    "via_lookup": false
   },
   {
    "source": "domains/AE/assumptions.md",
    "section": "item_10",
    "sim": 0.5816,
    "via_lookup": false
   },
   {
    "source": "VARIABLE_INDEX.md",
    "section": "§三 CT 交叉引用: C66769",
    "sim": 0.5794,
    "via_lookup": false
   },
   {
    "source": "chapters/ch03_submitting_data.md",
    "section": "3.1 Standard Metadata for Dataset Contents and Attributes",
    "sim": 16.8723,
    "via_lookup": false
   },
   {
    "source": "domains/CE/spec.md",
    "section": "Controlled Terminology",
    "sim": 0.5699,
    "via_lookup": false
   },
   {
    "source": "chapters/ch01_introduction.md",
    "section": "1.4 How to Read this Implementation Guide",
    "sim": 16.5004,
    "via_lookup": false
   },
   {
    "source": "VARIABLE_INDEX.md",
    "section": "§三 CT 交叉引用: C66767",
    "sim": 0.5642,
    "via_lookup": false
   },
   {
    "source": "chapters/ch04_general_assumptions.md",
    "section": "4.2.6 Grouping Variables and Categorization",
    "sim": 15.6563,
    "via_lookup": false
   },
   {
    "source": "terminology/core/other_part4.md",
    "section": "Severity Response",
    "sim": 0.5591,
    "via_lookup": false
   }
  ]
 },
 {
  "id": "q68",
  "category": "cross_domain",
  "n": 15,
  "dup_seats": 0,
  "max_cluster": 1,
  "max_cluster_section": "§三 CT 交叉引用: C66789",
  "distinct_sections": 15,
  "max_cluster_section_tied": true,
  "composition": [
   {
    "source": "VARIABLE_INDEX.md",
    "section": "§三 CT 交叉引用: C66789",
    "sim": 0.5977,
    "via_lookup": true
   },
   {
    "source": "terminology/core/general_part4.md",
    "section": "Not Done",
    "sim": 0.6315,
    "via_lookup": true
   },
   {
    "source": "domains/SS/spec.md",
    "section": "SSSTAT",
    "sim": 0.6857,
    "via_lookup": false
   },
   {
    "source": "domains/SC/spec.md",
    "section": "SCSTAT",
    "sim": 0.6915,
    "via_lookup": false
   },
   {
    "source": "domains/IS/spec.md",
    "section": "ISSTAT",
    "sim": 0.6623,
    "via_lookup": false
   },
   {
    "source": "domains/PC/spec.md",
    "section": "PCSTAT",
    "sim": 0.6688,
    "via_lookup": false
   },
   {
    "source": "domains/CM/spec.md",
    "section": "CMSTAT",
    "sim": 0.6922,
    "via_lookup": false
   },
   {
    "source": "domains/VS/spec.md",
    "section": "VSSTAT",
    "sim": 0.67,
    "via_lookup": false
   },
   {
    "source": "domains/QS/spec.md",
    "section": "QSSTAT",
    "sim": 0.6625,
    "via_lookup": false
   },
   {
    "source": "domains/SR/spec.md",
    "section": "SRSTAT",
    "sim": 0.6394,
    "via_lookup": false
   },
   {
    "source": "domains/CP/spec.md",
    "section": "CPSTAT",
    "sim": 0.6702,
    "via_lookup": false
   },
   {
    "source": "domains/SU/spec.md",
    "section": "SUSTAT",
    "sim": 0.5933,
    "via_lookup": false
   },
   {
    "source": "domains/BS/spec.md",
    "section": "BSSTAT",
    "sim": 0.6688,
    "via_lookup": false
   },
   {
    "source": "domains/PP/spec.md",
    "section": "PPSTAT",
    "sim": 0.6159,
    "via_lookup": false
   },
   {
    "source": "domains/MS/spec.md",
    "section": "MSSTAT",
    "sim": 0.6844,
    "via_lookup": false
   }
  ]
 },
 {
  "id": "q69",
  "category": "cross_domain",
  "n": 15,
  "dup_seats": 0,
  "max_cluster": 1,
  "max_cluster_section": "§三 CT 交叉引用: C71620",
  "distinct_sections": 15,
  "max_cluster_section_tied": true,
  "composition": [
   {
    "source": "VARIABLE_INDEX.md",
    "section": "§三 CT 交叉引用: C71620",
    "sim": 0.5521,
    "via_lookup": true
   },
   {
    "source": "terminology/core/general_part5.md",
    "section": "general_part5",
    "sim": 0.4806,
    "via_lookup": true
   },
   {
    "source": "domains/CM/spec.md",
    "section": "CMDOSU",
    "sim": 0.7093,
    "via_lookup": false
   },
   {
    "source": "domains/EX/spec.md",
    "section": "EXDOSU",
    "sim": 0.6827,
    "via_lookup": false
   },
   {
    "source": "VARIABLE_INDEX.md",
    "section": "CM — Concomitant/Prior Medications (Interventions)",
    "sim": 0.592,
    "via_lookup": false
   },
   {
    "source": "domains/CM/spec.md",
    "section": "CMDOSTOT",
    "sim": 0.632,
    "via_lookup": false
   },
   {
    "source": "domains/CM/spec.md",
    "section": "CMDOSTXT",
    "sim": 0.6783,
    "via_lookup": false
   },
   {
    "source": "VARIABLE_INDEX.md",
    "section": "EX — Exposure (Interventions)",
    "sim": 0.5948,
    "via_lookup": false
   },
   {
    "source": "model/02_observation_classes.md",
    "section": "3.1.3 The Findings Observation Class",
    "sim": 13.2385,
    "via_lookup": false
   },
   {
    "source": "domains/EC/spec.md",
    "section": "ECDOSU",
    "sim": 0.6936,
    "via_lookup": false
   },
   {
    "source": "chapters/ch02_fundamentals.md",
    "section": "Findings About — Naming Findings About Domains (Reference Material)",
    "sim": 10.8439,
    "via_lookup": false
   },
   {
    "source": "domains/ML/spec.md",
    "section": "MLDOSU",
    "sim": 0.6603,
    "via_lookup": false
   },
   {
    "source": "domains/EC/spec.md",
    "section": "ECDOSE",
    "sim": 0.6325,
    "via_lookup": false
   },
   {
    "source": "chapters/ch04_general_assumptions.md",
    "section": "4.4.11 Disease Milestones and Disease Milestone Timing Variables",
    "sim": 9.3434,
    "via_lookup": false
   },
   {
    "source": "domains/FA/assumptions.md",
    "section": "item_6",
    "sim": 9.3402,
    "via_lookup": false
   }
  ]
 },
 {
  "id": "q70",
  "category": "cross_domain",
  "n": 15,
  "dup_seats": 1,
  "max_cluster": 2,
  "max_cluster_section": "overview",
  "distinct_sections": 14,
  "max_cluster_section_tied": false,
  "composition": [
   {
    "source": "domains/RELSUB/spec.md",
    "section": "RSUBJID",
    "sim": 0.7436,
    "via_lookup": true
   },
   {
    "source": "domains/RELSUB/spec.md",
    "section": "SREL",
    "sim": 0.6211,
    "via_lookup": true
   },
   {
    "source": "domains/RELSUB/spec.md",
    "section": "USUBJID",
    "sim": 0.5621,
    "via_lookup": true
   },
   {
    "source": "domains/RELSUB/spec.md",
    "section": "Controlled Terminology",
    "sim": 0.4967,
    "via_lookup": true
   },
   {
    "source": "chapters/ch08_relationships.md",
    "section": "Assumptions",
    "sim": 0.7848,
    "via_lookup": false
   },
   {
    "source": "domains/RELSUB/assumptions.md",
    "section": "item_7",
    "sim": 0.7736,
    "via_lookup": false
   },
   {
    "source": "domains/RELSUB/assumptions.md",
    "section": "overview",
    "sim": 0.7269,
    "via_lookup": false
   },
   {
    "source": "domains/RELSUB/assumptions.md",
    "section": "item_1",
    "sim": 0.7476,
    "via_lookup": false
   },
   {
    "source": "model/06_relationship_datasets.md",
    "section": "6.4 Related Subjects (RELSUB)",
    "sim": 0.7336,
    "via_lookup": false
   },
   {
    "source": "VARIABLE_INDEX.md",
    "section": "RELSUB — Related Subjects (Relationship)",
    "sim": 0.7428,
    "via_lookup": false
   },
   {
    "source": "domains/RELSUB/assumptions.md",
    "section": "item_8",
    "sim": 0.6928,
    "via_lookup": false
   },
   {
    "source": "model/06_relationship_datasets.md",
    "section": "Summary of Relationship Datasets",
    "sim": 0.6752,
    "via_lookup": false
   },
   {
    "source": "domains/RELREC/assumptions.md",
    "section": "overview",
    "sim": 0.6798,
    "via_lookup": false
   },
   {
    "source": "chapters/ch08_relationships.md",
    "section": "Example",
    "sim": 0.6345,
    "via_lookup": false
   },
   {
    "source": "chapters/ch08_relationships.md",
    "section": "8.1.1 --GRPID Example",
    "sim": 0.6253,
    "via_lookup": false
   }
  ]
 },
 {
  "id": "q71",
  "category": "cross_domain",
  "n": 15,
  "dup_seats": 2,
  "max_cluster": 2,
  "max_cluster_section": "Controlled Terminology",
  "distinct_sections": 13,
  "max_cluster_section_tied": true,
  "composition": [
   {
    "source": "VARIABLE_INDEX.md",
    "section": "§三 CT 交叉引用: C78735",
    "sim": 0.6592,
    "via_lookup": true
   },
   {
    "source": "terminology/core/general_part2.md",
    "section": "Category of Inclusion/Exclusion",
    "sim": 0.4558,
    "via_lookup": true
   },
   {
    "source": "domains/CO/spec.md",
    "section": "COEVALID",
    "sim": 0.6115,
    "via_lookup": false
   },
   {
    "source": "domains/TU/spec.md",
    "section": "TUEVALID",
    "sim": 0.581,
    "via_lookup": false
   },
   {
    "source": "domains/CO/spec.md",
    "section": "Controlled Terminology",
    "sim": 0.6168,
    "via_lookup": false
   },
   {
    "source": "domains/CO/spec.md",
    "section": "COEVAL",
    "sim": 0.6081,
    "via_lookup": false
   },
   {
    "source": "domains/SUPPQUAL/spec.md",
    "section": "Controlled Terminology",
    "sim": 0.5796,
    "via_lookup": false
   },
   {
    "source": "domains/DD/spec.md",
    "section": "DDEVAL",
    "sim": 0.5748,
    "via_lookup": false
   },
   {
    "source": "domains/OE/spec.md",
    "section": "OEEVAL",
    "sim": 0.5779,
    "via_lookup": false
   },
   {
    "source": "domains/NV/spec.md",
    "section": "NVEVAL",
    "sim": 0.5695,
    "via_lookup": false
   },
   {
    "source": "domains/MS/spec.md",
    "section": "MSEVAL",
    "sim": 0.5591,
    "via_lookup": false
   },
   {
    "source": "domains/FT/assumptions.md",
    "section": "item_8",
    "sim": 11.5001,
    "via_lookup": false
   },
   {
    "source": "domains/QS/assumptions.md",
    "section": "item_8",
    "sim": 11.5001,
    "via_lookup": false
   },
   {
    "source": "chapters/ch04_general_assumptions.md",
    "section": "4.5.4 Evaluators in the Interventions and Events Observation Classes",
    "sim": 10.9961,
    "via_lookup": false
   },
   {
    "source": "domains/EG/spec.md",
    "section": "EGEVAL",
    "sim": 0.6042,
    "via_lookup": false
   }
  ]
 },
 {
  "id": "q72",
  "category": "cross_domain",
  "n": 15,
  "dup_seats": 5,
  "max_cluster": 3,
  "max_cluster_section": "item_3",
  "distinct_sections": 10,
  "max_cluster_section_tied": false,
  "composition": [
   {
    "source": "domains/PC/spec.md",
    "section": "Related Domains",
    "sim": 0.5576,
    "via_lookup": true
   },
   {
    "source": "domains/PP/spec.md",
    "section": "Related Domains",
    "sim": 0.549,
    "via_lookup": true
   },
   {
    "source": "domains/PC/assumptions.md",
    "section": "overview",
    "sim": 0.733,
    "via_lookup": false
   },
   {
    "source": "domains/PC/assumptions.md",
    "section": "item_3",
    "sim": 0.6403,
    "via_lookup": false
   },
   {
    "source": "domains/PC/assumptions.md",
    "section": "item_1",
    "sim": 0.567,
    "via_lookup": false
   },
   {
    "source": "domains/PC/examples.md",
    "section": "Method D (One to One, Using PCSEQ and PPSEQ)",
    "sim": 0.597,
    "via_lookup": false
   },
   {
    "source": "chapters/ch08_relationships.md",
    "section": "8.6.2 Guidelines for Forming New Domains",
    "sim": 0.5635,
    "via_lookup": false
   },
   {
    "source": "domains/PC/examples.md",
    "section": "Method D (One to One, Using PCSEQ and PPSEQ)",
    "sim": 0.5615,
    "via_lookup": false
   },
   {
    "source": "domains/PP/examples.md",
    "section": "Pharmacokinetic Parameters (PP) Dataset for All Examples",
    "sim": 0.5769,
    "via_lookup": false
   },
   {
    "source": "domains/PP/assumptions.md",
    "section": "item_1",
    "sim": 0.6135,
    "via_lookup": false
   },
   {
    "source": "domains/PC/assumptions.md",
    "section": "item_3",
    "sim": 0.5174,
    "via_lookup": false
   },
   {
    "source": "domains/PC/assumptions.md",
    "section": "item_2",
    "sim": 0.5205,
    "via_lookup": false
   },
   {
    "source": "domains/PP/assumptions.md",
    "section": "item_3",
    "sim": 0.5475,
    "via_lookup": false
   },
   {
    "source": "domains/PP/examples.md",
    "section": "§6.3.5.9.3 RELREC Method Quick Reference (PP-side view)",
    "sim": 0.5013,
    "via_lookup": false
   },
   {
    "source": "VARIABLE_INDEX.md",
    "section": "PC — Pharmacokinetics Concentrations (Findings)",
    "sim": 0.5634,
    "via_lookup": false
   }
  ]
 },
 {
  "id": "q73",
  "category": "cross_domain",
  "n": 15,
  "dup_seats": 3,
  "max_cluster": 3,
  "max_cluster_section": "RDOMAIN",
  "distinct_sections": 12,
  "max_cluster_section_tied": false,
  "composition": [
   {
    "source": "VARIABLE_INDEX.md",
    "section": "§一 通用变量: RDOMAIN",
    "sim": 0.7319,
    "via_lookup": true
   },
   {
    "source": "model/06_relationship_datasets.md",
    "section": "6.2 Supplemental Qualifiers (SUPP--)",
    "sim": 0.5219,
    "via_lookup": true
   },
   {
    "source": "domains/RELREC/spec.md",
    "section": "RDOMAIN",
    "sim": 0.7528,
    "via_lookup": false
   },
   {
    "source": "chapters/ch08_relationships.md",
    "section": "8.4.4 When Not to Use Supplemental Qualifiers",
    "sim": 17.5956,
    "via_lookup": false
   },
   {
    "source": "domains/SUPPQUAL/spec.md",
    "section": "RDOMAIN",
    "sim": 0.7491,
    "via_lookup": false
   },
   {
    "source": "domains/RELREC/assumptions.md",
    "section": "overview",
    "sim": 15.7701,
    "via_lookup": false
   },
   {
    "source": "chapters/ch08_relationships.md",
    "section": "8.2.2 RELREC Dataset Examples",
    "sim": 14.9123,
    "via_lookup": false
   },
   {
    "source": "domains/CO/spec.md",
    "section": "RDOMAIN",
    "sim": 0.7256,
    "via_lookup": false
   },
   {
    "source": "model/01_concepts_and_terms.md",
    "section": "2.1 Model Concepts and Terms — Variables",
    "sim": 13.9694,
    "via_lookup": false
   },
   {
    "source": "domains/RELREC/spec.md",
    "section": "Controlled Terminology",
    "sim": 0.6892,
    "via_lookup": false
   },
   {
    "source": "chapters/ch02_fundamentals.md",
    "section": "2.2 Datasets and Domains",
    "sim": 12.6038,
    "via_lookup": false
   },
   {
    "source": "VARIABLE_INDEX.md",
    "section": "§一 通用变量: DOMAIN",
    "sim": 0.638,
    "via_lookup": false
   },
   {
    "source": "domains/RELREC/examples.md",
    "section": "Dataset Relationship Example",
    "sim": 11.0129,
    "via_lookup": false
   },
   {
    "source": "domains/SUPPQUAL/spec.md",
    "section": "Related Domains",
    "sim": 0.6272,
    "via_lookup": false
   },
   {
    "source": "domains/SUPPQUAL/assumptions.md",
    "section": "overview",
    "sim": 10.9461,
    "via_lookup": false
   }
  ]
 },
 {
  "id": "q74",
  "category": "cross_domain",
  "n": 15,
  "dup_seats": 0,
  "max_cluster": 1,
  "max_cluster_section": "Related Domains",
  "distinct_sections": 15,
  "max_cluster_section_tied": true,
  "composition": [
   {
    "source": "domains/AE/spec.md",
    "section": "Related Domains",
    "sim": 0.4955,
    "via_lookup": true
   },
   {
    "source": "domains/CM/spec.md",
    "section": "DOMAIN",
    "sim": 0.4617,
    "via_lookup": true
   },
   {
    "source": "model/06_relationship_datasets.md",
    "section": "6.2 Supplemental Qualifiers (SUPP--)",
    "sim": 0.8138,
    "via_lookup": false
   },
   {
    "source": "domains/SUPPQUAL/assumptions.md",
    "section": "overview",
    "sim": 0.7436,
    "via_lookup": false
   },
   {
    "source": "chapters/ch08_relationships.md",
    "section": "8.4.3 Examples",
    "sim": 0.7453,
    "via_lookup": false
   },
   {
    "source": "chapters/ch08_relationships.md",
    "section": "8.3.1 RELREC Dataset Relationship Example",
    "sim": 0.7404,
    "via_lookup": false
   },
   {
    "source": "chapters/ch08_relationships.md",
    "section": "8.4.1 Supplemental Qualifiers (SUPP--)",
    "sim": 0.7655,
    "via_lookup": false
   },
   {
    "source": "chapters/ch04_general_assumptions.md",
    "section": "4.5.4 Evaluators in the Interventions and Events Observation Classes",
    "sim": 0.6448,
    "via_lookup": false
   },
   {
    "source": "chapters/ch08_relationships.md",
    "section": "Key Rules",
    "sim": 0.7166,
    "via_lookup": false
   },
   {
    "source": "chapters/ch08_relationships.md",
    "section": "8.4.2 Submitting Supplemental Qualifiers in Separate Datasets",
    "sim": 0.7411,
    "via_lookup": false
   },
   {
    "source": "chapters/ch04_general_assumptions.md",
    "section": "4.5.3 Text Strings that Exceed the Maximum Length for General Observation-class Domain Variables",
    "sim": 0.5952,
    "via_lookup": false
   },
   {
    "source": "chapters/ch04_general_assumptions.md",
    "section": "4.1.7 Splitting Domains",
    "sim": 0.6887,
    "via_lookup": false
   },
   {
    "source": "chapters/ch08_relationships.md",
    "section": "8.4.4 When Not to Use Supplemental Qualifiers",
    "sim": 0.6316,
    "via_lookup": false
   },
   {
    "source": "chapters/ch04_general_assumptions.md",
    "section": "4.2.8 Multiple Values for a Variable",
    "sim": 0.5677,
    "via_lookup": false
   },
   {
    "source": "chapters/ch03_submitting_data.md",
    "section": "3.2 Using the CDISC Domain Models in Regulatory Submissions — Dataset Metadata",
    "sim": 0.5879,
    "via_lookup": false
   }
  ]
 },
 {
  "id": "q75",
  "category": "cross_domain",
  "n": 15,
  "dup_seats": 4,
  "max_cluster": 4,
  "max_cluster_section": "USUBJID",
  "distinct_sections": 11,
  "max_cluster_section_tied": false,
  "composition": [
   {
    "source": "model/02_observation_classes.md",
    "section": "Overview",
    "sim": 0.6708,
    "via_lookup": false
   },
   {
    "source": "model/02_observation_classes.md",
    "section": "3.1.4 Identifiers for All Classes",
    "sim": 0.6648,
    "via_lookup": false
   },
   {
    "source": "chapters/ch02_fundamentals.md",
    "section": "2.1 Observations and Variables",
    "sim": 0.6631,
    "via_lookup": false
   },
   {
    "source": "VARIABLE_INDEX.md",
    "section": "§一 通用变量: USUBJID",
    "sim": 0.7054,
    "via_lookup": false
   },
   {
    "source": "model/01_concepts_and_terms.md",
    "section": "2.1 Model Concepts and Terms — Variables",
    "sim": 20.6584,
    "via_lookup": false
   },
   {
    "source": "domains/SUPPQUAL/spec.md",
    "section": "USUBJID",
    "sim": 0.6786,
    "via_lookup": false
   },
   {
    "source": "model/04_associated_persons.md",
    "section": "Overview",
    "sim": 19.385,
    "via_lookup": false
   },
   {
    "source": "domains/RELSUB/spec.md",
    "section": "USUBJID",
    "sim": 0.6767,
    "via_lookup": false
   },
   {
    "source": "model/06_relationship_datasets.md",
    "section": "6.1 Related Records (RELREC)",
    "sim": 18.4321,
    "via_lookup": false
   },
   {
    "source": "domains/PP/spec.md",
    "section": "USUBJID",
    "sim": 0.6661,
    "via_lookup": false
   },
   {
    "source": "chapters/ch02_fundamentals.md",
    "section": "2.5 The SDTM Standard Domain Models",
    "sim": 16.9788,
    "via_lookup": false
   },
   {
    "source": "domains/DM/assumptions.md",
    "section": "item_2",
    "sim": 0.6651,
    "via_lookup": false
   },
   {
    "source": "chapters/ch04_general_assumptions.md",
    "section": "4.2.6 Grouping Variables and Categorization",
    "sim": 16.9011,
    "via_lookup": false
   },
   {
    "source": "chapters/ch04_general_assumptions.md",
    "section": "4.2.2 Two-character Domain Identifier",
    "sim": 16.5569,
    "via_lookup": false
   },
   {
    "source": "domains/RELREC/spec.md",
    "section": "USUBJID",
    "sim": 0.6643,
    "via_lookup": false
   }
  ]
 },
 {
  "id": "q76",
  "category": "cross_domain",
  "n": 15,
  "dup_seats": 1,
  "max_cluster": 2,
  "max_cluster_section": "Overview",
  "distinct_sections": 14,
  "max_cluster_section_tied": false,
  "composition": [
   {
    "source": "VARIABLE_INDEX.md",
    "section": "RELSUB — Related Subjects (Relationship)",
    "sim": 0.6249,
    "via_lookup": true
   },
   {
    "source": "model/06_relationship_datasets.md",
    "section": "6.6 Associated Persons Related Subjects (APRELSUB)",
    "sim": 0.7014,
    "via_lookup": false
   },
   {
    "source": "model/04_associated_persons.md",
    "section": "Overview",
    "sim": 0.6696,
    "via_lookup": false
   },
   {
    "source": "chapters/ch08_relationships.md",
    "section": "Assumptions",
    "sim": 0.6671,
    "via_lookup": false
   },
   {
    "source": "domains/RELSUB/assumptions.md",
    "section": "item_7",
    "sim": 0.6962,
    "via_lookup": false
   },
   {
    "source": "model/06_relationship_datasets.md",
    "section": "6.4 Related Subjects (RELSUB)",
    "sim": 0.6385,
    "via_lookup": false
   },
   {
    "source": "domains/RELSUB/assumptions.md",
    "section": "item_1",
    "sim": 0.6754,
    "via_lookup": false
   },
   {
    "source": "model/06_relationship_datasets.md",
    "section": "Summary of Relationship Datasets",
    "sim": 0.5587,
    "via_lookup": false
   },
   {
    "source": "chapters/ch08_relationships.md",
    "section": "Example",
    "sim": 0.5852,
    "via_lookup": false
   },
   {
    "source": "chapters/ch08_relationships.md",
    "section": "Specification",
    "sim": 0.5938,
    "via_lookup": false
   },
   {
    "source": "domains/RELSUB/spec.md",
    "section": "SREL",
    "sim": 0.6145,
    "via_lookup": false
   },
   {
    "source": "model/06_relationship_datasets.md",
    "section": "6.1 Related Records (RELREC)",
    "sim": 0.5473,
    "via_lookup": false
   },
   {
    "source": "model/06_relationship_datasets.md",
    "section": "6.3 Pool Definition (POOLDEF)",
    "sim": 14.3476,
    "via_lookup": false
   },
   {
    "source": "model/06_relationship_datasets.md",
    "section": "Overview",
    "sim": 13.7673,
    "via_lookup": false
   },
   {
    "source": "domains/RELSUB/spec.md",
    "section": "RSUBJID",
    "sim": 0.6143,
    "via_lookup": false
   }
  ]
 },
 {
  "id": "q77",
  "category": "cross_domain",
  "n": 15,
  "dup_seats": 5,
  "max_cluster": 6,
  "max_cluster_section": "EPOCH",
  "distinct_sections": 10,
  "max_cluster_section_tied": false,
  "composition": [
   {
    "source": "VARIABLE_INDEX.md",
    "section": "§一 通用变量: EPOCH",
    "sim": 0.7369,
    "via_lookup": true
   },
   {
    "source": "chapters/ch04_general_assumptions.md",
    "section": "4.1.3 Additional Timing Variables",
    "sim": 0.6479,
    "via_lookup": false
   },
   {
    "source": "domains/TA/assumptions.md",
    "section": "item_12",
    "sim": 0.712,
    "via_lookup": false
   },
   {
    "source": "domains/SR/spec.md",
    "section": "EPOCH",
    "sim": 0.6755,
    "via_lookup": false
   },
   {
    "source": "domains/TE/examples.md",
    "section": "Trial Elements Issues",
    "sim": 13.1894,
    "via_lookup": false
   },
   {
    "source": "domains/UR/spec.md",
    "section": "EPOCH",
    "sim": 0.6751,
    "via_lookup": false
   },
   {
    "source": "chapters/ch02_fundamentals.md",
    "section": "2.5 The SDTM Standard Domain Models",
    "sim": 13.0539,
    "via_lookup": false
   },
   {
    "source": "domains/LB/spec.md",
    "section": "EPOCH",
    "sim": 0.6722,
    "via_lookup": false
   },
   {
    "source": "domains/DS/assumptions.md",
    "section": "item_4",
    "sim": 12.6289,
    "via_lookup": false
   },
   {
    "source": "domains/PP/spec.md",
    "section": "EPOCH",
    "sim": 0.6718,
    "via_lookup": false
   },
   {
    "source": "chapters/ch10_appendices.md",
    "section": "Appendix C: Controlled Terminology",
    "sim": 12.6051,
    "via_lookup": false
   },
   {
    "source": "domains/CP/spec.md",
    "section": "EPOCH",
    "sim": 0.6697,
    "via_lookup": false
   },
   {
    "source": "model/02_observation_classes.md",
    "section": "3.1.5 Timing Variables for All Classes",
    "sim": 10.6714,
    "via_lookup": false
   },
   {
    "source": "domains/FA/spec.md",
    "section": "EPOCH",
    "sim": 0.668,
    "via_lookup": false
   },
   {
    "source": "VARIABLE_INDEX.md",
    "section": "§一 通用变量: MIDS",
    "sim": 10.3983,
    "via_lookup": false
   }
  ]
 },
 {
  "id": "q78",
  "category": "concept",
  "n": 15,
  "dup_seats": 2,
  "max_cluster": 2,
  "max_cluster_section": "item_7",
  "distinct_sections": 13,
  "max_cluster_section_tied": true,
  "composition": [
   {
    "source": "chapters/ch04_general_assumptions.md",
    "section": "4.2.1 Variable-Naming Conventions",
    "sim": 0.6937,
    "via_lookup": false
   },
   {
    "source": "chapters/ch04_general_assumptions.md",
    "section": "4.2.9 Variable Lengths",
    "sim": 0.6883,
    "via_lookup": false
   },
   {
    "source": "chapters/ch04_general_assumptions.md",
    "section": "4.5.3 Text Strings that Exceed the Maximum Length for General Observation-class Domain Variables",
    "sim": 0.6154,
    "via_lookup": false
   },
   {
    "source": "domains/QS/assumptions.md",
    "section": "item_7",
    "sim": 0.5933,
    "via_lookup": false
   },
   {
    "source": "domains/FT/assumptions.md",
    "section": "item_7",
    "sim": 0.5932,
    "via_lookup": false
   },
   {
    "source": "domains/DM/spec.md",
    "section": "ARMCD",
    "sim": 14.8966,
    "via_lookup": false
   },
   {
    "source": "domains/SR/spec.md",
    "section": "SRTESTCD",
    "sim": 0.6542,
    "via_lookup": false
   },
   {
    "source": "domains/DM/spec.md",
    "section": "ACTARMCD",
    "sim": 14.1703,
    "via_lookup": false
   },
   {
    "source": "domains/CV/spec.md",
    "section": "CVTESTCD",
    "sim": 0.6536,
    "via_lookup": false
   },
   {
    "source": "domains/DD/spec.md",
    "section": "DDTESTCD",
    "sim": 0.6487,
    "via_lookup": false
   },
   {
    "source": "domains/MS/spec.md",
    "section": "MSTESTCD",
    "sim": 0.6451,
    "via_lookup": false
   },
   {
    "source": "chapters/ch08_relationships.md",
    "section": "Key Rules",
    "sim": 12.2333,
    "via_lookup": false
   },
   {
    "source": "domains/FT/spec.md",
    "section": "FTTESTCD",
    "sim": 0.6438,
    "via_lookup": false
   },
   {
    "source": "domains/TV/spec.md",
    "section": "ARMCD",
    "sim": 12.1436,
    "via_lookup": false
   },
   {
    "source": "domains/SC/spec.md",
    "section": "SCTESTCD",
    "sim": 0.6437,
    "via_lookup": false
   }
  ]
 },
 {
  "id": "q79",
  "category": "concept",
  "n": 15,
  "dup_seats": 0,
  "max_cluster": 1,
  "max_cluster_section": "4.2.5 Convention for Missing Values",
  "distinct_sections": 15,
  "max_cluster_section_tied": true,
  "composition": [
   {
    "source": "chapters/ch04_general_assumptions.md",
    "section": "4.2.5 Convention for Missing Values",
    "sim": 0.6134,
    "via_lookup": false
   },
   {
    "source": "chapters/ch04_general_assumptions.md",
    "section": "4.1.5 SDTM Core Designations",
    "sim": 0.5562,
    "via_lookup": false
   },
   {
    "source": "chapters/ch04_general_assumptions.md",
    "section": "4.5.1 Original and Standardized Results",
    "sim": 0.5116,
    "via_lookup": false
   },
   {
    "source": "terminology/core/other_part4.md",
    "section": "SDTM Death Diagnosis and Details Test Name",
    "sim": 0.5718,
    "via_lookup": false
   },
   {
    "source": "terminology/supplementary/supplementary_part5.md",
    "section": "SDTM Version Response",
    "sim": 0.5688,
    "via_lookup": false
   },
   {
    "source": "chapters/ch08_relationships.md",
    "section": "8.6.3 Guidelines for Differentiating Between Interventions, Events, Findings, and Findings About Events or Interventions",
    "sim": 9.2615,
    "via_lookup": false
   },
   {
    "source": "domains/DD/spec.md",
    "section": "Controlled Terminology",
    "sim": 0.5634,
    "via_lookup": false
   },
   {
    "source": "chapters/ch04_general_assumptions.md",
    "section": "4.4.1 Formats for Date/Time Variables",
    "sim": 8.5307,
    "via_lookup": false
   },
   {
    "source": "terminology/core/other_part4.md",
    "section": "SDTM Death Diagnosis and Details Test Code",
    "sim": 0.5626,
    "via_lookup": false
   },
   {
    "source": "domains/MI/spec.md",
    "section": "MISTAT",
    "sim": 8.3961,
    "via_lookup": false
   },
   {
    "source": "domains/RS/spec.md",
    "section": "RSREASND",
    "sim": 8.3504,
    "via_lookup": false
   },
   {
    "source": "chapters/ch03_submitting_data.md",
    "section": "3.2.2 Conformance",
    "sim": 0.5554,
    "via_lookup": false
   },
   {
    "source": "chapters/ch04_general_assumptions.md",
    "section": "4.5.6 Supplemental Reason Variables",
    "sim": 8.2847,
    "via_lookup": false
   },
   {
    "source": "domains/DM/assumptions.md",
    "section": "item_5",
    "sim": 0.5494,
    "via_lookup": false
   },
   {
    "source": "domains/SU/examples.md",
    "section": "Example 1",
    "sim": 8.2007,
    "via_lookup": false
   }
  ]
 },
 {
  "id": "q80",
  "category": "concept",
  "n": 15,
  "dup_seats": 0,
  "max_cluster": 1,
  "max_cluster_section": "4.3.7 Use of \"Yes\" and \"No\" Values",
  "distinct_sections": 15,
  "max_cluster_section_tied": true,
  "composition": [
   {
    "source": "chapters/ch04_general_assumptions.md",
    "section": "4.3.7 Use of \"Yes\" and \"No\" Values",
    "sim": 0.6584,
    "via_lookup": false
   },
   {
    "source": "chapters/ch03_submitting_data.md",
    "section": "3.2.2 Conformance",
    "sim": 0.543,
    "via_lookup": false
   },
   {
    "source": "chapters/ch04_general_assumptions.md",
    "section": "4.1.5 SDTM Core Designations",
    "sim": 0.5394,
    "via_lookup": false
   },
   {
    "source": "chapters/ch02_fundamentals.md",
    "section": "2.7 SDTM Variables Not Allowed in the SDTMIG",
    "sim": 0.5485,
    "via_lookup": false
   },
   {
    "source": "chapters/ch04_general_assumptions.md",
    "section": "4.2.1 Variable-Naming Conventions",
    "sim": 0.5168,
    "via_lookup": false
   },
   {
    "source": "chapters/ch04_general_assumptions.md",
    "section": "4.3.3 Controlled Terminology Values",
    "sim": 0.4934,
    "via_lookup": false
   },
   {
    "source": "chapters/ch04_general_assumptions.md",
    "section": "4.5.7 Presence or Absence of Prespecified Interventions and Events",
    "sim": 0.4968,
    "via_lookup": false
   },
   {
    "source": "terminology/supplementary/supplementary_part5.md",
    "section": "SDTM Version Response",
    "sim": 0.5932,
    "via_lookup": false
   },
   {
    "source": "domains/AE/assumptions.md",
    "section": "item_7",
    "sim": 12.0105,
    "via_lookup": false
   },
   {
    "source": "terminology/core/general_part4.md",
    "section": "No Yes Response",
    "sim": 0.5814,
    "via_lookup": false
   },
   {
    "source": "chapters/ch04_general_assumptions.md",
    "section": "4.5.3 Text Strings that Exceed the Maximum Length for General Observation-class Domain Variables",
    "sim": 11.0747,
    "via_lookup": false
   },
   {
    "source": "domains/RELREC/assumptions.md",
    "section": "overview",
    "sim": 10.9752,
    "via_lookup": false
   },
   {
    "source": "chapters/ch04_general_assumptions.md",
    "section": "4.2.8 Multiple Values for a Variable",
    "sim": 0.5452,
    "via_lookup": false
   },
   {
    "source": "domains/MH/assumptions.md",
    "section": "item_6",
    "sim": 10.1067,
    "via_lookup": false
   },
   {
    "source": "chapters/ch08_relationships.md",
    "section": "8.4.4 When Not to Use Supplemental Qualifiers",
    "sim": 9.6285,
    "via_lookup": false
   }
  ]
 },
 {
  "id": "q81",
  "category": "concept",
  "n": 15,
  "dup_seats": 6,
  "max_cluster": 7,
  "max_cluster_section": "DOMAIN",
  "distinct_sections": 9,
  "max_cluster_section_tied": false,
  "composition": [
   {
    "source": "chapters/ch04_general_assumptions.md",
    "section": "4.2.2 Two-character Domain Identifier",
    "sim": 0.7131,
    "via_lookup": false
   },
   {
    "source": "domains/TM/spec.md",
    "section": "DOMAIN",
    "sim": 0.6583,
    "via_lookup": false
   },
   {
    "source": "chapters/ch04_general_assumptions.md",
    "section": "4.4.1 Formats for Date/Time Variables",
    "sim": 13.9936,
    "via_lookup": false
   },
   {
    "source": "domains/LB/spec.md",
    "section": "DOMAIN",
    "sim": 0.6435,
    "via_lookup": false
   },
   {
    "source": "chapters/ch04_general_assumptions.md",
    "section": "4.5.3 Text Strings that Exceed the Maximum Length for General Observation-class Domain Variables",
    "sim": 12.8436,
    "via_lookup": false
   },
   {
    "source": "domains/ML/spec.md",
    "section": "DOMAIN",
    "sim": 0.6435,
    "via_lookup": false
   },
   {
    "source": "domains/CO/assumptions.md",
    "section": "item_4",
    "sim": 11.3636,
    "via_lookup": false
   },
   {
    "source": "domains/PR/spec.md",
    "section": "DOMAIN",
    "sim": 0.6435,
    "via_lookup": false
   },
   {
    "source": "domains/EG/assumptions.md",
    "section": "item_10",
    "sim": 9.9734,
    "via_lookup": false
   },
   {
    "source": "domains/CP/spec.md",
    "section": "DOMAIN",
    "sim": 0.6435,
    "via_lookup": false
   },
   {
    "source": "chapters/ch04_general_assumptions.md",
    "section": "4.2.1 Variable-Naming Conventions",
    "sim": 9.7142,
    "via_lookup": false
   },
   {
    "source": "domains/DS/spec.md",
    "section": "DOMAIN",
    "sim": 0.6435,
    "via_lookup": false
   },
   {
    "source": "domains/CO/examples.md",
    "section": "Example 1",
    "sim": 9.4327,
    "via_lookup": false
   },
   {
    "source": "domains/IS/spec.md",
    "section": "DOMAIN",
    "sim": 0.6435,
    "via_lookup": false
   },
   {
    "source": "chapters/ch08_relationships.md",
    "section": "8.4.1 Supplemental Qualifiers (SUPP--)",
    "sim": 8.4583,
    "via_lookup": false
   }
  ]
 },
 {
  "id": "q82",
  "category": "concept",
  "n": 15,
  "dup_seats": 2,
  "max_cluster": 2,
  "max_cluster_section": "Overview",
  "distinct_sections": 13,
  "max_cluster_section_tied": true,
  "composition": [
   {
    "source": "model/02_observation_classes.md",
    "section": "3.1.4 Identifiers for All Classes",
    "sim": 0.7071,
    "via_lookup": false
   },
   {
    "source": "chapters/ch04_general_assumptions.md",
    "section": "4.2.2 Two-character Domain Identifier",
    "sim": 0.6436,
    "via_lookup": false
   },
   {
    "source": "model/02_observation_classes.md",
    "section": "Overview",
    "sim": 0.6224,
    "via_lookup": false
   },
   {
    "source": "chapters/ch02_fundamentals.md",
    "section": "2.3 The General Observation Classes",
    "sim": 0.6175,
    "via_lookup": false
   },
   {
    "source": "chapters/ch04_general_assumptions.md",
    "section": "4.1.4 Order of the Variables",
    "sim": 0.5653,
    "via_lookup": false
   },
   {
    "source": "model/01_concepts_and_terms.md",
    "section": "2.1 Model Concepts and Terms — Variables",
    "sim": 23.8388,
    "via_lookup": false
   },
   {
    "source": "chapters/ch02_fundamentals.md",
    "section": "2.5 The SDTM Standard Domain Models",
    "sim": 22.9847,
    "via_lookup": false
   },
   {
    "source": "domains/DS/assumptions.md",
    "section": "item_6",
    "sim": 0.6152,
    "via_lookup": false
   },
   {
    "source": "chapters/ch02_fundamentals.md",
    "section": "2.6 Creating a New Domain",
    "sim": 20.8044,
    "via_lookup": false
   },
   {
    "source": "domains/ML/assumptions.md",
    "section": "item_3",
    "sim": 0.6135,
    "via_lookup": false
   },
   {
    "source": "model/04_associated_persons.md",
    "section": "Overview",
    "sim": 19.361,
    "via_lookup": false
   },
   {
    "source": "domains/CE/assumptions.md",
    "section": "item_4",
    "sim": 0.6042,
    "via_lookup": false
   },
   {
    "source": "domains/HO/assumptions.md",
    "section": "item_5",
    "sim": 0.6015,
    "via_lookup": false
   },
   {
    "source": "chapters/ch04_general_assumptions.md",
    "section": "4.3.7 Use of \"Yes\" and \"No\" Values",
    "sim": 19.1003,
    "via_lookup": false
   },
   {
    "source": "domains/SR/assumptions.md",
    "section": "item_4",
    "sim": 0.5999,
    "via_lookup": false
   }
  ]
 },
 {
  "id": "q83",
  "category": "concept",
  "n": 15,
  "dup_seats": 1,
  "max_cluster": 2,
  "max_cluster_section": "item_1",
  "distinct_sections": 14,
  "max_cluster_section_tied": false,
  "composition": [
   {
    "source": "VARIABLE_INDEX.md",
    "section": "§一 通用变量: RDOMAIN",
    "sim": 0.7065,
    "via_lookup": true
   },
   {
    "source": "domains/RELREC/spec.md",
    "section": "Controlled Terminology",
    "sim": 0.6849,
    "via_lookup": true
   },
   {
    "source": "model/06_relationship_datasets.md",
    "section": "6.1 Related Records (RELREC)",
    "sim": 0.6969,
    "via_lookup": true
   },
   {
    "source": "domains/RELREC/assumptions.md",
    "section": "overview",
    "sim": 0.7577,
    "via_lookup": false
   },
   {
    "source": "chapters/ch08_relationships.md",
    "section": "8.2.1 Related Records (RELREC)",
    "sim": 0.7786,
    "via_lookup": false
   },
   {
    "source": "chapters/ch08_relationships.md",
    "section": "8.2.2 RELREC Dataset Examples",
    "sim": 0.7544,
    "via_lookup": false
   },
   {
    "source": "domains/TR/assumptions.md",
    "section": "item_2",
    "sim": 0.7004,
    "via_lookup": false
   },
   {
    "source": "domains/TR/assumptions.md",
    "section": "item_1",
    "sim": 0.6546,
    "via_lookup": false
   },
   {
    "source": "chapters/ch08_relationships.md",
    "section": "8.3.1 RELREC Dataset Relationship Example",
    "sim": 0.6247,
    "via_lookup": false
   },
   {
    "source": "chapters/ch08_relationships.md",
    "section": "8.1.1 --GRPID Example",
    "sim": 0.6953,
    "via_lookup": false
   },
   {
    "source": "domains/RS/assumptions.md",
    "section": "item_4",
    "sim": 0.6912,
    "via_lookup": false
   },
   {
    "source": "domains/RELREC/examples.md",
    "section": "Dataset Relationship Example",
    "sim": 0.6123,
    "via_lookup": false
   },
   {
    "source": "domains/RELREC/examples.md",
    "section": "Peer Record Examples",
    "sim": 0.6476,
    "via_lookup": false
   },
   {
    "source": "VARIABLE_INDEX.md",
    "section": "RELREC — Related Records (Relationship)",
    "sim": 0.699,
    "via_lookup": false
   },
   {
    "source": "domains/PC/assumptions.md",
    "section": "item_1",
    "sim": 14.3692,
    "via_lookup": false
   }
  ]
 },
 {
  "id": "q84",
  "category": "concept",
  "n": 15,
  "dup_seats": 4,
  "max_cluster": 5,
  "max_cluster_section": "Model Definition",
  "distinct_sections": 11,
  "max_cluster_section_tied": false,
  "composition": [
   {
    "source": "chapters/ch08_relationships.md",
    "section": "8.6.1 Guidelines for Determining the General Observation Class",
    "sim": 0.6891,
    "via_lookup": false
   },
   {
    "source": "chapters/ch08_relationships.md",
    "section": "8.6.3 Guidelines for Differentiating Between Interventions, Events, Findings, and Findings About Events or Interventions",
    "sim": 0.6096,
    "via_lookup": false
   },
   {
    "source": "domains/FA/assumptions.md",
    "section": "item_2",
    "sim": 0.6076,
    "via_lookup": false
   },
   {
    "source": "chapters/ch04_general_assumptions.md",
    "section": "4.5.7 Presence or Absence of Prespecified Interventions and Events",
    "sim": 0.514,
    "via_lookup": false
   },
   {
    "source": "domains/FA/assumptions.md",
    "section": "item_4",
    "sim": 0.552,
    "via_lookup": false
   },
   {
    "source": "domains/FA/assumptions.md",
    "section": "item_6",
    "sim": 0.4728,
    "via_lookup": false
   },
   {
    "source": "chapters/ch02_fundamentals.md",
    "section": "2.3 The General Observation Classes",
    "sim": 0.539,
    "via_lookup": false
   },
   {
    "source": "model/02_observation_classes.md",
    "section": "3.1.3 The Findings Observation Class",
    "sim": 0.4648,
    "via_lookup": false
   },
   {
    "source": "model/02_observation_classes.md",
    "section": "Overview",
    "sim": 0.5617,
    "via_lookup": false
   },
   {
    "source": "chapters/ch02_fundamentals.md",
    "section": "Findings About — Naming Findings About Domains (Reference Material)",
    "sim": 0.4677,
    "via_lookup": false
   },
   {
    "source": "domains/SU/spec.md",
    "section": "Model Definition",
    "sim": 0.6353,
    "via_lookup": false
   },
   {
    "source": "domains/EX/spec.md",
    "section": "Model Definition",
    "sim": 0.6352,
    "via_lookup": false
   },
   {
    "source": "domains/PR/spec.md",
    "section": "Model Definition",
    "sim": 0.6352,
    "via_lookup": false
   },
   {
    "source": "domains/CM/spec.md",
    "section": "Model Definition",
    "sim": 0.6352,
    "via_lookup": false
   },
   {
    "source": "domains/ML/spec.md",
    "section": "Model Definition",
    "sim": 0.6352,
    "via_lookup": false
   }
  ]
 },
 {
  "id": "q85",
  "category": "concept",
  "n": 15,
  "dup_seats": 0,
  "max_cluster": 1,
  "max_cluster_section": "Overview",
  "distinct_sections": 15,
  "max_cluster_section_tied": true,
  "composition": [
   {
    "source": "model/04_associated_persons.md",
    "section": "Overview",
    "sim": 0.7783,
    "via_lookup": false
   },
   {
    "source": "chapters/ch04_general_assumptions.md",
    "section": "4.1.6 Additional Guidance on Dataset Naming",
    "sim": 0.5732,
    "via_lookup": false
   },
   {
    "source": "model/01_concepts_and_terms.md",
    "section": "2.1 Model Concepts and Terms — Variables",
    "sim": 0.5676,
    "via_lookup": false
   },
   {
    "source": "chapters/ch10_appendices.md",
    "section": "Appendix B: Glossary and Abbreviations",
    "sim": 0.5472,
    "via_lookup": false
   },
   {
    "source": "chapters/ch01_introduction.md",
    "section": "1.4 How to Read this Implementation Guide",
    "sim": 0.5368,
    "via_lookup": false
   },
   {
    "source": "chapters/ch01_introduction.md",
    "section": "1.3 Relationship to Prior CDISC Documents",
    "sim": 0.5427,
    "via_lookup": false
   },
   {
    "source": "chapters/ch02_fundamentals.md",
    "section": "2.5 The SDTM Standard Domain Models",
    "sim": 0.5539,
    "via_lookup": false
   },
   {
    "source": "chapters/ch02_fundamentals.md",
    "section": "Findings About — Naming Findings About Domains (Reference Material)",
    "sim": 0.5289,
    "via_lookup": false
   },
   {
    "source": "chapters/ch04_general_assumptions.md",
    "section": "4.2.2 Two-character Domain Identifier",
    "sim": 0.5559,
    "via_lookup": false
   },
   {
    "source": "chapters/ch03_submitting_data.md",
    "section": "3.2.2 Conformance",
    "sim": 0.5309,
    "via_lookup": false
   },
   {
    "source": "chapters/ch02_fundamentals.md",
    "section": "2.2 Datasets and Domains",
    "sim": 0.5455,
    "via_lookup": false
   },
   {
    "source": "chapters/ch02_fundamentals.md",
    "section": "2.6 Creating a New Domain",
    "sim": 0.5183,
    "via_lookup": false
   },
   {
    "source": "chapters/ch10_appendices.md",
    "section": "Appendix C: Controlled Terminology",
    "sim": 0.5183,
    "via_lookup": false
   },
   {
    "source": "domains/RELREC/spec.md",
    "section": "Controlled Terminology",
    "sim": 0.5765,
    "via_lookup": false
   },
   {
    "source": "VARIABLE_INDEX.md",
    "section": "§一 通用变量: DOMAIN",
    "sim": 0.5709,
    "via_lookup": false
   }
  ]
 },
 {
  "id": "q86",
  "category": "concept",
  "n": 15,
  "dup_seats": 2,
  "max_cluster": 3,
  "max_cluster_section": "item_2",
  "distinct_sections": 13,
  "max_cluster_section_tied": false,
  "composition": [
   {
    "source": "chapters/ch04_general_assumptions.md",
    "section": "4.1.5 SDTM Core Designations",
    "sim": 0.7305,
    "via_lookup": false
   },
   {
    "source": "chapters/ch04_general_assumptions.md",
    "section": "4.3.3 Controlled Terminology Values",
    "sim": 0.5807,
    "via_lookup": false
   },
   {
    "source": "chapters/ch02_fundamentals.md",
    "section": "2.5 The SDTM Standard Domain Models",
    "sim": 0.5752,
    "via_lookup": false
   },
   {
    "source": "model/01_concepts_and_terms.md",
    "section": "2.1 Model Concepts and Terms — Variables",
    "sim": 0.5623,
    "via_lookup": false
   },
   {
    "source": "chapters/ch01_introduction.md",
    "section": "1.4 How to Read this Implementation Guide",
    "sim": 0.5143,
    "via_lookup": false
   },
   {
    "source": "domains/CM/assumptions.md",
    "section": "item_2",
    "sim": 17.3613,
    "via_lookup": false
   },
   {
    "source": "domains/EX/assumptions.md",
    "section": "item_6",
    "sim": 0.5477,
    "via_lookup": false
   },
   {
    "source": "domains/MH/assumptions.md",
    "section": "item_2",
    "sim": 15.063,
    "via_lookup": false
   },
   {
    "source": "chapters/ch03_submitting_data.md",
    "section": "3.1 Standard Metadata for Dataset Contents and Attributes",
    "sim": 0.5459,
    "via_lookup": false
   },
   {
    "source": "domains/AE/assumptions.md",
    "section": "item_2",
    "sim": 14.5114,
    "via_lookup": false
   },
   {
    "source": "chapters/ch02_fundamentals.md",
    "section": "2.7 SDTM Variables Not Allowed in the SDTMIG",
    "sim": 0.5385,
    "via_lookup": false
   },
   {
    "source": "chapters/ch08_relationships.md",
    "section": "8.6.3 Guidelines for Differentiating Between Interventions, Events, Findings, and Findings About Events or Interventions",
    "sim": 14.4009,
    "via_lookup": false
   },
   {
    "source": "model/05_study_level_data.md",
    "section": "Overview",
    "sim": 0.5358,
    "via_lookup": false
   },
   {
    "source": "chapters/ch04_general_assumptions.md",
    "section": "4.5.3 Text Strings that Exceed the Maximum Length for General Observation-class Domain Variables",
    "sim": 14.1795,
    "via_lookup": false
   },
   {
    "source": "chapters/ch02_fundamentals.md",
    "section": "2.1 Observations and Variables",
    "sim": 0.5244,
    "via_lookup": false
   }
  ]
 },
 {
  "id": "q87",
  "category": "concept",
  "n": 15,
  "dup_seats": 0,
  "max_cluster": 1,
  "max_cluster_section": "Related Domains",
  "distinct_sections": 15,
  "max_cluster_section_tied": true,
  "composition": [
   {
    "source": "domains/FA/spec.md",
    "section": "Related Domains",
    "sim": 0.5036,
    "via_lookup": true
   },
   {
    "source": "domains/FA/spec.md",
    "section": "FASCAT",
    "sim": 0.489,
    "via_lookup": true
   },
   {
    "source": "domains/FA/spec.md",
    "section": "Controlled Terminology",
    "sim": 0.4874,
    "via_lookup": true
   },
   {
    "source": "domains/FA/spec.md",
    "section": "FACAT",
    "sim": 0.4618,
    "via_lookup": true
   },
   {
    "source": "chapters/ch02_fundamentals.md",
    "section": "Findings About — Naming Findings About Domains (Reference Material)",
    "sim": 0.7262,
    "via_lookup": false
   },
   {
    "source": "domains/FA/assumptions.md",
    "section": "item_6",
    "sim": 0.7219,
    "via_lookup": false
   },
   {
    "source": "chapters/ch08_relationships.md",
    "section": "8.6.3 Guidelines for Differentiating Between Interventions, Events, Findings, and Findings About Events or Interventions",
    "sim": 0.6812,
    "via_lookup": false
   },
   {
    "source": "model/02_observation_classes.md",
    "section": "3.1.3 The Findings Observation Class",
    "sim": 0.643,
    "via_lookup": false
   },
   {
    "source": "domains/SUPPQUAL/assumptions.md",
    "section": "overview",
    "sim": 0.6605,
    "via_lookup": false
   },
   {
    "source": "chapters/ch08_relationships.md",
    "section": "8.4.2 Submitting Supplemental Qualifiers in Separate Datasets",
    "sim": 0.6416,
    "via_lookup": false
   },
   {
    "source": "chapters/ch08_relationships.md",
    "section": "8.3.1 RELREC Dataset Relationship Example",
    "sim": 0.5726,
    "via_lookup": false
   },
   {
    "source": "domains/FA/assumptions.md",
    "section": "item_4",
    "sim": 0.6021,
    "via_lookup": false
   },
   {
    "source": "domains/FA/assumptions.md",
    "section": "item_2",
    "sim": 0.6923,
    "via_lookup": false
   },
   {
    "source": "chapters/ch04_general_assumptions.md",
    "section": "4.1.7 Splitting Domains",
    "sim": 0.5834,
    "via_lookup": false
   },
   {
    "source": "chapters/ch03_submitting_data.md",
    "section": "3.2 Using the CDISC Domain Models in Regulatory Submissions — Dataset Metadata",
    "sim": 0.5531,
    "via_lookup": false
   }
  ]
 },
 {
  "id": "q88",
  "category": "concept",
  "n": 15,
  "dup_seats": 4,
  "max_cluster": 3,
  "max_cluster_section": "ARMCD",
  "distinct_sections": 11,
  "max_cluster_section_tied": true,
  "composition": [
   {
    "source": "domains/DM/spec.md",
    "section": "ARMCD",
    "sim": 0.6435,
    "via_lookup": false
   },
   {
    "source": "domains/TA/spec.md",
    "section": "ARMCD",
    "sim": 0.6254,
    "via_lookup": false
   },
   {
    "source": "domains/TS/spec.md",
    "section": "TSPARMCD",
    "sim": 0.6624,
    "via_lookup": false
   },
   {
    "source": "chapters/ch04_general_assumptions.md",
