{
 "_meta": {
  "what": "层② context A/B1/B2 对照 —— 锚是答案正确性 (LLM judge), 不是 gold recall",
  "pipeline": "fuse(fuse_out) → apply_section_cap → 截 top_k → S1 注入",
  "arms": {
   "A": null,
   "B1": 1,
   "B2": 2
  },
  "answer_model": "bedrock/converse/jp.anthropic.claude-sonnet-4-6",
  "judge_model": "deepseek/deepseek-chat",
  "top_k": 15,
  "fuse_out": 60,
  "hybrid_pool": 30,
  "pool_deep_ok": false,
  "fuse_out_deep_ok": true,
  "sampling": "按层① max_cluster 选出的**极端样本, 不是随机样本** —— 结论只能推广到'重挤占题', 不能推广到全 140 题",
  "known_limit_s1": "S1 前插且不受配额约束, 可能把被配额挤走的同名 section 带回来, 部分抵消配额 (见各臂 s1_reintroduced_capped_section)",
  "hard_gate": "席位数 < top_k 的题一律走 fallback 口径, 不进主结论",
  "generated_at": "2026-08-07T17:22:23+0900",
  "elapsed_sec": 708.1,
  "test_set": "eval/test_set_v3.yml",
  "layer1": "evidence/checkpoints/crowding_layer1.json",
  "ids": [
   "q38",
   "q104",
   "q39",
   "q08",
   "q29",
   "q81",
   "q108",
   "q77",
   "q07",
   "q118",
   "q84"
  ]
 },
 "verdict": {
  "n_main": 10,
  "n_fallback": 1,
  "fallback_ids": [
   "q38"
  ],
  "arms": {
   "B1": {
    "improved": 0,
    "regressed": 0,
    "tie": 10,
    "skipped": 0,
    "net": 0,
    "passes": false
   },
   "B2": {
    "improved": 0,
    "regressed": 0,
    "tie": 10,
    "skipped": 0,
    "net": 0,
    "passes": false
   }
  },
  "n_judge_unparsed": 0,
  "max_tie": 10,
  "tie_aborts": true,
  "conclusion": "VOID_TIE",
  "N": null
 },
 "results": [
  {
   "id": "q38",
   "question": "How are SDTM domain abbreviation codes assigned? What are the rules for the two-character domain code?",
   "n_expected_facts": 2,
   "n_fused": 44,
   "arms": {
    "A": {
     "seats": 15,
     "seats_before_s1": 15,
     "full_seats": true,
     "s1_injected": 0,
     "s1_total_in_final": 0,
     "s1_injected_sections": [],
     "s1_all_sections": [],
     "s1_reintroduced_capped_section": [],
     "composition": [
      {
       "source": "chapters/ch04_general_assumptions.md",
       "section": "4.1.6 Additional Guidance on Dataset Naming",
       "via_lookup": false
      },
      {
       "source": "domains/SV/spec.md",
       "section": "DOMAIN",
       "via_lookup": false
      },
      {
       "source": "domains/TS/spec.md",
       "section": "DOMAIN",
       "via_lookup": false
      },
      {
       "source": "domains/ML/spec.md",
       "section": "DOMAIN",
       "via_lookup": false
      },
      {
       "source": "domains/DA/spec.md",
       "section": "DOMAIN",
       "via_lookup": false
      },
      {
       "source": "domains/PR/spec.md",
       "section": "DOMAIN",
       "via_lookup": false
      },
      {
       "source": "domains/CO/spec.md",
       "section": "DOMAIN",
       "via_lookup": false
      },
      {
       "source": "domains/CV/spec.md",
       "section": "DOMAIN",
       "via_lookup": false
      },
      {
       "source": "domains/BS/spec.md",
       "section": "DOMAIN",
       "via_lookup": false
      },
      {
       "source": "domains/NV/spec.md",
       "section": "DOMAIN",
       "via_lookup": false
      },
      {
       "source": "domains/PC/spec.md",
       "section": "DOMAIN",
       "via_lookup": false
      },
      {
       "source": "domains/UR/spec.md",
       "section": "DOMAIN",
       "via_lookup": false
      },
      {
       "source": "domains/DD/spec.md",
       "section": "DOMAIN",
       "via_lookup": false
      },
      {
       "source": "domains/TU/spec.md",
       "section": "DOMAIN",
       "via_lookup": false
      },
      {
       "source": "domains/OE/spec.md",
       "section": "DOMAIN",
       "via_lookup": false
      }
     ],
     "cap": null,
     "score": 1.0,
     "hits": [
      "two-character",
      "DOMAIN"
     ],
     "misses": [],
     "judge_parse_ok": true,
     "answer": "# SDTM Domain Abbreviation Code Assignment Rules\n\n## Core Definition\n\nThe DOMAIN variable is a **two-character abbreviation** that identifies the domain to which an observation belongs. It appears in every SDTM dataset as an Identifier variable.\n\n| Attribute | Value |\n|-----------|-------|\n| **Label** | Domain Abbreviation |\n| **Type** | Char |\n| **Role** | Identifier |\n| **Core** | Req |\n\n[Source: domains/SV/spec.md], [Source: domains/PC/spec.md], and all other domain spec.md files\n\n---\n\n## Standard Domain Codes\n\nStandard domain codes are defined in the **SDTM Domain Abbreviation codelist (C66734)** in CDISC Controlled Terminology, published at:\n> https://www.cancer.gov/research/resources/terminology/cdisc\n\nDataset naming follows the domain code directly — e.g., the Demographics domain (DM) is stored as `dm.xpt`.\n\n[Source: chapters/ch04_general_assumptions.md]\n\n---\n\n## Rules for Custom Domain Codes\n\nWhen sponsors need to define **new custom domains** not covered by standard CDISC codes, the following rules apply:\n\n1. **Reserved prefix letters**: Domain codes beginning with **X, Y, or Z** are reserved exclusively for custom domain creation, to prevent future conflicts with CDISC-defined codes.\n2. **Second character**: Any letter or number may be used in the second position (e.g., `XA`, `X1`, `YZ`).\n3. **Optional, not required**: Use of X/Y/Z prefixes is *optional* — sponsors are not *required* to use these letters for custom domains, but doing so eliminates the risk of future naming conflicts with CDISC-defined codes.\n\n[Source: chapters/ch04_general_assumptions.md — §4.1.6]\n\n---\n\n## Functional Role of the Domain Code\n\nBeyond identification, the two-character domain abbreviation serves a second structural purpose:\n\n> *\"The domain abbreviation is also used as a **prefix for variables** to ensure uniqueness when datasets are merged.\"*\n\nFor example, in the AE domain, variables are named `AETERM`, `AESEV`, `AESER`, etc. — all prefixed with `AE`.\n\n[Source: domains/SV/spec.md]\n\n---\n\n## Exceptions to Standard Naming\n\nTwo categories of exceptions exist where dataset names may differ from the domain code:\n- **Split domains** (§4.1.7) — general observation class datasets split by category\n- **Relationship datasets** — `RELREC` and `SUPP--` datasets follow their own naming conventions\n\n[Source: chapters/ch04_general_assumptions.md — §4.1.6]"
    },
    "B1": {
     "seats": 3,
     "seats_before_s1": 3,
     "full_seats": false,
     "s1_injected": 0,
     "s1_total_in_final": 0,
     "s1_injected_sections": [],
     "s1_all_sections": [],
     "s1_reintroduced_capped_section": [],
     "composition": [
      {
       "source": "chapters/ch04_general_assumptions.md",
       "section": "4.1.6 Additional Guidance on Dataset Naming",
       "via_lookup": false
      },
      {
       "source": "domains/SV/spec.md",
       "section": "DOMAIN",
       "via_lookup": false
      },
      {
       "source": "chapters/ch04_general_assumptions.md",
       "section": "4.2.2 Two-character Domain Identifier",
       "via_lookup": false
      }
     ],
     "cap": 1,
     "score": 1.0,
     "hits": [
      "two-character",
      "DOMAIN"
     ],
     "misses": [],
     "judge_parse_ok": true,
     "answer": "# SDTM Domain Abbreviation Code Assignment Rules\n\n## 1. Standard Domain Codes\n\nSDTM datasets are normally named to be consistent with their domain code (e.g., the Demographics dataset DM is named `dm.xpt`). Standard domain codes are defined in the **SDTM Domain Abbreviation codelist (C66734)** in CDISC Controlled Terminology.\n\n[Source: chapters/ch04_general_assumptions.md §4.1.6]\n\n---\n\n## 2. Character Rules for the Two-Character Domain Code\n\nThe 2-character domain code follows strict character constraints:\n\n| Position | Allowed Characters |\n|---|---|\n| First character | **A–Z** (letters only) |\n| Second character | **A–Z, 0–9** (letters or digits) |\n\n> No other characters are allowed.\n\nThis restriction exists for **two reasons**:\n- Compatibility with **SAS v5 transport files**\n- Compliance with file naming requirements under the **Electronic Common Technical Document (eCTD)**\n\n[Source: chapters/ch04_general_assumptions.md §4.2.2]\n\n---\n\n## 3. Custom Domain Codes\n\nWhen sponsors need to define new custom domains, domain codes beginning with the letters **X, Y, or Z** have been **reserved** for custom domain creation to eliminate any risk of future conflict with CDISC-defined codes.\n\n- Any letter or number may be used in the **second position** of a custom code\n- Use of X/Y/Z prefix is **optional**, not required — sponsors may use other codes for custom domains, but X/Y/Z are the safe choice\n\n[Source: chapters/ch04_general_assumptions.md §4.1.6]\n\n---\n\n## 4. Role of the Domain Code as a Variable Prefix\n\nThe 2-character domain identifier serves a dual purpose: it is both the **dataset name** and a **variable name prefix**. When creating or extending domains based on the General Observation Classes, sponsors must replace the `--` prefix in SDTM variable templates with the actual domain code (stored in the `DOMAIN` variable).\n\n**Exceptions** — the following variables are **not** prefixed with the domain identifier:\n- Required Identifiers: `STUDYID`, `DOMAIN`, `USUBJID`\n- Common merge keys: `VISIT`, `VISITNUM`, `VISITDY`\n- All DM domain variables (except `DMDTC` and `DMDY`)\n- All variables in RELREC and SUPPQUAL, and some variables in Comments and Trial Design datasets\n\n[Source: chapters/ch04_general_assumptions.md §4.2.2]"
    },
    "B2": {
     "seats": 4,
     "seats_before_s1": 4,
     "full_seats": false,
     "s1_injected": 0,
     "s1_total_in_final": 0,
     "s1_injected_sections": [],
     "s1_all_sections": [],
     "s1_reintroduced_capped_section": [],
     "composition": [
      {
       "source": "chapters/ch04_general_assumptions.md",
       "section": "4.1.6 Additional Guidance on Dataset Naming",
       "via_lookup": false
      },
      {
       "source": "domains/SV/spec.md",
       "section": "DOMAIN",
       "via_lookup": false
      },
      {
       "source": "domains/TS/spec.md",
       "section": "DOMAIN",
       "via_lookup": false
      },
      {
       "source": "chapters/ch04_general_assumptions.md",
       "section": "4.2.2 Two-character Domain Identifier",
       "via_lookup": false
      }
     ],
     "cap": 2,
     "score": 1.0,
     "hits": [
      "two-character",
      "DOMAIN"
     ],
     "misses": [],
     "judge_parse_ok": true,
     "answer": "# SDTM Domain Abbreviation Code Assignment Rules\n\n## 1. Standard Domain Codes\n\nStandard domain abbreviations are defined in the **SDTM Domain Abbreviation codelist (C66734)** in CDISC Controlled Terminology. Dataset names are normally consistent with the domain code (e.g., the DM domain is named `dm.xpt`).\n\n[Source: chapters/ch04_general_assumptions.md §4.1.6]\n\n---\n\n## 2. Character Rules for the Two-Character Domain Code\n\nThe 2-character domain code follows strict character constraints:\n\n| Position | Allowed Characters |\n|---|---|\n| First character | **A–Z** (letters only) |\n| Second character | **A–Z, 0–9** (letters or digits) |\n\n> No other characters are allowed.\n\nThis restriction exists for **compatibility with SAS v5 transport files** and with **file naming requirements** under the Electronic Common Technical Document (eCTD).\n\n[Source: chapters/ch04_general_assumptions.md §4.2.2]\n\n---\n\n## 3. Use of the Domain Code as a Variable Prefix\n\nThe 2-character domain identifier serves a dual purpose:\n\n- It names the dataset (e.g., `ae.xpt` for AE)\n- It is used as a **prefix for most variable names** (replacing the `--` placeholder in SDTM general observation class tables) to ensure uniqueness when datasets are merged/joined\n\n**Exceptions** — the following variables are **not** prefixed with the domain identifier:\n- Required Identifiers: `STUDYID`, `DOMAIN`, `USUBJID`\n- Commonly used grouping/merge keys: e.g., `VISIT`, `VISITNUM`, `VISITDY`\n- All DM domain variables other than `DMDTC` and `DMDY`\n- All variables in RELREC and SUPPQUAL, and some variables in Comments and Trial Design datasets\n\n[Source: chapters/ch04_general_assumptions.md §4.2.2]\n\n---\n\n## 4. Custom Domain Codes\n\nFor sponsor-defined custom domains, **codes beginning with X, Y, or Z** have been **reserved** to eliminate any risk of future conflict with CDISC-assigned codes. Any letter or digit may be used in the second position. Note that use of X/Y/Z is **optional**, not required, for custom domains.\n\n[Source: chapters/ch04_general_assumptions.md §4.1.6]\n\n---\n\n## Summary\n\n| Rule | Detail |\n|---|---|\n| Standard codes | Defined in codelist C66734 |\n| Character set | 1st: A–Z; 2nd: A–Z or 0–9 |\n| Custom domain prefix | X, Y, or Z recommended (optional) |\n| Variable prefix | Domain code replaces `--` in variable names |\n| Exceptions to prefix | `STUDYID`, `DOMAIN`, `USUBJID`, `VISIT`, `VISITNUM`, etc. |"
    }
   }
  },
  {
   "id": "q104",
   "question": "Beyond VISIT and VISITNUM, our schedule-of-activities mapping also populates VISITDY. How many domains carry VISITDY, and what does its label say it represents?",
   "n_expected_facts": 2,
   "n_fused": 51,
   "arms": {
    "A": {
     "seats": 15,
     "seats_before_s1": 15,
     "full_seats": true,
     "s1_injected": 3,
     "s1_total_in_final": 3,
     "s1_injected_sections": [
      {
       "source": "VARIABLE_INDEX.md",
       "section": "§一 通用变量: VISIT"
      },
      {
       "source": "VARIABLE_INDEX.md",
       "section": "§一 通用变量: VISITNUM"
      },
      {
       "source": "VARIABLE_INDEX.md",
       "section": "§一 通用变量: VISITDY"
      }
     ],
     "s1_all_sections": [
      {
       "source": "VARIABLE_INDEX.md",
       "section": "§一 通用变量: VISIT"
      },
      {
       "source": "VARIABLE_INDEX.md",
       "section": "§一 通用变量: VISITNUM"
      },
      {
       "source": "VARIABLE_INDEX.md",
       "section": "§一 通用变量: VISITDY"
      }
     ],
     "s1_reintroduced_capped_section": [],
     "composition": [
      {
       "source": "VARIABLE_INDEX.md",
       "section": "§一 通用变量: VISIT",
       "via_lookup": true
      },
      {
       "source": "VARIABLE_INDEX.md",
       "section": "§一 通用变量: VISITNUM",
       "via_lookup": true
      },
      {
       "source": "VARIABLE_INDEX.md",
       "section": "§一 通用变量: VISITDY",
       "via_lookup": true
      },
      {
       "source": "domains/AG/spec.md",
       "section": "VISIT",
       "via_lookup": false
      },
      {
       "source": "domains/FA/spec.md",
       "section": "VISIT",
       "via_lookup": false
      },
      {
       "source": "domains/IE/spec.md",
       "section": "VISIT",
       "via_lookup": false
      },
      {
       "source": "domains/CP/spec.md",
       "section": "VISIT",
       "via_lookup": false
      },
      {
       "source": "domains/PC/spec.md",
       "section": "VISIT",
       "via_lookup": false
      },
      {
       "source": "domains/VS/spec.md",
       "section": "VISIT",
       "via_lookup": false
      },
      {
       "source": "domains/MI/spec.md",
       "section": "VISIT",
       "via_lookup": false
      },
      {
       "source": "domains/SC/spec.md",
       "section": "VISIT",
       "via_lookup": false
      },
      {
       "source": "domains/CV/spec.md",
       "section": "VISIT",
       "via_lookup": false
      },
      {
       "source": "chapters/ch04_general_assumptions.md",
       "section": "4.4.5 Clinical Encounters and Visits",
       "via_lookup": false
      },
      {
       "source": "terminology/questionnaires/questionnaires_part42.md",
       "section": "World Health Organization Disability Assessment Schedule 2.0 - 36-Item Proxy Questionnaire Test Name",
       "via_lookup": false
      },
      {
       "source": "terminology/questionnaires/questionnaires_part42.md",
       "section": "World Health Organization Disability Assessment Schedule 2.0 - 12-Item Proxy Questionnaire Test Name",
       "via_lookup": false
      }
     ],
     "cap": null,
     "score": 1.0,
     "hits": [
      "36",
      "Planned Study Day of Visit"
     ],
     "misses": [],
     "judge_parse_ok": true,
     "answer": "## VISITDY — Coverage and Definition\n\n### How Many Domains Carry VISITDY?\n\nVISITDY appears in **36 SDTM domains**: AG, BE, BS, CP, CV, DA, EG, FA, FT, GF, IE, IS, LB, MB, MI, MK, ML, MS, NV, OE, PC, PE, PR, QS, RE, RP, RS, SC, SR, SS, SV, TR, TU, TV, UR, VS — the same 36 domains that carry VISIT and VISITNUM.\n\n[Source: VARIABLE_INDEX.md §一 通用变量: VISITDY]\n\n### Variable Definition\n\n| Attribute | Value |\n|-----------|-------|\n| **Label** | Planned Study Day of Visit |\n| **Type** | Num |\n| **Role** | Timing |\n| **Core** | Perm |\n| **Controlled Terms** | *(none)* |\n\n[Source: VARIABLE_INDEX.md §一 通用变量: VISITDY]\n\n### Key Semantic Points\n\nThe label is precise and intentional — **\"Planned\"** is the operative word:\n\n1. **VISITDY represents the planned study day of the *start* of the visit**, not the actual study day. For visits that may span more than one calendar day, VISITDY should reflect the planned day the visit *begins*.\n2. **Do not use `--DY`** in place of VISITDY for planned visit days.\n3. **VISITDY must NOT be populated for unplanned visits** — by definition it is a planned value. The actual study day of an unplanned visit belongs in the domain's `--DY` variable.\n4. For planned visits, values of VISITDY **must match** those defined in the Trial Visits (TV) dataset, maintaining consistency with VISIT and VISITNUM.\n\n[Source: chapters/ch04_general_assumptions.md §4.4.5 Clinical Encounters and Visits]"
    },
    "B1": {
     "seats": 15,
     "seats_before_s1": 15,
     "full_seats": true,
     "s1_injected": 2,
     "s1_total_in_final": 3,
     "s1_injected_sections": [
      {
       "source": "VARIABLE_INDEX.md",
       "section": "§一 通用变量: VISIT"
      },
      {
       "source": "VARIABLE_INDEX.md",
       "section": "§一 通用变量: VISITNUM"
      }
     ],
     "s1_all_sections": [
      {
       "source": "VARIABLE_INDEX.md",
       "section": "§一 通用变量: VISIT"
      },
      {
       "source": "VARIABLE_INDEX.md",
       "section": "§一 通用变量: VISITNUM"
      },
      {
       "source": "VARIABLE_INDEX.md",
       "section": "§一 通用变量: VISITDY"
      }
     ],
     "s1_reintroduced_capped_section": [],
     "composition": [
      {
       "source": "VARIABLE_INDEX.md",
       "section": "§一 通用变量: VISIT",
       "via_lookup": true
      },
      {
       "source": "VARIABLE_INDEX.md",
       "section": "§一 通用变量: VISITNUM",
       "via_lookup": true
      },
      {
       "source": "VARIABLE_INDEX.md",
       "section": "§一 通用变量: VISITDY",
       "via_lookup": true
      },
      {
       "source": "domains/AG/spec.md",
       "section": "VISIT",
       "via_lookup": false
      },
      {
       "source": "chapters/ch04_general_assumptions.md",
       "section": "4.4.5 Clinical Encounters and Visits",
       "via_lookup": false
      },
      {
       "source": "terminology/questionnaires/questionnaires_part42.md",
       "section": "World Health Organization Disability Assessment Schedule 2.0 - 36-Item Proxy Questionnaire Test Name",
       "via_lookup": false
      },
      {
       "source": "terminology/questionnaires/questionnaires_part42.md",
       "section": "World Health Organization Disability Assessment Schedule 2.0 - 12-Item Proxy Questionnaire Test Name",
       "via_lookup": false
      },
      {
       "source": "terminology/questionnaires/questionnaires_part43.md",
       "section": "questionnaires_part43",
       "via_lookup": false
      },
      {
       "source": "terminology/questionnaires/questionnaires_part42.md",
       "section": "World Health Organization Disability Assessment Schedule 2.0 - 36-Item Interviewer Questionnaire Test Name",
       "via_lookup": false
      },
      {
       "source": "terminology/questionnaires/questionnaires_part41.md",
       "section": "World Health Organization Disability Assessment Schedule 2.0 - 12 + 24-Item Interviewer Questionnaire Test Name",
       "via_lookup": false
      },
      {
       "source": "terminology/questionnaires/questionnaires_part42.md",
       "section": "World Health Organization Disability Assessment Schedule 2.0 - 12-Item Proxy Questionnaire Test Code",
       "via_lookup": false
      },
      {
       "source": "terminology/questionnaires/questionnaires_part42.md",
       "section": "World Health Organization Disability Assessment Schedule 2.0 - 36-Item Proxy Questionnaire Test Code",
       "via_lookup": false
      },
      {
       "source": "terminology/questionnaires/questionnaires_part42.md",
       "section": "World Health Organization Disability Assessment Schedule 2.0 - 12-Item Interviewer Questionnaire Test Name",
       "via_lookup": false
      },
      {
       "source": "terminology/questionnaires/questionnaires_part42.md",
       "section": "World Health Organization Disability Assessment Schedule 2.0 - 36-Item Self Questionnaire Test Code",
       "via_lookup": false
      },
      {
       "source": "terminology/questionnaires/questionnaires_part42.md",
       "section": "World Health Organization Disability Assessment Schedule 2.0 - 36-Item Interviewer Questionnaire Test Code",
       "via_lookup": false
      }
     ],
     "cap": 1,
     "score": 1.0,
     "hits": [
      "36",
      "Planned Study Day of Visit"
     ],
     "misses": [],
     "judge_parse_ok": true,
     "answer": "## VISITDY — Coverage and Definition\n\n### How Many Domains Carry VISITDY?\n\nVISITDY appears in **36 SDTM domains**: AG, BE, BS, CP, CV, DA, EG, FA, FT, GF, IE, IS, LB, MB, MI, MK, ML, MS, NV, OE, PC, PE, PR, QS, RE, RP, RS, SC, SR, SS, SV, TR, TU, TV, UR, VS.\n\n[Source: VARIABLE_INDEX.md §一 通用变量: VISITDY]\n\nThis is the same set of 36 domains that carry VISIT and VISITNUM — all three visit-identifier variables travel together across the same domain footprint.\n\n---\n\n### Variable Definition\n\n| Attribute | Value |\n|-----------|-------|\n| **Label** | Planned Study Day of Visit |\n| **Type** | Num |\n| **Role** | Timing |\n| **Core** | Perm |\n| **Controlled Terms** | — |\n\n[Source: VARIABLE_INDEX.md §一 通用变量: VISITDY]\n\n---\n\n### Key Implementation Rules\n\nThe label is precise and carries important constraints:\n\n1. **\"Planned\"** — VISITDY represents the **protocol-defined planned study day** of the visit start, not the actual study day. The actual study day belongs in a `--DY` variable.\n2. **\"of Visit\" = start of visit** — For visits spanning more than one calendar day, VISITDY should be the planned day of the **start** of the visit.\n3. **Must not be populated for unplanned visits** — Because VISITDY is by definition a planned value, it must remain null for unplanned/unscheduled visits.\n4. **Values must match TV** — For planned visits, VISITDY values must be those defined in the Trial Visits (TV) dataset.\n\n[Source: chapters/ch04_general_assumptions.md §4.4.5 Clinical Encounters and Visits]"
    },
    "B2": {
     "seats": 15,
     "seats_before_s1": 15,
     "full_seats": true,
     "s1_injected": 2,
     "s1_total_in_final": 3,
     "s1_injected_sections": [
      {
       "source": "VARIABLE_INDEX.md",
       "section": "§一 通用变量: VISIT"
      },
      {
       "source": "VARIABLE_INDEX.md",
       "section": "§一 通用变量: VISITNUM"
      }
     ],
     "s1_all_sections": [
      {
       "source": "VARIABLE_INDEX.md",
       "section": "§一 通用变量: VISIT"
      },
      {
       "source": "VARIABLE_INDEX.md",
       "section": "§一 通用变量: VISITNUM"
      },
      {
       "source": "VARIABLE_INDEX.md",
       "section": "§一 通用变量: VISITDY"
      }
     ],
     "s1_reintroduced_capped_section": [],
     "composition": [
      {
       "source": "VARIABLE_INDEX.md",
       "section": "§一 通用变量: VISIT",
       "via_lookup": true
      },
      {
       "source": "VARIABLE_INDEX.md",
       "section": "§一 通用变量: VISITNUM",
       "via_lookup": true
      },
      {
       "source": "VARIABLE_INDEX.md",
       "section": "§一 通用变量: VISITDY",
       "via_lookup": true
      },
      {
       "source": "domains/AG/spec.md",
       "section": "VISIT",
       "via_lookup": false
      },
      {
       "source": "domains/FA/spec.md",
       "section": "VISIT",
       "via_lookup": false
      },
      {
       "source": "chapters/ch04_general_assumptions.md",
       "section": "4.4.5 Clinical Encounters and Visits",
       "via_lookup": false
      },
      {
       "source": "terminology/questionnaires/questionnaires_part42.md",
       "section": "World Health Organization Disability Assessment Schedule 2.0 - 36-Item Proxy Questionnaire Test Name",
       "via_lookup": false
      },
      {
       "source": "terminology/questionnaires/questionnaires_part42.md",
       "section": "World Health Organization Disability Assessment Schedule 2.0 - 12-Item Proxy Questionnaire Test Name",
       "via_lookup": false
      },
      {
       "source": "terminology/questionnaires/questionnaires_part43.md",
       "section": "questionnaires_part43",
       "via_lookup": false
      },
      {
       "source": "terminology/questionnaires/questionnaires_part42.md",
       "section": "World Health Organization Disability Assessment Schedule 2.0 - 36-Item Interviewer Questionnaire Test Name",
       "via_lookup": false
      },
      {
       "source": "terminology/questionnaires/questionnaires_part41.md",
       "section": "World Health Organization Disability Assessment Schedule 2.0 - 12 + 24-Item Interviewer Questionnaire Test Name",
       "via_lookup": false
      },
      {
       "source": "terminology/questionnaires/questionnaires_part42.md",
       "section": "World Health Organization Disability Assessment Schedule 2.0 - 12-Item Proxy Questionnaire Test Code",
       "via_lookup": false
      },
      {
       "source": "terminology/questionnaires/questionnaires_part42.md",
       "section": "World Health Organization Disability Assessment Schedule 2.0 - 36-Item Proxy Questionnaire Test Code",
       "via_lookup": false
      },
      {
       "source": "terminology/questionnaires/questionnaires_part42.md",
       "section": "World Health Organization Disability Assessment Schedule 2.0 - 12-Item Interviewer Questionnaire Test Name",
       "via_lookup": false
      },
      {
       "source": "terminology/questionnaires/questionnaires_part42.md",
       "section": "World Health Organization Disability Assessment Schedule 2.0 - 36-Item Self Questionnaire Test Code",
       "via_lookup": false
      }
     ],
     "cap": 2,
     "score": 1.0,
     "hits": [
      "36",
      "Planned Study Day of Visit"
     ],
     "misses": [],
     "judge_parse_ok": true,
     "answer": "Based on the retrieved context, here is the precise answer:\n\n## VISITDY — Domain Coverage and Definition\n\n**Number of domains:** VISITDY appears in **36 SDTM domains**.\n\nThe domains are: AG, BE, BS, CP, CV, DA, EG, FA, FT, GF, IE, IS, LB, MB, MI, MK, ML, MS, NV, OE, PC, PE, PR, QS, RE, RP, RS, SC, SR, SS, SV, TR, TU, TV, UR, VS.\n\n[Source: VARIABLE_INDEX.md -- §一 通用变量: VISITDY]\n\n---\n\n## Variable Attributes\n\n| Attribute | Value |\n|-----------|-------|\n| **Label** | Planned Study Day of Visit |\n| **Type** | Num |\n| **Role** | Timing |\n| **Core** | Perm |\n| **Controlled Terms** | *(none)* |\n\n[Source: VARIABLE_INDEX.md -- §一 通用变量: VISITDY]\n\n---\n\n## Key Implementation Constraints\n\nThe label is precise and intentional — \"**Planned**\" is the operative word. Per SDTMIG §4.4.5:\n\n- VISITDY represents the **planned study day of the start of the visit**, not the actual study day (do not use `--DY` for this purpose)\n- For visits lasting more than one calendar day, VISITDY should reflect the **planned day of the start** of the visit\n- VISITDY **must not be populated for unplanned visits** — by definition it is a planned value only; the actual study day of an unplanned visit belongs in a `--DY` variable\n- Values must match those defined in the Trial Visits (TV) dataset for planned visits\n\n[Source: chapters/ch04_general_assumptions.md -- 4.4.5 Clinical Encounters and Visits]"
    }
   }
  },
  {
   "id": "q39",
   "question": "What is the Findings About observation class and how does it differ from the standard Findings class?",
   "n_expected_facts": 2,
   "n_fused": 60,
   "arms": {
    "A": {
     "seats": 15,
     "seats_before_s1": 15,
     "full_seats": true,
     "s1_injected": 0,
     "s1_total_in_final": 0,
     "s1_injected_sections": [],
     "s1_all_sections": [],
     "s1_reintroduced_capped_section": [],
     "composition": [
      {
       "source": "domains/MI/spec.md",
       "section": "Model Definition",
       "via_lookup": false
      },
      {
       "source": "chapters/ch08_relationships.md",
       "section": "8.6.3 Guidelines for Differentiating Between Interventions, Events, Findings, and Findings About Events or Interventions",
       "via_lookup": false
      },
      {
       "source": "domains/DA/spec.md",
       "section": "Model Definition",
       "via_lookup": false
      },
      {
       "source": "model/02_observation_classes.md",
       "section": "3.1.3 The Findings Observation Class",
       "via_lookup": false
      },
      {
       "source": "domains/QS/spec.md",
       "section": "Model Definition",
       "via_lookup": false
      },
      {
       "source": "chapters/ch02_fundamentals.md",
       "section": "whole_file",
       "via_lookup": false
      },
      {
       "source": "domains/RS/spec.md",
       "section": "Model Definition",
       "via_lookup": false
      },
      {
       "source": "chapters/ch08_relationships.md",
       "section": "8.6.1 Guidelines for Determining the General Observation Class",
       "via_lookup": false
      },
      {
       "source": "domains/BS/spec.md",
       "section": "Model Definition",
       "via_lookup": false
      },
      {
       "source": "chapters/ch04_general_assumptions.md",
       "section": "4.1.4 Order of the Variables",
       "via_lookup": false
      },
      {
       "source": "domains/DD/spec.md",
       "section": "Model Definition",
       "via_lookup": false
      },
      {
       "source": "chapters/ch03_submitting_data.md",
       "section": "whole_file",
       "via_lookup": false
      },
      {
       "source": "domains/GF/spec.md",
       "section": "Model Definition",
       "via_lookup": false
      },
      {
       "source": "domains/FA/assumptions.md",
       "section": "item_6",
       "via_lookup": false
      },
      {
       "source": "domains/MS/spec.md",
       "section": "Model Definition",
       "via_lookup": false
      }
     ],
     "cap": null,
     "score": 1.0,
     "hits": [
      "Findings About",
      "FAOBJ"
     ],
     "misses": [],
     "judge_parse_ok": true,
     "answer": "# Findings About Observation Class\n\n## Definition\n\nThe **Findings About** observation class is a **subtype of the Findings general observation class** used to record findings that are *related to* observations in the Interventions or Events classes — rather than findings directly about a subject.\n\n[Source: model/02_observation_classes.md]\n\n---\n\n## Key Structural Difference: The --OBJ Variable\n\nThe primary structural distinction is the addition of one variable unique to Findings About:\n\n| Variable | Label | Type | Role | Core |\n|----------|-------|------|------|------|\n| **--OBJ** | Object of the Observation | Char | Record Qualifier | Required |\n\n> \"--OBJ describes the event or intervention whose property is being measured in --TESTCD/--TEST.\"\n\nIn the FA domain specifically:\n- **FATESTCD** describes *what* is being measured/evaluated (e.g., `SEV`, `OCCUR`, `TOXGR`)\n- **FAOBJ** describes *what event or intervention* is being evaluated (e.g., the name of an adverse event or procedure)\n\nBoth **FATESTCD** and **FAOBJ** are required to be populated for every record.\n\n[Source: model/02_observation_classes.md]\n\n---\n\n## When to Use Findings About vs. Standard Findings\n\nThe FA structure is appropriate under three criteria:\n\n| Criterion | Description |\n|-----------|-------------|\n| **Criterion 1** | Data with **different timing** from the associated event/intervention as a whole (e.g., repeated severity assessments of a symptom at multiple time points, while the AE record captures the overall event) |\n| **Criterion 2** | An observation requiring **more than one variable** for representation, preventing inclusion as a supplemental qualifier |\n| **Criterion 3** | Data indicating the **occurrence of pre-specified AEs** |\n\n[Source: domains/FA/assumptions.md]\n\n---\n\n## Variable Ordering\n\nIn the Findings About class, the **--OBJ** variable is positioned **immediately after the --TEST variable** among the Findings qualifiers — before result qualifiers like --ORRES.\n\n[Source: model/02_observation_classes.md]\n\n---\n\n## Practical Example of FATESTCD Values\n\nWhen collected data fit a qualifier variable name, that name is reused as the FATESTCD value:\n\n| FATESTCD | FATEST |\n|----------|--------|\n| `OCCUR` | Occurrence Indicator |\n| `SEV` | Severity/Intensity |\n| `TOXGR` | Toxicity Grade |\n\n[Source: model/02_observation_classes.md]\n\n---\n\n## Variables Generally Excluded from FA\n\nAlthough any standard Findings qualifiers may be added to FA, the following should **generally not be used**:\n\n- `--BODSYS`\n- `--MODIFY`\n- `--SEV`\n- `--TOXGR`\n\n(These are excluded because the equivalent information is captured via FATESTCD/FAORRES instead.)\n\n[Source: domains/FA/assumptions.md]\n\n---\n\n## Summary Comparison\n\n| Aspect | Standard Findings | Findings About |\n|--------|------------------|----------------|\n| Subject of observation | The subject directly | An event or intervention *about* the subject |\n| --OBJ variable | Not present | **Required** |\n| Typical domains | LB, VS, EG, QS, etc. | FA (and FA-based custom domains) |\n| Topic variable | --TESTCD (what was measured) | FATESTCD (what was measured) + FAOBJ (what it was measured *about*) |\n| Timing | Date of assessment | Often differs from the parent event/intervention timing |\n\n[Source: model/02_observation_classes.md; chapters/ch08_relationships.md]"
    },
    "B1": {
     "seats": 15,
     "seats_before_s1": 15,
     "full_seats": true,
     "s1_injected": 0,
     "s1_total_in_final": 0,
     "s1_injected_sections": [],
     "s1_all_sections": [],
     "s1_reintroduced_capped_section": [],
     "composition": [
      {
       "source": "domains/MI/spec.md",
       "section": "Model Definition",
       "via_lookup": false
      },
      {
       "source": "chapters/ch08_relationships.md",
       "section": "8.6.3 Guidelines for Differentiating Between Interventions, Events, Findings, and Findings About Events or Interventions",
       "via_lookup": false
      },
      {
       "source": "model/02_observation_classes.md",
       "section": "3.1.3 The Findings Observation Class",
       "via_lookup": false
      },
      {
       "source": "chapters/ch02_fundamentals.md",
       "section": "whole_file",
       "via_lookup": false
      },
      {
       "source": "chapters/ch08_relationships.md",
       "section": "8.6.1 Guidelines for Determining the General Observation Class",
       "via_lookup": false
      },
      {
       "source": "chapters/ch04_general_assumptions.md",
       "section": "4.1.4 Order of the Variables",
       "via_lookup": false
      },
      {
       "source": "domains/FA/assumptions.md",
       "section": "item_6",
       "via_lookup": false
      },
      {
       "source": "domains/VS/assumptions.md",
       "section": "item_2",
       "via_lookup": false
      },
      {
       "source": "model/02_observation_classes.md",
       "section": "3.1.5 Timing Variables for All Classes",
       "via_lookup": false
      },
      {
       "source": "model/02_observation_classes.md",
       "section": "Overview",
       "via_lookup": false
      },
      {
       "source": "chapters/ch08_relationships.md",
       "section": "8.3.1 RELREC Dataset Relationship Example",
       "via_lookup": false
      },
      {
       "source": "chapters/ch04_general_assumptions.md",
       "section": "4.4.8 Date and Time Reported in a Domain Based on Findings",
       "via_lookup": false
      },
      {
       "source": "domains/FA/spec.md",
       "section": "Related Domains",
       "via_lookup": false
      },
      {
       "source": "chapters/ch04_general_assumptions.md",
       "section": "4.1.3 Additional Timing Variables",
       "via_lookup": false
      },
      {
       "source": "chapters/ch10_appendices.md",
       "section": "Appendix E: Revision History",
       "via_lookup": false
      }
     ],
     "cap": 1,
     "score": 1.0,
     "hits": [
      "Findings About",
      "FAOBJ"
     ],
     "misses": [],
     "judge_parse_ok": true,
     "answer": "# Findings About Observation Class vs. Standard Findings Class\n\n## Definition\n\nThe **Findings About** observation class is a **subtype of the Findings general observation class**, specifically designed to record findings that are *about* observations in the Interventions or Events classes — rather than about the subject directly.\n\n> \"The Findings About observation class is a subtype of Findings used to record findings related to observations in the Interventions or Events classes.\"\n\n[Source: model/02_observation_classes.md]\n\n---\n\n## Key Structural Difference: The `--OBJ` Variable\n\nThe single most important structural distinction is the addition of one variable unique to Findings About:\n\n| Variable | Label | Type | Role | Core |\n|----------|-------|------|------|------|\n| `--OBJ` | Object of the Observation | Char | Record Qualifier | Required |\n\n> \"`--OBJ` is unique to Findings About. In conjunction with `FATESTCD`, it describes what the topic of the observation is; therefore, both are required to be populated for every record. `FATESTCD` describes the measurement/evaluation and `FAOBJ` describes the event or intervention that the measurement/evaluation is about.\"\n\n[Source: model/02_observation_classes.md]\n\nThe `--OBJ` variable is inserted **immediately after the `--TEST` variable** in the variable order. [Source: model/02_observation_classes.md]\n\n---\n\n## Conceptual Difference: What Is Being Measured\n\n| Aspect | Standard Findings | Findings About |\n|--------|------------------|----------------|\n| **Subject of observation** | The study subject directly (e.g., a lab test, ECG, questionnaire) | A previously recorded Event or Intervention (e.g., an AE, a medication) |\n| **`--TESTCD`** | Names the test/measurement | Names the property being assessed (e.g., `OCCUR`, `SEV`, `TOXGR`) |\n| **`--OBJ`** | Not present | Names the event/intervention being assessed |\n| **Typical examples** | LB, VS, EG, QS | FA, SR |\n\n[Source: model/02_observation_classes.md, chapters/ch08_relationships.md]\n\n---\n\n## When to Use Findings About (FA) Instead of Standard Findings\n\nSDTMIG v3.4 defines three criteria for using the FA structure [Source: domains/FA/assumptions.md]:\n\n### Criterion 1: Different Timing from the Parent Event/Intervention\nWhen a finding has **different timing** from the associated event or intervention as a whole — for example, repeated severity assessments of an AE symptom at multiple time points, where the AE record itself carries only the overall event timing.\n\n### Criterion 2: Requires More Than One Variable\nWhen the observation about an event/intervention **requires more than one variable** for its representation, making it impossible to capture as a simple supplemental qualifier (SUPP--).\n\n### Criterion 3: Occurrence of Pre-specified AEs\nWhen data indicate the **occurrence of pre-specified AEs** — this replaces the older criterion about findings for which no parent event record exists.\n\n---\n\n## Variable Restrictions in Findings About\n\nCertain standard Findings qualifiers **should generally not be used** in FA:\n\n- `--BODSYS`\n- `--MODIFY`\n- `--SEV`\n- `--TOXGR`\n\n> \"Any Identifier variables, Timing variables, or Findings general observation-class qualifiers may be added to the FA domain, but the following qualifiers should generally not be used: `--BODSYS`, `--MODIFY`, `--SEV`, `--TOXGR`.\"\n\n[Source: domains/FA/assumptions.md]\n\nNote: `SEV` and `TOXGR` are excluded as *qualifier variables* but **can appear as values of `FATESTCD`** when severity or toxicity grade is the *topic* of the finding about an event:\n\n| FATESTCD | FATEST |\n|----------|--------|\n| `OCCUR` | Occurrence Indicator |\n| `SEV` | Severity/Intensity |\n| `TOXGR` | Toxicity Grade |\n\n[Source: model/02_observation_classes.md]\n\n---\n\n## Timing Variable Difference\n\nStandard Findings domains use `--DTC` (date/time of collection) as the primary timing variable; `--STDTC` is **not used** in Findings class domains. This same rule applies to Findings About. [Source: chapters/ch04_general_assumptions.md]\n\n---\n\n## Domains Using Findings About\n\nThe FA domain is the primary implementation, with SR (Skin Response) also modeled as Findings About. FA can record findings about records in: AE, CM, PR, EX, EC, ML, SU, and other source domains. [Source: domains/FA/spec.md]"
    },
    "B2": {
     "seats": 15,
     "seats_before_s1": 15,
     "full_seats": true,
     "s1_injected": 0,
     "s1_total_in_final": 0,
     "s1_injected_sections": [],
     "s1_all_sections": [],
     "s1_reintroduced_capped_section": [],
     "composition": [
      {
       "source": "domains/MI/spec.md",
       "section": "Model Definition",
       "via_lookup": false
      },
      {
       "source": "chapters/ch08_relationships.md",
       "section": "8.6.3 Guidelines for Differentiating Between Interventions, Events, Findings, and Findings About Events or Interventions",
       "via_lookup": false
      },
      {
       "source": "domains/DA/spec.md",
       "section": "Model Definition",
       "via_lookup": false
      },
      {
       "source": "model/02_observation_classes.md",
       "section": "3.1.3 The Findings Observation Class",
       "via_lookup": false
      },
      {
       "source": "chapters/ch02_fundamentals.md",
       "section": "whole_file",
       "via_lookup": false
      },
      {
       "source": "chapters/ch08_relationships.md",
       "section": "8.6.1 Guidelines for Determining the General Observation Class",
       "via_lookup": false
      },
      {
       "source": "chapters/ch04_general_assumptions.md",
       "section": "4.1.4 Order of the Variables",
       "via_lookup": false
      },
      {
       "source": "chapters/ch03_submitting_data.md",
       "section": "whole_file",
       "via_lookup": false
      },
      {
       "source": "domains/FA/assumptions.md",
       "section": "item_6",
       "via_lookup": false
      },
      {
       "source": "domains/VS/assumptions.md",
       "section": "item_2",
       "via_lookup": false
      },
      {
       "source": "model/02_observation_classes.md",
       "section": "3.1.5 Timing Variables for All Classes",
       "via_lookup": false
      },
      {
       "source": "model/02_observation_classes.md",
       "section": "Overview",
       "via_lookup": false
      },
      {
       "source": "chapters/ch08_relationships.md",
       "section": "8.3.1 RELREC Dataset Relationship Example",
       "via_lookup": false
      },
      {
       "source": "domains/MH/assumptions.md",
       "section": "item_2",
       "via_lookup": false
      },
      {
       "source": "chapters/ch04_general_assumptions.md",
       "section": "4.4.8 Date and Time Reported in a Domain Based on Findings",
       "via_lookup": false
      }
     ],
     "cap": 2,
     "score": 1.0,
     "hits": [
      "Findings About",
      "FAOBJ"
     ],
     "misses": [],
     "judge_parse_ok": true,
     "answer": "# Findings About Observation Class vs. Standard Findings Class\n\n## Definition\n\nThe **Findings About** observation class is a **subtype of the Findings general observation class**, specifically designed to record findings that are *about* observations in the Interventions or Events classes — rather than about the subject directly.\n\n[Source: model/02_observation_classes.md]\n\n---\n\n## Standard Findings Class\n\nThe standard Findings class represents:\n\n> \"observations resulting from planned evaluations to address specific tests or questions such as laboratory tests, ECG testing, and questions listed on questionnaires.\"\n\nFindings are performed **on the subject as a whole** (e.g., height, heart rate) or **on a specimen taken from a subject** (e.g., blood sample, ECG tracing, tissue sample).\n\n[Source: model/02_observation_classes.md]\n\n**Structure:** One record per finding, with:\n- **Topic variables:** `--TESTCD` / `--TEST` (what was measured)\n- **Result variables:** `--ORRES`, `--STRESC`, `--STRESN`, etc.\n- **Normal range variables:** `--STNRLO`, `--STNRHI`, `--NRIND`, etc.\n- **Specimen variables:** `--SPEC`, `--SPCCND`, `--SPCUFL`\n\n[Source: model/02_observation_classes.md]\n\n---\n\n## Findings About (FA) Subtype\n\nFindings About uses **all standard Findings variables** plus **one additional variable** unique to this subtype:\n\n| Variable | Label | Type | Role | Notes |\n|----------|-------|------|------|-------|\n| `--OBJ` | Object of the Observation | Char | Record Qualifier | Describes the event or intervention whose property is being measured |\n\n> \"In conjunction with FATESTCD, it describes what the topic of the observation is; therefore, **both are required to be populated for every record**. FATESTCD describes the measurement/evaluation and FAOBJ describes the event or intervention that the measurement/evaluation is about.\"\n\n[Source: model/02_observation_classes.md]\n\n### Variable Order\nThe `--OBJ` variable is positioned **immediately after the `--TEST` variable** among Findings qualifiers.\n\n[Source: model/02_observation_classes.md]\n\n---\n\n## Key Differences\n\n| Aspect | Standard Findings | Findings About |\n|--------|------------------|----------------|\n| Subject of observation | The study subject directly | An event or intervention that happened to the subject |\n| Additional required variable | None | `--OBJ` (mandatory, every record) |\n| `--TESTCD` describes | The measurement/test itself | The measurement/evaluation of the event/intervention |\n| Typical domain | LB, VS, EG, QS, etc. | FA (and FA-based custom domains) |\n| Relationship to parent | No parent record required | May link to a parent AE, CM, CE, etc. record |\n\n[Source: model/02_observation_classes.md]\n\n---\n\n## When to Use Findings About (FA)\n\nThree criteria govern use of the FA structure:\n\n1. **Different timing** — The finding has different timing from the associated event/intervention as a whole (e.g., repeated severity assessments of a symptom at multiple time points, while the AE record captures the overall event)\n\n2. **Multiple variables required** — The observation about an event/intervention requires more than one variable for its representation, preventing its inclusion as a supplemental qualifier\n\n3. **Pre-specified AE occurrence** — Data or information that indicate the occurrence of pre-specified AEs\n\n[Source: domains/FA/assumptions.md]\n\n---\n\n## Common FATESTCD Values\n\nWhen collected data fit a qualifier variable and are represented in FA, the qualifier variable name is used as the value of FATESTCD:\n\n| FATESTCD | FATEST |\n|----------|--------|\n| `OCCUR` | Occurrence Indicator |\n| `SEV` | Severity/Intensity |\n| `TOXGR` | Toxicity Grade |\n\n[Source: model/02_observation_classes.md]\n\n---\n\n## Variables Generally Not Used in FA\n\nThe following qualifiers should generally **not** be used in the FA domain:\n`--BODSYS`, `--MODIFY`, `--SEV`, `--TOXGR`\n\n(These are represented as FATESTCD values instead, per the FA structure.)\n\n[Source: domains/FA/assumptions.md]"
    }
   }
  },
  {
   "id": "q08",
   "question": "How does USUBJID serve as a linking key across SDTM domains?",
   "n_expected_facts": 3,
   "n_fused": 59,
   "arms": {
    "A": {
     "seats": 15,
     "seats_before_s1": 15,
     "full_seats": true,
     "s1_injected": 0,
     "s1_total_in_final": 1,
     "s1_injected_sections": [],
     "s1_all_sections": [
      {
       "source": "VARIABLE_INDEX.md",
       "section": "§一 通用变量: USUBJID"
      }
     ],
     "s1_reintroduced_capped_section": [],
     "composition": [
      {
       "source": "VARIABLE_INDEX.md",
       "section": "§一 通用变量: USUBJID",
       "via_lookup": true
      },
      {
       "source": "domains/SUPPQUAL/spec.md",
       "section": "USUBJID",
       "via_lookup": false
      },
      {
       "source": "chapters/ch04_general_assumptions.md",
       "section": "4.5.9 Baseline Values",
       "via_lookup": false
      },
      {
       "source": "chapters/ch03_submitting_data.md",
       "section": "whole_file",
       "via_lookup": false
      },
      {
       "source": "domains/DM/spec.md",
       "section": "USUBJID",
       "via_lookup": false
      },
      {
       "source": "model/04_associated_persons.md",
       "section": "Overview",
       "via_lookup": false
      },
      {
       "source": "domains/PP/spec.md",
       "section": "USUBJID",
       "via_lookup": false
      },
      {
       "source": "domains/TR/assumptions.md",
       "section": "item_1",
       "via_lookup": false
      },
      {
       "source": "domains/RELSPEC/spec.md",
       "section": "USUBJID",
       "via_lookup": false
      },
      {
       "source": "domains/TR/assumptions.md",
       "section": "item_2",
       "via_lookup": false
      },
      {
       "source": "domains/RELSUB/spec.md",
       "section": "USUBJID",
       "via_lookup": false
      },
      {
       "source": "chapters/ch02_fundamentals.md",
       "section": "whole_file",
       "via_lookup": false
      },
      {
       "source": "domains/CO/spec.md",
       "section": "USUBJID",
       "via_lookup": false
      },
      {
       "source": "chapters/ch08_relationships.md",
       "section": "8.3.1 RELREC Dataset Relationship Example",
       "via_lookup": false
      },
      {
       "source": "domains/RP/spec.md",
       "section": "USUBJID",
       "via_lookup": false
      }
     ],
     "cap": null,
     "score": 1.0,
     "hits": [
      "USUBJID",
      "Identifier",
      "unique"
     ],
     "misses": [],
     "judge_parse_ok": true,
     "answer": "# USUBJID as a Linking Key Across SDTM Domains\n\n## Definition and Core Attributes\n\nUSUBJID (Unique Subject Identifier) is the primary subject-level linking key in SDTM. Its attributes are consistent across all domains where it appears:\n\n| Attribute | Value |\n|-----------|-------|\n| **Label** | Unique Subject Identifier |\n| **Type** | Char |\n| **Role** | Identifier |\n| **Core** | Req (Exp in RELSUB) |\n| **Controlled Terms** | None |\n\n[Source: domains/DM/spec.md], [Source: domains/SUPPQUAL/spec.md], [Source: VARIABLE_INDEX.md]\n\n---\n\n## Scope of Presence\n\nUSUBJID appears in **55 of 63 SDTM domains** — all domains **except** the trial design domains (TA, TD, TE, TI, TM, TS, TV) and the non-host organism identifier domain (OI). This reflects the fact that trial design domains describe the study structure rather than individual subject observations.\n\n[Source: VARIABLE_INDEX.md]\n\n---\n\n## How USUBJID Functions as a Linking Key\n\n### 1. Primary Subject Identity Anchor\n\nUSUBJID must be **unique across all studies** for all applications or submissions involving the product. It is typically formed as a compound identifier:\n\n> *\"This must be a unique value, and could be a compound identifier formed by concatenating STUDYID-SITEID-SUBJID.\"*\n\n[Source: domains/DM/spec.md]\n\nThis design ensures that a subject's records can be unambiguously identified and joined across any domain in a submission.\n\n---\n\n### 2. Natural Key Component in Every Subject-Level Dataset\n\nUSUBJID is part of the **natural (primary) key** for virtually every subject-level dataset. For example:\n\n| Dataset | Keys |\n|---------|------|\n| DM | STUDYID, USUBJID |\n| SE | STUDYID, USUBJID, ETCD, SESTDTC |\n| SM | STUDYID, USUBJID, MIDS |\n| SV | STUDYID, USUBJID, SVTERM |\n| AG | STUDYID, USUBJID, AGTRT, AGSTDTC |\n\n[Source: chapters/ch03_submitting_data.md]\n\n---\n\n### 3. Linking Mechanism in RELREC\n\nIn record-to-record relationships (RELREC), USUBJID scopes the relationship to a specific subject. When USUBJID is **populated** in RELREC, the relationship is record-to-record within that subject. When USUBJID is **null**, the relationship is dataset-to-dataset (not subject-scoped):\n\n> *\"Note that because this is a dataset-to-dataset relationship, USUBJID and IDVARVAL are null.\"*\n\n| Row | RDOMAIN | USUBJID | IDVAR | RELTYPE | RELID |\n|-----|---------|---------|-------|---------|-------|\n| 1 | TU | *(null)* | TULNKID | ONE | 1 |\n| 2 | TR | *(null)* | TRLNKID | MANY | 1 |\n\n[Source: chapters/ch08_relationships.md]\n\n---\n\n### 4. Parent Record Identification in SUPPQUAL (SUPP--)\n\nIn Supplemental Qualifier datasets, USUBJID is one of the keys used to identify the **parent record** to which a non-standard variable (NSV) belongs. The SUPP-- structure uses the same key set as RELREC — including USUBJID — to link supplemental qualifier values back to their parent observation records.\n\n[Source: chapters/ch08_relationships.md], [Source: domains/SUPPQUAL/spec.md]\n\n---\n\n### 5. Special Case: RELSUB Domain\n\nIn the RELSUB (Related Subjects) domain, USUBJID has Core = **Exp** (rather than Req), because either USUBJID or POOLID must be populated — reflecting that the relationship may be to a pool of subjects rather than a single subject:\n\n> *\"Either USUBJID or POOLID must be populated.\"*\n\n[Source: domains/RELSUB/spec.md]\n\n---\n\n### 6. Not Used in Associated Persons (AP) Domains\n\nIn AP domains, **APID** replaces USUBJID as the primary identifier. RSUBJID is used to link back to the related study subject's USUBJID:\n\n> *\"APID is used as an identifier in AP domains (instead of USUBJID for subjects)... RSUBJID may be populated with the USUBJID of the related subject.\"*\n\n[Source: model/04_associated_persons.md]\n\n---\n\n## Summary\n\nUSUBJID serves as the **universal subject-level foreign key** in SDTM: it is the single variable that allows any observation record — across AE, LB, VS, CM, EX, or any other subject-level domain — to be unambiguously traced back to a unique study subject and joined across domains for integrated analysis or regulatory review."
    },
    "B1": {
     "seats": 15,
     "seats_before_s1": 15,
     "full_seats": true,
     "s1_injected": 0,
     "s1_total_in_final": 1,
     "s1_injected_sections": [],
     "s1_all_sections": [
      {
       "source": "VARIABLE_INDEX.md",
       "section": "§一 通用变量: USUBJID"
      }
     ],
     "s1_reintroduced_capped_section": [],
     "composition": [
      {
       "source": "VARIABLE_INDEX.md",
       "section": "§一 通用变量: USUBJID",
       "via_lookup": true
      },
      {
       "source": "domains/SUPPQUAL/spec.md",
       "section": "USUBJID",
       "via_lookup": false
      },
      {
       "source": "chapters/ch04_general_assumptions.md",
       "section": "4.5.9 Baseline Values",
       "via_lookup": false
      },
      {
       "source": "chapters/ch03_submitting_data.md",
       "section": "whole_file",
       "via_lookup": false
      },
      {
       "source": "model/04_associated_persons.md",
       "section": "Overview",
       "via_lookup": false
      },
      {
       "source": "domains/TR/assumptions.md",
       "section": "item_1",
       "via_lookup": false
      },
      {
       "source": "domains/TR/assumptions.md",
       "section": "item_2",
       "via_lookup": false
      },
      {
       "source": "chapters/ch08_relationships.md",
       "section": "8.3.1 RELREC Dataset Relationship Example",
       "via_lookup": false
      },
      {
       "source": "domains/RELREC/examples.md",
       "section": "Dataset Relationship Example",
       "via_lookup": false
      },
      {
       "source": "chapters/ch04_general_assumptions.md",
       "section": "4.2.6 Grouping Variables and Categorization",
       "via_lookup": false
      },
      {
       "source": "model/01_concepts_and_terms.md",
       "section": "2.1 Model Concepts and Terms — Variables",
       "via_lookup": false
      },
      {
       "source": "chapters/ch04_general_assumptions.md",
       "section": "4.2.2 Two-character Domain Identifier",
       "via_lookup": false
      },
      {
       "source": "chapters/ch04_general_assumptions.md",
       "section": "4.2.1 Variable-Naming Conventions",
       "via_lookup": false
      },
      {
       "source": "model/02_observation_classes.md",
       "section": "3.1.4 Identifiers for All Classes",
       "via_lookup": false
      },
      {
       "source": "chapters/ch10_appendices.md",
       "section": "Appendix C: Controlled Terminology",
       "via_lookup": false
      }
     ],
     "cap": 1,
     "score": 1.0,
     "hits": [
      "USUBJID",
      "Identifier",
      "unique"
     ],
     "misses": [],
     "judge_parse_ok": true,
     "answer": "# USUBJID as a Linking Key Across SDTM Domains\n\n## Definition and Core Properties\n\nUSUBJID (Unique Subject Identifier) is defined as:\n\n- **Label:** Unique Subject Identifier\n- **Type:** Char\n- **Role:** Identifier\n- **Core:** Req (Required)\n- **Definition:** \"Identifier used to uniquely identify a subject across all studies for all applications or submissions involving the product.\"\n\n[Source: domains/SUPPQUAL/spec.md]\n\n## Scope of Presence\n\nUSUBJID appears in **55 SDTM domains** — specifically, all domains **except** the trial design and study-level domains (OI, TA, TD, TE, TI, TM, TS, TV), which describe study structure rather than individual subject observations.\n\n[Source: VARIABLE_INDEX.md]\n\n---\n\n## How USUBJID Functions as a Linking Key\n\n### 1. Primary Subject-Level Key in Dataset Metadata\n\nUSUBJID is part of the **natural key structure** for virtually every subject-level dataset. For example:\n\n| Dataset | Keys |\n|---------|------|\n| DM | STUDYID, USUBJID |\n| SE | STUDYID, USUBJID, ETCD, SESTDTC |\n| SM | STUDYID, USUBJID, MIDS |\n| SV | STUDYID, USUBJID, SVTERM |\n| AG | STUDYID, USUBJID, AGTRT, AGSTDTC |\n\n[Source: chapters/ch03_submitting_data.md]\n\nSTUDYID + USUBJID together form the **cross-domain subject anchor** — every observation about a subject in any domain can be traced back to the DM record via this key pair.\n\n---\n\n### 2. Not Prefixed with Domain Code — By Design\n\nUnlike most SDTM variables, USUBJID is **not** prefixed with the 2-character domain identifier. This is an explicit design decision:\n\n> \"Required Identifiers (STUDYID, DOMAIN, USUBJID) ... are not prefixed because they are usually used as keys when merging/joining observations.\"\n\n[Source: chapters/ch04_general_assumptions.md §4.2.2]\n\nThis means USUBJID retains the **same variable name across all 55 domains**, enabling direct merge/join operations without renaming.\n\n---\n\n### 3. Grouping Hierarchy — USUBJID as the Subject Anchor\n\nUSUBJID sits at the center of the SDTM grouping hierarchy:\n\n```\nSTUDYID\n  DOMAIN\n    --CAT / --SCAT\n      USUBJID          ← subject-level anchor\n        --GRPID\n        --LNKID\n        --LNKGRP\n```\n\n> \"All records with the same USUBJID value are a group of records that describe that subject.\"\n\n[Source: chapters/ch04_general_assumptions.md §4.2.6]\n\nThis means USUBJID is the **primary grouping key within a domain** for subject-level data, and the **cross-domain join key** when combining data from multiple domains (e.g., joining AE to LB to EX for a single subject).\n\n---\n\n### 4. Role in RELREC — Record-Level vs. Dataset-Level Relationships\n\nIn the RELREC domain, USUBJID distinguishes between two types of relationships:\n\n- **Record-to-record relationship** (within a subject): USUBJID is **populated**, along with IDVAR and IDVARVAL, to identify specific records for a given subject.\n- **Dataset-to-dataset relationship** (cross-domain structural link): USUBJID is **null**, because the relationship applies at the dataset level regardless of subject.\n\nExample of a dataset-to-dataset RELREC (USUBJID is null):\n\n| STUDYID | RDOMAIN | USUBJID | IDVAR | IDVARVAL | RELTYPE | RELID |\n|---------|---------|---------|-------|----------|---------|-------|\n| EFC1234 | TU | *(null)* | TULNKID | *(null)* | ONE | 1 |\n| EFC1234 | TR | *(null)* | TRLNKID | *(null)* | MANY | 1 |\n\n[Source: chapters/ch08_relationships.md §8.3.1; domains/RELREC/examples.md]\n\n---\n\n### 5. Role in SUPPQUAL — Linking Non-Standard Variables Back to Parent Records\n\nIn SUPP-- datasets, USUBJID is used together with IDVAR/IDVARVAL to identify the **exact parent record** in the parent domain to which the supplemental qualifier belongs:\n\n> \"This is the value of USUBJID in the parent record(s).\"\n\n[Source: domains/SUPPQUAL/spec.md]\n\n---\n\n### 6. Exclusion: Associated Persons (AP) Domains\n\nIn AP domains, **APID** replaces USUBJID as the primary identifier. RSUBJID is used to link back to the related study subject's USUBJID:\n\n> \"RSUBJID may be populated with the USUBJID of the related subject or the POOLID of the related pool.\"\n\n[Source: model/04_associated_persons.md]\n\n---\n\n### 7. Exclusion: Pooled Data\n\nWhen results are not assignable to a specific subject (e.g., pooled PK), **POOLID** is used instead of USUBJID. In such cases USUBJID is null.\n\n[Source: model/02_observation_classes.md §3.1.4]\n\n---\n\n## Summary\n\n| Linking Use Case | Mechanism |\n|-----------------|-----------|\n| Cross-domain subject merge | STUDYID + USUBJID as common join key |\n| Within-domain subject grouping | USUBJID as primary grouping anchor |\n| RELREC record-level relationship | USUBJID populated + IDVAR/IDVARVAL |\n| RELREC dataset-level relationship | USUBJID null (structural link) |\n| SUPPQUAL parent record linkage | USUBJID identifies parent subject record |\n| Associated Persons linkage | RSUBJID references USUBJID of related subject |\n| Pooled/device data | POOLID or SPDEVID used instead of USUBJID |"
    },
    "B2": {
     "seats": 15,
     "seats_before_s1": 15,
     "full_seats": true,
     "s1_injected": 0,
     "s1_total_in_final": 1,
     "s1_injected_sections": [],
     "s1_all_sections": [
      {
       "source": "VARIABLE_INDEX.md",
       "section": "§一 通用变量: USUBJID"
      }
     ],
     "s1_reintroduced_capped_section": [],
     "composition": [
      {
       "source": "VARIABLE_INDEX.md",
       "section": "§一 通用变量: USUBJID",
       "via_lookup": true
      },
      {
       "source": "domains/SUPPQUAL/spec.md",
       "section": "USUBJID",
       "via_lookup": false
      },
      {
       "source": "chapters/ch04_general_assumptions.md",
       "section": "4.5.9 Baseline Values",
       "via_lookup": false
      },
      {
       "source": "chapters/ch03_submitting_data.md",
       "section": "whole_file",
       "via_lookup": false
      },
      {
       "source": "domains/DM/spec.md",
       "section": "USUBJID",
       "via_lookup": false
      },
      {
       "source": "model/04_associated_persons.md",
       "section": "Overview",
       "via_lookup": false
      },
      {
       "source": "domains/TR/assumptions.md",
       "section": "item_1",
       "via_lookup": false
      },
      {
       "source": "domains/TR/assumptions.md",
       "section": "item_2",
       "via_lookup": false
      },
      {
       "source": "chapters/ch02_fundamentals.md",
       "section": "whole_file",
       "via_lookup": false
      },
      {
       "source": "chapters/ch08_relationships.md",
       "section": "8.3.1 RELREC Dataset Relationship Example",
       "via_lookup": false
      },
      {
       "source": "domains/RELREC/examples.md",
       "section": "Dataset Relationship Example",
       "via_lookup": false
      },
      {
       "source": "chapters/ch04_general_assumptions.md",
       "section": "4.2.6 Grouping Variables and Categorization",
       "via_lookup": false
      },
      {
       "source": "model/01_concepts_and_terms.md",
       "section": "2.1 Model Concepts and Terms — Variables",
       "via_lookup": false
      },
      {
       "source": "chapters/ch04_general_assumptions.md",
       "section": "4.2.2 Two-character Domain Identifier",
       "via_lookup": false
      },
      {
       "source": "chapters/ch04_general_assumptions.md",
       "section": "4.2.1 Variable-Naming Conventions",
       "via_lookup": false
      }
     ],
     "cap": 2,
     "score": 1.0,
     "hits": [
      "USUBJID",
      "Identifier",
      "unique"
     ],
     "misses": [],
     "judge_parse_ok": true,
     "answer": "# USUBJID as a Linking Key Across SDTM Domains\n\n## Definition and Core Attributes\n\nUSUBJID (Unique Subject Identifier) is the primary cross-domain linking key in SDTM. Its attributes are consistent across all domains where it appears:\n\n| Attribute | Value |\n|-----------|-------|\n| **Label** | Unique Subject Identifier |\n| **Type** | Char |\n| **Role** | Identifier |\n| **Core** | Req |\n| **Controlled Terms** | *(none — sponsor-defined)* |\n\n> \"Identifier used to uniquely identify a subject across all studies for all applications or submissions involving the product.\" [Source: domains/DM/spec.md]\n\nA common construction pattern is a compound identifier: **STUDYID-SITEID-SUBJID** concatenated. [Source: domains/DM/spec.md]\n\n---\n\n## Scope of Appearance\n\nUSUBJID appears in **55 SDTM domains** — specifically, all domains **except** the trial design and study-level domains: OI, TA, TD, TE, TI, TM, TS, TV. [Source: VARIABLE_INDEX.md]\n\nThis near-universal presence is by design: because trial design domains describe the study structure rather than individual subject observations, no subject-level identifier is needed there.\n\n---\n\n## Why USUBJID Is Not Domain-Prefixed\n\nUnlike most SDTM variables, USUBJID is **not** prefixed with the 2-character domain code. The rationale is explicit:\n\n> \"Required Identifiers (STUDYID, DOMAIN, USUBJID) … are not prefixed because they are usually used as **keys when merging/joining observations**.\" [Source: chapters/ch04_general_assumptions.md §4.2.2]\n\nThis design choice ensures that a simple equi-join on USUBJID works uniformly across any pair of domains without variable renaming.\n\n---\n\n## Role in Dataset-Level Metadata (Natural Keys)\n\nUSUBJID is part of the natural key structure for virtually every subject-level dataset. Examples from the dataset-level metadata table:\n\n| Dataset | Keys |\n|---------|------|\n| DM | STUDYID, USUBJID |\n| SE | STUDYID, USUBJID, ETCD, SESTDTC |\n| SM | STUDYID, USUBJID, MIDS |\n| SV | STUDYID, USUBJID, SVTERM |\n| AG | STUDYID, USUBJID, AGTRT, AGSTDTC |\n\n[Source: chapters/ch03_submitting_data.md §3.2.1]\n\n---\n\n## Role in RELREC Record-Level Relationships\n\nWhen RELREC is used to link **individual records** (record-to-record relationships) across domains, USUBJID is populated to scope the relationship to a specific subject:\n\n```\nSTUDYID | RDOMAIN | USUBJID  | IDVAR  | IDVARVAL | RELTYPE | RELID\nEFC1234 | AE      | SUBJ-001 | AESEQ  | 1        | ONE     | 1\nEFC1234 | CM      | SUBJ-001 | CMSEQ  | 3        | MANY    | 1\n```\n\nConversely, for **dataset-to-dataset** relationships (e.g., TU → TR), USUBJID is **null** because the link operates at the dataset level rather than the subject level:\n\n| RDOMAIN | USUBJID | IDVAR   | RELTYPE |\n|---------|---------|---------|---------|\n| TU      | *(null)*| TULNKID | ONE     |\n| TR      | *(null)*| TRLNKID | MANY    |\n\n[Source: chapters/ch08_relationships.md §8.3.1; domains/RELREC/examples.md]\n\n---\n\n## Role in Supplemental Qualifiers (SUPP--)\n\nIn SUPP-- datasets, USUBJID links each supplemental qualifier record back to its parent record in the general observation class domain. The SUPPQUAL spec notes:\n\n> \"This is the value of USUBJID in the parent record(s).\" [Source: domains/SUPPQUAL/spec.md]\n\n---\n\n## Relationship to Associated Persons (AP) Domains\n\nIn AP domains, **APID** replaces USUBJID as the primary identifier for the associated person. However, **RSUBJID** is used to link back to the study subject's USUBJID:\n\n> \"RSUBJID may be populated with the USUBJID of the related subject or the POOLID of the related pool.\" [Source: model/04_associated_persons.md]\n\n---\n\n## Summary\n\n| Linking Use Case | USUBJID Role |\n|-----------------|--------------|\n| Cross-domain merge/join for subject data | Primary equi-join key |\n| Natural key in dataset metadata | Required component |\n| RELREC record-level relationships | Populated to scope to subject |\n| RELREC dataset-level relationships | Null (not applicable) |\n| SUPP-- parent record linkage | Matches parent USUBJID |\n| AP domains | Replaced by APID; referenced via RSUBJID |"
    }
   }
  },
  {
   "id": "q29",
   "question": "How do the four Trial Design domains TA (Trial Arms), TE (Trial Elements), TV (Trial Visits), and TI (Trial Inclusion/Exclusion) work together to define a study design?",
   "n_expected_facts": 4,
   "n_fused": 38,
   "arms": {
    "A": {
     "seats": 15,
     "seats_before_s1": 15,
     "full_seats": true,
     "s1_injected": 0,
     "s1_total_in_final": 3,
     "s1_injected_sections": [],
     "s1_all_sections": [
      {
       "source": "domains/TA/spec.md",
       "section": "Related Domains"
      },
      {
       "source": "domains/TE/spec.md",
       "section": "Related Domains"
      },
      {
       "source": "domains/TV/spec.md",
       "section": "Related Domains"
      }
     ],
     "s1_reintroduced_capped_section": [],
     "composition": [
      {
       "source": "domains/TA/spec.md",
       "section": "Related Domains",
       "via_lookup": true
      },
      {
       "source": "domains/TE/spec.md",
       "section": "Related Domains",
       "via_lookup": true
      },
      {
       "source": "domains/TV/spec.md",
       "section": "Related Domains",
       "via_lookup": true
      },
      {
       "source": "domains/TE/assumptions.md",
       "section": "overview",
       "via_lookup": false
      },
      {
       "source": "domains/TA/assumptions.md",
       "section": "overview",
       "via_lookup": false
      },
      {
       "source": "domains/TM/spec.md",
       "section": "Related Domains",
       "via_lookup": false
      },
      {
       "source": "domains/TS/spec.md",
       "section": "Related Domains",
       "via_lookup": false
      },
      {
       "source": "domains/TD/spec.md",
       "section": "Related Domains",
       "via_lookup": false
      },
      {
       "source": "domains/TE/examples.md",
       "section": "Trial Elements Issues",
       "via_lookup": false
      },
      {
       "source": "domains/TI/assumptions.md",
       "section": "overview",
       "via_lookup": false
      },
      {
       "source": "domains/TA/examples.md",
       "section": "Example 1",
       "via_lookup": false
      },
      {
       "source": "domains/TA/examples.md",
       "section": "Trial Arms Issues",
       "via_lookup": false
      },
      {
       "source": "model/05_study_level_data.md",
       "section": "5.1 Trial Design Model",
       "via_lookup": false
      },
      {
       "source": "domains/TI/spec.md",
       "section": "Related Domains",
       "via_lookup": false
      },
      {
       "source": "domains/TV/examples.md",
       "section": "Example 1",
       "via_lookup": false
      }
     ],
     "cap": null,
     "score": 1.0,
     "hits": [
      "TA",
      "TE",
      "TV",
      "TI"
     ],
     "misses": [],
     "judge_parse_ok": true,
     "answer": "# How TA, TE, TV, and TI Work Together to Define a Study Design\n\nThese four Trial Design domains form a complementary framework: **TE** defines the building blocks, **TA** assembles them into paths, **TV** schedules activities along those paths, and **TI** gates entry into the trial.\n\n---\n\n## 1. TE — Trial Elements: The Building Blocks\n\nTE defines the **atomic, reusable time periods** of a trial.\n\n> \"An element is a building block for creating study cells, and an arm is composed of study cells.\"\n> [Source: domains/TE/assumptions.md]\n\nKey variables:\n\n| Variable | Role | Purpose |\n|----------|------|---------|\n| ETCD | Topic | Unique element code (referenced by TA) |\n| ELEMENT | Synonym Qualifier | Human-readable description |\n| TESTRL | Rule | Condition for starting the element |\n| TEENRL | Rule | Condition for ending the element |\n| TEDUR | Timing | Planned duration |\n\n**Critical property:** Each element appears **only once** in TE, even if it is reused across multiple arms or multiple times within one arm. For example, a trial with 9 study cells but only 5 unique elements produces exactly 5 TE records. [Source: domains/TE/assumptions.md]\n\n---\n\n## 2. TA — Trial Arms: Assembling Elements into Paths\n\nTA takes the elements defined in TE and **sequences them into ordered paths (arms)** through the trial, one record per element per arm.\n\nKey variables:\n\n| Variable | Role | Purpose |\n|----------|------|---------|\n| ARMCD / ARM | Topic / Synonym Qualifier | Identifies the arm |\n| TAETORD | Timing | Order of element within the arm |\n| ETCD / ELEMENT | Record Qualifier / Synonym Qualifier | References the TE element |\n| EPOCH | Timing | Which epoch this element belongs to |\n| TABRANCH | Rule | Fork condition (e.g., \"Randomized to Arm A\") |\n| TATRANS | Rule | Within-arm transition condition (e.g., skip-ahead logic) |\n\n[Source: model/05_study_level_data.md]\n\n**The relationship:** TA references ETCD from TE. The same ETCD (e.g., \"SCREEN\") may appear in multiple TA rows — once per arm — but maps back to a single TE record.\n\n**Trial Design Matrix concept:** TA effectively encodes the matrix of Arms × Epochs, where each cell contains an element:\n\n```\n             | Screen Epoch | Run-In Epoch | Treatment Epoch |\nPlacebo Arm  |   Screen     |   Run-In     |    PLACEBO      |\nDrug A Arm   |   Screen     |   Run-In     |    DRUG A       |\nDrug B Arm   |   Screen     |   Run-In     |    DRUG B       |\n```\n[Source: domains/TA/examples.md]\n\n**Branch vs. Transition rules:**\n- **TABRANCH** = fork points creating separate arms (e.g., randomization); the \"if\" is implicit — each arm record states the outcome that applies to *that* arm\n- **TATRANS** = within-arm conditional logic (e.g., \"if criteria met, proceed to element X\") [Source: domains/TA/examples.md]\n\n---\n\n## 3. TV — Trial Visits: Scheduling Activities Along the Path\n\nTV defines **when planned visits occur** relative to the epoch/element structure established by TA and TE.\n\nKey variables:\n\n| Variable | Role | Purpose |\n|----------|------|---------|\n| VISITNUM | Topic | Numeric visit identifier |\n| TVSTRL | Rule | Rule for start of visit (references epoch/element timing) |\n| TVENRL | Rule | Rule for end of visit |\n\n[Source: domains/TV/spec.md, domains/TV/examples.md]\n\n**The relationship to TA/TE:** TV visit timing rules explicitly reference the epoch and element boundaries defined in TA/TE. For example:\n\n- `TVSTRL = \"Start of Screen Epoch\"` — anchored to TA's EPOCH\n- `TVSTRL = \"30 minutes before end of Run-in Epoch\"` — anchored to TE's TEENRL\n- `TVSTRL = \"1 week after start of Treatment Epoch\"` — relative to epoch transition\n\nImportantly, **visits can span epoch transitions** (e.g., Visit 2 spans Screen → Run-In), which is why TV rules reference both element and epoch boundaries rather than just calendar dates. When an arm repeats the same element, TAETORD from TA may also be needed to disambiguate visit anchoring. [Source: domains/TV/examples.md]\n\n---\n\n## 4. TI — Trial Inclusion/Exclusion Criteria: Gating Entry\n\nTI provides a **tabular synopsis of the protocol's eligibility criteria** — the conditions a subject must satisfy to enter the trial at all.\n\n> \"TI contains all the inclusion and exclusion criteria for the trial, and thus provides information that may not be present in the subject-level data.\"\n> [Source: domains/TI/assumptions.md]\n\n**The relationship to the other domains:**\n- TI operates at the **trial level**, not the arm or element level — it defines who can enter the trial before TA/TE/TV apply\n- TI complements the subject-level **IE domain** (Inclusion/Exclusion Criteria Not Met), which records only criteria that individual subjects *failed*; TI records *all* criteria\n- The variable TIRL was included to support machine-executable eligibility rules, though this capability has not yet been implemented [Source: domains/TI/assumptions.md]\n\n---\n\n## 5. How They Integrate: The Full Picture\n\n```\nTI (eligibility gate)\n  └─► Subject enters trial\n        │\n        ▼\nTE (element definitions: ETCD, TESTRL, TEENRL, TEDUR)\n        │  referenced by\n        ▼\nTA (arm paths: ARMCD × TAETORD × ETCD × EPOCH × TABRANCH × TATRANS)\n        │  epoch/element boundaries referenced by\n        ▼\nTV (visit schedule: VISITNUM × TVSTRL × TVENRL)\n        │  planned visits vs. actual\n        ▼\nSE (Subject Elements — actual subject traversal of the TA path)\nSV (Subject Visits — actual subject visits vs. TV plan)\n```\n\n| Domain | Answers the question… |\n|--------|----------------------|\n| TI | Who is eligible to participate? |\n| TE | What are the distinct time periods (elements) in the trial? |\n| TA | In what order do subjects in each arm traverse those elements, and how do they branch? |\n| TV | When are visits planned to occur relative to those elements/epochs? |\n\n[Source: domains/TA/spec.md, domains/TE/spec.md, domains/TV/spec.md, domains/TI/assumptions.md, model/05_study_level_data.md]"
    },
    "B1": {
     "seats": 15,
     "seats_before_s1": 15,
     "full_seats": true,
     "s1_injected": 2,
     "s1_total_in_final": 3,
     "s1_injected_sections": [
      {
       "source": "domains/TA/spec.md",
       "section": "Related Domains"
      },
      {
       "source": "domains/TE/spec.md",
       "section": "Related Domains"
      }
     ],
     "s1_all_sections": [
      {
       "source": "domains/TA/spec.md",
       "section": "Related Domains"
      },
      {
       "source": "domains/TE/spec.md",
       "section": "Related Domains"
      },
      {
       "source": "domains/TV/spec.md",
       "section": "Related Domains"
      }
     ],
     "s1_reintroduced_capped_section": [
      {
       "source": "domains/TA/spec.md",
       "section": "Related Domains"
      },
      {
       "source": "domains/TE/spec.md",
       "section": "Related Domains"
      }
     ],
     "composition": [
      {
       "source": "domains/TA/spec.md",
       "section": "Related Domains",
       "via_lookup": true
      },
      {
       "source": "domains/TE/spec.md",
       "section": "Related Domains",
       "via_lookup": true
      },
      {
       "source": "domains/TV/spec.md",
       "section": "Related Domains",
       "via_lookup": true
      },
      {
       "source": "domains/TE/assumptions.md",
       "section": "overview",
       "via_lookup": false
      },
      {
       "source": "domains/TE/examples.md",
       "section": "Trial Elements Issues",
       "via_lookup": false
      },
      {
       "source": "domains/TA/examples.md",
       "section": "Example 1",
       "via_lookup": false
      },
      {
       "source": "domains/TA/examples.md",
       "section": "Trial Arms Issues",
       "via_lookup": false
      },
      {
       "source": "model/05_study_level_data.md",
       "section": "5.1 Trial Design Model",
       "via_lookup": false
      },
      {
       "source": "domains/TA/examples.md",
       "section": "Example 3",
       "via_lookup": false
      },
      {
       "source": "domains/TV/examples.md",
       "section": "Trial Visits Issues",
       "via_lookup": false
      },
      {
       "source": "VARIABLE_INDEX.md",
       "section": "TI — Trial Inclusion/Exclusion Criteria (Trial Design)",
       "via_lookup": false
      },
      {
       "source": "domains/TA/examples.md",
       "section": "Example 4",
       "via_lookup": false
      },
      {
       "source": "VARIABLE_INDEX.md",
       "section": "TV — Trial Visits (Trial Design)",
       "via_lookup": false
      },
      {
       "source": "VARIABLE_INDEX.md",
       "section": "TA — Trial Arms (Trial Design)",
       "via_lookup": false
      },
      {
       "source": "domains/TA/assumptions.md",
       "section": "item_2",
       "via_lookup": false
      }
     ],
     "cap": 1,
     "score": 1.0,
     "hits": [
      "TA",
      "TE",
      "TV",
      "TI"
     ],
     "misses": [],
     "judge_parse_ok": true,
     "answer": "# Trial Design Domains: How TA, TE, TV, and TI Work Together\n\nThese four domains form the structural backbone of the SDTM Trial Design Model, each capturing a distinct dimension of the planned study design and referencing each other through shared keys.\n\n---\n\n## 1. The Conceptual Hierarchy\n\n```\nTI — Eligibility Gate (who can enter)\n        ↓\nTE — Building Blocks (what time periods exist)\n        ↓\nTA — Sequence & Branching (how blocks are ordered per arm)\n        ↓\nTV — Data Collection Schedule (when assessments occur within the structure)\n```\n\n---\n\n## 2. TE — Trial Elements: The Atomic Building Blocks\n\n**Structure:** One record per unique planned element.\n\nTE defines the discrete, reusable time periods of the trial. Each element has:\n\n| Variable | Role | Purpose |\n|----------|------|---------|\n| ETCD | Topic | Short code identifying the element (links to TA) |\n| ELEMENT | Synonym Qualifier | Human-readable description |\n| TESTRL | Rule | Condition that starts the element |\n| TEENRL | Rule | Condition that ends the element |\n| TEDUR | Timing | Planned duration (ISO 8601) |\n\nKey principle: **an element appears only once in TE, even if it is reused across multiple arms or multiple times within an arm.** For example, a \"Screen\" element used in all three arms of a parallel trial has exactly one TE record.\n\n[Source: domains/TE/assumptions.md]\n[Source: model/05_study_level_data.md]\n\n---\n\n## 3. TA — Trial Arms: Sequencing Elements into Arms\n\n**Structure:** One record per planned element per arm.\n\nTA consumes the building blocks defined in TE and arranges them into ordered sequences (arms). The critical linkage variable is **ETCD**, which is a Foreign Key back to TE.\n\n| Variable | Role | Purpose |\n|----------|------|---------|\n| ARMCD | Topic | Arm code (also used in DM) |\n| ARM | Synonym Qualifier | Arm description |\n| TAETORD | Timing | Order of element within the arm |\n| ETCD | Record Qualifier | Links to TE.ETCD |\n| ELEMENT | Synonym Qualifier | Copied from TE for readability |\n| TABRANCH | Rule | Branch condition at this step (fork in the flowchart) |\n| TATRANS | Rule | Transition rule (skip-forward logic, e.g., \"if disease progression, go to Follow-up\") |\n| EPOCH | Timing | Groups elements into broader time periods |\n\n**TABRANCH vs. TATRANS distinction:**\n- TABRANCH describes *why a subject is in this arm* — it is a fork condition, populated once per branch point per arm (e.g., \"Randomized to Treatment A\")\n- TATRANS describes *conditional skip logic within an arm* — an \"if\" clause allowing a subject to bypass the next sequential element (e.g., \"If disease progression, go to Follow-up element\")\n\n[Source: domains/TA/examples.md — Trial Arms Issues]\n[Source: model/05_study_level_data.md]\n\n**Relationship to TE:** The same ETCD value (e.g., `SCRN`) may appear in multiple TA rows (once per arm), but only once in TE. This is the many-to-one relationship between TA and TE.\n\n[Source: domains/TE/assumptions.md]\n\n---\n\n## 4. TV — Trial Visits: Scheduling Data Collection\n\n**Structure:** One record per planned visit (optionally per arm).\n\nTV operates *on top of* the TA/TE structure, defining when assessments are planned to occur. Visits are anchored to elements and epochs defined in TA/TE.\n\n| Variable | Role | Purpose |\n|----------|------|---------|\n| VISITNUM | Timing | Numeric visit identifier |\n| VISIT | Synonym Qualifier | Visit name |\n| VISITDY | Timing | Planned study day of visit |\n| ARMCD | Record Qualifier | Optional — links to TA.ARMCD for arm-specific schedules |\n| TVSTRL | Rule | **Required** — when the visit should start (e.g., \"8 weeks after end of 2nd Treatment Epoch\") |\n| TVENRL | Rule | When the visit should end |\n\nKey design point: **visit start rules are expressed relative to element or epoch boundaries defined in TA/TE.** This is the functional linkage — TV does not have a hard foreign key to TE, but its TVSTRL/TVENRL values reference ELEMENT and EPOCH names from TE and TA.\n\n[Source: domains/TV/examples.md — Trial Visit Rules]\n[Source: VARIABLE_INDEX.md — TV]\n\n---\n\n## 5. TI — Trial Inclusion/Exclusion Criteria: The Eligibility Gate\n\n**Structure:** One record per inclusion/exclusion criterion.\n\nTI stands somewhat apart from the TA/TE/TV triad — it defines *who is eligible to enter the trial* rather than *what happens once they are in it*.\n\n| Variable | Role | Purpose |\n|----------|------|---------|\n| IETESTCD | Topic | Short criterion code (links to IE domain) |\n| IETEST | Synonym Qualifier | Full criterion text |\n| IECAT | Record Qualifier | \"INCLUSION\" or \"EXCLUSION\" |\n| TIRL | Rule | Machine-readable or text rule for the criterion |\n| TIVERS | Record Qualifier | Protocol version for the criterion |\n\n**Linkage to subject-level data:** The criterion codes defined in TI (IETESTCD) are used in the IE domain (Inclusion/Exclusion Criteria Not Met) to record which criteria a subject failed to meet. This closes the loop between the planned eligibility rules (TI) and actual subject disposition.\n\n[Source: VARIABLE_INDEX.md — TI]\n\n---\n\n## 6. Cross-Domain Integration Summary\n\n```\nTE.ETCD ←──────────── TA.ETCD          (elements instantiated in arms)\nTA.ARMCD ──────────→ DM.ARMCD          (arms assigned to subjects)\nTA.EPOCH ──────────→ SE.EPOCH          (planned epochs vs. actual subject elements)\nTA.ARMCD ──────────→ TV.ARMCD          (arm-specific visit schedules)\nTV.TVSTRL references TA.EPOCH/ELEMENT  (visit timing anchored to trial structure)\nTI.IETESTCD ───────→ IE.IETESTCD       (planned criteria vs. actual deviations)\n```\n\n[Source: domains/TA/spec.md — Related Domains]\n[Source: domains/TE/spec.md — Related Domains]\n[Source: domains/TV/spec.md — Related Domains]\n\n---\n\n## 7. Practical Example: Parallel 3-Arm Trial\n\nIn TA Example 1 (Screen → Run-In → Treatment, 3 arms):\n\n1. **TE** has 5 records: `SCRN`, `RUNIN`, `PLACEBO`, `DRUGA`, `DRUGB`\n2. **TA** has 9 records: each of the 3 arms × 3 elements, with TABRANCH populated on the Run-In row of each arm to record the randomization outcome\n3. **TV** has N records defining visits anchored to \"start of Treatment Epoch,\" \"end of Run-In,\" etc.\n4. **TI** has M records defining the inclusion/exclusion criteria that governed entry into the Screening element\n\n[Source: domains/TA/examples.md — Example 1]\n[Source: domains/TE/assumptions.md]"
    },
    "B2": {
     "seats": 15,
     "seats_before_s1": 15,
     "full_seats": true,
     "s1_injected": 1,
     "s1_total_in_final": 3,
     "s1_injected_sections": [
      {
       "source": "domains/TE/spec.md",
       "section": "Related Domains"
      }
     ],
     "s1_all_sections": [
      {
       "source": "domains/TA/spec.md",
       "section": "Related Domains"
      },
      {
       "source": "domains/TE/spec.md",
       "section": "Related Domains"
      },
      {
       "source": "domains/TV/spec.md",
       "section": "Related Domains"
      }
     ],
     "s1_reintroduced_capped_section": [
      {
       "source": "domains/TE/spec.md",
       "section": "Related Domains"
      }
     ],
     "composition": [
      {
       "source": "domains/TA/spec.md",
       "section": "Related Domains",
       "via_lookup": true
      },
      {
       "source": "domains/TE/spec.md",
       "section": "Related Domains",
       "via_lookup": true
      },
      {
       "source": "domains/TV/spec.md",
       "section": "Related Domains",
       "via_lookup": true
      },
      {
       "source": "domains/TE/assumptions.md",
       "section": "overview",
       "via_lookup": false
      },
      {
       "source": "domains/TA/assumptions.md",
       "section": "overview",
       "via_lookup": false
      },
      {
       "source": "domains/TE/examples.md",
       "section": "Trial Elements Issues",
       "via_lookup": false
      },
      {
       "source": "domains/TA/examples.md",
       "section": "Example 1",
       "via_lookup": false
      },
      {
       "source": "domains/TA/examples.md",
       "section": "Trial Arms Issues",
       "via_lookup": false
      },
      {
       "source": "model/05_study_level_data.md",
       "section": "5.1 Trial Design Model",
       "via_lookup": false
      },
      {
       "source": "domains/TV/examples.md",
       "section": "Example 1",
       "via_lookup": false
      },
      {
       "source": "domains/TA/examples.md",
       "section": "Example 3",
       "via_lookup": false
      },
      {
       "source": "domains/TV/examples.md",
       "section": "Trial Visits Issues",
       "via_lookup": false
      },
      {
       "source": "VARIABLE_INDEX.md",
       "section": "TI — Trial Inclusion/Exclusion Criteria (Trial Design)",
       "via_lookup": false
      },
      {
       "source": "domains/TA/examples.md",
       "section": "Example 4",
       "via_lookup": false
      },
      {
       "source": "VARIABLE_INDEX.md",
       "section": "TV — Trial Visits (Trial Design)",
       "via_lookup": false
      }
     ],
     "cap": 2,
     "score": 1.0,
     "hits": [
      "TA",
      "TE",
      "TV",
      "TI"
     ],
     "misses": [],
     "judge_parse_ok": true,
     "answer": "# How TA, TE, TV, and TI Work Together to Define a Study Design\n\nThese four Trial Design domains form a complementary framework: TE defines the **building blocks**, TA assembles them into **paths**, TV schedules **when data is collected**, and TI establishes **who is eligible**. Here is a detailed breakdown.\n\n---\n\n## 1. TE — Trial Elements: The Building Blocks\n\nTE defines the atomic, reusable time periods of a trial.\n\n> \"An element is a building block for creating study cells, and an arm is composed of study cells.\"\n> [Source: domains/TE/assumptions.md]\n\n**Key structural rule:** Each element appears **only once** in TE, even if it is reused across multiple arms or multiple times within an arm.\n\n| Variable | Role | Purpose |\n|----------|------|---------|\n| ETCD | Topic | Unique element code (referenced by TA) |\n| ELEMENT | Synonym Qualifier | Human-readable description |\n| TESTRL | Rule | Condition that starts the element |\n| TEENRL | Rule | Condition that ends the element |\n| TEDUR | Timing | Planned duration (ISO 8601) |\n\n[Source: model/05_study_level_data.md]\n\n**Example:** A trial with 9 study cells but only 5 unique elements → TE has exactly 5 records. [Source: domains/TE/assumptions.md]\n\n---\n\n## 2. TA — Trial Arms: Assembling Elements into Paths\n\nTA consumes the elements defined in TE and arranges them into ordered sequences (arms), one record per element per arm.\n\n> \"An arm is a planned path through the trial... the trial design assigns subjects to arms, which comprise a sequence of steps called elements.\"\n> [Source: domains/TA/assumptions.md]\n\n**Key structural concepts:**\n\n| Concept | Variable | Role |\n|---------|----------|------|\n| Arm identity | ARMCD / ARM | Topic / Synonym Qualifier |\n| Element ordering within arm | TAETORD | Timing |\n| Element reference (from TE) | ETCD / ELEMENT | Record Qualifier / Synonym Qualifier |\n| Fork in the flowchart | TABRANCH | Rule — describes *why* a subject is in this arm |\n| Skip-forward within an arm | TATRANS | Rule — conditional transition to a non-sequential element |\n| Time period context | EPOCH | Timing — assigns each element to a trial epoch |\n\n[Source: model/05_study_level_data.md]\n\n**Relationship to TE:**\n- TA references TE via ETCD\n- The same ETCD can appear in multiple TA rows (multiple arms, multiple cycles)\n- TE provides the start/end rules; TA provides the order and branching logic\n\n[Source: domains/TA/spec.md, domains/TE/spec.md]\n\n**Branch vs. Transition distinction:**\n- **TABRANCH** = fork rules (e.g., \"Randomized to Treatment A\") — represents divergence into separate arms\n- **TATRANS** = within-arm conditional skip (e.g., \"If disease progression, go to Follow-up\") — used for cyclical designs like oncology trials\n\n[Source: domains/TA/examples.md]\n\n---\n\n## 3. TV — Trial Visits: Scheduling Data Collection\n\nTV operates **orthogonally** to TA/TE. While TA/TE define *what happens* and *in what order*, TV defines *when assessments are planned to occur*.\n\n> \"Visit start rules are different from element start rules in that they usually describe **when a visit should occur**; element start rules describe the moment at which an element is considered to start.\"\n> [Source: domains/TV/examples.md]\n\n| Variable | Role | Purpose |\n|----------|------|---------|\n| VISITNUM | Identifier/Timing | Numeric visit identifier |\n| TVSTRL | Rule | When the visit should start (often relative to an epoch or element) |\n| TVENRL | Rule | When the visit should end |\n\n[Source: VARIABLE_INDEX.md — TV section]\n\n**Key integration points with TA/TE:**\n- Visit start/end rules reference **epoch names** (from TA's EPOCH column) or **element names** (from TE's ELEMENT/ETCD)\n- Example: `TVSTRL = \"1 week after start of Treatment Epoch\"` — the epoch name \"Treatment Epoch\" comes from TA\n- When an arm has **repeating elements**, TV rules may need to reference TAETORD as well as element name to disambiguate which cycle a visit belongs to\n\n[Source: domains/TV/examples.md]\n\n**Planned vs. actual:** TV describes the *planned* schedule; the Subject Visits (SV) domain captures *actual* visit dates for each subject. [Source: domains/TV/spec.md]\n\n---\n\n## 4. TI — Trial Inclusion/Exclusion Criteria: Defining Eligibility\n\nTI defines the protocol-specified criteria that determine which subjects are eligible to enter the trial. It operates at the **study level**, not the arm level.\n\n| Variable | Role | Purpose |\n|----------|------|---------|\n| TIRL | Rule | The text of the criterion rule |\n| TIVERS | Record Qualifier | Protocol version the criterion belongs to |\n\n[Source: VARIABLE_INDEX.md — TI section]\n\n**Integration with subject-level data:**\n- The IE (Inclusion/Exclusion Criteria Not Met) domain records which TI criteria were **not met** for individual subjects\n- TI provides the reference list; IE records deviations from it\n- This linkage allows reviewers to compare planned eligibility rules against actual subject enrollment\n\n---\n\n## 5. How the Four Domains Work Together: The Full Picture\n\n```\nTI (Eligibility Rules)\n  └─► Defines who can enter the trial\n        │\n        ▼\nTE (Element Definitions)          TV (Visit Schedule)\n  └─► Defines unique time blocks    └─► Defines when assessments occur\n        │                                 │\n        ▼                                 │ (rules reference epochs/elements)\nTA (Arms = ordered sequences of TE elements + epochs)\n  └─► Assembles elements into arms\n  └─► Assigns epochs to each element\n  └─► Defines branching (TABRANCH) and transitions (TATRANS)\n        │\n        ▼\nSubject-level domains (DM, SE, SV, IE...)\n  └─► DM.ARMCD/ARM references TA\n  └─► SE records actual element dates\n  └─► SV records actual visit dates (vs. TV planned)\n  └─► IE records criteria not met (vs. TI planned)\n```\n\n**Concrete example (3-arm parallel trial):**\n\n1. **TE** defines 5 elements: SCRN, RUNIN, PLACEBO, DRUGA, DRUGB\n2. **TA** creates 3 arms, each with TAETORD 1=SCRN, 2=RUNIN, 3=treatment element; assigns EPOCH values (SCREENING, RUN-IN, TREATMENT); TABRANCH on row 3 records the randomization outcome\n3. **TV** defines 5 visits with TVSTRL rules like \"Start of Screen Epoch\", \"1 week after start of Treatment Epoch\" — referencing the epoch names established in TA\n4. **TI** lists the inclusion/exclusion criteria; subjects who fail screening are captured in IE referencing TI criterion codes\n\n[Source: domains/TA/examples.md, domains/TV/examples.md, domains/TE/assumptions.md]\n\n---\n\n## Summary Table\n\n| Domain | Structure | Primary Role | Key Link |\n|--------|-----------|-------------|----------|\n| TE | 1 record per unique element | Define time-period building blocks | ETCD → referenced by TA |\n| TA | 1 record per element per arm | Assemble arms; assign epochs; define branching | ETCD from TE; EPOCH used by TV |\n| TV | 1 record per planned visit | Schedule data collection timepoints | TVSTRL/TVENRL reference TA epochs/elements |\n| TI | 1 record per criterion | Define eligibility rules | IETEST in IE references TI criteria |\n\nTogether, these four domains provide a complete, machine-readable representation of the planned trial design that enables reviewers to \"clearly and quickly grasp the design of a clinical trial\" and \"compare planned and actual treatments and visits.\" [Source: domains/TA/assumptions.md]"
    }
   }
  },
  {
   "id": "q81",
   "question": "What rules govern the two-character DOMAIN code in SDTM? What characters are allowed for the first and second characters?",
   "n_expected_facts": 3,
   "n_fused": 59,
   "arms": {
    "A": {
     "seats": 15,
     "seats_before_s1": 15,
     "full_seats": true,
     "s1_injected": 0,
     "s1_total_in_final": 0,
     "s1_injected_sections": [],
     "s1_all_sections": [],
     "s1_reintroduced_capped_section": [],
     "composition": [
      {
       "source": "chapters/ch04_general_assumptions.md",
       "section": "4.2.2 Two-character Domain Identifier",
       "via_lookup": false
      },
      {
       "source": "domains/TM/spec.md",
       "section": "DOMAIN",
       "via_lookup": false
      },
      {
       "source": "chapters/ch04_general_assumptions.md",
       "section": "4.4.1 Formats for Date/Time Variables",
       "via_lookup": false
      },
      {
       "source": "domains/DM/spec.md",
       "section": "DOMAIN",
       "via_lookup": false
      },
      {
       "source": "chapters/ch04_general_assumptions.md",
       "section": "4.5.3 Text Strings that Exceed the Maximum Length for General Observation-class Domain Variables",
       "via_lookup": false
      },
      {
       "source": "domains/ML/spec.md",
       "section": "DOMAIN",
       "via_lookup": false
      },
      {
       "source": "domains/CO/assumptions.md",
       "section": "item_4",
       "via_lookup": false
      },
      {
       "source": "domains/PC/spec.md",
       "section": "DOMAIN",
       "via_lookup": false
      },
      {
       "source": "chapters/ch02_fundamentals.md",
       "section": "whole_file",
       "via_lookup": false
      },
      {
       "source": "domains/EC/spec.md",
       "section": "DOMAIN",
       "via_lookup": false
      },
      {
       "source": "domains/EG/assumptions.md",
       "section": "item_10",
       "via_lookup": false
      },
      {
       "source": "domains/TS/spec.md",
       "section": "DOMAIN",
       "via_lookup": false
      },
      {
       "source": "chapters/ch04_general_assumptions.md",
       "section": "4.2.1 Variable-Naming Conventions",
       "via_lookup": false
      },
      {
       "source": "domains/AG/spec.md",
       "section": "DOMAIN",
       "via_lookup": false
      },
      {
       "source": "domains/CO/examples.md",
       "section": "Example 1",
       "via_lookup": false
      }
     ],
     "cap": null,
     "score": 1.0,
     "hits": [
      "2-character",
      "A-Z",
      "0-9"
     ],
     "misses": [],
     "judge_parse_ok": true,
     "answer": "# Two-Character DOMAIN Code Rules in SDTM\n\n## Character Restrictions\n\nThe 2-character domain code follows strict character rules:\n\n- **First character**: Limited to **A–Z** (uppercase letters only)\n- **Second character**: Limited to **A–Z, 0–9** (uppercase letters or digits)\n- **No other characters are allowed**\n\n[Source: chapters/ch04_general_assumptions.md — §4.2.2 Two-character Domain Identifier]\n\n## Rationale\n\nThese restrictions exist for two reasons:\n1. **Compatibility with SAS v5 transport files**\n2. **File naming requirements** as part of the Electronic Common Technical Document (eCTD)\n\n[Source: chapters/ch04_general_assumptions.md — §4.2.2 Two-character Domain Identifier]\n\n## Four Uses of the Domain Code\n\nThe 2-character domain code is used in four ways:\n\n1. As the **dataset name** (e.g., `ae.xpt`)\n2. As the **value of the DOMAIN variable** within that dataset\n3. As a **prefix for most variable names** in that dataset (e.g., `AETERM`, `AESTDTC`)\n4. As a **value in the RDOMAIN variable** in relationship tables (e.g., RELREC, CO)\n\n[Source: chapters/ch02_fundamentals.md — §2.2 Datasets and Domains]\n\n## Variable Naming Prefix Rule\n\nWhen creating custom domains or adding variables from the SDTM general observation classes, sponsors must **replace the \"--\" prefix** in SDTM template variable names with the 2-character domain identifier. For example, `--TERM` becomes `AETERM` in the AE domain.\n\n[Source: chapters/ch04_general_assumptions.md — §4.2.2 Two-character Domain Identifier]\n\n## Exceptions — Variables NOT Prefixed with Domain Code\n\nThe following variables are **exempt** from the domain prefix convention:\n\n| Category | Examples |\n|----------|---------|\n| Required Identifiers | `STUDYID`, `DOMAIN`, `USUBJID` |\n| Grouping/merge keys | `VISIT`, `VISITNUM`, `VISITDY` |\n| All DM variables (except) | All DM variables except `DMDTC` and `DMDY` |\n| Relationship/Supplemental datasets | All variables in RELREC and SUPPQUAL; some variables in CO and Trial Design datasets |\n\n> Note: `--SEQ`, `--GRPID`, and `--REFID` **are** prefixed because they may serve as keys when relating observations across domains.\n\n[Source: chapters/ch04_general_assumptions.md — §4.2.2 Two-character Domain Identifier]"
    },
    "B1": {
     "seats": 15,
     "seats_before_s1": 15,
     "full_seats": true,
     "s1_injected": 0,
     "s1_total_in_final": 0,
     "s1_injected_sections": [],
     "s1_all_sections": [],
     "s1_reintroduced_capped_section": [],
     "composition": [
      {
       "source": "chapters/ch04_general_assumptions.md",
       "section": "4.2.2 Two-character Domain Identifier",
       "via_lookup": false
      },
      {
       "source": "domains/TM/spec.md",
       "section": "DOMAIN",
       "via_lookup": false
      },
      {
       "source": "chapters/ch04_general_assumptions.md",
       "section": "4.4.1 Formats for Date/Time Variables",
       "via_lookup": false
      },
      {
       "source": "chapters/ch04_general_assumptions.md",
       "section": "4.5.3 Text Strings that Exceed the Maximum Length for General Observation-class Domain Variables",
       "via_lookup": false
      },
      {
       "source": "domains/CO/assumptions.md",
       "section": "item_4",
       "via_lookup": false
      },
      {
       "source": "chapters/ch02_fundamentals.md",
       "section": "whole_file",
       "via_lookup": false
      },
      {
       "source": "domains/EG/assumptions.md",
       "section": "item_10",
       "via_lookup": false
      },
      {
       "source": "chapters/ch04_general_assumptions.md",
       "section": "4.2.1 Variable-Naming Conventions",
       "via_lookup": false
      },
      {
       "source": "domains/CO/examples.md",
       "section": "Example 1",
       "via_lookup": false
      },
      {
       "source": "chapters/ch08_relationships.md",
       "section": "8.4.1 Supplemental Qualifiers (SUPP--)",
       "via_lookup": false
      },
      {
       "source": "chapters/ch10_appendices.md",
       "section": "Appendix E: Revision History",
       "via_lookup": false
      },
      {
       "source": "domains/DM/examples.md",
       "section": "Example 7",
       "via_lookup": false
      },
      {
       "source": "domains/EG/spec.md",
       "section": "EGTESTCD",
       "via_lookup": false
      },
      {
       "source": "domains/FT/assumptions.md",
       "section": "item_7",
       "via_lookup": false
      },
      {
       "source": "chapters/ch04_general_assumptions.md",
       "section": "4.1.7 Splitting Domains",
       "via_lookup": false
      }
     ],
     "cap": 1,
     "score": 1.0,
     "hits": [
      "2-character",
      "A-Z",
      "0-9"
     ],
     "misses": [],
     "judge_parse_ok": true,
     "answer": "# Two-Character DOMAIN Code Rules in SDTM\n\n## Character Restrictions\n\nThe 2-character domain code follows strict character rules:\n\n- **First character**: Must be **A–Z** (uppercase letters only)\n- **Second character**: Must be **A–Z or 0–9** (uppercase letters or digits)\n\n> No other characters are allowed.\n\n[Source: chapters/ch04_general_assumptions.md -- 4.2.2 Two-character Domain Identifier]\n\n## Rationale\n\nThese restrictions exist for two reasons:\n1. **Compatibility with SAS v5 transport files**\n2. **File naming requirements** as part of the Electronic Common Technical Document (eCTD)\n\n[Source: chapters/ch04_general_assumptions.md -- 4.2.2 Two-character Domain Identifier]\n\n## Four Uses of the Domain Code\n\nPer SDTMIG fundamentals, the 2-character DOMAIN code is used in four ways:\n\n1. As the **dataset name**\n2. As the **value of the DOMAIN variable** within that dataset\n3. As a **prefix for most variable names** in that dataset\n4. As a **value in the RDOMAIN variable** in relationship tables\n\n[Source: chapters/ch02_fundamentals.md]\n\n## Variables That Are Exceptions to the Domain-Prefix Rule\n\nNot all variables use the domain code as a prefix. The following are exceptions:\n\n| Category | Examples |\n|----------|---------|\n| Required Identifiers | STUDYID, DOMAIN, USUBJID |\n| Commonly used grouping/merge keys | VISIT, VISITNUM, VISITDY |\n| All DM domain variables (except DMDTC and DMDY) | AGE, SEX, RACE, etc. |\n| All variables in RELREC and SUPPQUAL | RDOMAIN, QNAM, QVAL, etc. |\n| Some variables in Comments and Trial Design datasets | — |\n\n> **Note:** --SEQ and optional identifiers --GRPID and --REFID **are** prefixed because they may be used as keys when relating observations across domains.\n\n[Source: chapters/ch04_general_assumptions.md -- 4.2.2 Two-character Domain Identifier]\n\n## Reserved Domain Codes\n\nWhen creating a new domain, sponsors must avoid codes already reserved. For example, **SA** is reserved for CDASH and **SQ** occurs in the SDTMIG-AP, so these cannot be used for custom domains.\n\n[Source: chapters/ch10_appendices.md -- Appendix E: Revision History (§2.6 note)]"
    },
    "B2": {
     "seats": 15,
     "seats_before_s1": 15,
     "full_seats": true,
     "s1_injected": 0,
     "s1_total_in_final": 0,
     "s1_injected_sections": [],
     "s1_all_sections": [],
     "s1_reintroduced_capped_section": [],
     "composition": [
      {
       "source": "chapters/ch04_general_assumptions.md",
       "section": "4.2.2 Two-character Domain Identifier",
       "via_lookup": false
      },
      {
       "source": "domains/TM/spec.md",
       "section": "DOMAIN",
       "via_lookup": false
      },
      {
       "source": "chapters/ch04_general_assumptions.md",
       "section": "4.4.1 Formats for Date/Time Variables",
       "via_lookup": false
      },
      {
       "source": "domains/DM/spec.md",
       "section": "DOMAIN",
       "via_lookup": false
      },
      {
       "source": "chapters/ch04_general_assumptions.md",
       "section": "4.5.3 Text Strings that Exceed the Maximum Length for General Observation-class Domain Variables",
       "via_lookup": false
      },
      {
       "source": "domains/CO/assumptions.md",
       "section": "item_4",
       "via_lookup": false
      },
      {
       "source": "chapters/ch02_fundamentals.md",
       "section": "whole_file",
       "via_lookup": false
      },
      {
       "source": "domains/EG/assumptions.md",
       "section": "item_10",
       "via_lookup": false
      },
      {
       "source": "chapters/ch04_general_assumptions.md",
       "section": "4.2.1 Variable-Naming Conventions",
       "via_lookup": false
      },
      {
       "source": "domains/CO/examples.md",
       "section": "Example 1",
       "via_lookup": false
      },
      {
       "source": "chapters/ch08_relationships.md",
       "section": "8.4.1 Supplemental Qualifiers (SUPP--)",
       "via_lookup": false
      },
      {
       "source": "chapters/ch10_appendices.md",
       "section": "Appendix E: Revision History",
       "via_lookup": false
      },
      {
       "source": "domains/DM/examples.md",
       "section": "Example 7",
       "via_lookup": false
      },
      {
       "source": "chapters/ch01_introduction.md",
       "section": "whole_file",
       "via_lookup": false
      },
      {
       "source": "domains/EG/spec.md",
       "section": "EGTESTCD",
       "via_lookup": false
      }
     ],
     "cap": 2,
     "score": 1.0,
     "hits": [
      "2-character",
      "A-Z",
      "0-9"
     ],
     "misses": [],
     "judge_parse_ok": true,
     "answer": "## Two-Character DOMAIN Code Rules in SDTM\n\n### Character Restrictions\n\nThe 2-character domain code follows strict character rules:\n\n- **First character**: Must be **A–Z** (uppercase letters only)\n- **Second character**: Must be **A–Z or 0–9** (uppercase letters or digits)\n\n> No other characters are allowed.\n\n[Source: chapters/ch04_general_assumptions.md — 4.2.2 Two-character Domain Identifier]\n\n---\n\n### Rationale\n\nThese restrictions exist for two reasons:\n1. **Compatibility with SAS v5 transport files**\n2. **File naming requirements** as part of the Electronic Common Technical Document (eCTD)\n\n[Source: chapters/ch04_general_assumptions.md — 4.2.2 Two-character Domain Identifier]\n\n---\n\n### Four Uses of the Domain Code\n\nPer SDTMIG fundamentals, the 2-character DOMAIN code is used in four ways:\n\n1. As the **dataset name** (e.g., `ae.xpt`)\n2. As the **value of the DOMAIN variable** within that dataset\n3. As a **prefix for most variable names** in that dataset (e.g., `AETERM`, `AESTDTC`)\n4. As a **value in the RDOMAIN variable** in relationship tables (e.g., RELREC, SUPP--)\n\n[Source: chapters/ch02_fundamentals.md]\n\n---\n\n### Exceptions to the Domain-Prefix Rule\n\nNot all variables carry the domain prefix. The following are exceptions:\n\n| Exception Category | Examples |\n|---|---|\n| Required Identifiers | `STUDYID`, `DOMAIN`, `USUBJID` |\n| Commonly used grouping/merge keys | `VISIT`, `VISITNUM`, `VISITDY` |\n| All DM variables (except `DMDTC` and `DMDY`) | `AGE`, `SEX`, `RACE` |\n| All variables in RELREC and SUPPQUAL | `QNAM`, `QVAL`, `RDOMAIN` |\n| Some variables in Comments and Trial Design datasets | — |\n\n> Required identifiers are not prefixed because they are typically used as **merge keys** when joining observations. However, `--SEQ`, `--GRPID`, and `--REFID` **are** prefixed because they may serve as keys when relating observations across domains.\n\n[Source: chapters/ch04_general_assumptions.md — 4.2.2 Two-character Domain Identifier]\n\n---\n\n### Reserved Domain Codes\n\nWhen creating a new domain, sponsors should be aware that certain 2-character codes are reserved (e.g., `SA` for CDASH, `SQ` for SDTMIG-AP). These should not be used for custom domains.\n\n[Source: chapters/ch10_appendices.md — Appendix E, Key Section-by-Section Changes, §2.6]"
    }
   }
  },
  {
   "id": "q108",
   "question": "A site recorded route of administration for both concomitant meds and the study treatment. Which SDTM variables are governed by the Route of Administration codelist C66729?",
   "n_expected_facts": 4,
   "n_fused": 45,
   "arms": {
    "A": {
     "seats": 15,
     "seats_before_s1": 15,
     "full_seats": true,
     "s1_injected": 2,
     "s1_total_in_final": 2,
     "s1_injected_sections": [
      {
       "source": "VARIABLE_INDEX.md",
       "section": "§三 CT 交叉引用: C66729"
      },
      {
       "source": "terminology/core/interventions.md",
       "section": "Route of Administration Response"
      }
     ],
     "s1_all_sections": [
      {
       "source": "VARIABLE_INDEX.md",
       "section": "§三 CT 交叉引用: C66729"
      },
      {
       "source": "terminology/core/interventions.md",
       "section": "Route of Administration Response"
      }
     ],
     "s1_reintroduced_capped_section": [],
     "composition": [
      {
       "source": "VARIABLE_INDEX.md",
       "section": "§三 CT 交叉引用: C66729",
       "via_lookup": true
      },
      {
       "source": "terminology/core/interventions.md",
       "section": "Route of Administration Response",
       "via_lookup": true
      },
      {
       "source": "domains/CM/spec.md",
       "section": "CMROUTE",
       "via_lookup": false
      },
      {
       "source": "domains/PR/spec.md",
       "section": "PRROUTE",
       "via_lookup": false
      },
      {
       "source": "domains/CM/spec.md",
       "section": "Controlled Terminology",
       "via_lookup": false
      },
      {
       "source": "domains/EX/spec.md",
       "section": "Controlled Terminology",
       "via_lookup": false
      },
      {
       "source": "domains/EX/spec.md",
       "section": "EXROUTE",
       "via_lookup": false
      },
      {
       "source": "domains/AG/spec.md",
       "section": "AGROUTE",
       "via_lookup": false
      },
      {
       "source": "domains/SU/spec.md",
       "section": "Controlled Terminology",
       "via_lookup": false
      },
      {
       "source": "domains/AG/spec.md",
       "section": "Controlled Terminology",
       "via_lookup": false
      },
      {
       "source": "VARIABLE_INDEX.md",
       "section": "CM — Concomitant/Prior Medications (Interventions)",
       "via_lookup": false
      },
      {
       "source": "domains/SU/spec.md",
       "section": "SUROUTE",
       "via_lookup": false
      },
      {
       "source": "domains/EC/spec.md",
       "section": "ECROUTE",
       "via_lookup": false
      },
      {
       "source": "domains/EC/spec.md",
       "section": "Controlled Terminology",
       "via_lookup": false
      },
      {
       "source": "domains/PR/spec.md",
       "section": "Controlled Terminology",
       "via_lookup": false
      }
     ],
     "cap": null,
     "score": 1.0,
     "hits": [
      "C66729",
      "CM.CMROUTE",
      "EX.EXROUTE",
      "SU.SUROUTE"
     ],
     "misses": [],
     "judge_parse_ok": true,
     "answer": "## Variables Governed by Route of Administration Codelist C66729\n\nThe codelist **C66729** (Route of Administration Response) is an **extensible** codelist that governs **6 variables** across 6 Interventions-class domains.\n\n---\n\n### Variable Summary\n\n| Domain | Variable | Label | Type | Role | Core |\n|--------|----------|-------|------|------|------|\n| AG | AGROUTE | Route of Administration | Char | Variable Qualifier | Perm |\n| CM | CMROUTE | Route of Administration | Char | Variable Qualifier | Perm |\n| EC | ECROUTE | Route of Administration | Char | Variable Qualifier | Perm |\n| EX | EXROUTE | Route of Administration | Char | Variable Qualifier | Perm |\n| PR | PRROUTE | Route of Administration | Char | Variable Qualifier | Perm |\n| SU | SUROUTE | Route of Administration | Char | Variable Qualifier | Perm |\n\n[Source: VARIABLE_INDEX.md §三 CT 交叉引用: C66729]\n\n---\n\n### For Your Specific Use Case\n\n- **Concomitant medications** → **CMROUTE** in the CM domain\n  - *CDISC Notes:* \"Route of administration for the intervention. Examples: 'ORAL', 'INTRAVENOUS'.\"\n  - [Source: domains/CM/spec.md -- CMROUTE]\n\n- **Study treatment (Exposure)** → **EXROUTE** in the EX domain\n  - *CDISC Notes:* \"Route of administration for the intervention. Examples: 'ORAL', 'INTRAVENOUS'.\"\n  - [Source: domains/EX/spec.md -- EXROUTE]\n\n---\n\n### Key Codelist Properties\n\n| Property | Value |\n|----------|-------|\n| Codelist Code | C66729 |\n| Codelist Name | Route of Administration Response |\n| Extensible | **Yes** |\n\nBecause the codelist is **extensible**, if a route of administration used at your site is not present in the standard value list (e.g., ORAL, INTRAVENOUS, SUBCUTANEOUS, etc.), a sponsor-defined value may be submitted — though CDISC standard terms should be used whenever applicable.\n\n[Source: terminology/core/interventions.md -- Route of Administration Response]"
    },
    "B1": {
     "seats": 15,
     "seats_before_s1": 15,
     "full_seats": true,
     "s1_injected": 1,
     "s1_total_in_final": 2,
     "s1_injected_sections": [
      {
       "source": "VARIABLE_INDEX.md",
       "section": "§三 CT 交叉引用: C66729"
      }
     ],
     "s1_all_sections": [
      {
       "source": "VARIABLE_INDEX.md",
       "section": "§三 CT 交叉引用: C66729"
      },
      {
       "source": "terminology/core/interventions.md",
       "section": "Route of Administration Response"
      }
     ],
     "s1_reintroduced_capped_section": [],
     "composition": [
      {
       "source": "VARIABLE_INDEX.md",
       "section": "§三 CT 交叉引用: C66729",
       "via_lookup": true
      },
      {
       "source": "terminology/core/interventions.md",
       "section": "Route of Administration Response",
       "via_lookup": true
      },
      {
       "source": "domains/CM/spec.md",
       "section": "CMROUTE",
       "via_lookup": false
      },
      {
       "source": "domains/PR/spec.md",
       "section": "PRROUTE",
       "via_lookup": false
      },
      {
       "source": "domains/CM/spec.md",
       "section": "Controlled Terminology",
       "via_lookup": false
      },
      {
       "source": "domains/EX/spec.md",
       "section": "EXROUTE",
       "via_lookup": false
      },
      {
       "source": "domains/AG/spec.md",
       "section": "AGROUTE",
       "via_lookup": false
      },
      {
       "source": "VARIABLE_INDEX.md",
       "section": "CM — Concomitant/Prior Medications (Interventions)",
       "via_lookup": false
      },
      {
       "source": "domains/SU/spec.md",
       "section": "SUROUTE",
       "via_lookup": false
      },
      {
       "source": "domains/EC/spec.md",
       "section": "ECROUTE",
       "via_lookup": false
      },
      {
       "source": "domains/EX/assumptions.md",
       "section": "item_4",
       "via_lookup": false
      },
      {
       "source": "terminology/core/trial_design.md",
       "section": "Trial Summary Parameter Test Code",
       "via_lookup": false
      },
      {
       "source": "domains/CM/spec.md",
       "section": "CMSTDY",
       "via_lookup": false
      },
      {
       "source": "terminology/core/ae.md",
       "section": "Action Taken with Study Treatment",
       "via_lookup": false
      },
      {
       "source": "model/02_observation_classes.md",
       "section": "3.1.1 The Interventions Observation Class",
       "via_lookup": false
      }
     ],
     "cap": 1,
     "score": 1.0,
     "hits": [
      "C66729",
      "CM.CMROUTE",
      "EX.EXROUTE",
      "SU.SUROUTE"
     ],
     "misses": [],
     "judge_parse_ok": true,
     "answer": "## Variables Governed by Route of Administration Codelist C66729\n\nCodelist **C66729** (Route of Administration Response, Extensible: Yes) governs **6 variables** across 6 Interventions-class domains:\n\n[Source: VARIABLE_INDEX.md §三 CT 交叉引用: C66729] [Source: terminology/core/interventions.md]\n\n| Domain | Variable | Label | Type | Role | Core |\n|--------|----------|-------|------|------|------|\n| AG | AGROUTE | Route of Administration | Char | Variable Qualifier | Perm |\n| CM | CMROUTE | Route of Administration | Char | Variable Qualifier | Perm |\n| EC | ECROUTE | Route of Administration | Char | Variable Qualifier | Perm |\n| EX | EXROUTE | Route of Administration | Char | Variable Qualifier | Perm |\n| PR | PRROUTE | Route of Administration | Char | Variable Qualifier | Perm |\n| SU | SUROUTE | Route of Administration | Char | Variable Qualifier | Perm |\n\n[Source: domains/CM/spec.md – CMROUTE] [Source: domains/EX/spec.md – EXROUTE] [Source: domains/AG/spec.md – AGROUTE] [Source: domains/PR/spec.md – PRROUTE] [Source: domains/SU/spec.md – SUROUTE] [Source: domains/EC/spec.md – ECROUTE]\n\n---\n\n## For Your Specific Use Case\n\n- **Concomitant medications** → **CMROUTE** (CM domain)\n  - CDISC Notes: *\"Route of administration for the intervention. Examples: 'ORAL', 'INTRAVENOUS'.\"*\n\n- **Study treatment (exposure)** → **EXROUTE** (EX domain)\n  - CDISC Notes: *\"Route of administration for the intervention. Examples: 'ORAL', 'INTRAVENOUS'.\"*\n\nBoth are **Perm** (permissible), Type **Char**, Role **Variable Qualifier**.\n\n---\n\n## Key Codelist Properties\n\n- **Codelist name:** Route of Administration Response\n- **CT Code:** C66729\n- **Extensible: Yes** — meaning sponsor-defined values are permitted if no standard term exists\n- Representative values include: `ORAL`, `INTRAVENOUS`, `SUBCUTANEOUS`, `INTRAMUSCULAR`, `TOPICAL`, `INHALATION`, `TRANSDERMAL`, etc.\n\n[Source: terminology/core/interventions.md – Route of Administration Response (C66729)]\n\n> **Note:** All 6 variables are **Perm** (not Required), so they should be included when route data is collected, but are not mandatory if not applicable to the study design."
    },
    "B2": {
     "seats": 15,
     "seats_before_s1": 15,
     "full_seats": true,
     "s1_injected": 1,
     "s1_total_in_final": 2,
     "s1_injected_sections": [
      {
       "source": "VARIABLE_INDEX.md",
       "section": "§三 CT 交叉引用: C66729"
      }
     ],
     "s1_all_sections": [
      {
       "source": "VARIABLE_INDEX.md",
       "section": "§三 CT 交叉引用: C66729"
      },
      {
       "source": "terminology/core/interventions.md",
       "section": "Route of Administration Response"
      }
     ],
     "s1_reintroduced_capped_section": [],
     "composition": [
      {
       "source": "VARIABLE_INDEX.md",
       "section": "§三 CT 交叉引用: C66729",
       "via_lookup": true
      },
      {
       "source": "terminology/core/interventions.md",
       "section": "Route of Administration Response",
       "via_lookup": true
      },
      {
       "source": "domains/CM/spec.md",
       "section": "CMROUTE",
       "via_lookup": false
      },
      {
       "source": "domains/PR/spec.md",
       "section": "PRROUTE",
       "via_lookup": false
      },
      {
       "source": "domains/CM/spec.md",
       "section": "Controlled Terminology",
       "via_lookup": false
      },
      {
       "source": "domains/EX/spec.md",
       "section": "Controlled Terminology",
       "via_lookup": false
      },
      {
       "source": "domains/EX/spec.md",
       "section": "EXROUTE",
       "via_lookup": false
      },
      {
       "source": "domains/AG/spec.md",
       "section": "AGROUTE",
       "via_lookup": false
      },
      {
       "source": "VARIABLE_INDEX.md",
       "section": "CM — Concomitant/Prior Medications (Interventions)",
       "via_lookup": false
      },
      {
       "source": "domains/SU/spec.md",
       "section": "SUROUTE",
       "via_lookup": false
      },
      {
       "source": "domains/EC/spec.md",
       "section": "ECROUTE",
       "via_lookup": false
      },
      {
       "source": "domains/EX/assumptions.md",
       "section": "item_4",
       "via_lookup": false
      },
      {
       "source": "terminology/core/trial_design.md",
       "section": "Trial Summary Parameter Test Code",
       "via_lookup": false
      },
      {
       "source": "domains/CM/spec.md",
       "section": "CMSTDY",
       "via_lookup": false
      },
      {
       "source": "terminology/core/ae.md",
       "section": "Action Taken with Study Treatment",
       "via_lookup": false
      }
     ],
     "cap": 2,
     "score": 1.0,
     "hits": [
      "C66729",
      "CM.CMROUTE",
      "EX.EXROUTE",
      "SU.SUROUTE"
     ],
     "misses": [],
     "judge_parse_ok": true,
     "answer": "## Variables Governed by Route of Administration Codelist C66729\n\nCodelist C66729 (\"Route of Administration Response\") governs **6 variables** across 6 Interventions-class domains:\n\n| Domain | Variable | Label | Core |\n|--------|----------|-------|------|\n| AG | AGROUTE | Route of Administration | Perm |\n| CM | CMROUTE | Route of Administration | Perm |\n| EC | ECROUTE | Route of Administration | Perm |\n| EX | EXROUTE | Route of Administration | Perm |\n| PR | PRROUTE | Route of Administration | Perm |\n| SU | SUROUTE | Route of Administration | Perm |\n\n[Source: VARIABLE_INDEX.md §三 CT 交叉引用: C66729]\n\n---\n\n### Variable Properties (shared across all 6)\n\n- **Type:** Char\n- **Role:** Variable Qualifier\n- **Core:** Perm\n- **Controlled Terms:** C66729\n\n[Source: domains/CM/spec.md CMROUTE], [Source: domains/EX/spec.md EXROUTE], [Source: domains/AG/spec.md AGROUTE], [Source: domains/EC/spec.md ECROUTE], [Source: domains/PR/spec.md PRROUTE], [Source: domains/SU/spec.md SUROUTE]\n\n---\n\n### For Your Specific Use Case\n\n- **Concomitant medications** → populate **CMROUTE** in the CM domain\n- **Study treatment (as administered/dispensed)** → populate **EXROUTE** in the EX domain; if collecting as-collected exposure data, use **ECROUTE** in the EC domain\n\n---\n\n### Codelist Characteristics\n\nC66729 is **extensible (Yes)**, meaning sponsor-defined values are permitted if no standard term exists. Standard examples include `\"ORAL\"` and `\"INTRAVENOUS\"`.\n\n[Source: terminology/core/interventions.md Route of Administration Response (C66729)]"
    }
   }
  },
  {
   "id": "q77",
   "question": "The EPOCH timing variable appears in many domains. List several domains where EPOCH is used and state what kind of variable it is.",
   "n_expected_facts": 4,
   "n_fused": 58,
   "arms": {
    "A": {
     "seats": 15,
     "seats_before_s1": 15,
     "full_seats": true,
     "s1_injected": 0,
     "s1_total_in_final": 1,
     "s1_injected_sections": [],
     "s1_all_sections": [
      {
       "source": "VARIABLE_INDEX.md",
       "section": "§一 通用变量: EPOCH"
      }
     ],
     "s1_reintroduced_capped_section": [],
     "composition": [
      {
       "source": "VARIABLE_INDEX.md",
       "section": "§一 通用变量: EPOCH",
       "via_lookup": true
      },
      {
       "source": "chapters/ch04_general_assumptions.md",
       "section": "4.1.3 Additional Timing Variables",
       "via_lookup": false
      },
      {
       "source": "domains/TA/assumptions.md",
       "section": "item_12",
       "via_lookup": false
      },
      {
       "source": "domains/UR/spec.md",
       "section": "EPOCH",
       "via_lookup": false
      },
      {
       "source": "domains/TE/examples.md",
       "section": "Trial Elements Issues",
       "via_lookup": false
      },
      {
       "source": "domains/SR/spec.md",
       "section": "EPOCH",
       "via_lookup": false
      },
      {
       "source": "domains/DS/assumptions.md",
       "section": "item_4",
       "via_lookup": false
      },
      {
       "source": "domains/LB/spec.md",
       "section": "EPOCH",
       "via_lookup": false
      },
      {
       "source": "chapters/ch10_appendices.md",
       "section": "Appendix C: Controlled Terminology",
       "via_lookup": false
      },
      {
       "source": "domains/PP/spec.md",
       "section": "EPOCH",
       "via_lookup": false
      },
      {
       "source": "model/02_observation_classes.md",
       "section": "3.1.5 Timing Variables for All Classes",
       "via_lookup": false
      },
      {
       "source": "domains/CP/spec.md",
       "section": "EPOCH",
       "via_lookup": false
      },
      {
       "source": "chapters/ch02_fundamentals.md",
       "section": "whole_file",
       "via_lookup": false
      },
      {
       "source": "domains/FA/spec.md",
       "section": "EPOCH",
       "via_lookup": false
      },
      {
       "source": "VARIABLE_INDEX.md",
       "section": "§一 通用变量: MIDS",
       "via_lookup": false
      }
     ],
     "cap": null,
     "score": 1.0,
     "hits": [
      "EPOCH",
      "Timing",
      "AE",
      "EX"
     ],
     "misses": [],
     "judge_parse_ok": true,
     "answer": "# EPOCH Timing Variable in SDTM\n\n## Variable Definition\n\n**EPOCH** is a **Timing** variable with the following attributes:\n- **Label:** Epoch\n- **Type:** Char\n- **Role:** Timing\n- **Core:** Perm (Permissible)\n- **Controlled Terms:** C99079\n\n[Source: domains/UR/spec.md -- EPOCH]\n\n---\n\n## Scope of Use\n\nEPOCH appears in **44 SDTM domains**:\n\n> AE, AG, CE, CM, CP, CV, DA, DS, DV, EC, EG, EX, FA, FT, HO, IE, IS, LB, MB, MH, MI, MK, ML, MS, NV, OE, PC, PE, PP, PR, QS, RE, RP, RS, SC, SE, SR, SS, SU, **TA**, TR, TU, UR, VS\n\n[Source: VARIABLE_INDEX.md -- §一 通用变量: EPOCH]\n\n---\n\n## Selected Domain Examples\n\n| Domain | Domain Name | Class | CDISC Notes for EPOCH |\n|--------|-------------|-------|-----------------------|\n| **LB** | Laboratory Test Results | Findings | Epoch associated with the start date/time of the observation, or the date/time of collection if start date/time is not collected. |\n| **PP** | Pharmacokinetics Parameters | Findings | Epoch associated with the start date/time of the observation, or the date/time of collection if start date/time is not collected. |\n| **CP** | Cell Phenotype Findings | Findings | Epoch associated with the start date/time of the observation, or the date/time of collection if start date/time is not collected. |\n| **FA** | Findings About Events or Interventions | Findings | Epoch associated with the date/time of the observation. Examples: \"SCREENING\", \"TREATMENT\", \"FOLLOW-UP\". |\n| **SR** | Skin Response | Findings | Epoch associated with the date/time of the observation. Examples: \"SCREENING\", \"TREATMENT\", and \"FOLLOW-UP\". |\n| **DS** | Disposition | Events | EPOCH is based on DSSTDTC; values drawn from the Trial Arms (TA) dataset. |\n\n[Source: domains/LB/spec.md -- EPOCH; domains/PP/spec.md -- EPOCH; domains/CP/spec.md -- EPOCH; domains/FA/spec.md -- EPOCH; domains/SR/spec.md -- EPOCH; domains/DS/assumptions.md -- item_4]\n\n---\n\n## Key Implementation Rules\n\n1. **Findings class domains**: EPOCH should be based on **--DTC** (date/time of test or specimen collection).\n2. **Interventions or Events class domains**: EPOCH should be based on **--STDTC** (start of the intervention or event).\n3. **No imputation**: Sponsors should not impute EPOCH values. If the epoch cannot be determined, EPOCH should be **null**.\n4. **Pre-study observations**: EPOCH should be null for interventions, events, or findings that occurred before the subject's participation in the study (including screening).\n5. **Uniqueness**: Values of EPOCH must be distinct for different epochs — e.g., in a 3-period crossover, each treatment epoch must have a unique name; all 3 cannot be called `\"TREATMENT\"`.\n\n[Source: chapters/ch04_general_assumptions.md -- 4.1.3 Additional Timing Variables; domains/TA/assumptions.md -- item_12]"
    },
    "B1": {
     "seats": 15,
     "seats_before_s1": 15,
     "full_seats": true,
     "s1_injected": 0,
     "s1_total_in_final": 1,
     "s1_injected_sections": [],
     "s1_all_sections": [
      {
       "source": "VARIABLE_INDEX.md",
       "section": "§一 通用变量: EPOCH"
      }
     ],
     "s1_reintroduced_capped_section": [],
     "composition": [
      {
       "source": "VARIABLE_INDEX.md",
       "section": "§一 通用变量: EPOCH",
       "via_lookup": true
      },
      {
       "source": "chapters/ch04_general_assumptions.md",
       "section": "4.1.3 Additional Timing Variables",
       "via_lookup": false
      },
      {
       "source": "domains/TA/assumptions.md",
       "section": "item_12",
       "via_lookup": false
      },
      {
       "source": "domains/UR/spec.md",
       "section": "EPOCH",
       "via_lookup": false
      },
      {
       "source": "domains/TE/examples.md",
       "section": "Trial Elements Issues",
       "via_lookup": false
      },
      {
       "source": "domains/DS/assumptions.md",
       "section": "item_4",
       "via_lookup": false
      },
      {
       "source": "chapters/ch10_appendices.md",
       "section": "Appendix C: Controlled Terminology",
       "via_lookup": false
      },
      {
       "source": "model/02_observation_classes.md",
       "section": "3.1.5 Timing Variables for All Classes",
       "via_lookup": false
      },
      {
       "source": "chapters/ch02_fundamentals.md",
       "section": "whole_file",
       "via_lookup": false
      },
      {
       "source": "VARIABLE_INDEX.md",
       "section": "§一 通用变量: MIDS",
       "via_lookup": false
      },
      {
       "source": "chapters/ch04_general_assumptions.md",
       "section": "4.4.5 Clinical Encounters and Visits",
       "via_lookup": false
      },
      {
       "source": "chapters/ch10_appendices.md",
       "section": "Appendix E: Revision History",
       "via_lookup": false
      },
      {
       "source": "VARIABLE_INDEX.md",
       "section": "§一 通用变量: STUDYID",
       "via_lookup": false
      },
      {
       "source": "domains/TA/assumptions.md",
       "section": "overview",
       "via_lookup": false
      },
      {
       "source": "VARIABLE_INDEX.md",
       "section": "§一 通用变量: DOMAIN",
       "via_lookup": false
      }
     ],
     "cap": 1,
     "score": 1.0,
     "hits": [
      "EPOCH",
      "Timing",
      "AE",
      "EX"
     ],
     "misses": [],
     "judge_parse_ok": true,
     "answer": "# EPOCH Timing Variable in SDTM\n\n## Variable Definition\n\nEPOCH is a **Timing** variable with the following attributes:\n\n| Attribute | Value |\n|-----------|-------|\n| **Label** | Epoch |\n| **Type** | Char |\n| **Role** | Timing |\n| **Core** | Perm |\n| **Controlled Terms** | C99079 |\n\n[Source: domains/UR/spec.md -- EPOCH]\n\n---\n\n## Domains Where EPOCH Appears\n\nEPOCH appears in **44 SDTM domains** in total:\n\n> AE, AG, CE, CM, CP, CV, DA, DS, DV, EC, EG, EX, FA, FT, HO, IE, IS, LB, MB, MH, MI, MK, ML, MS, NV, OE, PC, PE, PP, PR, QS, RE, RP, RS, SC, SE, SR, SS, SU, **TA**, TR, TU, UR, VS\n\n[Source: VARIABLE_INDEX.md -- §一 通用变量: EPOCH]\n\nBelow are several representative examples across different observation classes:\n\n### Interventions Class\n| Domain | Full Name | EPOCH Basis |\n|--------|-----------|-------------|\n| EX | Exposure | Based on **--STDTC** (start of intervention) |\n| CM | Concomitant/Prior Medications | Based on **--STDTC** |\n| EC | Exposure as Collected | Based on **--STDTC** |\n\n### Events Class\n| Domain | Full Name | EPOCH Basis |\n|--------|-----------|-------------|\n| AE | Adverse Events | Based on **--STDTC** |\n| DS | Disposition | Based on **DSSTDTC** |\n| MH | Medical History | Based on **--STDTC** |\n\n### Findings Class\n| Domain | Full Name | EPOCH Basis |\n|--------|-----------|-------------|\n| LB | Laboratory Test Results | Based on **--DTC** (date/time of collection) |\n| VS | Vital Signs | Based on **--DTC** |\n| EG | ECG Test Results | Based on **--DTC** |\n| PC | Pharmacokinetics Concentrations | Based on **--DTC** |\n\n[Source: chapters/ch04_general_assumptions.md -- 4.1.3 Additional Timing Variables]\n\n---\n\n## Key Usage Rules\n\n1. **Findings class**: EPOCH should be based on **--DTC** (date/time of test or specimen collection).\n2. **Interventions/Events class**: EPOCH should be based on **--STDTC** (start of the intervention or event).\n3. **Imputation is not allowed**: Sponsors should not impute EPOCH values; if the epoch cannot be determined, EPOCH should be **null**.\n4. **Pre-study observations**: EPOCH should be **null** for interventions, events, or findings that occurred before the subject's participation in the study (note: screening is considered part of study participation).\n5. **Values must be unique per epoch**: In crossover trials, each epoch must have a distinct name (e.g., three treatment epochs cannot all be called \"TREATMENT\").\n6. **Values are drawn from TA**: EPOCH values must match those defined in the Trial Arms (TA) dataset.\n\n[Source: chapters/ch04_general_assumptions.md -- 4.1.3.1 EPOCH Variable Guidance]  \n[Source: domains/TA/assumptions.md -- item_12]  \n[Source: domains/DS/assumptions.md -- item_4]"
    },
    "B2": {
     "seats": 15,
     "seats_before_s1": 15,
     "full_seats": true,
     "s1_injected": 0,
     "s1_total_in_final": 1,
     "s1_injected_sections": [],
     "s1_all_sections": [
      {
       "source": "VARIABLE_INDEX.md",
       "section": "§一 通用变量: EPOCH"
      }
     ],
     "s1_reintroduced_capped_section": [],
     "composition": [
      {
       "source": "VARIABLE_INDEX.md",
       "section": "§一 通用变量: EPOCH",
       "via_lookup": true
      },
      {
       "source": "chapters/ch04_general_assumptions.md",
       "section": "4.1.3 Additional Timing Variables",
       "via_lookup": false
      },
      {
       "source": "domains/TA/assumptions.md",
       "section": "item_12",
       "via_lookup": false
      },
      {
       "source": "domains/UR/spec.md",
       "section": "EPOCH",
       "via_lookup": false
      },
      {
       "source": "domains/TE/examples.md",
       "section": "Trial Elements Issues",
       "via_lookup": false
      },
      {
       "source": "domains/SR/spec.md",
       "section": "EPOCH",
       "via_lookup": false
      },
      {
       "source": "domains/DS/assumptions.md",
       "section": "item_4",
       "via_lookup": false
      },
      {
       "source": "chapters/ch10_appendices.md",
       "section": "Appendix C: Controlled Terminology",
       "via_lookup": false
      },
      {
       "source": "model/02_observation_classes.md",
       "section": "3.1.5 Timing Variables for All Classes",
       "via_lookup": false
      },
      {
       "source": "chapters/ch02_fundamentals.md",
       "section": "whole_file",
       "via_lookup": false
      },
      {
       "source": "VARIABLE_INDEX.md",
       "section": "§一 通用变量: MIDS",
       "via_lookup": false
      },
      {
       "source": "chapters/ch04_general_assumptions.md",
       "section": "4.4.5 Clinical Encounters and Visits",
       "via_lookup": false
      },
      {
       "source": "chapters/ch10_appendices.md",
       "section": "Appendix E: Revision History",
       "via_lookup": false
      },
      {
       "source": "VARIABLE_INDEX.md",
       "section": "§一 通用变量: STUDYID",
       "via_lookup": false
      },
      {
       "source": "domains/TA/assumptions.md",
       "section": "overview",
       "via_lookup": false
      }
     ],
     "cap": 2,
     "score": 1.0,
     "hits": [
      "EPOCH",
      "Timing",
      "AE",
      "EX"
     ],
     "misses": [],
     "judge_parse_ok": true,
     "answer": "# EPOCH Timing Variable in SDTM\n\n## Variable Definition\n\nEPOCH is a **Timing variable** with the following attributes:\n\n| Attribute | Value |\n|-----------|-------|\n| **Label** | Epoch |\n| **Type** | Char |\n| **Role** | Timing |\n| **Core** | Perm (Permissible) |\n| **Controlled Terms** | C99079 |\n\n[Source: domains/UR/spec.md -- EPOCH]  \n[Source: domains/SR/spec.md -- EPOCH]\n\n---\n\n## Domains Where EPOCH Appears\n\nEPOCH appears in **44 SDTM domains**:\n\n> AE, AG, CE, CM, CP, CV, DA, DS, DV, EC, EG, EX, FA, FT, HO, IE, IS, LB, MB, MH, MI, MK, ML, MS, NV, OE, PC, PE, PP, PR, QS, RE, RP, RS, SC, SE, SR, SS, SU, **TA**, TR, TU, UR, VS\n\n[Source: VARIABLE_INDEX.md -- §一 通用变量: EPOCH]\n\n### Representative Examples by Observation Class\n\n| Domain | Domain Name | Class |\n|--------|-------------|-------|\n| AE | Adverse Events | Events |\n| EX | Exposure | Interventions |\n| DS | Disposition | Events |\n| LB | Laboratory Test Results | Findings |\n| VS | Vital Signs | Findings |\n| PC | Pharmacokinetics Concentrations | Findings |\n| SE | Subject Elements | Special Purpose |\n| TA | Trial Arms | Trial Design |\n\n---\n\n## Key Usage Rules\n\n### 1. Basis for EPOCH Assignment Differs by Class\n\n- **Findings class domains** (e.g., LB, VS, EG): EPOCH should be based on **--DTC** (date/time of test or specimen collection)\n- **Interventions or Events class domains** (e.g., EX, AE, DS): EPOCH should be based on **--STDTC** (start date/time of the intervention or event)\n\n[Source: chapters/ch04_general_assumptions.md -- 4.1.3.1 EPOCH Variable Guidance]\n\n### 2. Values Must Be Unique Per Epoch\n\nValues of EPOCH must be **distinct for different epochs**. For example, in a crossover trial with 3 treatment epochs, each must have a unique name — all 3 cannot be called `\"TREATMENT\"`.\n\n[Source: domains/TA/assumptions.md -- item_12]\n\n### 3. Imputation Not Allowed\n\nSponsors **should not impute** EPOCH values. If the epoch of an observation cannot be determined, EPOCH should be **null**.\n\n[Source: chapters/ch04_general_assumptions.md -- 4.1.3.1 EPOCH Variable Guidance]\n\n### 4. Pre-study Observations\n\nEPOCH is **not applicable** to interventions, events, or findings that occurred before the subject's participation in the study (including pre-screening). For such records, EPOCH should be **null**.\n\n[Source: chapters/ch04_general_assumptions.md -- 4.1.3.1 EPOCH Variable Guidance]\n\n### 5. DS Domain Specifics\n\nIn DS, EPOCH is based on **DSSTDTC**, and values are drawn from the Trial Arms (TA) dataset.\n\n[Source: domains/DS/assumptions.md -- item_4]"
    }
   }
  },
  {
   "id": "q07",
   "question": "Which SDTM domains use the EPOCH variable and what is its purpose?",
   "n_expected_facts": 2,
   "n_fused": 58,
   "arms": {
    "A": {
     "seats": 15,
     "seats_before_s1": 15,
     "full_seats": true,
     "s1_injected": 0,
     "s1_total_in_final": 1,
     "s1_injected_sections": [],
     "s1_all_sections": [
      {
       "source": "VARIABLE_INDEX.md",
       "section": "§一 通用变量: EPOCH"
      }
     ],
     "s1_reintroduced_capped_section": [],
     "composition": [
      {
       "source": "VARIABLE_INDEX.md",
       "section": "§一 通用变量: EPOCH",
       "via_lookup": true
      },
      {
       "source": "chapters/ch04_general_assumptions.md",
       "section": "4.1.3 Additional Timing Variables",
       "via_lookup": false
      },
      {
       "source": "model/01_concepts_and_terms.md",
       "section": "2.1 Model Concepts and Terms — Variables",
       "via_lookup": false
      },
      {
       "source": "chapters/ch02_fundamentals.md",
       "section": "whole_file",
       "via_lookup": false
      },
      {
       "source": "domains/SR/spec.md",
       "section": "EPOCH",
       "via_lookup": false
      },
      {
       "source": "domains/CO/assumptions.md",
       "section": "overview",
       "via_lookup": false
      },
      {
       "source": "domains/TA/assumptions.md",
       "section": "item_12",
       "via_lookup": false
      },
      {
       "source": "chapters/ch04_general_assumptions.md",
       "section": "4.5.9 Baseline Values",
       "via_lookup": false
      },
      {
       "source": "domains/CP/spec.md",
       "section": "EPOCH",
       "via_lookup": false
      },
      {
       "source": "chapters/ch01_introduction.md",
       "section": "whole_file",
       "via_lookup": false
      },
      {
       "source": "domains/FA/spec.md",
       "section": "EPOCH",
       "via_lookup": false
      },
      {
       "source": "domains/SV/assumptions.md",
       "section": "item_15",
       "via_lookup": false
      },
      {
       "source": "domains/PP/spec.md",
       "section": "EPOCH",
       "via_lookup": false
      },
      {
       "source": "chapters/ch04_general_assumptions.md",
       "section": "4.1.1 Review Study Data Tabulation Model and Implementation Guide",
       "via_lookup": false
      },
      {
       "source": "domains/PC/spec.md",
       "section": "EPOCH",
       "via_lookup": false
      }
     ],
     "cap": null,
     "score": 1.0,
     "hits": [
      "EPOCH",
      "Timing"
     ],
     "misses": [],
     "judge_parse_ok": true,
     "answer": "# EPOCH Variable in SDTM\n\n## Overview\n\nEPOCH is a **Timing variable** used to associate an observation with a specific study epoch (e.g., a defined phase of the study such as Screening, Treatment, or Follow-up).\n\n**[Source: VARIABLE_INDEX.md §一 通用变量: EPOCH]**\n\n---\n\n## Domains Using EPOCH\n\nEPOCH appears in **44 SDTM domains**:\n\n| Class | Domains |\n|-------|---------|\n| **Events** | AE, CE, DS, DV, HO, MH |\n| **Interventions** | AG, CM, EC, EX, ML, PR, SU |\n| **Findings** | BS, CP, CV, DA, DD, EG, FA, FT, GF, IE, IS, LB, MB, MI, MK, MS, NV, OE, PC, PE, PP, QS, RE, RP, RS, SC, SR, SS, TR, TU, UR, VS |\n| **Trial Design** | TA, SE |\n\n**[Source: VARIABLE_INDEX.md §一 通用变量: EPOCH]**\n\n---\n\n## Variable Definition\n\n| Attribute | Value |\n|-----------|-------|\n| **Label** | Epoch |\n| **Type** | Char |\n| **Role** | Timing |\n| **Core** | Perm |\n| **Controlled Terms** | C99079 |\n\nExample values: `\"SCREENING\"`, `\"TREATMENT\"`, `\"FOLLOW-UP\"`\n\n**[Source: domains/SR/spec.md — EPOCH; domains/FA/spec.md — EPOCH]**\n\n---\n\n## Purpose and Assignment Rules\n\n### 1. Basis for EPOCH Assignment by Observation Class\n\n- **Findings class domains**: EPOCH should be based on **--DTC** (date/time of the test or specimen collection)\n- **Interventions and Events class domains**: EPOCH should be based on **--STDTC** (start of the intervention or event)\n- **Exception**: For interval specimen collections spanning two epochs, **--ENDTC** may be more appropriate\n\n**[Source: chapters/ch04_general_assumptions.md §4.1.3.1 EPOCH Variable Guidance]**\n\n### 2. Imputation Rules\n\n- Sponsors **should not impute** EPOCH values\n- EPOCH **may** be assigned based on CRF instructions/structure even when date/time precision is insufficient for date-based assignment\n- If the epoch cannot be determined, **EPOCH should be null**\n\n**[Source: chapters/ch04_general_assumptions.md §4.1.3.1 EPOCH Variable Guidance]**\n\n### 3. Scope Limitations\n\n- EPOCH is **not applicable** to interventions, events, or findings that occurred **before the subject's participation in the study** — for such records, EPOCH should be null\n- Note: A subject's participation includes **screening**, which generally occurs before RFSTDTC in DM\n\n**[Source: chapters/ch04_general_assumptions.md §4.1.3.1 EPOCH Variable Guidance]**\n\n### 4. Uniqueness Requirement\n\n- EPOCH values **must be distinct** for different epochs. For example, in a crossover trial with 3 treatment epochs, each must have a unique name — all 3 cannot be called `\"TREATMENT\"`\n\n**[Source: domains/TA/assumptions.md item_12]**\n\n### 5. Restrictions\n\n- EPOCH **cannot** be added to SUPPQUAL datasets or RELREC\n- In SV (Subject Visits), if EPOCH is added, values must reflect the epoch **at the start of the visit**\n\n**[Source: chapters/ch04_general_assumptions.md §4.1.3; domains/SV/assumptions.md item_15]**"
    },
    "B1": {
     "seats": 15,
     "seats_before_s1": 15,
     "full_seats": true,
     "s1_injected": 0,
     "s1_total_in_final": 1,
     "s1_injected_sections": [],
     "s1_all_sections": [
      {
       "source": "VARIABLE_INDEX.md",
       "section": "§一 通用变量: EPOCH"
      }
     ],
     "s1_reintroduced_capped_section": [],
     "composition": [
      {
       "source": "VARIABLE_INDEX.md",
       "section": "§一 通用变量: EPOCH",
       "via_lookup": true
      },
      {
       "source": "chapters/ch04_general_assumptions.md",
       "section": "4.1.3 Additional Timing Variables",
       "via_lookup": false
      },
      {
       "source": "model/01_concepts_and_terms.md",
       "section": "2.1 Model Concepts and Terms — Variables",
       "via_lookup": false
      },
      {
       "source": "chapters/ch02_fundamentals.md",
       "section": "whole_file",
       "via_lookup": false
      },
      {
       "source": "domains/SR/spec.md",
       "section": "EPOCH",
       "via_lookup": false
      },
      {
       "source": "domains/CO/assumptions.md",
       "section": "overview",
       "via_lookup": false
      },
      {
       "source": "domains/TA/assumptions.md",
       "section": "item_12",
       "via_lookup": false
      },
      {
       "source": "chapters/ch04_general_assumptions.md",
       "section": "4.5.9 Baseline Values",
       "via_lookup": false
      },
      {
       "source": "domains/SV/assumptions.md",
       "section": "item_15",
       "via_lookup": false
      },
      {
       "source": "chapters/ch04_general_assumptions.md",
       "section": "4.1.1 Review Study Data Tabulation Model and Implementation Guide",
       "via_lookup": false
      },
      {
       "source": "chapters/ch04_general_assumptions.md",
       "section": "4.4.11 Disease Milestones and Disease Milestone Timing Variables",
       "via_lookup": false
      },
      {
       "source": "model/02_observation_classes.md",
       "section": "Overview",
       "via_lookup": false
      },
      {
       "source": "chapters/ch04_general_assumptions.md",
       "section": "4.5.8 Accounting for Long-term Follow-up",
       "via_lookup": false
      },
      {
       "source": "chapters/ch04_general_assumptions.md",
       "section": "4.2.2 Two-character Domain Identifier",
       "via_lookup": false
      },
      {
       "source": "domains/FA/assumptions.md",
       "section": "item_6",
       "via_lookup": false
      }
     ],
     "cap": 1,
     "score": 1.0,
     "hits": [
      "EPOCH",
      "Timing"
     ],
     "misses": [],
     "judge_parse_ok": true,
     "answer": "## EPOCH Variable in SDTM\n\n### Definition & Purpose\n\nEPOCH is a **Timing variable** (Type: Char, Core: Perm) that identifies the trial epoch associated with an observation. It is a study-design construct that anchors observations to named phases of a clinical trial (e.g., \"SCREENING\", \"TREATMENT\", \"FOLLOW-UP\").\n\n[Source: domains/SR/spec.md -- EPOCH]\n\n---\n\n### Domains Using EPOCH\n\nEPOCH appears in **44 SDTM domains**:\n\n| Class | Domains |\n|-------|---------|\n| **Events** | AE, CE, DS, DV, HO, MH |\n| **Interventions** | AG, CM, EC, EX, ML, PR, SU |\n| **Findings** | BS, CP, CV, DA, EG, FA, FT, GF, IE, IS, LB, MB, MI, MK, MS, NV, OE, PC, PE, PP, QS, RE, RP, RS, SC, SR, SS, TR, TU, UR, VS |\n| **Special Purpose** | SE |\n| **Trial Design** | TA |\n\n[Source: VARIABLE_INDEX.md -- §一 通用变量: EPOCH]\n\n---\n\n### Key Usage Rules\n\n#### 1. Basis for EPOCH Assignment by Observation Class\n\n- **Findings domains**: EPOCH should be based on **--DTC** (date/time of the test or specimen collection)\n- **Interventions and Events domains**: EPOCH should be based on **--STDTC** (start of the intervention or event)\n- **Exception**: For interval specimen collections spanning two epochs, **--ENDTC** may be more appropriate\n\n[Source: chapters/ch04_general_assumptions.md -- 4.1.3.1 EPOCH Variable Guidance]\n\n#### 2. Imputation\n\n> Sponsors should **not impute** EPOCH values, but should, where possible, assign EPOCH values on the basis of CRF instructions and structure, even if date/time precision is insufficient for algorithmic assignment.\n\nIf the epoch cannot be determined, **EPOCH should be null**.\n\n[Source: chapters/ch04_general_assumptions.md -- 4.1.3.1 EPOCH Variable Guidance]\n\n#### 3. Pre-study Observations\n\nBecause EPOCH is a **study-design construct**, it is **not applicable** to:\n- Interventions or events that started **before** the subject's participation in a study\n- Findings performed **before** participation in a study\n\nFor such records, EPOCH should be **null**. Note that participation includes **screening** (which generally occurs before RFSTDTC in DM).\n\n[Source: chapters/ch04_general_assumptions.md -- 4.1.3.1 EPOCH Variable Guidance]\n\n#### 4. Uniqueness Requirement\n\nEPOCH values **must be distinct** for different epochs. For example, in a crossover trial with 3 treatment epochs, each must have a unique name — all 3 cannot be called \"TREATMENT\".\n\n[Source: domains/TA/assumptions.md -- item_12]\n\n#### 5. Subject Visits (SV) Special Rule\n\nWhen EPOCH is added to SV, its value must reflect the epoch **at the start of the visit**.\n\n[Source: domains/SV/assumptions.md -- item_15]\n\n---\n\n### Controlled Terminology\n\nEPOCH values are drawn from the trial design (defined in the Trial Arms domain TA), with codelist **C99079** referenced in some domains.\n\n[Source: domains/SR/spec.md -- EPOCH]"
    },
    "B2": {
     "seats": 15,
     "seats_before_s1": 15,
     "full_seats": true,
     "s1_injected": 0,
     "s1_total_in_final": 1,
     "s1_injected_sections": [],
     "s1_all_sections": [
      {
       "source": "VARIABLE_INDEX.md",
       "section": "§一 通用变量: EPOCH"
      }
     ],
     "s1_reintroduced_capped_section": [],
     "composition": [
      {
       "source": "VARIABLE_INDEX.md",
       "section": "§一 通用变量: EPOCH",
       "via_lookup": true
      },
      {
       "source": "chapters/ch04_general_assumptions.md",
       "section": "4.1.3 Additional Timing Variables",
       "via_lookup": false
      },
      {
       "source": "model/01_concepts_and_terms.md",
       "section": "2.1 Model Concepts and Terms — Variables",
       "via_lookup": false
      },
      {
       "source": "chapters/ch02_fundamentals.md",
       "section": "whole_file",
       "via_lookup": false
      },
      {
       "source": "domains/SR/spec.md",
       "section": "EPOCH",
       "via_lookup": false
      },
      {
       "source": "domains/CO/assumptions.md",
       "section": "overview",
       "via_lookup": false
      },
      {
       "source": "domains/TA/assumptions.md",
       "section": "item_12",
       "via_lookup": false
      },
      {
       "source": "chapters/ch04_general_assumptions.md",
       "section": "4.5.9 Baseline Values",
       "via_lookup": false
      },
      {
       "source": "domains/CP/spec.md",
       "section": "EPOCH",
       "via_lookup": false
      },
      {
       "source": "chapters/ch01_introduction.md",
       "section": "whole_file",
       "via_lookup": false
      },
      {
       "source": "domains/SV/assumptions.md",
       "section": "item_15",
       "via_lookup": false
      },
      {
       "source": "chapters/ch04_general_assumptions.md",
       "section": "4.1.1 Review Study Data Tabulation Model and Implementation Guide",
       "via_lookup": false
      },
      {
       "source": "chapters/ch04_general_assumptions.md",
       "section": "4.4.11 Disease Milestones and Disease Milestone Timing Variables",
       "via_lookup": false
      },
      {
       "source": "model/02_observation_classes.md",
       "section": "Overview",
       "via_lookup": false
      },
      {
       "source": "domains/TA/assumptions.md",
       "section": "overview",
       "via_lookup": false
      }
     ],
     "cap": 2,
     "score": 1.0,
     "hits": [
      "EPOCH",
      "Timing"
     ],
     "misses": [],
     "judge_parse_ok": true,
     "answer": "# EPOCH Variable in SDTM\n\n## Definition & Purpose\n\nEPOCH is a **Timing variable** (Type: Char, Core: Perm) that identifies the trial design epoch associated with an observation. It is a study-design construct that places individual observations within the planned temporal structure of a clinical trial.\n\n**Controlled Terms:** C99079 [Source: domains/SR/spec.md]\n\nExample values: `\"SCREENING\"`, `\"TREATMENT\"`, `\"FOLLOW-UP\"` [Source: domains/SR/spec.md]\n\n---\n\n## Domains Using EPOCH\n\nEPOCH appears in **44 SDTM domains**:\n\n| Class | Domains |\n|-------|---------|\n| **Events** | AE, CE, DS, DV, HO, MH |\n| **Interventions** | AG, CM, EC, EX, ML, PR, SU |\n| **Findings** | BS*, CP, CV, DA, EG, FA, FT, GF, IE, IS, LB, MB, MI, MK, MS, NV, OE, PC, PE, PP, QS, RE, RP, RS, SC, SR, SS, TR, TU, UR, VS |\n| **Trial Design** | TA |\n| **Special Purpose** | SE |\n\n*Note: BS not explicitly listed but follows Findings class rules.\n\n[Source: VARIABLE_INDEX.md]\n\n---\n\n## Key Business Rules\n\n### 1. Basis for Assigning EPOCH Values\n\nThe appropriate date/time variable to use when assigning EPOCH differs by observation class:\n\n| Class | Basis Variable | Rationale |\n|-------|---------------|-----------|\n| **Findings** | `--DTC` | Date/time of the test or specimen collection |\n| **Interventions** | `--STDTC` | Start of the intervention |\n| **Events** | `--STDTC` | Start of the event |\n\n> A possible exception: for interval specimen collections spanning two epochs, `--ENDTC` might be more appropriate. [Source: chapters/ch04_general_assumptions.md §4.1.3.1]\n\n### 2. Imputation\n\nSponsors **should not impute** EPOCH values. However, EPOCH may be assigned based on CRF instructions and structure even when date/time precision is insufficient for algorithmic assignment. [Source: chapters/ch04_general_assumptions.md §4.1.3.1]\n\n### 3. Null Values\n\nEPOCH **should be null** when:\n- It is not possible to determine the epoch of an observation\n- The observation pertains to interventions/events that **started before the subject's participation** in the study (including pre-screening)\n- Findings were **performed before participation** in the study\n\n> Note: A subject's participation includes screening, which generally occurs before RFSTDTC in DM. [Source: chapters/ch04_general_assumptions.md §4.1.3.1]\n\n### 4. Uniqueness Requirement\n\nEPOCH values **must be distinct** for different epochs. For example, in a crossover trial with 3 treatment epochs, each must have a unique name — all 3 cannot be called `\"TREATMENT\"`. [Source: domains/TA/assumptions.md item_12]\n\n### 5. Scope Restrictions\n\n- EPOCH **cannot** be added to SUPPQUAL datasets\n- EPOCH **cannot** be added to RELREC\n- In the SV domain, if EPOCH is added, its value must reflect the epoch **at the start of the visit** [Source: chapters/ch04_general_assumptions.md §4.1.3; domains/SV/assumptions.md item_15]\n\n---\n\n## Conceptual Definition of Epoch\n\nAn **epoch** is a planned period of subjects' participation in the trial, serving a purpose at the level of the trial's primary objectives — typically to expose subjects to a treatment, prepare for treatment (e.g., screening, washout), or gather post-treatment data. Epochs are defined in the Trial Arms (TA) domain and form the backbone of the Trial Design Model. [Source: domains/TA/assumptions.md]"
    }
   }
  },
  {
   "id": "q118",
   "question": "I'm deriving EPOCH for my subject-level datasets. Which date/time variable should the EPOCH assignment be based on for Findings class domains versus Interventions and Events class domains, and what should I do when an observation's epoch cannot be determined?",
   "n_expected_facts": 4,
   "n_fused": 59,
   "arms": {
    "A": {
     "seats": 15,
     "seats_before_s1": 15,
     "full_seats": true,
     "s1_injected": 1,
     "s1_total_in_final": 1,
     "s1_injected_sections": [
      {
       "source": "VARIABLE_INDEX.md",
       "section": "§一 通用变量: EPOCH"
      }
     ],
     "s1_all_sections": [
      {
       "source": "VARIABLE_INDEX.md",
       "section": "§一 通用变量: EPOCH"
      }
     ],
     "s1_reintroduced_capped_section": [],
     "composition": [
      {
       "source": "VARIABLE_INDEX.md",
       "section": "§一 通用变量: EPOCH",
       "via_lookup": true
      },
      {
       "source": "chapters/ch04_general_assumptions.md",
       "section": "4.1.3 Additional Timing Variables",
       "via_lookup": false
      },
      {
       "source": "domains/TA/assumptions.md",
       "section": "item_12",
       "via_lookup": false
      },
      {
       "source": "chapters/ch02_fundamentals.md",
       "section": "whole_file",
       "via_lookup": false
      },
      {
       "source": "domains/TA/assumptions.md",
       "section": "item_9",
       "via_lookup": false
      },
      {
       "source": "domains/DS/assumptions.md",
       "section": "item_4",
       "via_lookup": false
      },
      {
       "source": "domains/LB/spec.md",
       "section": "EPOCH",
       "via_lookup": false
      },
      {
       "source": "chapters/ch04_general_assumptions.md",
       "section": "4.3.7 Use of \"Yes\" and \"No\" Values",
       "via_lookup": false
      },
      {
       "source": "domains/CP/spec.md",
       "section": "EPOCH",
       "via_lookup": false
      },
      {
       "source": "chapters/ch08_relationships.md",
       "section": "8.6.3 Guidelines for Differentiating Between Interventions, Events, Findings, and Findings About Events or Interventions",
       "via_lookup": false
      },
      {
       "source": "domains/IE/spec.md",
       "section": "EPOCH",
       "via_lookup": false
      },
      {
       "source": "model/02_observation_classes.md",
       "section": "3.1.5 Timing Variables for All Classes",
       "via_lookup": false
      },
      {
       "source": "domains/PP/spec.md",
       "section": "EPOCH",
       "via_lookup": false
      },
      {
       "source": "model/01_concepts_and_terms.md",
       "section": "2.1 Model Concepts and Terms — Variables",
       "via_lookup": false
      },
      {
       "source": "domains/PC/spec.md",
       "section": "EPOCH",
       "via_lookup": false
      }
     ],
     "cap": null,
     "score": 1.0,
     "hits": [
      "When EPOCH is included in a Findings class domain, it should be based on the --DTC variable",
      "For observations in Interventions or Events class domains, EPOCH should be based on the --STDTC variable",
      "Sponsors should not impute EPOCH values",
      "If it is not possible to determine the epoch of an observation, then EPOCH should be null"
     ],
     "misses": [],
     "judge_parse_ok": true,
     "answer": "# EPOCH Assignment: Date/Time Basis by Observation Class\n\n## Summary Table\n\n| Observation Class | Base EPOCH on | Rationale |\n|---|---|---|\n| **Findings** | `--DTC` | Date/time of the test or specimen collection |\n| **Interventions** | `--STDTC` | Start of the intervention |\n| **Events** | `--STDTC` | Start of the event |\n\n---\n\n## Detailed Rules\n\n### Findings Class Domains\n\n> \"When EPOCH is included in a Findings class domain, it should be based on the **--DTC** variable, since this is the date/time of the test or, for tests performed on specimens, the date/time of specimen collection.\"\n\n[Source: chapters/ch04_general_assumptions.md §4.1.3.1]\n\nThis is consistent with the domain-level CDISC Notes in Findings domains such as LB, PC, PP, CP, IE:\n\n> \"Epoch associated with the **start date/time of the observation, or the date/time of collection** if start date/time is not collected.\"\n\n[Source: domains/LB/spec.md EPOCH; domains/PC/spec.md EPOCH; domains/PP/spec.md EPOCH; domains/CP/spec.md EPOCH]\n\n### Interventions and Events Class Domains\n\n> \"For observations in Interventions or Events class domains, EPOCH should be based on the **--STDTC** variable, since this is the start of the intervention or event.\"\n\n[Source: chapters/ch04_general_assumptions.md §4.1.3.1]\n\nFor example, in DS (Events class), the guidance is explicit:\n\n> \"EPOCH may be included as a timing variable as in other general observation-class domains. In DS, EPOCH is based on **DSSTDTC**.\"\n\n[Source: domains/DS/assumptions.md item_4c]\n\n---\n\n## Edge Case: Interval Specimen Collection Spanning Two Epochs\n\n> \"A possible, though unlikely, exception would be a finding based on an interval specimen collection that started in one epoch but ended in another. **--ENDTC** might be a more appropriate basis for EPOCH in such a case.\"\n\n[Source: chapters/ch04_general_assumptions.md §4.1.3.1]\n\n---\n\n## When EPOCH Cannot Be Determined\n\nTwo situations require a **null EPOCH**:\n\n1. **Indeterminate epoch**: \"If it is not possible to determine the epoch of an observation, then EPOCH should be null.\"\n\n2. **Pre-study observations**: \"EPOCH is not applicable to interventions or events that started before the subject's participation in a study, nor to findings performed before participation in a study. For such records, EPOCH should be null.\"\n   - Note: A subject's participation **includes screening**, which generally occurs before `RFSTDTC` in DM.\n\n[Source: chapters/ch04_general_assumptions.md §4.1.3.1]\n\n---\n\n## Imputation and Assignment Guidance\n\n- **Do not impute** EPOCH values.\n- You **may** assign EPOCH based on CRF instructions and structure even when date/time precision is insufficient to determine epoch from dates alone.\n- EPOCH values must be **distinct** across epochs — e.g., in a 3-period crossover, each treatment epoch must have a unique name; you cannot call all three \"TREATMENT\".\n- EPOCH values are drawn from the Trial Arms (TA) dataset.\n- Methods for assigning EPOCH should be documented in the **Define-XML** document.\n\n[Source: chapters/ch04_general_assumptions.md §4.1.3.1; domains/TA/assumptions.md item_12; domains/DS/assumptions.md item_4c]\n\n---\n\n## Variable Specification (for reference)\n\n| Attribute | Value |\n|---|---|\n| **Label** | Epoch |\n| **Type** | Char |\n| **Role** | Timing |\n| **Core** | Perm |\n| **Controlled Terms** | C99079 |\n\nEPOCH appears in 44 domains across all three general observation classes.\n\n[Source: VARIABLE_INDEX.md §一; domains/LB/spec.md EPOCH]"
    },
    "B1": {
     "seats": 15,
     "seats_before_s1": 15,
     "full_seats": true,
     "s1_injected": 1,
     "s1_total_in_final": 1,
     "s1_injected_sections": [
      {
       "source": "VARIABLE_INDEX.md",
       "section": "§一 通用变量: EPOCH"
      }
     ],
     "s1_all_sections": [
      {
       "source": "VARIABLE_INDEX.md",
       "section": "§一 通用变量: EPOCH"
      }
     ],
     "s1_reintroduced_capped_section": [],
     "composition": [
      {
       "source": "VARIABLE_INDEX.md",
       "section": "§一 通用变量: EPOCH",
       "via_lookup": true
      },
      {
       "source": "chapters/ch04_general_assumptions.md",
       "section": "4.1.3 Additional Timing Variables",
       "via_lookup": false
      },
      {
       "source": "domains/TA/assumptions.md",
       "section": "item_12",
       "via_lookup": false
      },
      {
       "source": "chapters/ch02_fundamentals.md",
       "section": "whole_file",
       "via_lookup": false
      },
      {
       "source": "domains/TA/assumptions.md",
       "section": "item_9",
       "via_lookup": false
      },
      {
       "source": "domains/DS/assumptions.md",
       "section": "item_4",
       "via_lookup": false
      },
      {
       "source": "domains/LB/spec.md",
       "section": "EPOCH",
       "via_lookup": false
      },
      {
       "source": "chapters/ch04_general_assumptions.md",
       "section": "4.3.7 Use of \"Yes\" and \"No\" Values",
       "via_lookup": false
      },
      {
       "source": "chapters/ch08_relationships.md",
       "section": "8.6.3 Guidelines for Differentiating Between Interventions, Events, Findings, and Findings About Events or Interventions",
       "via_lookup": false
      },
      {
       "source": "model/02_observation_classes.md",
       "section": "3.1.5 Timing Variables for All Classes",
       "via_lookup": false
      },
      {
       "source": "model/01_concepts_and_terms.md",
       "section": "2.1 Model Concepts and Terms — Variables",
       "via_lookup": false
      },
      {
       "source": "model/02_observation_classes.md",
       "section": "3.1.3 The Findings Observation Class",
       "via_lookup": false
      },
      {
       "source": "model/02_observation_classes.md",
       "section": "Overview",
       "via_lookup": false
      },
      {
       "source": "domains/SE/assumptions.md",
       "section": "overview",
       "via_lookup": false
      },
      {
       "source": "chapters/ch04_general_assumptions.md",
       "section": "4.4.8 Date and Time Reported in a Domain Based on Findings",
       "via_lookup": false
      }
     ],
     "cap": 1,
     "score": 1.0,
     "hits": [
      "When EPOCH is included in a Findings class domain, it should be based on the --DTC variable",
      "For observations in Interventions or Events class domains, EPOCH should be based on the --STDTC variable",
      "Sponsors should not impute EPOCH values",
      "If it is not possible to determine the epoch of an observation, then EPOCH should be null"
     ],
     "misses": [],
     "judge_parse_ok": true,
     "answer": "# EPOCH Assignment: Date/Time Basis by Observation Class\n\n## Summary\n\nThe basis for EPOCH assignment differs by observation class, and there are specific rules for handling indeterminate epochs.\n\n---\n\n## 1. Findings Class Domains\n\n**Base EPOCH on `--DTC`.**\n\n> \"When EPOCH is included in a Findings class domain, it should be based on the **--DTC** variable, since this is the date/time of the test or, for tests performed on specimens, the date/time of specimen collection.\"\n\n[Source: chapters/ch04_general_assumptions.md §4.1.3.1]\n\nThis is consistent with the LB domain spec, which states:\n\n> \"Epoch associated with the **start date/time of the observation, or the date/time of collection** if start date/time is not collected.\"\n\n[Source: domains/LB/spec.md — EPOCH]\n\n**Rationale:** In Findings domains, `--STDTC` is not used (it is reserved for Interventions/Events); `--DTC` is the canonical timing anchor for all Findings observations. [Source: chapters/ch04_general_assumptions.md §4.4.8]\n\n### Edge Case: Interval Specimen Collections\n\n> \"A possible, though unlikely, exception would be a finding based on an interval specimen collection that started in one epoch but ended in another. **--ENDTC** might be a more appropriate basis for EPOCH in such a case.\"\n\n[Source: chapters/ch04_general_assumptions.md §4.1.3.1]\n\n---\n\n## 2. Interventions and Events Class Domains\n\n**Base EPOCH on `--STDTC`.**\n\n> \"For observations in Interventions or Events class domains, EPOCH should be based on the **--STDTC** variable, since this is the start of the intervention or event.\"\n\n[Source: chapters/ch04_general_assumptions.md §4.1.3.1]\n\n**DS domain example:** The DS assumptions confirm this pattern:\n\n> \"EPOCH may be included as a timing variable as in other general observation-class domains. In DS, EPOCH is based on **DSSTDTC**.\"\n\n[Source: domains/DS/assumptions.md — item_4c]\n\n---\n\n## 3. When Epoch Cannot Be Determined\n\n**Leave EPOCH null.** Do not impute.\n\n> \"Sponsors should **not impute EPOCH values**, but should, where possible, assign EPOCH values on the basis of CRF instructions and structure, even if EPOCH was not directly collected and date/time data was not collected with sufficient precision to permit assignment of an observation to an EPOCH on the basis of date/time data alone. **If it is not possible to determine the epoch of an observation, then EPOCH should be null.**\"\n\n[Source: chapters/ch04_general_assumptions.md §4.1.3.1]\n\n### Special Case: Pre-study Observations\n\n> \"Because EPOCH is a study-design construct, it is **not applicable** to interventions or events that started before the subject's participation in a study, nor to findings performed before participation in a study. For such records, **EPOCH should be null**.\"\n\nNote that \"participation in a study\" includes screening (which generally precedes `RFSTDTC` in DM). [Source: chapters/ch04_general_assumptions.md §4.1.3.1]\n\n---\n\n## 4. Additional Implementation Notes\n\n| Topic | Guidance |\n|-------|----------|\n| EPOCH values must be unique per epoch | \"Values of EPOCH must be different for different epochs\" — e.g., in a 3-period crossover, each treatment epoch needs a distinct name, not all called \"TREATMENT\" [Source: domains/TA/assumptions.md — item_12] |\n| EPOCH values sourced from TA | Values of EPOCH are drawn from the Trial Arms (TA) dataset [Source: domains/DS/assumptions.md — item_4c] |\n| Assignment methods | Methods for assigning EPOCH values can be described in the Define-XML document [Source: chapters/ch04_general_assumptions.md §4.1.3.1] |\n| Cross-arm comparability | EPOCH should be assigned so that elements from different arms with the same EPOCH value are \"comparable\" in some sense [Source: domains/TA/assumptions.md — item_9] |\n\n---\n\n## Quick Reference\n\n| Observation Class | Base EPOCH on |\n|-------------------|--------------|\n| Findings | `--DTC` (or `--ENDTC` for interval collections spanning epoch boundary) |\n| Interventions | `--STDTC` |\n| Events | `--STDTC` |\n| Pre-study / indeterminate | Null (do not impute) |"
    },
    "B2": {
     "seats": 15,
     "seats_before_s1": 15,
     "full_seats": true,
     "s1_injected": 1,
     "s1_total_in_final": 1,
     "s1_injected_sections": [
      {
       "source": "VARIABLE_INDEX.md",
       "section": "§一 通用变量: EPOCH"
      }
     ],
     "s1_all_sections": [
      {
       "source": "VARIABLE_INDEX.md",
       "section": "§一 通用变量: EPOCH"
      }
     ],
     "s1_reintroduced_capped_section": [],
     "composition": [
      {
       "source": "VARIABLE_INDEX.md",
       "section": "§一 通用变量: EPOCH",
       "via_lookup": true
      },
      {
       "source": "chapters/ch04_general_assumptions.md",
       "section": "4.1.3 Additional Timing Variables",
       "via_lookup": false
      },
      {
       "source": "domains/TA/assumptions.md",
       "section": "item_12",
       "via_lookup": false
      },
      {
       "source": "chapters/ch02_fundamentals.md",
       "section": "whole_file",
       "via_lookup": false
      },
      {
       "source": "domains/TA/assumptions.md",
       "section": "item_9",
       "via_lookup": false
      },
      {
       "source": "domains/DS/assumptions.md",
       "section": "item_4",
       "via_lookup": false
      },
      {
       "source": "domains/LB/spec.md",
       "section": "EPOCH",
       "via_lookup": false
      },
      {
       "source": "chapters/ch04_general_assumptions.md",
       "section": "4.3.7 Use of \"Yes\" and \"No\" Values",
       "via_lookup": false
      },
      {
       "source": "domains/CP/spec.md",
       "section": "EPOCH",
       "via_lookup": false
      },
      {
       "source": "chapters/ch08_relationships.md",
       "section": "8.6.3 Guidelines for Differentiating Between Interventions, Events, Findings, and Findings About Events or Interventions",
       "via_lookup": false
      },
      {
       "source": "model/02_observation_classes.md",
       "section": "3.1.5 Timing Variables for All Classes",
       "via_lookup": false
      },
      {
       "source": "model/01_concepts_and_terms.md",
       "section": "2.1 Model Concepts and Terms — Variables",
       "via_lookup": false
      },
      {
       "source": "model/02_observation_classes.md",
       "section": "3.1.3 The Findings Observation Class",
       "via_lookup": false
      },
      {
       "source": "chapters/ch03_submitting_data.md",
       "section": "whole_file",
       "via_lookup": false
      },
      {
       "source": "model/02_observation_classes.md",
       "section": "Overview",
       "via_lookup": false
      }
     ],
     "cap": 2,
     "score": 1.0,
     "hits": [
      "When EPOCH is included in a Findings class domain, it should be based on the --DTC variable",
      "For observations in Interventions or Events class domains, EPOCH should be based on the --STDTC variable",
      "Sponsors should not impute EPOCH values",
      "If it is not possible to determine the epoch of an observation, then EPOCH should be null"
     ],
     "misses": [],
     "judge_parse_ok": true,
     "answer": "## EPOCH Assignment: Date/Time Basis by Observation Class\n\n### Findings Class Domains\n\nEPOCH should be based on **`--DTC`** (Date/Time of Collection), since this represents the date/time of the test or, for tests performed on specimens, the date/time of specimen collection.\n\n> A possible, though unlikely, exception: for a finding based on an **interval specimen collection** that started in one epoch but ended in another, `--ENDTC` might be a more appropriate basis for EPOCH assignment in that case.\n\n[Source: chapters/ch04_general_assumptions.md §4.1.3.1]\n\nThis is also reflected in the LB and CP domain specs:\n\n> *\"Epoch associated with the start date/time of the observation, or the date/time of collection if start date/time is not collected.\"*\n\n[Source: domains/LB/spec.md — EPOCH; domains/CP/spec.md — EPOCH]\n\n---\n\n### Interventions and Events Class Domains\n\nEPOCH should be based on **`--STDTC`** (Start Date/Time of Observation), since this represents the start of the intervention or event.\n\nFor the DS domain specifically, EPOCH is based on **`DSSTDTC`**, and values must be drawn from the Trial Arms (TA) dataset.\n\n[Source: chapters/ch04_general_assumptions.md §4.1.3.1; domains/DS/assumptions.md item 4c]\n\n---\n\n### When Epoch Cannot Be Determined\n\nTwo scenarios where EPOCH **must be null**:\n\n1. **Insufficient precision / indeterminate epoch**: If it is not possible to determine the epoch of an observation (e.g., date/time data lacks sufficient precision), EPOCH should be **null**. Methods for assigning EPOCH values should be described in the Define-XML document.\n\n2. **Pre-study observations**: Because EPOCH is a study-design construct, it is **not applicable** to interventions or events that started before the subject's participation in a study, nor to findings performed before participation. For such records, EPOCH should be **null**.\n   - Note: A subject's participation includes **screening**, which generally occurs before `RFSTDTC` in DM.\n\n[Source: chapters/ch04_general_assumptions.md §4.1.3.1]\n\n---\n\n### Additional Implementation Notes\n\n- **Do not impute** EPOCH values. However, sponsors *may* assign EPOCH based on CRF instructions and structure even when date/time precision alone is insufficient — provided the assignment is defensible.\n- EPOCH values must be **distinct** across different epochs. For example, in a 3-period crossover trial, each treatment epoch must have a unique name; all three cannot be called `\"TREATMENT\"`.\n- EPOCH should be assigned so that elements from different arms sharing the same EPOCH value are **comparable** in some meaningful sense.\n\n[Source: chapters/ch04_general_assumptions.md §4.1.3.1; domains/TA/assumptions.md items 9, 12]\n\n---\n\n### Summary Table\n\n| Observation Class | Base Date/Time Variable | Exception |\n|---|---|---|\n| Findings | `--DTC` | `--ENDTC` for interval specimens spanning epoch boundary |\n| Interventions | `--STDTC` | — |\n| Events | `--STDTC` | — |\n| Pre-study / indeterminate | null | — |"
    }
   }
  },
  {
   "id": "q84",
   "question": "When deciding whether data belong to the Events, Interventions, or Findings observation class, what is the definition of an intervention versus an event?",
   "n_expected_facts": 3,
   "n_fused": 51,
   "arms": {
    "A": {
     "seats": 15,
     "seats_before_s1": 15,
     "full_seats": true,
     "s1_injected": 0,
     "s1_total_in_final": 0,
     "s1_injected_sections": [],
     "s1_all_sections": [],
     "s1_reintroduced_capped_section": [],
     "composition": [
      {
       "source": "chapters/ch08_relationships.md",
       "section": "8.6.1 Guidelines for Determining the General Observation Class",
       "via_lookup": false
      },
      {
       "source": "chapters/ch08_relationships.md",
       "section": "8.6.3 Guidelines for Differentiating Between Interventions, Events, Findings, and Findings About Events or Interventions",
       "via_lookup": false
      },
      {
       "source": "chapters/ch04_general_assumptions.md",
       "section": "4.5.7 Presence or Absence of Prespecified Interventions and Events",
       "via_lookup": false
      },
      {
       "source": "domains/FA/assumptions.md",
       "section": "item_2",
       "via_lookup": false
      },
      {
       "source": "domains/FA/assumptions.md",
       "section": "item_4",
       "via_lookup": false
      },
      {
       "source": "domains/FA/assumptions.md",
       "section": "item_6",
       "via_lookup": false
      },
      {
       "source": "model/02_observation_classes.md",
       "section": "3.1.3 The Findings Observation Class",
       "via_lookup": false
      },
      {
       "source": "model/02_observation_classes.md",
       "section": "Overview",
       "via_lookup": false
      },
      {
       "source": "chapters/ch02_fundamentals.md",
       "section": "whole_file",
       "via_lookup": false
      },
      {
       "source": "domains/SU/spec.md",
       "section": "Model Definition",
       "via_lookup": false
      },
      {
       "source": "domains/CM/spec.md",
       "section": "Model Definition",
       "via_lookup": false
      },
      {
       "source": "domains/AG/spec.md",
       "section": "Model Definition",
       "via_lookup": false
      },
      {
       "source": "domains/EC/spec.md",
       "section": "Model Definition",
       "via_lookup": false
      },
      {
       "source": "domains/EX/spec.md",
       "section": "Model Definition",
       "via_lookup": false
      },
      {
       "source": "chapters/ch04_general_assumptions.md",
       "section": "4.3.7 Use of \"Yes\" and \"No\" Values",
       "via_lookup": false
      }
     ],
     "cap": null,
     "score": 1.0,
     "hits": [
      "intervention",
      "event",
      "physiological effect"
     ],
     "misses": [],
     "judge_parse_ok": true,
     "answer": "## Definitions: Intervention vs. Event in SDTM Observation Classes\n\n### Intervention\n\nAn **intervention** is defined as:\n\n> \"Something that is done **to** a subject (possibly by the subject) that is **expected to have a physiological effect**.\"\n\nThe key distinguishing characteristic is **intended/expected physiological effect**. This makes interventions relatively easy to recognize in most cases.\n\n**[Source: chapters/ch08_relationships.md -- 8.6.1]**\n\nExamples of Interventions domains: CM (Concomitant Medications), EX (Exposure), EC (Exposure as Collected), PR (Procedures), SU (Substance Use), AG (Procedure Agents), ML (Meal Data).\n\n> **Gray area note:** Some testing procedures (e.g., exercise stress tests) are designed to *produce and then measure* physiological effects. The **measurements** from such a procedure are **Findings**, even though aspects of the procedure itself might be modeled as Interventions. **[Source: chapters/ch08_relationships.md -- 8.6.1]**\n\n---\n\n### Event\n\nAn **event** is defined as:\n\n> \"Something that **happens to a subject spontaneously**.\"\n\nMost events data in clinical trials concerns **medical events**. Because many medical events must by regulation be treated as adverse events, a new Events domain will only be created for events that are **clearly not adverse events**; MH and CE are the appropriate homes for most non-AE medical events.\n\n**[Source: chapters/ch08_relationships.md -- 8.6.1]**\n\n> **Important nuance:** Medical history data is classified as Events data **regardless of whether dates were collected** — the physical structure (presence/absence of start/stop dates) does not determine the class. **[Source: chapters/ch08_relationships.md -- 8.6.1]**\n\n---\n\n### Practical Differentiators\n\nWhen the distinction is unclear, the following diagnostic questions from SDTMIG §8.6.3 can help:\n\n| Question | Implication |\n|----------|-------------|\n| Is verbatim text collected and then coded? | \"Yes\" → likely Events or Interventions (topic variable is coded); for Findings, the *result* is coded **[Source: chapters/ch08_relationships.md -- 8.6.3]** |\n| What dates are collected? | Start/end dates → likely Event or Intervention; assessment dates → likely Finding **[Source: chapters/ch08_relationships.md -- 8.6.3]** |\n| Is it on a log form vs. a visit-specific CRF? | Log forms → Events or Interventions; visit-specific forms → usually Findings **[Source: chapters/ch08_relationships.md -- 8.6.3]** |\n| Is it a measurement with units? | \"Yes\" → likely a Finding (or a Finding About an Event/Intervention) **[Source: chapters/ch08_relationships.md -- 8.6.3]** |\n\n---\n\n### Key Conceptual Summary\n\n| Class | Core Concept | Initiated By |\n|-------|-------------|--------------|\n| Interventions | Done to a subject; **intended physiological effect** | Study/subject action |\n| Events | Happens to a subject; **spontaneous** | Spontaneous occurrence |\n| Findings | Measured/assessed/tested on a subject; **planned evaluation** | Study protocol **[Source: model/02_observation_classes.md -- 3.1.3]** |"
    },
    "B1": {
     "seats": 15,
     "seats_before_s1": 15,
     "full_seats": true,
     "s1_injected": 0,
     "s1_total_in_final": 0,
     "s1_injected_sections": [],
     "s1_all_sections": [],
     "s1_reintroduced_capped_section": [],
     "composition": [
      {
       "source": "chapters/ch08_relationships.md",
       "section": "8.6.1 Guidelines for Determining the General Observation Class",
       "via_lookup": false
      },
      {
       "source": "chapters/ch08_relationships.md",
       "section": "8.6.3 Guidelines for Differentiating Between Interventions, Events, Findings, and Findings About Events or Interventions",
       "via_lookup": false
      },
      {
       "source": "chapters/ch04_general_assumptions.md",
       "section": "4.5.7 Presence or Absence of Prespecified Interventions and Events",
       "via_lookup": false
      },
      {
       "source": "domains/FA/assumptions.md",
       "section": "item_2",
       "via_lookup": false
      },
      {
       "source": "domains/FA/assumptions.md",
       "section": "item_4",
       "via_lookup": false
      },
      {
       "source": "domains/FA/assumptions.md",
       "section": "item_6",
       "via_lookup": false
      },
      {
       "source": "model/02_observation_classes.md",
       "section": "3.1.3 The Findings Observation Class",
       "via_lookup": false
      },
      {
       "source": "model/02_observation_classes.md",
       "section": "Overview",
       "via_lookup": false
      },
      {
       "source": "chapters/ch02_fundamentals.md",
       "section": "whole_file",
       "via_lookup": false
      },
      {
       "source": "domains/SU/spec.md",
       "section": "Model Definition",
       "via_lookup": false
      },
      {
       "source": "chapters/ch04_general_assumptions.md",
       "section": "4.3.7 Use of \"Yes\" and \"No\" Values",
       "via_lookup": false
      },
      {
       "source": "chapters/ch04_general_assumptions.md",
       "section": "4.1.3 Additional Timing Variables",
       "via_lookup": false
      },
      {
       "source": "chapters/ch04_general_assumptions.md",
       "section": "4.4.9 Use of Dates as Result Variables",
       "via_lookup": false
      },
      {
       "source": "chapters/ch04_general_assumptions.md",
       "section": "4.5.6 Supplemental Reason Variables",
       "via_lookup": false
      },
      {
       "source": "model/02_observation_classes.md",
       "section": "3.1.1 The Interventions Observation Class",
       "via_lookup": false
      }
     ],
     "cap": 1,
     "score": 1.0,
     "hits": [
      "intervention",
      "event",
      "physiological effect"
     ],
     "misses": [],
     "judge_parse_ok": true,
     "answer": "## Definitions: Intervention vs. Event in SDTM Observation Classes\n\n### Intervention\n\nAn **intervention** is defined as something that is **done to a subject** (possibly by the subject) that is **expected to have a physiological effect**. The concept of *intended physiological effect* is the key distinguishing characteristic.\n\n> \"An intervention is something that is done to a subject (possibly by the subject) that is expected to have a physiological effect. This concept of intended effect makes interventions relatively easy to recognize...\"\n> [Source: chapters/ch08_relationships.md -- 8.6.1]\n\nThe Interventions Observation Class formally represents:\n> \"investigational, therapeutic, and other treatments that are administered to or used by a subject (with some actual or expected physiological effect). This includes treatments specified by the study protocol (i.e., 'exposure').\"\n> [Source: model/02_observation_classes.md -- 3.1.1]\n\n**Examples of interventions:** concomitant medications (CM), study drug exposure (EX/EC), procedures (PR), substance use (SU).\n\n---\n\n### Event\n\nAn **event** is something that **happens to a subject spontaneously** — it is not administered or applied intentionally.\n\n> \"An event is something that happens to a subject spontaneously. Most, although not all, events data captured in clinical trials is about medical events.\"\n> [Source: chapters/ch08_relationships.md -- 8.6.1]\n\nKey nuances for events:\n- Events data is collected regardless of whether dates were captured (e.g., medical history is Events class data even without dates) [Source: chapters/ch08_relationships.md -- 8.6.1]\n- Because many medical events must by regulation be treated as adverse events, a **new Events domain** will only be created for events that are **clearly not adverse events**; MH and CE are the appropriate homes for most non-AE medical events [Source: chapters/ch08_relationships.md -- 8.6.1]\n\n---\n\n### The Gray Area: Testing Procedures\n\nThe SDTMIG explicitly acknowledges gray areas:\n\n> \"...there are gray areas around some testing procedures. For example, exercise stress tests are designed to produce and then measure certain physiological effects. The **measurements** from such a testing procedure are **findings**, although some aspects of the procedure might be modeled as **interventions**.\"\n> [Source: chapters/ch08_relationships.md -- 8.6.1]\n\n---\n\n### Practical Decision Aids\n\nWhen the class is unclear, the following questions from Section 8.6.3 help differentiate:\n\n| Question | Interpretation |\n|----------|---------------|\n| Is this a measurement with units? | \"Yes\" → likely **Findings** |\n| Are data collected on a log form vs. per-visit CRF? | Log form → likely **Events or Interventions**; per-visit → likely **Findings** |\n| What dates are collected? | Start/end dates → **Events or Interventions**; assessment dates → **Findings** |\n| Is verbatim text collected and then coded? | \"Yes\" → suggests **Events or Interventions** (topic is coded); in Findings, the *result* is coded |\n\n[Source: chapters/ch08_relationships.md -- 8.6.3]\n\n---\n\n### Summary\n\n| Class | Core Definition | Structural Signal |\n|-------|----------------|-------------------|\n| **Interventions** | Done *to* a subject; intended physiological effect | --TRT as topic; dose, route, frequency variables |\n| **Events** | Happens *spontaneously* to a subject | --TERM as topic; start/end dates; verbatim text coded |\n| **Findings** | Planned measurement, test, or assessment | --TESTCD/--TEST as topic; --ORRES/--STRESC as results |\n\n[Source: chapters/ch08_relationships.md -- 8.6.1; model/02_observation_classes.md -- 3.1.1, 3.1.3]"
    },
    "B2": {
     "seats": 15,
     "seats_before_s1": 15,
     "full_seats": true,
     "s1_injected": 0,
     "s1_total_in_final": 0,
     "s1_injected_sections": [],
     "s1_all_sections": [],
     "s1_reintroduced_capped_section": [],
     "composition": [
      {
       "source": "chapters/ch08_relationships.md",
       "section": "8.6.1 Guidelines for Determining the General Observation Class",
       "via_lookup": false
      },
      {
       "source": "chapters/ch08_relationships.md",
       "section": "8.6.3 Guidelines for Differentiating Between Interventions, Events, Findings, and Findings About Events or Interventions",
       "via_lookup": false
      },
      {
       "source": "chapters/ch04_general_assumptions.md",
       "section": "4.5.7 Presence or Absence of Prespecified Interventions and Events",
       "via_lookup": false
      },
      {
       "source": "domains/FA/assumptions.md",
       "section": "item_2",
       "via_lookup": false
      },
      {
       "source": "domains/FA/assumptions.md",
       "section": "item_4",
       "via_lookup": false
      },
      {
       "source": "domains/FA/assumptions.md",
       "section": "item_6",
       "via_lookup": false
      },
      {
       "source": "model/02_observation_classes.md",
       "section": "3.1.3 The Findings Observation Class",
       "via_lookup": false
      },
      {
       "source": "model/02_observation_classes.md",
       "section": "Overview",
       "via_lookup": false
      },
      {
       "source": "chapters/ch02_fundamentals.md",
       "section": "whole_file",
       "via_lookup": false
      },
      {
       "source": "domains/SU/spec.md",
       "section": "Model Definition",
       "via_lookup": false
      },
      {
       "source": "domains/CM/spec.md",
       "section": "Model Definition",
       "via_lookup": false
      },
      {
       "source": "chapters/ch04_general_assumptions.md",
       "section": "4.3.7 Use of \"Yes\" and \"No\" Values",
       "via_lookup": false
      },
      {
       "source": "chapters/ch04_general_assumptions.md",
       "section": "4.1.3 Additional Timing Variables",
       "via_lookup": false
      },
      {
       "source": "chapters/ch04_general_assumptions.md",
       "section": "4.4.9 Use of Dates as Result Variables",
       "via_lookup": false
      },
      {
       "source": "chapters/ch04_general_assumptions.md",
       "section": "4.5.6 Supplemental Reason Variables",
       "via_lookup": false
      }
     ],
     "cap": 2,
     "score": 1.0,
     "hits": [
      "intervention",
      "event",
      "physiological effect"
     ],
     "misses": [],
     "judge_parse_ok": true,
     "answer": "## Definitions: Intervention vs. Event in SDTM\n\n### Intervention\n\nAn **intervention** is defined as:\n\n> \"Something that is done **to** a subject (possibly by the subject) that is **expected to have a physiological effect**.\"\n\nThe key distinguishing concept is **intended physiological effect** — this makes interventions relatively easy to recognize. Examples include concomitant medications, study drug exposures, and procedures administered to the subject.\n\n**Gray area note:** Some testing procedures blur the line. For example, exercise stress tests are designed to *produce and then measure* certain physiological effects. In such cases:\n- The **measurements** from the procedure → **Findings**\n- Some **aspects of the procedure itself** → may be modeled as **Interventions**\n\n[Source: chapters/ch08_relationships.md -- 8.6.1]\n\n---\n\n### Event\n\nAn **event** is defined as:\n\n> \"Something that **happens to a subject spontaneously**.\"\n\nMost events data in clinical trials concerns **medical events**. Key practical guidance:\n\n- Because many medical events must by regulation be treated as adverse events, a **new Events domain will only be created for events that are clearly not adverse events**\n- Existing domains MH (Medical History) and CE (Clinical Events) are the appropriate repositories for most non-adverse medical events\n- Events data is collected regardless of whether dates were captured (e.g., medical history data is Events class data even without dates)\n\n[Source: chapters/ch08_relationships.md -- 8.6.1]\n\n---\n\n### Practical Decision Heuristics\n\nWhen the class is ambiguous, the following questions from the SDTMIG decision table help differentiate:\n\n| Question | Implication |\n|----------|-------------|\n| Is verbatim text collected and then coded? | **Yes** → suggests Events or Interventions (topic variable is coded); for Findings, the *result* is coded |\n| Are data collected on a log form vs. per-visit CRF? | Log forms → Events or Interventions; per-visit planned assessments → Findings |\n| What dates are collected? | Start/end dates → Events or Interventions; assessment dates → Findings |\n| Is this a measurement with units? | **Yes** → Findings (or Findings About if it measures a property of an event/intervention) |\n\n[Source: chapters/ch08_relationships.md -- 8.6.3]\n\n---\n\n### Summary Contrast\n\n| Dimension | Intervention | Event |\n|-----------|-------------|-------|\n| Nature | Done **to** the subject | Happens **spontaneously** |\n| Key criterion | Intended physiological effect | Spontaneous occurrence |\n| Typical examples | CM, EX, PR, AG | AE, MH, CE, DS |\n| Topic variable coded? | Yes (--TRT) | Yes (--TERM) |\n\n[Source: chapters/ch08_relationships.md -- 8.6.1; model/02_observation_classes.md -- Overview]"
    }
   }
  }
 ]
}