{
  "platform": "notebooklm",
  "tier": 2,
  "v3_superseded": {
    "status": true,
    "superseded_date": "2026-04-22",
    "by": "smoke v4.0",
    "reason": "smoke v3 audit (by 11th subagent_type oh-my-claudecode:document-specialist, report at ai_platforms/archive/smoke_history/smoke_v3_audit_notes.md) surfaced NEED_FIX affecting NotebookLM-side Q1-Q10: Q10 (b) SUPPTS HIGH premise hallucination (note: NotebookLM P3.8 Q10 answer PASS+ already corrected this premise, reinforcing the audit finding) + Q8 LBNRIND/AETERM MEDIUM + Q4 FAIL MINOR",
    "audit_evidence": "ai_platforms/archive/smoke_history/smoke_v3_audit_notes.md (404 lines, Rule D chain 11th slot burned)",
    "new_baseline": "ai_platforms/SMOKE_V4.md §2 (filename preserved for ref-compat; content now v4.0 bundled patch + AHP x3 = 13 questions for NotebookLM)",
    "historical_scores_frozen": true,
    "notebooklm_historical_strict_score_v3_p3_8": "9/10 strict PASS (Q9 Pinnacle 21 PUNT as in-KB-only platform architecture limit, not capability fail)",
    "p3_8_q10_meta_finding": "NotebookLM answer actively identified SUPPTS not being a real v3.4 dataset, providing TSVAL1-TSVALn alternative. This user-visible model strength against premise hallucination is the driving force for v4.0 AHP x3 addition.",
    "rerun_planned": "smoke v4 R1 baseline cross-platform; NotebookLM in-KB-only policy expected to PASS AHP naturally (no web fallback = no hallucination risk); threshold 11/13 (85%, R1 may degrade to 10/13=77% first-run tolerance)"
  },
  "mode": "async",
  "sync_board_participation": false,
  "start_date": "2026-04-21",
  "last_update": "2026-05-16",
  "status": "signed_off_2026_04_23_post_v1_1_audit_closed_2026_05_16",
  "current_phase": "phase_5_signed_off_post_v1_1_audit_closed",
  "architecture_version": "v2_single_notebook_2026-04-21",
  "phase_states": {
    "0_bootstrap": {
      "status": "done",
      "sub_steps": {
        "scaffolding": "done",
        "template_copy_to_spec": "done",
        "readme_draft": "done",
        "roadmap_draft": "done",
        "platform_profile_draft": "done",
        "rule_E_user_priority_ack": "done_2026-04-21_ABC+Plus+noAPI"
      },
      "gate_to_next": null
    },
    "1_research": {
      "status": "done",
      "completed_date": "2026-04-21",
      "sub_steps": {
        "eight_questions": "done_writer1",
        "capacity_confirmation": "done_writer1+writer2",
        "indexing_indicator_test": "deferred_phase3",
        "single_notebook_architecture_confirmation": "done_2026-04-21_three_webfetch_post_pivot",
        "writer1_research_md": "done (general-purpose, 392 lines) — archived",
        "reviewer1_audit": "done (verifier, CONDITIONAL_PASS 78%) — archived",
        "writer2_corrections": "done (executor, 4 corrections, 469 lines) — archived",
        "reviewer2_final": "done (critic, CONDITIONAL_PASS 85% + 2 trivial blockers) — archived",
        "main_session_trivial_fixes": "done 2026-04-21 (Free->Standard 3 places)",
        "q7_and_paragraph_11_v2_rewrite": "done 2026-04-21 (post-pivot, 3 webfetch evidence)",
        "q7_duplicate_source_section_cleanup": "done 2026-04-21 (L4 fix)",
        "writer2_log_mode_ab_deprecation_notice": "done 2026-04-21 (L5 fix)"
      },
      "rule_d_chain_subagent_types": [
        "general-purpose",
        "oh-my-claudecode:verifier",
        "oh-my-claudecode:executor",
        "oh-my-claudecode:critic"
      ],
      "evidence_paths": [
        "docs/research.md",
        "archive/v1_3notebook_SUPERSEDED_2026-04-21/dev/evidence/phase1_reviewer.md",
        "archive/v1_3notebook_SUPERSEDED_2026-04-21/dev/evidence/phase1_reviewer2.md"
      ],
      "final_verdict": "PASS (post trivial fixes + post-pivot Q7/§11 v2 rewrite + L4/L5 cleanup)",
      "carry_over_to_phase2_v2": [
        "Inherit R1: SDTM pre-upload audit (wc -w top 5) / Chat mode Custom selector / personal Gmail + share-level toggle strategy (3 档 UI)",
        "Q1 red line: 0 Req variable loss (user ack 2026-04-21)",
        "Q2: quality first, no rush, multi-day OK"
      ],
      "closed_carry_over_from_v1": [
        "C2.9: Q7 Mode B cap UNVERIFIED — CLOSED 2026-04-21 (webfetch: 50-cap only applies to Restricted invite, not Anyone with link/Public)",
        "I8: Mode B owner whether Mode A 50-cap applies — CLOSED 2026-04-21 (same as C2.9, no Phase 3 test needed)"
      ]
    },
    "2_plan": {
      "status": "done",
      "v1_status": "SUPERSEDED_archived_2026-04-21",
      "v1_archive_path": "archive/v1_3notebook_SUPERSEDED_2026-04-21/",
      "v1_rule_d_chain_subagent_types": [
        "oh-my-claudecode:planner",
        "oh-my-claudecode:analyst",
        "feature-dev:code-architect",
        "pr-review-toolkit:code-reviewer"
      ],
      "v1_final_verdict_before_archive": "PASS 91% — but architecture deemed over-engineered post user review",
      "v2_trigger_date": "2026-04-21",
      "v2_trigger_reason": "user review identified that (a) NotebookLM sharing is 3-level toggle on same notebook, not 2 independent models requiring 2 notebooks; (b) 293 source upload is excessive vs ≤50 with multiple independent justifications; (c) Phase 3 not started, sunk cost = 1 day writing only, within reversible window",
      "v2_evidence_chain": [
        "webfetch support.google.com/notebooklm/answer/16206563: 50-cap only applies to Restricted invite",
        "webfetch support.google.com/notebooklm/answer/16322204: toggle levels on same notebook, anyone with link needs Google account (not anonymous)",
        "webfetch support.google.com/notebooklm/answer/16213268: sharing does not change viewer's own tier source cap (interpretation A, confidence MEDIUM, Phase 3 P3.9 step f closure planned)"
      ],
      "v2_substeps": {
        "pivot_record_written": "done 2026-04-21 (archive/v1_.../ARCHITECTURE_PIVOT_RECORD.md)",
        "old_artifacts_archived": "done 2026-04-21 (PLAN_v1_3notebook.md + phase1_reviewer*.md + phase2_reviewer*.md moved to archive/)",
        "research_md_q7_paragraph11_rewrite": "done 2026-04-21",
        "platform_profile_v2_rewrite": "done 2026-04-21",
        "roadmap_v2_rewrite": "done 2026-04-21",
        "readme_phase_table_update": "done 2026-04-21",
        "progress_json_reset": "done 2026-04-21",
        "plan_v2_writing": "done 2026-04-21 (548 lines initial, extended post-review)",
        "plan_v2_reviewer_9th_subagent_type": "done 2026-04-21 (oh-my-claudecode:architect, CONDITIONAL_PASS 84%)",
        "plan_v2_reviewer_findings_applied": "done 2026-04-21 (3 HIGH + 5 MEDIUM + 5 LOW all closed, 5 SUGGESTION integrated, 3 Q-REV auto-acked by main session default)"
      },
      "v2_rule_d_chain_subagent_types_extension": [
        "oh-my-claudecode:architect"
      ],
      "cumulative_rule_d_chain_subagent_types_phase_0_to_2": [
        "general-purpose",
        "oh-my-claudecode:verifier",
        "oh-my-claudecode:executor",
        "oh-my-claudecode:critic",
        "oh-my-claudecode:planner",
        "oh-my-claudecode:analyst",
        "feature-dev:code-architect",
        "pr-review-toolkit:code-reviewer",
        "oh-my-claudecode:architect"
      ],
      "cumulative_rule_d_chain_count": 9,
      "v2_reviewer_evidence_path": "dev/evidence/phase2_v2_reviewer.md",
      "v2_reviewer_verdict": "CONDITIONAL_PASS 84% → PASS after main session applied all HIGH/MEDIUM/LOW fixes",
      "v2_findings_closure": {
        "HIGH_H1_bucket_source_of_truth_contract": "closed (PLAN §3.2 added contract clause)",
        "HIGH_H2_coverage_set_equation_math": "closed (PLAN §3.2 changed to implication form)",
        "HIGH_H3_chat_mode_single_constraint_unverified": "closed (PLAN §3.4 + §6 P3.3 b/c added verification, constraint loosened to 'default Custom, session toggle Phase 3 verifies')",
        "MEDIUM_M1_rule_a_structure_vs_semantic": "closed (PLAN §6 P3.4.5 added Req semantic audit N=10, A4 kept for structure)",
        "MEDIUM_M2_webui_batch_50_unverified": "closed (PLAN §2.5 added A5' 5-source small sample real test)",
        "MEDIUM_M3_smoke_sampling_rate_6pct": "closed (PLAN §6 P3.4 smoke N=3→10)",
        "MEDIUM_M4_pivot_attribution_depth": "closed (PLAN §11 deepened to 3 layers + template patch 10a/10b)",
        "MEDIUM_M5_evidence3_interpretation_A": "closed (PLAN engrained fact #6 + Executive Summary downgraded 'Free tier compat' attribution; P3.9 step f plans closure)",
        "LOW_L1_restricted_split_readability": "closed (PLAN §3.3 merged)",
        "LOW_L2_only_via_share_level_over_assert": "closed (PLAN Exec Summary + §3.3 added 'under current Rule E ack')",
        "LOW_L3_toggle_drill_rapid_switch_missing": "closed (PLAN P3.9 added step e)",
        "LOW_L4_research_source_duplicate_paragraph": "closed (research.md §11 dup deleted)",
        "LOW_L5_writer2_log_mode_ab_inline_notice": "closed (research.md L472 prefix added)",
        "SUGGESTION_S1_free_tier_viewer_sample": "integrated as P3.9 step f",
        "SUGGESTION_S2_non_core_domain_smoke_question": "integrated as P3.4 b guidance",
        "SUGGESTION_S3_narrative_pseudo_constraint_self_audit": "integrated as PLAN §11 self-check (implicit in M4 closure)",
        "SUGGESTION_S4_cluster_algorithm_slot_utilization": "integrated as §3.2 contract implication (A3 runtime check)",
        "SUGGESTION_S5_citation_precision_cross_platform": "deferred to Phase 5 cross_platform_compare.md"
      },
      "q_rev_user_ack_final": {
        "user_ack_date": "2026-04-21",
        "user_statement": "全接受",
        "Q_REV_1_chat_mode_assumption": "user-acked: Chat mode single-mode assumption pending P3.3 UI verification",
        "Q_REV_2_webui_small_sample": "user-acked: A5' 5-source sample upload test parallel with A1",
        "Q_REV_3_q1_dual_anchor": "user-acked: structure A4 + semantic P3.4.5 dual anchor for Q1 red line"
      },
      "final_verdict": "PASS (2026-04-21, post 9th subagent_type architect review + all findings applied + user Q-REV全接受 ack)",
      "carry_over_to_phase3": [
        "Phase 3 P3.3 子步骤 b/c: 验证 Chat mode 单 session 可否切换三档 (H3 验证)",
        "Phase 3 P3.4 M3 fix: smoke 题 N=10 + 至少 1 题 non-core domain",
        "Phase 3 P3.4.5 M1 fix: Req 变量业务问答 N=10 Q1 语义自证",
        "Phase 3 P3.9 L3 + S1 fix: 3 档切换演练加子步骤 e (快速多次切换) + f (Free tier 小号实测)",
        "Phase A A5' (M2 fix): Web UI 5-source 小样上传实测"
      ]
    },
    "3_execute": {
      "status": "p3_4_5_done_ready_for_p3_5",
      "phase_a_completion_date": "2026-04-21",
      "phase_a_results": {
        "a1_pre_upload_audit": {
          "status": "PASS",
          "evidence": "dev/evidence/pre_upload_audit.md",
          "findings": "295 md (PLAN 估 293, +2 minor); total 1.58M words; max single 65K words = 13% of 500K cap; 0 outlier"
        },
        "a2_extract_req_vars": {
          "status": "PASS",
          "script": "dev/scripts/extract_req_vars.py",
          "evidence": "dev/evidence/req_vars_full_set.md (694 lines)",
          "findings": "176 独立 Req 变量 (9 通用 + 167 领域专属); PLAN 原估 100-120 偏低, 实际 176, 更全"
        },
        "a3_cluster_bucket": {
          "status": "PASS",
          "script": "dev/scripts/cluster_req_variables.py + bucket_config.json",
          "evidence_mapping": "dev/evidence/source_mapping.md",
          "evidence_manifest": "current/uploads/MANIFEST.md",
          "findings": "42 bucket (≤50 target, 8 slot headroom); 295/295 files covered; 63/63 domains; max bucket 302K words < 500K cap"
        },
        "a4_coverage_audit": {
          "status": "PASS (结构级 ∅ gap)",
          "evidence": "dev/evidence/req_vars_coverage_audit.md",
          "findings": "176/176 Req 变量结构级覆盖 (PASS condition ∀ req ∈ full_set, ∃ bucket ∈ uploads 成立)",
          "semantic_level_audit": "deferred to Phase 3 P3.4.5 (M1 fix, N=10 业务问答抽检)"
        },
        "a5_prime_webui_small_sample": {
          "status": "PASS (user tested 2026-04-21)",
          "evidence": "dev/evidence/phase_a_webui_small_sample.md",
          "findings": "用户实测 43 文件单批拖拽 OK + indexing 快 + 零失败 → P3.2 策略锁定单批"
        }
      },
      "phase_a_placeholders_to_resolve_in_phase3": [
        "bucket 02 (02_common_identifiers_and_timing.md): CLOSED 2026-04-21 P3.1 (merge_sources.py _auto_source=variable_index_common, 1,080 words 写入)",
        "bucket 42 (42_req_variable_coverage_audit.md): CLOSED 2026-04-21 P3.1 (merge_sources.py _auto_source=req_coverage_audit, 4,833 words = coverage_audit.md + full_set.md 双份)"
      ],
      "phase_3_entry_gate_status": "P3.2 done (42/42 indexed, 0 silent fail); P3.3 done (Custom mode active + H3 三档切换 VERIFIED PASS + Q-REV-1 CLOSED); F-1 CLOSED 2026-04-21; P3.4 done 2026-04-21 (42-tile 全扫 42/42 无异常 + 10 题 indexing smoke 10/10 PASS 顶阈值 + 2 non-core bucket PASS + 大 bucket 38 边界 PASS); P3.4.5 gate OPEN 无前置条件",
      "p3_1_completion": {
        "date": "2026-04-21",
        "sub_actions": {
          "bucket_config_extension": "done — bucket 02 加 _auto_source=variable_index_common; bucket 42 加 _auto_source=req_coverage_audit (替 _auto_generated=true)",
          "merge_sources_script": "done — dev/scripts/merge_sources.py (新脚本, 读 bucket_config.json 按 files[] 合成 42 个 md 源, 处理 2 个 _auto_source 特殊分支, 自动写 MANIFEST.md)",
          "uploads_generated": "done — current/uploads/*.md × 42 (1,582,085 total words, 最大 38_ct_questionnaires_part1_22.md 302K words = 60% of 500K cap)",
          "manifest_regenerated": "done — current/uploads/MANIFEST.md 真实字数 (bucket 02: 1,080 / bucket 42: 4,833, 非 0)",
          "instructions_md": "done — current/instructions.md (Chat Custom mode, 9,011 chars = 90% of 10K cap, 11% headroom; 13 behavior rules + SDTM-specific anchors: AESER=Exp / LBNRIND 全写 / NY codelist / ISO 8601 / C-code 字面 / Day 1 无 Day 0)"
        },
        "artifacts_shipped": [
          "ai_platforms/notebooklm/dev/scripts/merge_sources.py (new)",
          "ai_platforms/notebooklm/dev/scripts/bucket_config.json (modified: _auto_source fields)",
          "ai_platforms/notebooklm/current/uploads/*.md × 42 (generated/regenerated)",
          "ai_platforms/notebooklm/current/uploads/MANIFEST.md (regenerated with real words)",
          "ai_platforms/notebooklm/current/instructions.md (new, Chat Custom mode)"
        ],
        "ready_for_p3_2": true
      },
      "p3_2_completion": {
        "date": "2026-04-21",
        "executor": "user (personal Gmail bojiang.zhang.0904@gmail.com, Rule E ack) + main session Chrome MCP re-verification",
        "handoff_doc": "dev/checkpoints/CHECKPOINT_P3.2_HANDOFF.md",
        "evidence": "dev/evidence/p3_2_upload_log.md",
        "notebook_url": "https://notebooklm.google.com/notebook/3f87a93e-9a65-407e-8292-c28706fc6287",
        "notebook_name": "SDTM Knowledge Base",
        "tier": "Pro (Google AI Pro)",
        "results": {
          "upload_batch_count": 1,
          "uploaded_files": "42 / 42",
          "indexed_success": "42 / 42",
          "silent_fail_count": 0,
          "retry_count": 0,
          "source_count_cross_check": "42 locked across 3 UI surfaces (My notebooks card / Chat footer / Studio generator)",
          "tile_preview_sanity": "5 / 5 PASS (01 navigation / 29 IG ch04 / 38 CT questionnaires part1-22 302K / 42 req coverage audit / 17 fnd oncology)",
          "largest_bucket_38_boundary_test": "PASS (302K words < 500K/source cap, 60% of cap, no truncation, NotebookLM auto-generated Chinese summary confirms full indexing)",
          "chat_sanity_studyid_core": "PASS (answer contains 'Req' + inline citation [1][2]; RAG activity + Req semantic correct + citation display all PASS)"
        },
        "deviations": [
          "user initial Step 3.1 was partial / not strict per handoff; main session via Chrome MCP re-verified 5 designated tiles (incl largest bucket 38), all PASS, deviation logged transparently in evidence Step 3.1 table + 异常记录 section; does not constitute checkpoint FAIL"
        ],
        "hard_checkpoint_items_status": {
          "step_1_notebook_created": "PASS",
          "step_2_42_sources_indexed": "PASS",
          "step_3_1_tile_preview_5of5": "PASS (main session补做)",
          "step_3_2_chat_sanity_studyid": "PASS",
          "step_3_3_source_count_locked_42": "PASS"
        },
        "rule_compliance": {
          "rule_B_failures_dir_empty": true,
          "rule_D_chain_unchanged_9": "Phase 3 P3.2 is UI tool-level action, does not occupy subagent_type slot; next slot (10th) reserved for P3.4 indexing smoke deep review / Phase 4 cross-platform compare",
          "rule_E_personal_gmail_pro_webui": "PASS",
          "q1_red_line_structural_precondition_met": "42 sources all indexed — structural prerequisite for Q1 semantic validation; P3.4.5 N=10 semantic audit still pending"
        },
        "bonus_signal_for_p3_4_5": "Chat sanity question (STUDYID Core) inadvertently passed a Q1 semantic pre-sample (Core=Req + inline citation + correct semantic), increasing prior confidence for P3.4.5 N=10 audit; P3.4.5 still runs as formal anchor",
        "ready_for_p3_3": true
      },
      "p3_3_completion": {
        "date": "2026-04-21",
        "executor": "user (personal Gmail, Web UI Custom mode paste + Save + 三档切换手动实测) + main session (evidence 格式化 + WebFetch F-1 triangulation + 4 处事实回写)",
        "evidence": "dev/evidence/chat_mode_toggle_test.md",
        "test_design_deviation": "用户用同一题 (AESER Core) 跑三档作 controlled comparison (PLAN 建议 3.3 用 LBNRIND 但同题对比更纯净隔离 mode 变量, 不构成 FAIL)",
        "sub_steps": {
          "a_custom_mode_activated": "PASS (instructions.md 9,011 chars 贴入 + Save, UI 显示 Custom mode active)",
          "b_h3_toggle_verified": "PASS (UI 允许 per-chat-session 动态切 Default/LearningGuide/Custom; source set invariant 保持同 42 bucket; Custom mode 回切后 instructions.md 规则 4/5/6/12 仍生效)",
          "c_fact_writeback": "done — docs/research.md Q6 + docs/platform_profile.md §D (退化机制行 + P3.3 实测补充段) + docs/PLAN.md §3.4 表 '单 chat session 切换能力' 行 + 本 _progress.json"
        },
        "h3_assumption_verdict": "VERIFIED_PASS",
        "q_rev_1_chat_mode_closure": "CLOSED 2026-04-21 (UI 每 chat session 可动态切三档, 非 notebook 锁定)",
        "findings": {
          "F-1_ui_table_rendering": {
            "user_observation": "NotebookLM Chat UI 显示 markdown pipe-table 为一行平铺的 | 字符串, 未渲染表格",
            "webfetch_evidence": "A 级: support.google.com/notebooklm/answer/16179559 明文 'When you save a response as a note, the original format—including tables and clickable inline citations—gets saved' → UI 层原生支持表格",
            "root_cause_diagnosis": "非 UI bug, 是模型输出层 single-line malformed pipe-table (row 间缺换行), GFM renderer 不识别",
            "minimal_table_test_prompt": "列出 AE 域中 Core 属性为 Req 的 6 个变量, 每个一行, markdown 表格格式。",
            "minimal_table_test_result": "BRANCH_A_UI_RENDERS_REAL_TABLE — 用户实测 UI 真表格渲染 (列头 + 每 row 独行 + STUDYID/DOMAIN/USUBJID/AESEQ/AETERM/AEDECOD 全对 + AEDECOD CT=MedDRA + 6/6 citation [08_ev_adverse_ae.md])",
            "closure_decision": "接受偶发漂移; 不改 instructions.md (规则 4/10 本身正确, 当前 9,011/10,000 chars 已紧); P3.8 A/B 评分规则预留 F-2 '同题 retry 幂等性不强制' 条吸收 F-1 漂移",
            "status": "CLOSED 2026-04-21 (branch a 命中, P3.4 gate OPEN 无前置)"
          },
          "F-2_non_idempotent_custom_answer": {
            "observation": "Custom mode 同题 (AESER Core) × 2 次答案语义等价但细节漂移 (valid values 完整度: 4 值全 vs 仅 Y/N / 输出语言: 全英 vs 中英混)",
            "root_cause": "RAG chunk 召回顺序 + LLM 采样随机性, 非 bug",
            "mitigation": "挪 P3.8 A/B 评分规则补 '同题 retry 幂等性不强制, 按语义 PASS'",
            "status": "待 P3.8 时处理"
          }
        },
        "rule_compliance": {
          "rule_A_semantic_audit": "N/A (本步 N=3 仅 H3 证据采集, Rule A 正本在 P3.4.5 N=10 Req 业务问答)",
          "rule_B_failures_dir_empty": true,
          "rule_D_chain_unchanged_9": "Phase 3 P3.3 UI 工具级 + 主 session 事实回写, 不占 Rule D subagent_type slot; cumulative 链保持 9; next slot (10th) 仍留 P3.4 indexing smoke 深度审 / Phase 4 跨平台对比",
          "rule_E_personal_gmail_pro_webui": "PASS"
        },
        "carry_over_to_p3_4": [
          "F-1 minimal table test 用户跑 1 题后定锤, 按需微调 instructions.md Response template '每行独占一行'",
          "F-2 挪 P3.8 A/B 评分规则补 '同题 retry 幂等性不强制, 按语义 PASS'",
          "P3.4 M3 fix: indexing smoke N=10 + 至少 1 题 non-core domain; 但 F-1 未闭合前不宜启动 (citation 精度判据会被格式噪声污染)"
        ],
        "ready_for_p3_4": true,
        "f_1_closure_date": "2026-04-21"
      },
      "p3_4_completion": {
        "date": "2026-04-21",
        "executor": "cowork Claude (Chrome MCP 驱动 Web UI 全流程: 42-tile 扫描 + 10 Q&A 提交/轮询 + citation DOM 核验 `Bucket ID: N` + 评分 + evidence 落盘)",
        "evidence": "dev/evidence/indexing_smoke.md",
        "handoff_doc": "dev/checkpoints/CHECKPOINT_P3.4_HANDOFF.md",
        "prefix_commit": "2607c51",
        "execution_deviation": "原手顺假设用户在 Web UI 手动问答 + cowork 旁观评分; 本次用户明示 '这个用户做的任务也请你操作我的电脑做', cowork 直接 Chrome MCP 代跑, 题目原文未改字, citation 通过 source panel DOM (`Bucket ID: N`) 抓取非肉眼判断, 判据依据手顺 §2.2 预设; 不构成 FAIL",
        "sub_steps": {
          "a_42_tile_preview": "PASS (42/42, 0 anomaly; sg_len 274-453 全正常; 大 bucket 33/34/35/36/38/39 全无 truncation; bucket 38 = 302K words = 60% of 500K cap 绿灯)",
          "b_10_question_smoke": {
            "total_score": "10/10",
            "non_core_bucket_hits": "Q05 DD PASS (bucket 18) + Q06 SS PASS (bucket 22) — 2/2 PASS, findings_other / findings_device 合并 bucket 的 RAG 召回未被主 bucket 抢 chunk",
            "large_bucket_38_hit": "Q08 PASS (AJCC=CT questionnaires → bucket 38), 302K bucket indexing 边界绿灯, 未触 LLM context 超限, 未触 500K cap",
            "f_1_malformed_drift_count": "0/10 (本次执行全程格式整洁, minimal table test 分支 a 正常渲染状态延续)",
            "exit_verdict": "PASS (10/10, 顶阈值)"
          },
          "instructions_md_rules_incidentally_verified": [
            "规则 2 (citation 必含 bucket 源): 10/10 满足",
            "规则 5 (AESER=Exp 非 Req): Q02 明确列出边界, 不误列",
            "规则 6 (LBNRIND 全写 HIGH/LOW/NORMAL/ABNORMAL + C78736): Q03 满足",
            "规则 9 (Day 1 无 Day 0): Q04 明确否认 Day 0"
          ]
        },
        "rule_compliance": {
          "rule_A_note": "Rule A 正本在 P3.4.5 N=10 Req 业务问答 (语义级抽检); P3.4 sub (b) N=10 是 indexing smoke (RAG 精度 + citation 精度), 非 Rule A 的 '压缩/改写/语义浓度' 抽检",
          "rule_B_failures_dir_empty": true,
          "rule_D_chain_unchanged_9": "P3.4 是 UI 工具级 (Chrome MCP) + cowork 评分级动作, 不占 subagent_type slot; cumulative 链保持 9 种; 第 10 种 subagent_type slot 仍留 P3.4.5 Req 语义抽检独立 reviewer 或 Phase 4 跨平台对比",
          "rule_E_personal_gmail_pro_webui": "PASS"
        },
        "carry_over_to_p3_4_5": [
          "Q05 DD + Q06 SS non-core bucket 均 PASS → 为 P3.4.5 Req 语义抽检提供先验信心 (findings_other / findings_device 合并 bucket 的 RAG 召回能过关; 可安全取 DDTESTCD / SSTESTCD 入抽检池)",
          "Q08 大 bucket 38 PASS → 证明 302K bucket indexing 未截断, P3.4.5 可选取 questionnaires 类 (QS/FA 域) Req 变量入抽检池",
          "Q02 AE 6 Req 全集命中 → 可选更深的 AE Core 边界变量 (AESTDTC / AEENDTC) 入抽检池, 作 instructions.md 规则 5 AESER=Exp 边界的深度验证",
          "Q10 bucket 42 ∅ gap 原文命中 → 若 P3.4.5 某题失败, 可用 bucket 42 作兜底反查确认该 Req 是否真漏",
          "P3.4 post-review addendum HC-1: P3.4.5 必须派第 10 种 subagent_type 做独立 reviewer (cumulative Rule D 链扩展到 10), 补 P3.4 cowork 自评自跑的松 precedent; 推荐 oh-my-claudecode:scientist",
          "P3.4 post-review addendum HC-2: citation 判据回到 inline text 肉眼核验, 不接受 DOM panel 代替; 必须真实统计 F-1 漂移率 (P3.4 的 0/10 是 DOM 读取低估)",
          "P3.4 post-review addendum HC-3: 若抽到 QS/FA 类且预期 bucket 38/39, 必须额外打 2 个补题 (part1 头段 + 尾段 codelist), 不单题外推 302K 全 bucket 未截断",
          "P3.4 post-review addendum HC-4: cowork Chrome MCP 代跑每题原始 prompt + 原始 answer 必须全文 dump 到 p3_4_5_prompt_log.md, reviewer 审 log 不审 evidence 摘录",
          "P3.4 post-review addendum HC-5: Writer (cowork 提交 prompt + 初判) 和 Reviewer (第 10 subagent_type 终审) 分离; cowork 不锁定最终 verdict"
        ],
        "p3_4_5_entry_prerequisites_met": {
          "p3_4_sub_a_pass": true,
          "p3_4_sub_b_pass": true,
          "instructions_md_locked_post_p3_3": true,
          "f_1_closed": true,
          "f_2_deferred_to_p3_8": true,
          "all_gates_open": true
        },
        "p3_4_post_review_addendums": {
          "review_date": "2026-04-22",
          "reviewed_by": "main session (独立核验 cowork 产出)",
          "verdict": "P3.4 事实层 10/10 全真核验通过, 方法论层识别 5 条疏漏 → 全部硬约束化为 HC-1..HC-5 写入 P3.4.5 手顺",
          "addendums": {
            "HC_1_writer_reviewer_isolation": "cowork 同时代跑 Chrome MCP 和自评, Rule D 隔离松; P3.4.5 强制第 10 subagent_type reviewer",
            "HC_2_citation_inline_regression": "P3.4 citation 判据从 inline text 降级到 DOM panel Bucket ID, F-1 漂移 0/10 是低估; P3.4.5 强制 inline text 判据, 真实统计漂移率",
            "HC_3_large_bucket_multi_region": "P3.4 Q08 单题推广 '302K bucket 未截断', 断言偏强; P3.4.5 若抽到 bucket 38/39 变量, 强制多区域补题",
            "HC_4_prompt_log_required": "P3.4 '题目原文未改字' 缺原始 prompt 回显 log; P3.4.5 强制 dump 原始 prompt + 原始 answer 全文",
            "HC_5_writer_scorer_separation": "P3.4 cowork 同时做 Writer 和评分; P3.4.5 明确 cowork 只做 Writer + 初判, 终审走第 10 subagent_type"
          },
          "impact_on_rule_d_chain": "P3.4.5 起强制扩展链到 10 种, 每个 hard checkpoint 都必须有独立 reviewer, 不再允许 UI 工具级借口跳过",
          "handoff_doc_for_p3_4_5": "dev/checkpoints/CHECKPOINT_P3.4.5_HANDOFF.md (本 review 产物)"
        },
        "ready_for_p3_4_5": true
      },
      "p3_4_5_completion": {
        "date": "2026-04-22",
        "executor": "主 session (Step 1 抽题 + Step 2 设题 + Step 4 初判 + HC-3 补题设计) + 用户 (Step 3 Web UI Chat 原文问答 + 复制答案, handoff §3.1 选项 A) + oh-my-claudecode:scientist (第 10 种 subagent_type, Step 5 独立复核终审)",
        "evidence": "dev/evidence/phase3_task_P3.4.5_req_semantic_audit.md",
        "prompt_log": "dev/evidence/p3_4_5_prompt_log.md",
        "sampling_log": "dev/evidence/p3_4_5_sampling_log.md",
        "handoff_doc": "dev/checkpoints/CHECKPOINT_P3.4.5_HANDOFF.md",
        "sampled_variables": [
          "BSSEQ",
          "SRTESTCD",
          "CPTEST",
          "QSTEST",
          "FATESTCD",
          "SESTDTC",
          "SEX",
          "REFID",
          "TSPARM",
          "BETERM"
        ],
        "sampling_seed_base": 20260422,
        "sub_steps": {
          "step_1_sampling": "PASS — 分层 seed, 5 约束全达成 (non-core 5/≥3, QS/FA 2/≥2, IG ch04 2/≥1, SP 2/≥1, 无 P3.4 重复)",
          "step_2_question_design": "PASS — T1×2 + T2×6 + T3×2 均衡, 非字典查询, 业务场景驱动",
          "step_3_user_chat_qa": "PASS — 10 题 + 2 HC-3 补题全跑; 用户亲自粘贴模式; HC-4 raw prompt + raw answer 全文 dump 566 行",
          "step_4_main_session_initial_score": "8.75/10 (CONDITIONAL_PASS 初判, Q4=0.75 非标准分)",
          "step_5_scientist_reviewer": "PASS (独立复核完成, Verdict CONDITIONAL_PASS 8.5/10, 1 题分歧 Q4 主判 0.75 → Reviewer 按 handoff {1.0/0.5/0.0} 规则改 0.5, 方向一致不改 verdict)",
          "step_5_5_user_arbitration": "PASS — 用户 2026-04-22 仲裁决策 A, 采纳 Reviewer 0.5 Q4 判 + ack 进 P3.5",
          "step_6_progress_commit": "正在执行"
        },
        "final_score_after_user_arbitration": "8.5 / 10",
        "final_verdict": "CONDITIONAL_PASS",
        "semantic_hit_rate": "10 / 10 (Q1 红线语义顶阈值 PASS)",
        "citation_precision": "7 / 10 (未达 ≥9/10 硬阈值; 归因 instructions.md 规则 2 执行度漂移, 非 RAG 召回问题)",
        "f_1_real_drift_count_hc2_true_count": "8 / 10 (修正 P3.4 DOM 0/10 低估 + P3.3 F-1 CLOSED 误判; 重开 F-1-recurring)",
        "hc_3_bucket_38_multi_region": {
          "head_cdr": "PASS (bucket 38 part1_22 头段 indexing 实证, citation [38_ct_questionnaires_part1_22.md]×3)",
          "tail_mmse": "INCONCLUSIVE (MMSE 实际在 FT 域非 QS; domain 归属事件非 indexing 问题; 模型正确拒绝用户错误前提)",
          "verdict": "单区域 PASS, 不外推全 bucket (handoff §3.4 规则)"
        },
        "rule_d_chain_extension": {
          "new_subagent_type_added": "oh-my-claudecode:scientist",
          "reason_chosen": "数据/证据/统计/分布核查思维匹配 citation 精度 + 语义命中率双定量判据",
          "cumulative_chain_count": 10,
          "cumulative_chain_list": [
            "general-purpose",
            "oh-my-claudecode:verifier",
            "oh-my-claudecode:executor",
            "oh-my-claudecode:critic",
            "oh-my-claudecode:planner",
            "oh-my-claudecode:analyst",
            "feature-dev:code-architect",
            "pr-review-toolkit:code-reviewer",
            "oh-my-claudecode:architect",
            "oh-my-claudecode:scientist"
          ],
          "补_p3_4_松口子_ack": true
        },
        "q1_red_line_closure": {
          "structure_level_a4": "PASS (Phase A, 176/176 ∅ gap)",
          "semantic_level_p3_4_5": "PASS (10/10 语义命中顶阈值, citation 漂移作 carry-over)",
          "dual_anchor_closed": true,
          "caveat": "Citation 精度 7/10 未达 ≥9/10 硬阈值, 但语义层面已证 RAG 全触达 176 Req; 作 CONDITIONAL_PASS 而非 PASS"
        },
        "findings": {
          "F-1-recurring": {
            "status": "REOPENED from P3.3 CLOSED",
            "reason": "P3.3 minimal test 分支 a 是特例 (列密+全填), 不能外推全 table; 本批真实漂移 8/10",
            "mitigation": "接受模型偶发漂移, 不改 instructions.md (已 9011/10000 chars 紧); 挪 P3.8 评分规则补'同题 retry 幂等不强制 + 小表单行漂移不扣语义分'; Phase 5 Retro 关键教训"
          },
          "F-3_citation_dropout_question_type_bias_reviewer_new_finding": {
            "discovery": "oh-my-claudecode:scientist reviewer 独立发现",
            "pattern": "T2 场景驱动题 (Q2 SRTESTCD举例/Q5 FATESTCD业务场景) inline citation dropout 100%; T2 结构查询题 (Q6 SESTDTC/Q7 SEX/Q9 TSPARM) citation 完整",
            "root_cause_hypothesis": "instructions.md 规则 2 在'举例/场景'上下文被 LLM 视为次要; 非随机漂移是系统性弱点",
            "action": "挪 P3.8 记录为系统性弱点; Phase 5 Retro 关键教训; 未来 Custom mode 调优可针对性加'业务例后强制 cite source'"
          },
          "prompt_premise_correction_capability": {
            "observations": [
              "Q3: 模型修正 CP=Cell Phenotype Findings 而非 Clinical Endpoint",
              "Q8: 模型修正 RDOMAIN/RSUBJID 不在 RELSPEC (在 RELREC/RELSUB)",
              "HC-3 B: 模型修正 MMSE 在 FT 不在 QS"
            ],
            "significance": "3 处正确拒绝用户错误前提, 证明 RAG+Custom mode 防幻觉能力高; 非 yes-man"
          },
          "bucket_38_indexing_robust": "CDR citation 命中 [38_ct_questionnaires_part1_22.md], 302K 大 bucket (60% of 500K cap) indexing 未截断"
        },
        "rule_compliance": {
          "rule_A_semantic_audit": "PASS — 本步是 Rule A 正本, 10 Req × 业务问答 × 独立 reviewer, 三重闭合架构, 语义命中 10/10; citation 7/10 属 last-mile 漂移非召回失败",
          "rule_B_failures_dir_empty": true,
          "rule_D_chain_extension_to_10": "PASS — 第 10 种 scientist 补 P3.4 松口子, Writer/Reviewer/仲裁 三锚闭合",
          "rule_E_personal_gmail_pro_webui": "PASS — 用户亲自粘贴模式 (handoff §3.1 选项 A)"
        },
        "carry_over_to_p3_5_plus": [
          "[2026-04-22 v2.1 user decision]: P3.5/P3.6/P3.7 iceboxed post-project optional; below items redirected to P3.8 吸收",
          "F-1-recurring 持续跟踪 (挪 P3.8 监测小表单行漂移, 原 P3.5/3.6/3.7 监测 ICEBOX 一起冻结)",
          "P3.8 A/B 评分规则补 '同题 retry 幂等不强制 + 小表单行漂移不扣语义分'",
          "P3.8 补 1 题 bucket 38 尾段闭合 HC-3 (候选 PHQ-9/PDQ-39/PGI, 避 FT 域归属题)",
          "P3.8 记录 citation dropout T2 题型偏向 作系统性弱点 (Reviewer 新发现)",
          "docs/research.md 附录: MMSE FT 归属事件作 domain knowledge cache"
        ],
        "ready_for_p3_5": "SUPERSEDED_2026-04-22",
        "ready_for_p3_8": true
      },
      "p3_5_6_7_icebox_decision": {
        "decision_date": "2026-04-22",
        "decided_by": "user (方案 A+保留)",
        "scope": [
          "P3.5_Audio_Overview_x3",
          "P3.6_Mind_Map",
          "P3.7_Study_Guide_x3",
          "A/B_5_independent_questions_U1_to_U5"
        ],
        "status": "ICEBOX_post_project_optional",
        "non_gating": true,
        "not_counted_in_phase_3_closure": true,
        "not_counted_in_phase_4_cross_platform": true,
        "original_definitions_preserved_at": [
          "docs/PLAN.md §3.5",
          "docs/PLAN.md §4 table (ICEBOX marked)",
          "docs/PLAN.md §6 P3.5/P3.6/P3.7",
          "docs/PLAN.md §7 5 独有 (ICEBOX marked)",
          "docs/PLAN.md §10 Post-project ICEBOX subsection (trigger + reopen flow)"
        ],
        "rationale": "Studio 独有产出 (Audio/Mind Map/Study Guide) 无跨 4 平台对比价值 (Claude/ChatGPT/Gemini 均无等价功能). 问答维度 (P3.4 indexing smoke + P3.4.5 Req 语义 + P3.8 10 SMOKE v2) 才是跨平台核心比较基线. 用户全项目完成后小概率回头精雕.",
        "phase_3_time_savings": "~2.5h (P3.5/6/7 原估) + ~1h (A/B 5 独有) = ~3.5h",
        "reopen_trigger": "user proactively proposes 'return to Studio 三件套' or 'do P3.5/P3.6/P3.7 now' post Phase 5 closure",
        "reopen_flow": "read PLAN §10 Post-project ICEBOX subsection + §6 / §7 原任务定义 → new branch (不污染主 retrospective) → 生成 + 评估 → 补 RETROSPECTIVE Appendix + _template/ 新补丁候选 (若有)",
        "rule_d_chain_impact": "no subagent_type slot consumed (decision only, no artifact generation)",
        "plan_revision": "v2 → v2.1 (§0 修订记录 row added)"
      },
      "p3_8_completion": {
        "completion_date": "2026-04-22",
        "plan_revision": "v2.1 → v2.2 (P3.8 题库 smoke v2.1 → smoke v3 Q1-Q10, 对齐 ChatGPT+Gemini N5.3 Full A/B Generalization Probe)",
        "executor": "claude cowork MCP Chrome (Web UI 自动化, 用户 Google account bojiang.zhang.0904@gmail.com)",
        "execution_mode": "fresh chat per question, DOM readback, ClipboardEvent paste",
        "sanity_preflight_3q": "3/3 PASS (AESER=Exp / LBNRIND 4 全写 C78736 / CMINDC concomitant medication indication + SUPPCM)",
        "smoke_v3_executed_questions": "Q1-Q10 (双平台共用; Q11-Q14 ChatGPT 专属不适用 NotebookLM)",
        "cowork_self_score_strict": "9/10 (90%) PASS",
        "pass_threshold": "9/10 (~90%) — 达阈",
        "per_question_verdicts_cowork": {
          "Q1_A1_GF_EGFR": "PASS",
          "Q2_A2_CP_flow": "PASS",
          "Q3_A3_BE_BS_RELSPEC": "PASS (writer 判 PARTIAL on BETERM vs BECAT; main session independent review deems full PASS — KB supports BETERM as Req Topic, BECAT over-specific)",
          "Q4_B1_LB_MB_IS_boundary": "PASS (IS v3.4 scope update handled)",
          "Q5_B2_FA_QS_CE_boundary": "PASS",
          "Q6_C1_Timing_PK_TPT_quartet": "PASS (PT4H ISO 8601 duration 对)",
          "Q7_C2_Partial_date": "PASS (no imputation at SDTM, ADaM responsibility)",
          "Q8_D1_CT_extensible": "PASS",
          "Q9_E1_Pinnacle_21": "FAIL (PUNT — NotebookLM in-KB-only policy, no web search; safety-correct but generalization capability short; Phase 4 cross-platform 建议分类 'platform N/A' 计 9/9)",
          "Q10_H1_SUPP_depth_SUPPTS": "PASS+ (超 PASS 草稿标准: NotebookLM 正确指出 SUPPTS 在 SDTMIG v3.4 不存在 + TSVAL1...TSVALn 替代; PASS 判据本身有误 — SUPPTS 不是 real dataset)"
        },
        "citation_avg": "~7 per question (except Q9 PUNT=0)",
        "main_session_independent_review_findings": [
          "[FINDING 1 MINOR]: smoke_v3_results.md L21 Q1 Exp 变量清单 bookkeeping 错 — 写 GFGENSR/GFPVRID/GFGENREF 作 Exp, 但 Q1_answer.md 明标这 4 个为 Core=Perm; 实际 Exp 是 GFORRES/GFSTRESC/GFREFID/GFMETHOD (4 个), Q1 PASS 仍成立; results.md 需 cosmetic fix",
          "[FINDING 2 MEDIUM]: Q3 BETERM vs BECAT — v3.1 PASS 判据要求 BECAT, 答 BETERM; 按 SDTMIG v3.4 KB, BETERM 是 BE 域 Req Topic 变量 (vs BECAT Perm), 用 BETERM 更 canonical; 判据 over-specific; P3.8 score 不改, smoke v3.1 Q3 判据建议扩为 'BECAT 或 BETERM'",
          "[FINDING 3 HIGH 必修]: Q10 (b) 题干 + PASS 判据基于错前提 — SUPPTS 在 SDTMIG v3.4 不存在 (TS 属 Trial Design, 不用 SUPPQUAL 机制, 长 TSVAL 内部派生 TSVAL1...TSVALn); NotebookLM 答案纠错前提是 PASS+, 但若按判据字面走沿错前提会被误判 PASS; 阻塞 Phase 4 跨平台对比一致性; 必改 smoke_v3_questions_draft.md",
          "[FINDING 4 PHASE_4_SCOPING]: Q9 FAIL 是架构限制而非能力 FAIL — NotebookLM in-KB-only 对 Pinnacle 21 (无 web search fallback) 做 safety-correct punt; Phase 4 跨平台建议 Q9 重分类 'platform N/A', NotebookLM 评分 9/9; safety 维度反向是 NotebookLM 优势项, 写入 Phase 5 RETROSPECTIVE",
          "[FINDING 5 RULE_D_GAP]: main session 独立复判**不替代** Rule D 强制的 11th subagent_type 独立 reviewer; 未派, 挂至新 session (smoke v4 路线并入)"
        ],
        "user_meta_insight_2026_04_22_pm": "用户提出: Q10 暴露 smoke v3 当前盲区 — 只测'给正确前提答对', 未测'给错前提能否纠错'; 用户作为非专家常问错前提 (如把 SUPPTS 当 real dataset), 希望模型纠错而不是沿错前提幻觉; 决定 smoke v3 → v4 升级, 加 3 题 AHP (Anti-Hallucination Probe)",
        "decision_smoke_v4_design_plan": {
          "step_1_audit": "审计 smoke_v3_questions_draft.md v3.1 Q1-Q14 前提真实性 (Rule A 扩张到题库设计级, N=14)",
          "step_2_patch_q10": "强制修 Q10 (b) 题干 + 判据 (SUPPTS 不存在), smoke v3.1 → v3.2",
          "step_3_patch_audit_findings": "强制修审计发现的所有问题 (类 Q10 前提错), smoke v3.2 → v3.3",
          "step_4_add_ahp_x3": "新增 AHP1 (variable trap) + AHP2 (cross-domain trap) + AHP3 (version trap), smoke v3.3 → v4.0",
          "step_5_deprecate_v3": "ChatGPT/Gemini 已跑 smoke v3.1 结果整块标 SUPERSEDED by v4, 不回溯重评分",
          "step_6_run_v4_round_1": "4 平台 (Claude / ChatGPT / Gemini / NotebookLM) 跑 smoke v4 Round 1 baseline",
          "step_7_iterate_system_prompts": "基于 R1 FAIL 针对性改 system prompts (尤其 ChatGPT/Gemini 的 anti-hallucination 锚点) → Round 2 retest",
          "ahp_pass_philosophy": "首轮 (R1) baseline, R2 可干预 (ChatGPT/Gemini 加 anti-hallucination 锚, NotebookLM 天然 PASS); AHP FAIL 不 gate 但作 Phase 5 RETROSPECTIVE 关键维度"
        },
        "handoff_docs_new_session": [
          "ai_platforms/notebooklm/dev/checkpoints/CHECKPOINT_P3.8_HANDOFF.md (P3.8 执行手顺已完成, 留档)",
          "ai_platforms/notebooklm/dev/evidence/smoke_v3_results.md (writer self-score 9/10)",
          "ai_platforms/notebooklm/dev/evidence/smoke_v3_answers/Q1..Q10_answer.md + sanity_questions.md (答案原文)",
          "ai_platforms/archive/smoke_history/SMOKE_V4_DESIGN_HANDOFF.md (新建, smoke v4 设计任务 handoff 给新 session)"
        ],
        "rule_d_chain_extension": {
          "current_cumulative_subagent_types_count": 10,
          "11th_slot_planned_use": "smoke v4 audit agent (候选 scientist 第 10 种延伸 或 feature-dev:code-reviewer 新加入), 新 session 起",
          "p3_8_reviewer_status": "未派 (Rule D gap, 新 session 处理; 建议 oh-my-claudecode:critic 第 11 种作 P3.8 答题独立审, 或并入 smoke v4 audit agent 一起派)"
        },
        "rule_a_rule_b_rule_c_rule_e_compliance": {
          "rule_a_semantic_spot_check": "PASS (cowork 10 题执行 + main session 独立复判 cross-check 3 题深入, 发现 findings 1-5)",
          "rule_b_failure_archive": "空 (P3.8 无重跑, cowork 首答即记; Q9 punt 不算 attempt retry)",
          "rule_c_retrospective_note": "Phase 5 收束必记: (i) smoke v3 设计级盲区 (SUPPTS 错前提未被双 reviewer 抓) (ii) NotebookLM in-KB-only safety 优势项 (iii) user meta insight 引出 AHP 新维度, 作方法论演进关键 case",
          "rule_d_writer_reviewer_separation": "cowork (writer) + main session (independent reviewer first pass) + 12th subagent_type feature-dev:code-reviewer (independent reviewer final pass, 2026-04-22 PM) = GAP CLOSED. 11th slot = document-specialist 已作 smoke v3.2 audit; 12th slot = feature-dev:code-reviewer 作 P3.8 reviewer. chain cumulative 12 种.",
          "rule_e_user_priority": "PASS (personal Gmail + Pro + Web UI + 用户亲自粘贴 via cowork)"
        },
        "p3_8_reviewer_verdict_12th_slot": {
          "reviewer_date": "2026-04-22",
          "reviewer_subagent_type": "feature-dev:code-reviewer (12th slot)",
          "method": "read-only + confidence-based filter (HIGH/MEDIUM only, LOW 不报)",
          "reviewer_report_path": "ai_platforms/notebooklm/dev/evidence/p3_8_reviewer_notes.md",
          "overall_p3_8_verdict": "PASS (9/10 strict 合格阈闭合, 无降级依据)",
          "score_adjustment": "9/10 保持不动 (independent 复核与 cowork/main session 一致)",
          "rule_d_gap_closure": true,
          "rule_d_chain_cumulative_12_subagent_types": [
            "1_general_purpose_phase1",
            "2_oh-my-claudecode:verifier_phase1",
            "3_oh-my-claudecode:executor_phase1",
            "4_oh-my-claudecode:critic_phase1",
            "5_oh-my-claudecode:analyst_r3_audit_phase2",
            "6_pr-review-toolkit:code-reviewer_phase3",
            "7_feature-dev:code-architect_plan_v1_1_writer",
            "8_oh-my-claudecode:architect_plan_v2_reviewer_9th",
            "9_oh-my-claudecode:scientist_p3_4_5_reviewer_10th",
            "10_cross_chain_chatgpt_gemini_burned_aggregate",
            "11_oh-my-claudecode:document-specialist_smoke_v3_2_audit_2026-04-22_pm",
            "12_feature-dev:code-reviewer_p3_8_reviewer_2026-04-22_pm"
          ],
          "findings_verdict": {
            "finding_1_q1_exp_bookkeeping_MINOR": "评级正确 (confidence 95)",
            "finding_2_q3_beterm_becat_MEDIUM": "评级偏严 → 建议降 MINOR (confidence 80, Q3 PASS (a) v4.0 微调已做: BETERM Req canonical + BECAT Perm 可选)",
            "finding_3_q10_suppts_HIGH": "评级正确 (confidence 100), v4.0 patch 已 bundle",
            "finding_4_q9_pinnacle_21_punt_PHASE_4_SCOPING": "评级正确 (confidence 95), 架构限制非能力 FAIL",
            "finding_5_rule_d_gap_CLOSED": "本 reviewer 派出即是补 gap, 现闭合 (confidence 100)"
          },
          "new_findings_added": {
            "finding_6_q3_level_bookkeeping_MEDIUM": "Q3_answer.md L44 LEVEL=1 source / LEVEL=2 derived 语义对, 但 writer self-score 过程遗漏核验 LEVEL=1 source specimen 语义; 属 bookkeeping 盲区, 不影响 Q3 PASS (confidence 85)",
            "finding_7_q8_c_premise_correction_MEDIUM": "Q8 (c) 是 Q10 之外第二个 premise-correction 案例 — v3.1 判据本身含 misspeak 'AETERM 实际用 MedDRA', NotebookLM answer 反过来更精确 'AETERM 不绑 CDISC CT ... MedDRA 标准化编码结果存 AEDECOD'. 这是 subtle premise-correction, main session 5 findings 没独立表彰. 支持 v4.0 Q8 修 AETERM 字典绑定位置方向 + 证 NotebookLM anti-hallucination 能力不止 Q10 一例 → AHP 维度天然强势 (confidence 82)"
          },
          "rule_a_caveat": "confidence 82: Rule A 独立抽检 N 未在 PLAN v2.2 §6 P3.8 Task 明示. main session 深审实际 3/10 (30%), 在边缘. 建议 Phase 5 retro 补 'P3.8 Rule A 独立抽检 N 应 ≥ 5 (50%) 或全覆盖'. 非阻塞",
          "rule_e_caveat": "confidence 80: _progress.json p3_8_completion 块缺 structured user_ack field. 'user 口头 ack' 作 Rule D PASS 第 4 条 evidence chain 有间接 log (用户决定 smoke v3 → v4 升级证明已 ack 9/10), 但无 timestamp + text_snippet structured 记录. 补登见 p3_8_user_ack 块"
        },
        "p3_8_user_ack": {
          "ack_inferred_from_context": true,
          "ack_evidence": "用户 2026-04-22 PM session 决定 smoke v3 → v4 升级 (含 Q10 SUPPTS 前提错识别 + AHP × 3 设计) → 证 9/10 strict PASS 结果已 ack (不再要求 NotebookLM 重跑 smoke v3)",
          "ack_explicit_timestamp": null,
          "ack_note": "Rule E caveat: 建议后续 Phase 5 前补 explicit ack timestamp + text_snippet, 避免 audit 考古; 本块作 placeholder, 证据强度足以支持 Rule D PASS 第 4 条"
        }
      },
      "smoke_v4_r1_baseline_absorbed_2026_04_22_to_23": {
        "r1_executed": "2026-04-22 evening cowork, 17 questions × 4 platforms = 68 answers, results at SMOKE_V4.md §3 cross-platform matrix filled",
        "notebooklm_score": "15/17 (88.2%) = 6 PASS + 8 PASS+ + 2 PARTIAL (Q11/Q12 supplemental PUNT) + 1 PUNT (Q9 Pinnacle 21 architecture limit)",
        "notebooklm_ahp_x3_all_pass_plus_strongest_4_platforms": "AHP1/AHP2/AHP3 全 PASS+ 最强 (in-KB-only architecture natural anti-hallucination; 4 平台 ground truth 角色)",
        "phase_4_cross_platform_matrix_done_via_r1": "SMOKE_V4.md §3 17×4 verdict matrix 全填; NotebookLM Phase 4 item #3 此项消掉 via R1",
        "remaining_notebooklm_phase_4_work": "COMPLETED 2026-04-23 — P3.9 三档分享切换演练 evidence dropped at dev/evidence/share_level_toggle_drill.md v1.0 FINAL (5 PASS + 1 PARTIAL + 1 SKIP, 总 PASS)",
        "evidence_paths_added": [
          "dev/evidence/smoke_v4_results.md",
          "dev/evidence/smoke_v4_answers/Q1..Q14_answer.md + AHP1..AHP3_answer.md + sanity_*.md"
        ],
        "r1_retrospective_path": "ai_platforms/R1_RETROSPECTIVE.md (Rule C 产物, 2026-04-22 晚 11:55 PM)",
        "gemini_r2_v6_impact_on_notebooklm": "无直接影响 (NotebookLM 独立 lane, Gemini v6 改 Gemini system_prompt 不动 NotebookLM 42 sources/instructions.md); 但 R2 若 Gemini PASS, 跨 4 平台 Phase 5 RETROSPECTIVE 合流质量更强"
      },
      "p3_9_completion_2026_04_23": {
        "executor": "Daisy cowork (2026-04-23)",
        "evidence_path": "dev/evidence/share_level_toggle_drill.md (v1.0 FINAL, 主 session 根据 Daisy 6 verdicts 写)",
        "overall_verdict": "PASS (5 PASS + 1 PARTIAL + 1 SKIP, 无 FAIL)",
        "sub_step_verdicts": {
          "a_restricted_screenshot": "PASS",
          "b_anyone_with_link_b1_generate": "PASS",
          "b_anyone_with_link_b2_anonymous": "PASS (预期被要求登录)",
          "b_anyone_with_link_b3_another_google_account": "PASS (能看到 notebook)",
          "c_public_gallery_search": "PARTIAL (搜不到, 画廊只显示官方精选 Featured curated list)",
          "d_revert_restricted_old_link_revoked": "PASS (revoke 生效)",
          "e_rapid_multi_toggle_L3_fix": "PASS (无 caching 残留)",
          "f_free_tier_50_cap_S1_suggestion": "SKIP (42 sources ≤50 未触发 cap, 客观无法测, 接受残余风险)"
        },
        "meta_insight_new_finding_from_c": "Public 档 ≠ auto-list 到 public gallery. 画廊是 curated Featured list, 非 auto-listed. 实质语义: Public = 允许任何持链接者无需登录访问, 但非广播. 比 v1 3-notebook 架构时期假设的 'Public=广播' 更保守/隐私友好, 印证 D5-6 v1→v2 pivot 决策正确.",
        "H3_hypothesis_status": "VERIFIED + deepened (P3.3 初步 VERIFIED + P3.9 正式归档 + Public 语义深化 new insight)",
        "f_skip_residual_risk_acceptance": {
          "decided_by": "Daisy 2026-04-23",
          "rationale": "≤50 策略主归因 HIGH 级证据 (indexing silent fail + citation 信噪比) 独立于 Free tier cap, 不受 f SKIP 影响. 次要归因 (Free tier viewer 兼容) 维持 MEDIUM 悬置, 非 Phase 5 阻塞. 若未来 ≥51 sources 时补测.",
          "g5_5_closure_status_in_phase_5_retro": "SKIP + accepted_residual_risk (不升 A, 不证伪, 悬置)"
        },
        "phase_4_all_items_closed": true,
        "notebooklm_phase_4_sign_off_ready": true,
        "phase_5_cross_4_platform_retrospective_unblocked": "YES — NotebookLM P3.9 完成是 Phase 5 合流最后阻塞项, 现解锁"
      },
      "next_action": "P3.9 DONE 2026-04-23. **NotebookLM Phase 4 完全闭合** (3/3 items: #1 P3.8 reviewer 12th slot DONE + #2 P3.9 DONE + #3 跨 4 平台矩阵 via R1 DONE). **下一步 跨 4 平台 Phase 5 RETROSPECTIVE 合流**: (A) 主 session 灌 PHASE5_RETROSPECTIVE.md 4 处 [TBD post-P3.9] marker → 升 v0.1 DRAFT → v1.0 FINAL candidate; (B) 派 28th Rule D slot reviewer (候选 superpowers:code-reviewer 或 oh-my-claudecode:critic) 独审 FINAL retro; (C) reviewer APPROVE + Daisy ack → Phase 6.5 全 lifecycle sign-off 🎉."
    },
    "4_review": {
      "status": "READY_FOR_PHASE_5_CROSS_PLATFORM_RETROSPECTIVE_MERGE",
      "unlock_trigger": "P3.9 DONE 2026-04-23 (share_level_toggle_drill.md PASS), 跨 4 平台 retrospective 合流启动",
      "note": "NotebookLM 独立 async lane Phase 4 全链完成. Phase 5 retro 是跨 4 平台合流, 不走单平台 Phase 5, 合流入口 ai_platforms/PHASE5_RETROSPECTIVE.md"
    },
    "5_closure": {
      "status": "PENDING_PHASE_5_FINAL_AND_CROSS_PLATFORM_SIGN_OFF",
      "gate_criteria": [
        "PHASE5_RETROSPECTIVE.md v1.0 FINAL",
        "28th Rule D slot reviewer APPROVE",
        "Daisy ack",
        "ROADMAP 4 platforms 状态更新 已完成"
      ],
      "unlock_trigger_target": "cross_4_platform_phase_5_retro_finalization"
    }
  },
  "evidence_paths": {
    "platform_profile": "docs/platform_profile.md",
    "readme": "README.md",
    "roadmap": "ROADMAP.md",
    "research": "docs/research.md",
    "plan_current_v2": "docs/PLAN.md",
    "plan_v1_archived": "archive/v1_3notebook_SUPERSEDED_2026-04-21/docs/PLAN_v1_3notebook.md",
    "pivot_record": "archive/v1_3notebook_SUPERSEDED_2026-04-21/ARCHITECTURE_PIVOT_RECORD.md",
    "phase_2_v2_reviewer": "dev/evidence/phase2_v2_reviewer.md",
    "progress_this_file": "dev/evidence/_progress.json",
    "template_spec_copy": "_spec/"
  },
  "notes": [
    "异步模式: 不参与 SYNC_BOARD.md 的 ChatGPT<->Gemini 2-way 锁步",
    "Rule E ack 2026-04-21: ABC 全向 + Pro tier (via Google AI Pro) + Web UI only + personal Gmail 账号",
    "v2 架构 (2026-04-21 pivot 后): 单 notebook × ≤50 sources, ABC 三场景同 notebook 分享档位切换 (本次 Rule E ack 下)",
    "分享档位三档 (Restricted / Anyone with link / Public) 可随时切, 50-cap 仅套 Restricted invite 档",
    "≤50 sources 主归因 (证据 HIGH): indexing silent fail 风险线性降低 + citation 信噪比提升; 次归因 (证据 MEDIUM, 待 P3.9 f 闭合): Free tier viewer 兼容",
    "Q1 红线双锚: A4 结构级自证 (Phase A ∅ gap 2026-04-21) + P3.4.5 语义级自证 (Phase 3, Rule A 正本 N=10, 2026-04-22 CONDITIONAL_PASS 8.5/10, 语义 10/10 + citation 7/10)",
    "本平台对 _template/ 的 11 条补丁候选 (原 7 + pivot 新增 3: multi-notebook 决策树 / per-day rate limit / Writer 叙事合成 (拆 10a+10b))",
    "第 9 种 subagent_type (architect) Phase 2 v2 审 CONDITIONAL_PASS 84% → 全 findings 闭合后 PASS",
    "第 10 种 subagent_type (scientist) P3.4.5 审 CONDITIONAL_PASS 8.5/10 (2026-04-22, HC-1 硬约束执行, 补 P3.4 松口子, Writer/Reviewer/仲裁 三锚闭合); 新发现 F-3 citation dropout T2 题型偏向作系统性弱点",
    "F-1 状态修正 2026-04-22: P3.3 CLOSED 判断误推 minimal test 极端 case, P3.4.5 真实漂移 8/10 打脸 → 重开 F-1-recurring, Phase 5 Retro 关键教训",
    "v2.1 PLAN 修订 2026-04-22: P3.5/P3.6/P3.7 (Audio/Mind Map/Study Guide) 挪 ICEBOX post-project optional; P3.8 A/B 15→10 (仅 10 SMOKE v2), 阈值 ≥13/15 → ≥9/10 (~90%); 独有 U1-U5 随 Studio 三件套一起 ICEBOX; 归因: 独有产出无跨 4 平台对比价值, 问答才是核心; 全项目收束后小概率精雕 (见 phase_states.3_execute.p3_5_6_7_icebox_decision + PLAN §10 Post-project ICEBOX). Phase 3 总工时 -3.5h. 用户决策 A+保留."
  ],
  "known_differences_from_template": [
    {
      "dim": "D_system_prompt",
      "template_assumption": "每平台有 Custom Instructions",
      "notebooklm_reality": "无传统 system prompt, 最接近等价物是 Chat custom goals Custom mode (10K char)",
      "action": "Phase 2 v2 PLAN 用 Chat custom goals Custom 替代 system_prompt.md 累积设计 + 精选 source 的首源导航"
    },
    {
      "dim": "G_ab_matrix",
      "template_assumption": "A/B 侧重 chat-first 召回",
      "notebooklm_reality": "另有 Audio / Mind Map / Study Guide / Briefing 独有生成物",
      "action": "Phase 4 A/B 矩阵 15 题 (10 SMOKE v2 + 5 独有产出)"
    },
    {
      "dim": "H_capacity_calibration",
      "template_assumption": "容量可能不透明, 需 calibration",
      "notebooklm_reality": "官方明示 sources + words 硬指标, 透明",
      "action": "Phase 1 Q8 calibration 跳过, 只做存在性验证"
    },
    {
      "dim": "batch_design",
      "template_assumption": "渐进多批上传摸 RAG 衰减",
      "notebooklm_reality": "单 notebook × ≤50 sources 单批即够, 无 RAG 衰减曲线必要",
      "action": "Phase 3 单批上传"
    },
    {
      "dim": "multi_notebook_strategy_decision_tree",
      "template_assumption": "默认单平台单知识库",
      "notebooklm_reality": "Pro tier 500 notebooks/user, 理论上可多 notebook, 但典型场景 (ABC 三 scope 无 collaborator 互隔离需求) 1 个足够; 分享档位切换替代多 notebook",
      "action": "_template/ 新增 multi-notebook 决策树: 仅当 ABC collaborator 圈需完全隔离才升级多 notebook. 默认单 notebook"
    },
    {
      "dim": "workflow_replication_sharing",
      "template_assumption": "分享 = 链接分享",
      "notebooklm_reality": "分享可走 direct_link (同 notebook 3 档切换) 或 workflow_replication (打包 UPLOAD_TUTORIAL + uploads/ 让接收者自建复刻)",
      "action": "_template 00_platform_profile §E 加 share_mode 子段 (direct_link / workflow_replication)"
    },
    {
      "dim": "tier_naming_drift",
      "template_assumption": "SKU 命名在单次部署窗口内稳定",
      "notebooklm_reality": "NotebookLM 原 'Plus' 2025 H2 改名 'Pro', 现 Plus 另指 Google AI Plus 订阅的中档",
      "action": "_template 03_research.md Q2 加 '重命名漂移警示' 条"
    },
    {
      "dim": "writer_narrative_synthesis_pseudo_constraint_layer_1",
      "patch_id": "10a",
      "template_assumption": "writer 叙述可直接作 planner 输入",
      "notebooklm_reality": "Phase 1 v1 Q7 '两模式可叠加' 叙事被合成成 'Scope B 本质两选一' 伪约束",
      "action": "_template 03_research.md 末尾加 'Writer 立场警示' — 陈述事实 (XYZ 可叠加/可并行) 到结论 (XYZ 必须分独立) 跳跃一步必须质询; Writer self-report 段加'伪约束自查'小节"
    },
    {
      "dim": "cross_phase_retrospection_blind_spot_layer_2",
      "patch_id": "10b.1",
      "template_assumption": "Phase N Reviewer 审查焦点由前 Phase 提供 spec 决定",
      "notebooklm_reality": "v1 Phase 2 reviewer 只审 planner 推论, 不回溯质疑 research 源头叙事; 8 种 subagent_type 都没 catch 住 3 notebook 伪约束",
      "action": "_template 04_plan.md planner 接 research 时新增 '**核心约束原文回溯**' 段, 强制回 Phase 1 A 级 URL 原文对照. Reviewer 审 PLAN 时必须检查 '本 PLAN 每个硬约束是否可回溯到 Phase 1 A 级原文'"
    },
    {
      "dim": "user_counter_question_as_last_defense_layer_3",
      "patch_id": "10b.2",
      "template_assumption": "Rule D 严格 + 证据驱动 足够防架构级盲区",
      "notebooklm_reality": "v2 pivot 不是 Rule D 链胜利, 是用户 review 绕过 Rule D 直接质疑原始 research 的胜利",
      "action": "_template 04_plan.md + 06_review.md 加 'Phase 2 PASS 前用户反问 gate' — Phase 2 PASS 前主 session 必主动向用户提一次开放式反问 '本 PLAN 有没有看起来过重/过复杂/违反直觉的地方?', 作架构级盲区防线"
    }
  ],
  "ab_matrix_plan_v2": {
    "notebooks": 1,
    "per_notebook_size": 10,
    "per_notebook_size_v2_original": 15,
    "v2_1_revision_date": "2026-04-22",
    "v2_1_revision_reason": "P3.5/P3.6/P3.7 iceboxed post-project optional (user decision A+保留); 5 independent questions U1-U5 iceboxed along with them",
    "v2_2_revision_date": "2026-04-22",
    "v2_2_revision_reason": "P3.8 题库升级 smoke v2.1 → smoke v3 Q1-Q10 对齐 ChatGPT+Gemini 当前 N5.3 Full A/B Generalization Probe 以便 Phase 4 跨平台同期可比; v2.1 10 题全押 ChatGPT 04 业务弹药 §1.1-§1.10 预设 scenario (open-book), v3 故意避 04 测真 generalization 能力; 用户 2026-04-22 ack 选 A",
    "standard_questions_source": "ai_platforms/SMOKE_V4.md §2 v3.1 Q1-Q10 (双平台共用; Q11-Q14 ChatGPT 专属不适用)",
    "standard_questions_source_superseded": "ai_platforms/archive/smoke_history/SMOKE_QUESTIONS_V2.md v2.1 10 题 (v2.1 基线 SUPERSEDED 2026-04-22 v2.2, 见 plan §0 v2.2 修订记录)",
    "standard_questions_count": 10,
    "question_type_distribution_v3": {
      "A1_A2_A3_v3_4_new_domains": "Q1 GF + Q2 CP + Q3 BE+BS+RELSPEC",
      "B1_B2_domain_boundary": "Q4 LB/MB/IS + Q5 FA/QS/CE",
      "C1_C2_timing_depth": "Q6 --TPTREF combo + Q7 partial date imputation",
      "D1_CT_depth": "Q8 extensible vs non-extensible",
      "E1_field_validation": "Q9 Pinnacle 21 FAIL taxonomy",
      "H1_SUPP_depth": "Q10 QORIG/QEVAL + SUPPTS vs SUPP--"
    },
    "platform_unique_questions": {
      "status": "ICEBOX_post_project_optional_2026-04-22",
      "original_design_preserved_at_plan_section_7": true,
      "audio_overview_fidelity": 2,
      "mind_map_coverage": 2,
      "study_guide_layering": 1
    },
    "pass_threshold": "9/10 (~90%) business_correct",
    "pass_threshold_unchanged_from_v2_1": true,
    "pass_threshold_rationale_v2_2": "ChatGPT ≥10/14 (71%) 含 4 题专属且 generalization 难; Gemini ≥7/10 (70%) 因首过 v3 预留 buffer; NotebookLM 保 ≥9/10 (90%) 因 P3.4.5 已 CONDITIONAL_PASS 8.5/10 验底座稳, 不给额外 buffer (用户 2026-04-22 ack 不降)",
    "pass_threshold_v2_original": "13/15 (~87%) AND each unique generative product >=1 precise hit (SUPERSEDED 2026-04-22 v2.1)",
    "total_ab_runs": "10 题次 (1 notebook × 10 SMOKE v3 Q1-Q10; Studio 独有 U1-U5 ICEBOX non-counted; HC-3 补题若跑为第 11 题单独计不入分母)",
    "sanity_preflight_3q": [
      "AESER Core 属性 (Exp 期望; 回 Req 则底座失效停 smoke)",
      "LBNRIND submission values (HIGH/LOW/NORMAL/ABNORMAL C78736; 回 H/L/N 单字符则停 smoke)",
      "CMINDC 场景显式命名 (concomitant medication indication; 对应 N5.1 bullet)"
    ],
    "req_zero_loss_audit": {
      "structure_level_a4": "extract_req_vars.py full set + coverage audit against ≤50 sources bucket, target ∅ gap (PASS 2026-04-21)",
      "semantic_level_p3_4_5": "N=10 Req variable business Q&A test against Chat mode, 10/10 hit required (Rule A 正本, CONDITIONAL_PASS 2026-04-22 8.5/10, 语义 10/10 + citation 7/10)"
    },
    "audio_rate_limit_note": "Pro tier 20 audio/day, cross-day acceptable if retry needed (moot under v2.1 ICEBOX; kept for post-project reopen reference)",
    "p3_8_carry_over_absorbed": [
      "F-1-recurring 小表渲染监测",
      "F-2 同题 retry 幂等不强制",
      "F-3 citation dropout T2 题型偏向",
      "HC-3 bucket 38 尾段补题 (候选 PHQ-9/PDQ-39/PGI 避 FT 域) — v2.2 note: v3 Q1-Q10 无 bucket 38 专属题, HC-3 若跑作第 11 题单独计不入 ≥9/10 分母",
      "v2.2 新增: 若 FAIL 集中 Q1-Q3 v3.4 新域 (GF/CP/BE+BS), 触发 knowledge_base v3.4 新域覆盖审作 P10 归因路径 (d)"
    ]
  },
  "rule_E_user_priority": {
    "status": "acked",
    "ack_date": "2026-04-21",
    "selected_modes": [
      "A_personal_learning",
      "B_external_sharing",
      "C_audio_complement"
    ],
    "scope": "ABC 三向全覆盖",
    "plan_tier": "Pro (via Google AI Pro 订阅; 500 notebooks / 300 sources / 500 chat / 20 audio per day)",
    "api_usage": false,
    "interface": "Web UI only",
    "account_type": "personal_gmail",
    "account_ack_date": "2026-04-21",
    "scope_B_fallback": "workflow_replication (via current/UPLOAD_TUTORIAL.md + uploads/ 打包让接收者自建复刻)",
    "strategy_implication_v2": "三场景 ABC 在同一 notebook 内按分享档位切换实现 (默认 Restricted, 按需切 Anyone with link / Public), 总 1 notebook (不占多 slot). 未来若 collaborator 圈需职责隔离再评估升级多 notebook"
  },
  "architecture_pivot_log_v1_to_v2": {
    "pivot_date": "2026-04-21",
    "pivot_trigger": "user review after v1 Phase 2 PASS",
    "pivot_record_doc": "archive/v1_3notebook_SUPERSEDED_2026-04-21/ARCHITECTURE_PIVOT_RECORD.md",
    "v1_assumptions_overturned": [
      "Scope B is two-selection (Mode A invite / Mode B public link need 2 separate notebooks)",
      "Mode A 50-cap might cover Mode B (needs Phase 3 I8 test)",
      "293 sources 1:1 upload to main notebook is optimal use of Pro 300 slot"
    ],
    "v1_decisions_dropped": [
      "3 notebook architecture (main / invite / public)",
      "Notebook 1 = 293 1:1 upload",
      "353 uploads (worst case)",
      "45 A/B test runs (3 notebooks × 15)",
      "uploads_main + uploads_invite + uploads_public directory split",
      "Phase A A5 'webui batch upload capability' hard checkpoint (replaced by v2 A5' small sample test)",
      "P12 source isolation as hard rule (downgraded to informational)",
      "I8 + C2.9 Phase 3 carry-over (closed)",
      "cluster_req_variables.py target ≤30 (changed to ≤50, more headroom)",
      "Chat mode three-notebook decision (v2 single notebook, H3 assumption pending P3.3 verify)"
    ],
    "v2_assets_preserved": [
      "research.md Q1-Q6/Q8-Q10 facts (verified, unchanged)",
      "Rule D 9-subagent-type chain (extended with architect, not reset)",
      "User Q1 zero-loss + Q2 quality-first acks",
      "Rule E ack (ABC + Pro + Web UI + personal Gmail)",
      "_template patch candidates (7 retained + 4 refined/new: 5-rewrite + 10a/10b.1/10b.2 = 11 total)",
      "extract_req_vars.py + cluster_req_variables.py design intent (target slot adjusted to ≤50)"
    ],
    "v2_architectural_findings_closed_by_9th_reviewer": "see phase_states.2_plan.v2_findings_closure (HIGH×3 + MEDIUM×5 + LOW×5 + SUGGESTION×5 + Q-REV×3)"
  },
  "phase_5_sign_off": {
    "date": "2026-04-23",
    "status": "SIGNED_OFF",
    "evidence": "PHASE5_RETROSPECTIVE.md + P3.9 drill PASS + 12th Rule D reviewer feature-dev:code-reviewer",
    "daisy_ack": "2026-04-24 verbal"
  },
  "v1_1_rebuild": {
    "date": "2026-05-15",
    "status": "COMPLETE",
    "trigger": "06 deep verification branch fixes (43 KB files +1,405/-234 lines, DI domain added)",
    "evidence": ".work/07_release_v1_1/{PLAN,RETROSPECTIVE}.md + evidence/{diff_summary,rule_d_review}.md",
    "release_tag": "v1.1 + v1.1-company-release",
    "rule_d_verdict": "oh-my-claudecode:verifier ALL_PASS 5/5 (Rule A 20 grep hits zero miss + cross-platform delta oracle consistent)",
    "platform_specific": "bucket_config.json bucket 25 (td_meta_ti_ts_oi) added domains/DI/assumptions.md; 22 of 42 buckets changed"
  },
  "v1_1_audit_pass": {
    "date": "2026-05-16",
    "status": "COMPLETE",
    "trigger": "User push-back (1st: 'all 4 platform prompts + resources deeply reviewed?'; 2nd: 'any leftover tests?')",
    "evidence": ".work/07_release_v1_1/evidence/{rule_a_n20_audit,gemini_04_audit,known_limitations_reconcile}.md",
    "fixes_applied": "system_prompt 63→64 + 23 meta inheritance + KNOWN_LIMITATIONS §0 Tier B + line 141 ARMNRS C66770→C142179 typo (Gemini) + gemini 04 PC-PP RELREC §1.24b + DI in §8.5 + §9.5 FAQ + SYNC_BOARD stale header",
    "rule_a_extended": "100% PASS (124/124 grep probes, N=20 KB × 4 platforms + 22 bucket × 2 samples)",
    "platform_specific": "instructions.md STUDYID line 62: all 63 domains → all 64 domains (incl. DI SDTMIG-MD); KNOWN_LIMITATIONS § 0 added Tier B disclosure"
  }
}
