STUDYID,DOMAIN,USUBJID,EXSEQ,EXTRT,EXDOSE,EXDOSU,EXDOSFRM,EXDOSFRQ,EXROUTE,VISITNUM,VISIT,VISITDY,EXSTDTC,EXENDTC,EXSTDY,EXENDY
CDISCPILOT01,EX,01-701-1015,1.0,PLACEBO,0.0,mg,PATCH,QD,TRANSDERMAL,3.0,BASELINE,1.0,2014-01-02,2014-01-16,1.0,15.0
CDISCPILOT01,EX,01-701-1015,2.0,PLACEBO,0.0,mg,PATCH,QD,TRANSDERMAL,4.0,WEEK 2,14.0,2014-01-17,2014-06-18,16.0,168.0
CDISCPILOT01,EX,01-701-1015,3.0,PLACEBO,0.0,mg,PATCH,QD,TRANSDERMAL,12.0,WEEK 24,168.0,2014-06-19,2014-07-02,169.0,182.0
CDISCPILOT01,EX,01-701-1023,1.0,PLACEBO,0.0,mg,PATCH,QD,TRANSDERMAL,3.0,BASELINE,1.0,2012-08-05,2012-08-27,1.0,23.0
CDISCPILOT01,EX,01-701-1023,2.0,PLACEBO,0.0,mg,PATCH,QD,TRANSDERMAL,4.0,WEEK 2,14.0,2012-08-28,2012-09-01,24.0,28.0
CDISCPILOT01,EX,01-701-1028,1.0,XANOMELINE,54.0,mg,PATCH,QD,TRANSDERMAL,3.0,BASELINE,1.0,2013-07-19,2013-08-01,1.0,14.0
