{"atom_id":"ig34_p0118_a001","source":"SDTMIG v3.4 (no header footer).pdf","source_short":"ig34","page":118,"atom_index_on_page":1,"atom_type":"TABLE_HEADER","verbatim":"Visit | 1 | 2 | 3","parent_section":"§6.1.3.3 [Exposure/Exposure as Collected Examples]","heading_level":null,"sibling_index":null,"cross_refs":null,"figure_ref":null,"table_ref":null,"prompt_version":"P0_writer_pdf_v1.2+TOC_anchor+R1-R14"}
{"atom_id":"ig34_p0118_a002","source":"SDTMIG v3.4 (no header footer).pdf","source_short":"ig34","page":118,"atom_index_on_page":2,"atom_type":"TABLE_ROW","verbatim":"Intended Dose | • 10 mg/kg\n• 7.5 mg/kg | • 10 mg/kg\n• 7.5 mg/kg | • 10 mg/kg\n• 7.5 mg/kg","parent_section":"§6.1.3.3 [Exposure/Exposure as Collected Examples]","heading_level":null,"sibling_index":null,"cross_refs":null,"figure_ref":null,"table_ref":null,"prompt_version":"P0_writer_pdf_v1.2+TOC_anchor+R1-R14"}
{"atom_id":"ig34_p0118_a003","source":"SDTMIG v3.4 (no header footer).pdf","source_short":"ig34","page":118,"atom_index_on_page":3,"atom_type":"TABLE_ROW","verbatim":"Reason for Dose Adjustment | • Dose-limiting toxicity | • Dose-limiting toxicity | • Dose-limiting toxicity","parent_section":"§6.1.3.3 [Exposure/Exposure as Collected Examples]","heading_level":null,"sibling_index":null,"cross_refs":null,"figure_ref":null,"table_ref":null,"prompt_version":"P0_writer_pdf_v1.2+TOC_anchor+R1-R14"}
{"atom_id":"ig34_p0118_a004","source":"SDTMIG v3.4 (no header footer).pdf","source_short":"ig34","page":118,"atom_index_on_page":4,"atom_type":"TABLE_ROW","verbatim":"Dose Administered | • Yes\n• No\nIf no, give reason:\n• Treatment discontinued due to disease progression\n• Other, specify: ________________________ | • Yes\n• No\nIf no, give reason:\n• Treatment discontinued due to disease progression\n• Other, specify: ________________________ | • Yes\n• No\nIf no, give reason:\n• Treatment discontinued due to disease progression\n• Other, specify: Personal reason","parent_section":"§6.1.3.3 [Exposure/Exposure as Collected Examples]","heading_level":null,"sibling_index":null,"cross_refs":null,"figure_ref":null,"table_ref":null,"prompt_version":"P0_writer_pdf_v1.2+TOC_anchor+R1-R14"}
{"atom_id":"ig34_p0118_a005","source":"SDTMIG v3.4 (no header footer).pdf","source_short":"ig34","page":118,"atom_index_on_page":5,"atom_type":"TABLE_ROW","verbatim":"Date | 13-FEB-2009 | 20-FEB-2009 | 27-FEB-2009","parent_section":"§6.1.3.3 [Exposure/Exposure as Collected Examples]","heading_level":null,"sibling_index":null,"cross_refs":null,"figure_ref":null,"table_ref":null,"prompt_version":"P0_writer_pdf_v1.2+TOC_anchor+R1-R14"}
{"atom_id":"ig34_p0118_a006","source":"SDTMIG v3.4 (no header footer).pdf","source_short":"ig34","page":118,"atom_index_on_page":6,"atom_type":"TABLE_ROW","verbatim":"Start Time (24 hour clock) | 10:00 | 11:00 | | |","parent_section":"§6.1.3.3 [Exposure/Exposure as Collected Examples]","heading_level":null,"sibling_index":null,"cross_refs":null,"figure_ref":null,"table_ref":null,"prompt_version":"P0_writer_pdf_v1.2+TOC_anchor+R1-R14"}
{"atom_id":"ig34_p0118_a007","source":"SDTMIG v3.4 (no header footer).pdf","source_short":"ig34","page":118,"atom_index_on_page":7,"atom_type":"TABLE_ROW","verbatim":"End Time (24 hour clock) | 10:45 | 11:20 | | |","parent_section":"§6.1.3.3 [Exposure/Exposure as Collected Examples]","heading_level":null,"sibling_index":null,"cross_refs":null,"figure_ref":null,"table_ref":null,"prompt_version":"P0_writer_pdf_v1.2+TOC_anchor+R1-R14"}
{"atom_id":"ig34_p0118_a008","source":"SDTMIG v3.4 (no header footer).pdf","source_short":"ig34","page":118,"atom_index_on_page":8,"atom_type":"TABLE_ROW","verbatim":"Amount (mL) | 99 mL | 35 mL | 0 mL","parent_section":"§6.1.3.3 [Exposure/Exposure as Collected Examples]","heading_level":null,"sibling_index":null,"cross_refs":null,"figure_ref":null,"table_ref":null,"prompt_version":"P0_writer_pdf_v1.2+TOC_anchor+R1-R14"}
{"atom_id":"ig34_p0118_a009","source":"SDTMIG v3.4 (no header footer).pdf","source_short":"ig34","page":118,"atom_index_on_page":9,"atom_type":"TABLE_ROW","verbatim":"Concentration | 5.5 mg/mL | 4.12 mg/mL | 4.12 mg/mL","parent_section":"§6.1.3.3 [Exposure/Exposure as Collected Examples]","heading_level":null,"sibling_index":null,"cross_refs":null,"figure_ref":null,"table_ref":null,"prompt_version":"P0_writer_pdf_v1.2+TOC_anchor+R1-R14"}
{"atom_id":"ig34_p0118_a010","source":"SDTMIG v3.4 (no header footer).pdf","source_short":"ig34","page":118,"atom_index_on_page":10,"atom_type":"TABLE_ROW","verbatim":"If dose was adjusted, what was the reason: | • Injection site reaction\n• Adverse event\n• Other, specify: ______________________ | • Injection site reaction\n• Adverse event\n• Other, specify: ____________________ | • Injection site reaction\n• Adverse event\n• Other, specify: ______________________","parent_section":"§6.1.3.3 [Exposure/Exposure as Collected Examples]","heading_level":null,"sibling_index":null,"cross_refs":null,"figure_ref":null,"table_ref":null,"prompt_version":"P0_writer_pdf_v1.2+TOC_anchor+R1-R14"}
{"atom_id":"ig34_p0118_a011","source":"SDTMIG v3.4 (no header footer).pdf","source_short":"ig34","page":118,"atom_index_on_page":11,"atom_type":"SENTENCE","verbatim":"The EC dataset shows both intended and actual doses of Drug Z, as collected.","parent_section":"§6.1.3.3 [Exposure/Exposure as Collected Examples]","heading_level":null,"sibling_index":null,"cross_refs":null,"figure_ref":null,"table_ref":null,"prompt_version":"P0_writer_pdf_v1.2+TOC_anchor+R1-R14"}
{"atom_id":"ig34_p0118_a012","source":"SDTMIG v3.4 (no header footer).pdf","source_short":"ig34","page":118,"atom_index_on_page":12,"atom_type":"SENTENCE","verbatim":"Rows 1, 3, 5: Show the collected intended dose levels (mg/kg) and ECMOOD is \"SCHEDULED\". Scheduled dose is represented in mg/mL.","parent_section":"§6.1.3.3 [Exposure/Exposure as Collected Examples]","heading_level":null,"sibling_index":null,"cross_refs":null,"figure_ref":null,"table_ref":null,"prompt_version":"P0_writer_pdf_v1.2+TOC_anchor+R1-R14"}
{"atom_id":"ig34_p0118_a013","source":"SDTMIG v3.4 (no header footer).pdf","source_short":"ig34","page":118,"atom_index_on_page":13,"atom_type":"SENTENCE","verbatim":"Rows 2, 4: Show the collected actual administration amounts (mL) and ECMOOD is \"PERFORMED\". Actual doses are represented using dose in mL and concentration (pharmaceutical strength) in mg/mL.","parent_section":"§6.1.3.3 [Exposure/Exposure as Collected Examples]","heading_level":null,"sibling_index":null,"cross_refs":null,"figure_ref":null,"table_ref":null,"prompt_version":"P0_writer_pdf_v1.2+TOC_anchor+R1-R14"}
{"atom_id":"ig34_p0118_a014","source":"SDTMIG v3.4 (no header footer).pdf","source_short":"ig34","page":118,"atom_index_on_page":14,"atom_type":"SENTENCE","verbatim":"Row 6: Shows a dose that was not given. ECREASOC shows the reason that ECOCCUR = \"N\", and ECDOSE is null.","parent_section":"§6.1.3.3 [Exposure/Exposure as Collected Examples]","heading_level":null,"sibling_index":null,"cross_refs":null,"figure_ref":null,"table_ref":null,"prompt_version":"P0_writer_pdf_v1.2+TOC_anchor+R1-R14"}
{"atom_id":"ig34_p0118_a015","source":"SDTMIG v3.4 (no header footer).pdf","source_short":"ig34","page":118,"atom_index_on_page":15,"atom_type":"CODE_LITERAL","verbatim":"ec.xpt","parent_section":"§6.1.3.3 [Exposure/Exposure as Collected Examples]","heading_level":null,"sibling_index":null,"cross_refs":null,"figure_ref":null,"table_ref":null,"prompt_version":"P0_writer_pdf_v1.2+TOC_anchor+R1-R14"}
{"atom_id":"ig34_p0118_a016","source":"SDTMIG v3.4 (no header footer).pdf","source_short":"ig34","page":118,"atom_index_on_page":16,"atom_type":"TABLE_HEADER","verbatim":"Row | STUDYID | DOMAIN | USUBJID | ECSEQ | ECLNKID | ECLNKGRP | ECTRT | ECMOOD | ECPRESP | ECOCCUR | ECREASOC | ECDOSE | ECDOSU | ECPSTRG | ECPSTRGU | ECADJ | VISITNUM | VISIT | EPOCH | ECSTDTC | ECENDTC | ECSTDY | ECENDY","parent_section":"§6.1.3.3 [Exposure/Exposure as Collected Examples]","heading_level":null,"sibling_index":null,"cross_refs":null,"figure_ref":null,"table_ref":"ec.xpt","prompt_version":"P0_writer_pdf_v1.2+TOC_anchor+R1-R14"}
{"atom_id":"ig34_p0118_a017","source":"SDTMIG v3.4 (no header footer).pdf","source_short":"ig34","page":118,"atom_index_on_page":17,"atom_type":"TABLE_ROW","verbatim":"1 | ABC123 | EC | ABC123-\n0201 | 1 | | V1 | DRUG\nZ | SCHEDULED | | | | 10 | mg/kg | | | | 1 | VISIT\n1 | TREATMENT | 2009-02-13 | 2009-02-13 | 1 | 1","parent_section":"§6.1.3.3 [Exposure/Exposure as Collected Examples]","heading_level":null,"sibling_index":null,"cross_refs":null,"figure_ref":null,"table_ref":"ec.xpt","prompt_version":"P0_writer_pdf_v1.2+TOC_anchor+R1-R14"}
{"atom_id":"ig34_p0118_a018","source":"SDTMIG v3.4 (no header footer).pdf","source_short":"ig34","page":118,"atom_index_on_page":18,"atom_type":"TABLE_ROW","verbatim":"2 | ABC123 | EC | ABC123-\n0201 | 2 | 20090213\nT1000 | V1 | DRUG\nZ | PERFORMED | Y | Y | | 99 | mL | 5.5 | mg/mL | | 1 | VISIT\n1 | TREATMENT | 2009-02-\n13T10:00 | 2009-02-\n13T10:45 | 1 | 1","parent_section":"§6.1.3.3 [Exposure/Exposure as Collected Examples]","heading_level":null,"sibling_index":null,"cross_refs":null,"figure_ref":null,"table_ref":"ec.xpt","prompt_version":"P0_writer_pdf_v1.2+TOC_anchor+R1-R14"}
{"atom_id":"ig34_p0118_a019","source":"SDTMIG v3.4 (no header footer).pdf","source_short":"ig34","page":118,"atom_index_on_page":19,"atom_type":"TABLE_ROW","verbatim":"3 | ABC123 | EC | ABC123-\n0201 | 3 | | V2 | DRUG\nZ | SCHEDULED | | | | 7.5 | mg/kg | | | Dose\nlimiting\ntoxicity | 2 | VISIT\n2 | TREATMENT | 2009-02-20 | 2009-02-20 | 8 | 8","parent_section":"§6.1.3.3 [Exposure/Exposure as Collected Examples]","heading_level":null,"sibling_index":null,"cross_refs":null,"figure_ref":null,"table_ref":"ec.xpt","prompt_version":"P0_writer_pdf_v1.2+TOC_anchor+R1-R14"}
{"atom_id":"ig34_p0118_a020","source":"SDTMIG v3.4 (no header footer).pdf","source_short":"ig34","page":118,"atom_index_on_page":20,"atom_type":"TABLE_ROW","verbatim":"4 | ABC123 | EC | ABC123-\n0201 | 4 | 20090220\nT1100 | V2 | DRUG\nZ | PERFORMED | Y | Y | | 35 | mL | 4.12 | mg/mL | | 2 | VISIT\n2 | TREATMENT | 2009-02-\n20T11:00 | 2009-02-\n20T11:20 | 8 | 8","parent_section":"§6.1.3.3 [Exposure/Exposure as Collected Examples]","heading_level":null,"sibling_index":null,"cross_refs":null,"figure_ref":null,"table_ref":"ec.xpt","prompt_version":"P0_writer_pdf_v1.2+TOC_anchor+R1-R14"}
{"atom_id":"ig34_p0118_a021","source":"SDTMIG v3.4 (no header footer).pdf","source_short":"ig34","page":118,"atom_index_on_page":21,"atom_type":"TABLE_ROW","verbatim":"5 | ABC123 | EC | ABC123-\n0201 | 5 | | V3 | DRUG\nZ | SCHEDULED | | | | 7.5 | mg/kg | | | | 3 | VISIT\n3 | TREATMENT | 2009-02-27 | 2009-02-27 | 15 | 15","parent_section":"§6.1.3.3 [Exposure/Exposure as Collected Examples]","heading_level":null,"sibling_index":null,"cross_refs":null,"figure_ref":null,"table_ref":"ec.xpt","prompt_version":"P0_writer_pdf_v1.2+TOC_anchor+R1-R14"}
{"atom_id":"ig34_p0118_a022","source":"SDTMIG v3.4 (no header footer).pdf","source_short":"ig34","page":118,"atom_index_on_page":22,"atom_type":"TABLE_ROW","verbatim":"6 | ABC123 | EC | ABC123-\n0201 | 6 | 20090227 | V3 | DRUG\nZ | PERFORMED | Y | N | PERSONAL\nREASON | | mL | 4.12 | mg/mL | | 3 | VISIT\n3 | TREATMENT | 2009-02-27 | 2009-02-27 | 15 | 15","parent_section":"§6.1.3.3 [Exposure/Exposure as Collected Examples]","heading_level":null,"sibling_index":null,"cross_refs":null,"figure_ref":null,"table_ref":"ec.xpt","prompt_version":"P0_writer_pdf_v1.2+TOC_anchor+R1-R14"}
{"atom_id":"ig34_p0118_a023","source":"SDTMIG v3.4 (no header footer).pdf","source_short":"ig34","page":118,"atom_index_on_page":23,"atom_type":"SENTENCE","verbatim":"The EX dataset shows the administrations in protocol-specified unit (mg/kg). There is no record for the intended third dose that was not given. Intended doses in EC (records with ECMOOD = \"SCHEDULED\") can be compared with actual doses in EX.","parent_section":"§6.1.3.3 [Exposure/Exposure as Collected Examples]","heading_level":null,"sibling_index":null,"cross_refs":null,"figure_ref":null,"table_ref":null,"prompt_version":"P0_writer_pdf_v1.2+TOC_anchor+R1-R14"}
{"atom_id":"ig34_p0118_a024","source":"SDTMIG v3.4 (no header footer).pdf","source_short":"ig34","page":118,"atom_index_on_page":24,"atom_type":"SENTENCE","verbatim":"Row 1: Shows the subject's first dose.","parent_section":"§6.1.3.3 [Exposure/Exposure as Collected Examples]","heading_level":null,"sibling_index":null,"cross_refs":null,"figure_ref":null,"table_ref":null,"prompt_version":"P0_writer_pdf_v1.2+TOC_anchor+R1-R14"}
{"atom_id":"ig34_p0118_a025","source":"SDTMIG v3.4 (no header footer).pdf","source_short":"ig34","page":118,"atom_index_on_page":25,"atom_type":"SENTENCE","verbatim":"Row 2: Shows the subject's second dose. The collected explanation for the adjusted dose amount administered at visit 2 is in EXADJ.","parent_section":"§6.1.3.3 [Exposure/Exposure as Collected Examples]","heading_level":null,"sibling_index":null,"cross_refs":null,"figure_ref":null,"table_ref":null,"prompt_version":"P0_writer_pdf_v1.2+TOC_anchor+R1-R14"}
