{"atom_id":"ig34_p0166_a0001","atom_type":"CODE_LITERAL","verbatim":"te.xpt","parent_section":"§6.2.4 Disposition (DS)","heading_level":null,"sibling_index":null,"page":166,"extracted_by":{"agent":"oh-my-claudecode:executor","prompt_version":"P0_writer_pdf_v1.2_inline_R10-15_O26_NEW1-7_OptionE","rerun_reason":"writer_17b_corruption_p166_167"}}
{"atom_id":"ig34_p0166_a0002","atom_type":"TABLE_HEADER","verbatim":"| Row | STUDYID | DOMAIN | ETCD | ELEMENT | TESTRL | TEENRL | TEDUR |","parent_section":"§6.2.4 Disposition (DS)","heading_level":null,"sibling_index":null,"page":166,"extracted_by":{"agent":"oh-my-claudecode:executor","prompt_version":"P0_writer_pdf_v1.2_inline_R10-15_O26_NEW1-7_OptionE","rerun_reason":"writer_17b_corruption_p166_167"}}
{"atom_id":"ig34_p0166_a0003","atom_type":"TABLE_ROW","verbatim":"| 1 | DS10 | TE | SCRN | Screen | Informed Consent | Screening assessments are complete, up to 2 weeks after start of Element | |","parent_section":"§6.2.4 Disposition (DS)","heading_level":null,"sibling_index":null,"page":166,"extracted_by":{"agent":"oh-my-claudecode:executor","prompt_version":"P0_writer_pdf_v1.2_inline_R10-15_O26_NEW1-7_OptionE","rerun_reason":"writer_17b_corruption_p166_167"}}
{"atom_id":"ig34_p0166_a0004","atom_type":"TABLE_ROW","verbatim":"| 2 | DS10 | TE | AB | Trt AB | First dose of treatment Element, where treatment is AB | 4 weeks after start of Element | P4W |","parent_section":"§6.2.4 Disposition (DS)","heading_level":null,"sibling_index":null,"page":166,"extracted_by":{"agent":"oh-my-claudecode:executor","prompt_version":"P0_writer_pdf_v1.2_inline_R10-15_O26_NEW1-7_OptionE","rerun_reason":"writer_17b_corruption_p166_167"}}
{"atom_id":"ig34_p0166_a0005","atom_type":"TABLE_ROW","verbatim":"| 3 | DS10 | TE | ABC | Trt ABC | First dose of treatment Element, where treatment AB +C | 4 weeks after start of Element | P4W |","parent_section":"§6.2.4 Disposition (DS)","heading_level":null,"sibling_index":null,"page":166,"extracted_by":{"agent":"oh-my-claudecode:executor","prompt_version":"P0_writer_pdf_v1.2_inline_R10-15_O26_NEW1-7_OptionE","rerun_reason":"writer_17b_corruption_p166_167"}}
{"atom_id":"ig34_p0166_a0006","atom_type":"TABLE_ROW","verbatim":"| 4 | DS10 | TE | FU | Follow-up | Four weeks after start of last treatment element | Death, withdrawal of consent, or loss to follow-up. | |","parent_section":"§6.2.4 Disposition (DS)","heading_level":null,"sibling_index":null,"page":166,"extracted_by":{"agent":"oh-my-claudecode:executor","prompt_version":"P0_writer_pdf_v1.2_inline_R10-15_O26_NEW1-7_OptionE","rerun_reason":"writer_17b_corruption_p166_167"}}
{"atom_id":"ig34_p0166_a0007","atom_type":"SENTENCE","verbatim":"The TA dataset shows the trial design.","parent_section":"§6.2.4 Disposition (DS)","heading_level":null,"sibling_index":null,"page":166,"extracted_by":{"agent":"oh-my-claudecode:executor","prompt_version":"P0_writer_pdf_v1.2_inline_R10-15_O26_NEW1-7_OptionE","rerun_reason":"writer_17b_corruption_p166_167"}}
{"atom_id":"ig34_p0166_a0008","atom_type":"SENTENCE","verbatim":"The sponsor chose to number elements starting with zero for the screening element.","parent_section":"§6.2.4 Disposition (DS)","heading_level":null,"sibling_index":null,"page":166,"extracted_by":{"agent":"oh-my-claudecode:executor","prompt_version":"P0_writer_pdf_v1.2_inline_R10-15_O26_NEW1-7_OptionE","rerun_reason":"writer_17b_corruption_p166_167"}}
{"atom_id":"ig34_p0166_a0009","atom_type":"SENTENCE","verbatim":"For the AB arm, the TAETORD values match the cycle numbers.","parent_section":"§6.2.4 Disposition (DS)","heading_level":null,"sibling_index":null,"page":166,"extracted_by":{"agent":"oh-my-claudecode:executor","prompt_version":"P0_writer_pdf_v1.2_inline_R10-15_O26_NEW1-7_OptionE","rerun_reason":"writer_17b_corruption_p166_167"}}
{"atom_id":"ig34_p0166_a0010","atom_type":"SENTENCE","verbatim":"For the ABC arm, if drug C is dropped, the subject may transition to an AB element or follow-up.","parent_section":"§6.2.4 Disposition (DS)","heading_level":null,"sibling_index":null,"page":166,"extracted_by":{"agent":"oh-my-claudecode:executor","prompt_version":"P0_writer_pdf_v1.2_inline_R10-15_O26_NEW1-7_OptionE","rerun_reason":"writer_17b_corruption_p166_167"}}
{"atom_id":"ig34_p0166_a0011","atom_type":"SENTENCE","verbatim":"TAETORD values are not chronological for this arm such that elements with TAETORD values of \"2\" or \"5\" would be during \"Cycle 2\", elements with TAETORD values of \"3\" or \"6\" would be during \"Cycle 3\", and elements with TAETORD values of \"4\" or \"7\" would be during \"Cycle 4\".","parent_section":"§6.2.4 Disposition (DS)","heading_level":null,"sibling_index":null,"page":166,"extracted_by":{"agent":"oh-my-claudecode:executor","prompt_version":"P0_writer_pdf_v1.2_inline_R10-15_O26_NEW1-7_OptionE","rerun_reason":"writer_17b_corruption_p166_167"}}
{"atom_id":"ig34_p0166_a0012","atom_type":"CODE_LITERAL","verbatim":"ta.xpt","parent_section":"§6.2.4 Disposition (DS)","heading_level":null,"sibling_index":null,"page":166,"extracted_by":{"agent":"oh-my-claudecode:executor","prompt_version":"P0_writer_pdf_v1.2_inline_R10-15_O26_NEW1-7_OptionE","rerun_reason":"writer_17b_corruption_p166_167"}}
{"atom_id":"ig34_p0166_a0013","atom_type":"TABLE_HEADER","verbatim":"| Row | STUDYID | DOMAIN | ARMCD | ARM | TAETORD | ETCD | ELEMENT | TABRANCH | TATRANS | EPOCH |","parent_section":"§6.2.4 Disposition (DS)","heading_level":null,"sibling_index":null,"page":166,"extracted_by":{"agent":"oh-my-claudecode:executor","prompt_version":"P0_writer_pdf_v1.2_inline_R10-15_O26_NEW1-7_OptionE","rerun_reason":"writer_17b_corruption_p166_167"}}
{"atom_id":"ig34_p0166_a0014","atom_type":"TABLE_ROW","verbatim":"| 1 | DS10 | TA | AB | AB | 0 | SCRN | Screen | Randomized to AB | | SCREENING |","parent_section":"§6.2.4 Disposition (DS)","heading_level":null,"sibling_index":null,"page":166,"extracted_by":{"agent":"oh-my-claudecode:executor","prompt_version":"P0_writer_pdf_v1.2_inline_R10-15_O26_NEW1-7_OptionE","rerun_reason":"writer_17b_corruption_p166_167"}}
{"atom_id":"ig34_p0166_a0015","atom_type":"TABLE_ROW","verbatim":"| 2 | DS10 | TA | AB | AB | 1 | AB | Trt AB | | If disease progression, go to follow-up epoch. | TREATMENT |","parent_section":"§6.2.4 Disposition (DS)","heading_level":null,"sibling_index":null,"page":166,"extracted_by":{"agent":"oh-my-claudecode:executor","prompt_version":"P0_writer_pdf_v1.2_inline_R10-15_O26_NEW1-7_OptionE","rerun_reason":"writer_17b_corruption_p166_167"}}
{"atom_id":"ig34_p0166_a0016","atom_type":"TABLE_ROW","verbatim":"| 3 | DS10 | TA | AB | AB | 2 | AB | Trt AB | | If disease progression, go to follow-up epoch. | TREATMENT |","parent_section":"§6.2.4 Disposition (DS)","heading_level":null,"sibling_index":null,"page":166,"extracted_by":{"agent":"oh-my-claudecode:executor","prompt_version":"P0_writer_pdf_v1.2_inline_R10-15_O26_NEW1-7_OptionE","rerun_reason":"writer_17b_corruption_p166_167"}}
{"atom_id":"ig34_p0166_a0017","atom_type":"TABLE_ROW","verbatim":"| 4 | DS10 | TA | AB | AB | 3 | AB | Trt AB | | If disease progression, go to follow-up epoch. | TREATMENT |","parent_section":"§6.2.4 Disposition (DS)","heading_level":null,"sibling_index":null,"page":166,"extracted_by":{"agent":"oh-my-claudecode:executor","prompt_version":"P0_writer_pdf_v1.2_inline_R10-15_O26_NEW1-7_OptionE","rerun_reason":"writer_17b_corruption_p166_167"}}
{"atom_id":"ig34_p0166_a0018","atom_type":"TABLE_ROW","verbatim":"| 5 | DS10 | TA | AB | AB | 4 | AB | Trt AB | | | TREATMENT |","parent_section":"§6.2.4 Disposition (DS)","heading_level":null,"sibling_index":null,"page":166,"extracted_by":{"agent":"oh-my-claudecode:executor","prompt_version":"P0_writer_pdf_v1.2_inline_R10-15_O26_NEW1-7_OptionE","rerun_reason":"writer_17b_corruption_p166_167"}}
{"atom_id":"ig34_p0166_a0019","atom_type":"TABLE_ROW","verbatim":"| 6 | DS10 | TA | AB | AB | 5 | FU | Follow-up | | | FOLLOW-UP |","parent_section":"§6.2.4 Disposition (DS)","heading_level":null,"sibling_index":null,"page":166,"extracted_by":{"agent":"oh-my-claudecode:executor","prompt_version":"P0_writer_pdf_v1.2_inline_R10-15_O26_NEW1-7_OptionE","rerun_reason":"writer_17b_corruption_p166_167"}}
{"atom_id":"ig34_p0166_a0020","atom_type":"TABLE_ROW","verbatim":"| 7 | DS10 | TA | ABC | ABC | 0 | SCRN | Screen | Randomized to ABC | | SCREENING |","parent_section":"§6.2.4 Disposition (DS)","heading_level":null,"sibling_index":null,"page":166,"extracted_by":{"agent":"oh-my-claudecode:executor","prompt_version":"P0_writer_pdf_v1.2_inline_R10-15_O26_NEW1-7_OptionE","rerun_reason":"writer_17b_corruption_p166_167"}}
{"atom_id":"ig34_p0166_a0021","atom_type":"TABLE_ROW","verbatim":"| 8 | DS10 | TA | ABC | ABC | 1 | ABC | Trt ABC | | If disease progression, go to follow-up epoch. If drug C is dropped, go to element with TAETORD = \"5\". | TREATMENT |","parent_section":"§6.2.4 Disposition (DS)","heading_level":null,"sibling_index":null,"page":166,"extracted_by":{"agent":"oh-my-claudecode:executor","prompt_version":"P0_writer_pdf_v1.2_inline_R10-15_O26_NEW1-7_OptionE","rerun_reason":"writer_17b_corruption_p166_167"}}
{"atom_id":"ig34_p0166_a0022","atom_type":"TABLE_ROW","verbatim":"| 9 | DS10 | TA | ABC | ABC | 2 | ABC | Trt ABC | | If disease progression, go to follow-up epoch. If drug C is dropped, go to element with TAETORD = \"6\". | TREATMENT |","parent_section":"§6.2.4 Disposition (DS)","heading_level":null,"sibling_index":null,"page":166,"extracted_by":{"agent":"oh-my-claudecode:executor","prompt_version":"P0_writer_pdf_v1.2_inline_R10-15_O26_NEW1-7_OptionE","rerun_reason":"writer_17b_corruption_p166_167"}}
{"atom_id":"ig34_p0166_a0023","atom_type":"TABLE_ROW","verbatim":"| 10 | DS10 | TA | ABC | ABC | 3 | ABC | Trt ABC | | If disease progression, go to follow-up epoch. If drug C is dropped, go to element with TAETORD = \"7\". | TREATMENT |","parent_section":"§6.2.4 Disposition (DS)","heading_level":null,"sibling_index":null,"page":166,"extracted_by":{"agent":"oh-my-claudecode:executor","prompt_version":"P0_writer_pdf_v1.2_inline_R10-15_O26_NEW1-7_OptionE","rerun_reason":"writer_17b_corruption_p166_167"}}
{"atom_id":"ig34_p0166_a0024","atom_type":"TABLE_ROW","verbatim":"| 11 | DS10 | TA | ABC | ABC | 4 | ABC | Trt ABC | | Go to follow-up epoch. | TREATMENT |","parent_section":"§6.2.4 Disposition (DS)","heading_level":null,"sibling_index":null,"page":166,"extracted_by":{"agent":"oh-my-claudecode:executor","prompt_version":"P0_writer_pdf_v1.2_inline_R10-15_O26_NEW1-7_OptionE","rerun_reason":"writer_17b_corruption_p166_167"}}
{"atom_id":"ig34_p0166_a0025","atom_type":"TABLE_ROW","verbatim":"| 12 | DS10 | TA | ABC | ABC | 5 | AB | Trt AB | | | TREATMENT |","parent_section":"§6.2.4 Disposition (DS)","heading_level":null,"sibling_index":null,"page":166,"extracted_by":{"agent":"oh-my-claudecode:executor","prompt_version":"P0_writer_pdf_v1.2_inline_R10-15_O26_NEW1-7_OptionE","rerun_reason":"writer_17b_corruption_p166_167"}}
{"atom_id":"ig34_p0166_a0026","atom_type":"TABLE_ROW","verbatim":"| 13 | DS10 | TA | ABC | ABC | 6 | AB | Trt AB | | | TREATMENT |","parent_section":"§6.2.4 Disposition (DS)","heading_level":null,"sibling_index":null,"page":166,"extracted_by":{"agent":"oh-my-claudecode:executor","prompt_version":"P0_writer_pdf_v1.2_inline_R10-15_O26_NEW1-7_OptionE","rerun_reason":"writer_17b_corruption_p166_167"}}
{"atom_id":"ig34_p0166_a0027","atom_type":"TABLE_ROW","verbatim":"| 14 | DS10 | TA | ABC | ABC | 7 | AB | Trt AB | | | TREATMENT |","parent_section":"§6.2.4 Disposition (DS)","heading_level":null,"sibling_index":null,"page":166,"extracted_by":{"agent":"oh-my-claudecode:executor","prompt_version":"P0_writer_pdf_v1.2_inline_R10-15_O26_NEW1-7_OptionE","rerun_reason":"writer_17b_corruption_p166_167"}}
{"atom_id":"ig34_p0166_a0028","atom_type":"TABLE_ROW","verbatim":"| 15 | DS10 | TA | ABC | ABC | 8 | FU | Follow-up | | | FOLLOW-UP |","parent_section":"§6.2.4 Disposition (DS)","heading_level":null,"sibling_index":null,"page":166,"extracted_by":{"agent":"oh-my-claudecode:executor","prompt_version":"P0_writer_pdf_v1.2_inline_R10-15_O26_NEW1-7_OptionE","rerun_reason":"writer_17b_corruption_p166_167"}}
{"atom_id":"ig34_p0166_a0029","atom_type":"SENTENCE","verbatim":"This example shows data for a subject who was randomized to treatment ABC.","parent_section":"§6.2.4 Disposition (DS)","heading_level":null,"sibling_index":null,"page":166,"extracted_by":{"agent":"oh-my-claudecode:executor","prompt_version":"P0_writer_pdf_v1.2_inline_R10-15_O26_NEW1-7_OptionE","rerun_reason":"writer_17b_corruption_p166_167"}}
{"atom_id":"ig34_p0166_a0030","atom_type":"SENTENCE","verbatim":"Drug C was dropped after cycle 2 due to toxicity associated with drug C.","parent_section":"§6.2.4 Disposition (DS)","heading_level":null,"sibling_index":null,"page":166,"extracted_by":{"agent":"oh-my-claudecode:executor","prompt_version":"P0_writer_pdf_v1.2_inline_R10-15_O26_NEW1-7_OptionE","rerun_reason":"writer_17b_corruption_p166_167"}}
{"atom_id":"ig34_p0166_a0031","atom_type":"SENTENCE","verbatim":"Treatment with drugs A and B was stopped after cycle 3 due to disease progression.","parent_section":"§6.2.4 Disposition (DS)","heading_level":null,"sibling_index":null,"page":166,"extracted_by":{"agent":"oh-my-claudecode:executor","prompt_version":"P0_writer_pdf_v1.2_inline_R10-15_O26_NEW1-7_OptionE","rerun_reason":"writer_17b_corruption_p166_167"}}
{"atom_id":"ig34_p0166_a0032","atom_type":"SENTENCE","verbatim":"The subject died during follow-up.","parent_section":"§6.2.4 Disposition (DS)","heading_level":null,"sibling_index":null,"page":166,"extracted_by":{"agent":"oh-my-claudecode:executor","prompt_version":"P0_writer_pdf_v1.2_inline_R10-15_O26_NEW1-7_OptionE","rerun_reason":"writer_17b_corruption_p166_167"}}
{"atom_id":"ig34_p0166_a0033","atom_type":"SENTENCE","verbatim":"The SE dataset records the elements this subject experienced.","parent_section":"§6.2.4 Disposition (DS)","heading_level":null,"sibling_index":null,"page":166,"extracted_by":{"agent":"oh-my-claudecode:executor","prompt_version":"P0_writer_pdf_v1.2_inline_R10-15_O26_NEW1-7_OptionE","rerun_reason":"writer_17b_corruption_p166_167"}}
{"atom_id":"ig34_p0166_a0034","atom_type":"LIST_ITEM","verbatim":"Rows 1-4: The subject participated in the screening epoch and 3 elements of the treatment epoch.","parent_section":"§6.2.4 Disposition (DS)","heading_level":null,"sibling_index":null,"page":166,"extracted_by":{"agent":"oh-my-claudecode:executor","prompt_version":"P0_writer_pdf_v1.2_inline_R10-15_O26_NEW1-7_OptionE","rerun_reason":"writer_17b_corruption_p166_167"}}
{"atom_id":"ig34_p0166_a0035","atom_type":"LIST_ITEM","verbatim":"Row 5: The subject's fifth element was not \"ABC\" or \"AB\", as would have been expected if they recieved all 4 cycles of therapy, but \"FU\".","parent_section":"§6.2.4 Disposition (DS)","heading_level":null,"sibling_index":null,"page":166,"extracted_by":{"agent":"oh-my-claudecode:executor","prompt_version":"P0_writer_pdf_v1.2_inline_R10-15_O26_NEW1-7_OptionE","rerun_reason":"writer_17b_corruption_p166_167"}}
{"atom_id":"ig34_p0166_a0036","atom_type":"CODE_LITERAL","verbatim":"se.xpt","parent_section":"§6.2.4 Disposition (DS)","heading_level":null,"sibling_index":null,"page":166,"extracted_by":{"agent":"oh-my-claudecode:executor","prompt_version":"P0_writer_pdf_v1.2_inline_R10-15_O26_NEW1-7_OptionE","rerun_reason":"writer_17b_corruption_p166_167"}}
{"atom_id":"ig34_p0166_a0037","atom_type":"TABLE_HEADER","verbatim":"| Row | STUDYID | DOMAIN | USUBJID | SESEQ | ETCD | SESTDTC | SEENDTC | SEUPDES | TAETORD | EPOCH |","parent_section":"§6.2.4 Disposition (DS)","heading_level":null,"sibling_index":null,"page":166,"extracted_by":{"agent":"oh-my-claudecode:executor","prompt_version":"P0_writer_pdf_v1.2_inline_R10-15_O26_NEW1-7_OptionE","rerun_reason":"writer_17b_corruption_p166_167"}}
{"atom_id":"ig34_p0166_a0038","atom_type":"TABLE_ROW","verbatim":"| 1 | DS10 | SE | 101 | 1 | SCRN | 2015-01-21 | 2015-02-01 | | 0 | SCREENING |","parent_section":"§6.2.4 Disposition (DS)","heading_level":null,"sibling_index":null,"page":166,"extracted_by":{"agent":"oh-my-claudecode:executor","prompt_version":"P0_writer_pdf_v1.2_inline_R10-15_O26_NEW1-7_OptionE","rerun_reason":"writer_17b_corruption_p166_167"}}
{"atom_id":"ig34_p0166_a0039","atom_type":"TABLE_ROW","verbatim":"| 2 | DS10 | SE | 101 | 2 | ABC | 2015-02-01 | 2015-03-01 | | 1 | TREATMENT |","parent_section":"§6.2.4 Disposition (DS)","heading_level":null,"sibling_index":null,"page":166,"extracted_by":{"agent":"oh-my-claudecode:executor","prompt_version":"P0_writer_pdf_v1.2_inline_R10-15_O26_NEW1-7_OptionE","rerun_reason":"writer_17b_corruption_p166_167"}}
{"atom_id":"ig34_p0166_a0040","atom_type":"TABLE_ROW","verbatim":"| 3 | DS10 | SE | 101 | 3 | ABC | 2015-03-01 | 2015-03-29 | | 2 | TREATMENT |","parent_section":"§6.2.4 Disposition (DS)","heading_level":null,"sibling_index":null,"page":166,"extracted_by":{"agent":"oh-my-claudecode:executor","prompt_version":"P0_writer_pdf_v1.2_inline_R10-15_O26_NEW1-7_OptionE","rerun_reason":"writer_17b_corruption_p166_167"}}
{"atom_id":"ig34_p0166_a0041","atom_type":"TABLE_ROW","verbatim":"| 4 | DS10 | SE | 101 | 4 | AB | 2015-03-29 | 2015-04-26 | | 6 | TREATMENT |","parent_section":"§6.2.4 Disposition (DS)","heading_level":null,"sibling_index":null,"page":166,"extracted_by":{"agent":"oh-my-claudecode:executor","prompt_version":"P0_writer_pdf_v1.2_inline_R10-15_O26_NEW1-7_OptionE","rerun_reason":"writer_17b_corruption_p166_167"}}
{"atom_id":"ig34_p0166_a0042","atom_type":"TABLE_ROW","verbatim":"| 5 | DS10 | SE | 101 | 5 | FU | 2015-04-26 | 2015-09-19 | | 8 | FOLLOW-UP |","parent_section":"§6.2.4 Disposition (DS)","heading_level":null,"sibling_index":null,"page":166,"extracted_by":{"agent":"oh-my-claudecode:executor","prompt_version":"P0_writer_pdf_v1.2_inline_R10-15_O26_NEW1-7_OptionE","rerun_reason":"writer_17b_corruption_p166_167"}}
{"atom_id":"ig34_p0167_a0001","atom_type":"SENTENCE","verbatim":"In this study, disposition of each treatment was collected, and disposition of study participation was collected for each epoch of the trial.","parent_section":"§6.2.4 Disposition (DS)","heading_level":null,"sibling_index":null,"page":167,"extracted_by":{"agent":"oh-my-claudecode:executor","prompt_version":"P0_writer_pdf_v1.2_inline_R10-15_O26_NEW1-7_OptionE","rerun_reason":"writer_17b_corruption_p166_167"}}
{"atom_id":"ig34_p0167_a0002","atom_type":"SENTENCE","verbatim":"The date of disposition for study treatment was defined as the date of the last dose of that treatment.","parent_section":"§6.2.4 Disposition (DS)","heading_level":null,"sibling_index":null,"page":167,"extracted_by":{"agent":"oh-my-claudecode:executor","prompt_version":"P0_writer_pdf_v1.2_inline_R10-15_O26_NEW1-7_OptionE","rerun_reason":"writer_17b_corruption_p166_167"}}
{"atom_id":"ig34_p0167_a0003","atom_type":"LIST_ITEM","verbatim":"Rows 1-2: Show that informed consent was obtained and randomization occurred during the screening epoch.","parent_section":"§6.2.4 Disposition (DS)","heading_level":null,"sibling_index":null,"page":167,"extracted_by":{"agent":"oh-my-claudecode:executor","prompt_version":"P0_writer_pdf_v1.2_inline_R10-15_O26_NEW1-7_OptionE","rerun_reason":"writer_17b_corruption_p166_167"}}
{"atom_id":"ig34_p0167_a0004","atom_type":"LIST_ITEM","verbatim":"Row 3: Shows disposition of study participation for the screening epoch. The subject completed this epoch.","parent_section":"§6.2.4 Disposition (DS)","heading_level":null,"sibling_index":null,"page":167,"extracted_by":{"agent":"oh-my-claudecode:executor","prompt_version":"P0_writer_pdf_v1.2_inline_R10-15_O26_NEW1-7_OptionE","rerun_reason":"writer_17b_corruption_p166_167"}}
{"atom_id":"ig34_p0167_a0005","atom_type":"LIST_ITEM","verbatim":"Row 4: Shows that drug C was ended during the second cycle (TAETORD = \"2\") of the treatment epoch.","parent_section":"§6.2.4 Disposition (DS)","heading_level":null,"sibling_index":null,"page":167,"extracted_by":{"agent":"oh-my-claudecode:executor","prompt_version":"P0_writer_pdf_v1.2_inline_R10-15_O26_NEW1-7_OptionE","rerun_reason":"writer_17b_corruption_p166_167"}}
{"atom_id":"ig34_p0167_a0006","atom_type":"LIST_ITEM","verbatim":"Row 5: Shows that drugs A and B were ended on the same day during the third cycle (TAETORD = \"6\") of the treatment epoch.","parent_section":"§6.2.4 Disposition (DS)","heading_level":null,"sibling_index":null,"page":167,"extracted_by":{"agent":"oh-my-claudecode:executor","prompt_version":"P0_writer_pdf_v1.2_inline_R10-15_O26_NEW1-7_OptionE","rerun_reason":"writer_17b_corruption_p166_167"}}
{"atom_id":"ig34_p0167_a0007","atom_type":"LIST_ITEM","verbatim":"Row 6: Shows disposition of study participation in the treatment epoch. The subject did not complete treatment, due to disease progression. The date of disposition of the treatment epoch, DSSTDTC, is the date the subject started the follow-up epoch. For this study, that was defined as 4 weeks after the start of the last treatment element. This means that although the subject's last dose of treatment was \"2015-04-14\", the end of the treatment period was later, on \"2015-04-26\", when the subject started the follow-up treatment.","parent_section":"§6.2.4 Disposition (DS)","heading_level":null,"sibling_index":null,"page":167,"extracted_by":{"agent":"oh-my-claudecode:executor","prompt_version":"P0_writer_pdf_v1.2_inline_R10-15_O26_NEW1-7_OptionE","rerun_reason":"writer_17b_corruption_p166_167"}}
{"atom_id":"ig34_p0167_a0008","atom_type":"LIST_ITEM","verbatim":"Row 7: Shows disposition of study participation in the follow-up epoch. The subject died.","parent_section":"§6.2.4 Disposition (DS)","heading_level":null,"sibling_index":null,"page":167,"extracted_by":{"agent":"oh-my-claudecode:executor","prompt_version":"P0_writer_pdf_v1.2_inline_R10-15_O26_NEW1-7_OptionE","rerun_reason":"writer_17b_corruption_p166_167"}}
{"atom_id":"ig34_p0167_a0009","atom_type":"CODE_LITERAL","verbatim":"ds.xpt","parent_section":"§6.2.4 Disposition (DS)","heading_level":null,"sibling_index":null,"page":167,"extracted_by":{"agent":"oh-my-claudecode:executor","prompt_version":"P0_writer_pdf_v1.2_inline_R10-15_O26_NEW1-7_OptionE","rerun_reason":"writer_17b_corruption_p166_167"}}
{"atom_id":"ig34_p0167_a0010","atom_type":"TABLE_HEADER","verbatim":"| Row | STUDYID | DOMAIN | USUBJID | DSEQ | DSTERM | DSDECOD | DSCAT | DSSCAT | TAETORD | EPOCH | DSSTDTC |","parent_section":"§6.2.4 Disposition (DS)","heading_level":null,"sibling_index":null,"page":167,"extracted_by":{"agent":"oh-my-claudecode:executor","prompt_version":"P0_writer_pdf_v1.2_inline_R10-15_O26_NEW1-7_OptionE","rerun_reason":"writer_17b_corruption_p166_167"}}
{"atom_id":"ig34_p0167_a0011","atom_type":"TABLE_ROW","verbatim":"| 1 | DS10 | DS | 101 | 1 | INFORMED CONSENT OBTAINED | INFORMED CONSENT OBTAINED | PROTOCOL MILESTONE | | 1 | SCREENING | 2015-01-21 |","parent_section":"§6.2.4 Disposition (DS)","heading_level":null,"sibling_index":null,"page":167,"extracted_by":{"agent":"oh-my-claudecode:executor","prompt_version":"P0_writer_pdf_v1.2_inline_R10-15_O26_NEW1-7_OptionE","rerun_reason":"writer_17b_corruption_p166_167"}}
{"atom_id":"ig34_p0167_a0012","atom_type":"TABLE_ROW","verbatim":"| 2 | DS10 | DS | 101 | 2 | RANDOMIZED | RANDOMIZED | PROTOCOL MILESTONE | | 1 | SCREENING | 2015-02-01 |","parent_section":"§6.2.4 Disposition (DS)","heading_level":null,"sibling_index":null,"page":167,"extracted_by":{"agent":"oh-my-claudecode:executor","prompt_version":"P0_writer_pdf_v1.2_inline_R10-15_O26_NEW1-7_OptionE","rerun_reason":"writer_17b_corruption_p166_167"}}
{"atom_id":"ig34_p0167_a0013","atom_type":"TABLE_ROW","verbatim":"| 3 | DS10 | DS | 101 | 3 | COMPLETED | COMPLETED | DISPOSITION EVENT | STUDY PARTICIPATION | 1 | SCREENING | 2015-02-01 |","parent_section":"§6.2.4 Disposition (DS)","heading_level":null,"sibling_index":null,"page":167,"extracted_by":{"agent":"oh-my-claudecode:executor","prompt_version":"P0_writer_pdf_v1.2_inline_R10-15_O26_NEW1-7_OptionE","rerun_reason":"writer_17b_corruption_p166_167"}}
{"atom_id":"ig34_p0167_a0014","atom_type":"TABLE_ROW","verbatim":"| 4 | DS10 | DS | 101 | 4 | Toxicity | ADVERSE EVENT | DISPOSITION EVENT | DRUG C | 2 | TREATMENT | 2015-03-06 |","parent_section":"§6.2.4 Disposition (DS)","heading_level":null,"sibling_index":null,"page":167,"extracted_by":{"agent":"oh-my-claudecode:executor","prompt_version":"P0_writer_pdf_v1.2_inline_R10-15_O26_NEW1-7_OptionE","rerun_reason":"writer_17b_corruption_p166_167"}}
{"atom_id":"ig34_p0167_a0015","atom_type":"TABLE_ROW","verbatim":"| 5 | DS10 | DS | 101 | 5 | Disease progression | PROGRESSIVE DISEASE | DISPOSITION EVENT | DRUGS A & B | 6 | TREATMENT | 2015-04-14 |","parent_section":"§6.2.4 Disposition (DS)","heading_level":null,"sibling_index":null,"page":167,"extracted_by":{"agent":"oh-my-claudecode:executor","prompt_version":"P0_writer_pdf_v1.2_inline_R10-15_O26_NEW1-7_OptionE","rerun_reason":"writer_17b_corruption_p166_167"}}
{"atom_id":"ig34_p0167_a0016","atom_type":"TABLE_ROW","verbatim":"| 6 | DS10 | DS | 101 | 6 | Disease progression | PROGRESSIVE DISEASE | DISPOSITION EVENT | STUDY PARTICIPATION | 6 | TREATMENT | 2015-04-26 |","parent_section":"§6.2.4 Disposition (DS)","heading_level":null,"sibling_index":null,"page":167,"extracted_by":{"agent":"oh-my-claudecode:executor","prompt_version":"P0_writer_pdf_v1.2_inline_R10-15_O26_NEW1-7_OptionE","rerun_reason":"writer_17b_corruption_p166_167"}}
{"atom_id":"ig34_p0167_a0017","atom_type":"TABLE_ROW","verbatim":"| 7 | DS10 | DS | 101 | 7 | Death due to cancer | DEATH | DISPOSITION EVENT | STUDY PARTICIPATION | 8 | FOLLOW-UP | 2015-09-19 |","parent_section":"§6.2.4 Disposition (DS)","heading_level":null,"sibling_index":null,"page":167,"extracted_by":{"agent":"oh-my-claudecode:executor","prompt_version":"P0_writer_pdf_v1.2_inline_R10-15_O26_NEW1-7_OptionE","rerun_reason":"writer_17b_corruption_p166_167"}}
{"atom_id":"ig34_p0167_a0018","atom_type":"HEADING","verbatim":"6.2.5 Healthcare Encounters (HO)","parent_section":"§6.2 [MODELS FOR EVENTS DOMAINS]","heading_level":3,"sibling_index":5,"page":167,"extracted_by":{"agent":"oh-my-claudecode:executor","prompt_version":"P0_writer_pdf_v1.2_inline_R10-15_O26_NEW1-7_OptionE","rerun_reason":"writer_17b_corruption_p166_167"}}
{"atom_id":"ig34_p0167_a0019","atom_type":"HEADING","verbatim":"HO – Description/Overview","parent_section":"§6.2.5 Healthcare Encounters (HO)","heading_level":4,"sibling_index":1,"page":167,"extracted_by":{"agent":"oh-my-claudecode:executor","prompt_version":"P0_writer_pdf_v1.2_inline_R10-15_O26_NEW1-7_OptionE","rerun_reason":"writer_17b_corruption_p166_167"}}
{"atom_id":"ig34_p0167_a0020","atom_type":"SENTENCE","verbatim":"An events domain that contains data for inpatient and outpatient healthcare events (e.g., hospitalization, nursing home stay, rehabilitation facility stay, ambulatory surgery).","parent_section":"§6.2.5 Healthcare Encounters (HO)","heading_level":null,"sibling_index":null,"page":167,"extracted_by":{"agent":"oh-my-claudecode:executor","prompt_version":"P0_writer_pdf_v1.2_inline_R10-15_O26_NEW1-7_OptionE","rerun_reason":"writer_17b_corruption_p166_167"}}
{"atom_id":"ig34_p0167_a0021","atom_type":"HEADING","verbatim":"HO – Specification","parent_section":"§6.2.5 Healthcare Encounters (HO)","heading_level":4,"sibling_index":2,"page":167,"extracted_by":{"agent":"oh-my-claudecode:executor","prompt_version":"P0_writer_pdf_v1.2_inline_R10-15_O26_NEW1-7_OptionE","rerun_reason":"writer_17b_corruption_p166_167"}}
{"atom_id":"ig34_p0167_a0022","atom_type":"CODE_LITERAL","verbatim":"ho.xpt, Healthcare Encounters — Events. One record per healthcare encounter per subject, Tabulation.","parent_section":"§6.2.5 Healthcare Encounters (HO)","heading_level":null,"sibling_index":null,"page":167,"extracted_by":{"agent":"oh-my-claudecode:executor","prompt_version":"P0_writer_pdf_v1.2_inline_R10-15_O26_NEW1-7_OptionE","rerun_reason":"writer_17b_corruption_p166_167"}}
{"atom_id":"ig34_p0167_a0023","atom_type":"TABLE_HEADER","verbatim":"| Variable Name | Variable Label | Type | Controlled Terms, Codelist or Format¹ | Role | CDISC Notes | Core |","parent_section":"§6.2.5 Healthcare Encounters (HO)","heading_level":null,"sibling_index":null,"page":167,"extracted_by":{"agent":"oh-my-claudecode:executor","prompt_version":"P0_writer_pdf_v1.2_inline_R10-15_O26_NEW1-7_OptionE","rerun_reason":"writer_17b_corruption_p166_167"}}
{"atom_id":"ig34_p0167_a0024","atom_type":"TABLE_ROW","verbatim":"| STUDYID | Study Identifier | Char | | Identifier | Unique identifier for a study. | Req |","parent_section":"§6.2.5 Healthcare Encounters (HO)","heading_level":null,"sibling_index":null,"page":167,"extracted_by":{"agent":"oh-my-claudecode:executor","prompt_version":"P0_writer_pdf_v1.2_inline_R10-15_O26_NEW1-7_OptionE","rerun_reason":"writer_17b_corruption_p166_167"}}
{"atom_id":"ig34_p0167_a0025","atom_type":"TABLE_ROW","verbatim":"| DOMAIN | Domain Abbreviation | Char | HO | Identifier | Two-character abbreviation for the domain. | Req |","parent_section":"§6.2.5 Healthcare Encounters (HO)","heading_level":null,"sibling_index":null,"page":167,"extracted_by":{"agent":"oh-my-claudecode:executor","prompt_version":"P0_writer_pdf_v1.2_inline_R10-15_O26_NEW1-7_OptionE","rerun_reason":"writer_17b_corruption_p166_167"}}
