{"audit_id": "P2_B-03_batch_16_a001", "atom_id": "md_dmAG_ex_a001", "sample_role": "boundary_first_h1_root", "verdict": "PASS", "checks": {"verbatim_byte_exact": "PASS — source L1 '# AG — Examples' matches atom verbatim byte-exact (em-dash U+2014 preserved per od -c verify: '#  A G  — ** Examples')", "atom_type": "PASS — HEADING per ^# prefix", "parent_section": "PASS — '§AG [AG — Examples]' H1 self-reference per kickoff §2 convention lock", "heading_level": "PASS — h_lvl=1", "sibling_index": "PASS — sib=1 first H1", "extracted_by": "PASS — subagent_type=general-purpose, prompt_version=P0_writer_md_v1.9.1"}, "severity": "INFO", "findings": []}
{"audit_id": "P2_B-03_batch_16_a002", "atom_id": "md_dmAG_ex_a002", "sample_role": "boundary_h2_self_reference_cm_pilot", "verdict": "PASS", "checks": {"verbatim_byte_exact": "PASS — source L3 '## Example 1' matches atom verbatim byte-exact (od -c: ## Example 1\\n)", "atom_type": "PASS — HEADING per ^## prefix", "parent_section": "PASS — '§AG.1 [Example 1]' SELF-reference per CM pilot precedent (writer Rule-B'd correctly per §R-D1; H2 self-namespace, NOT escalate to file root §AG)", "heading_level": "PASS — h_lvl=2", "sibling_index": "PASS — sib=1 first H2 positional", "extracted_by": "PASS"}, "severity": "INFO", "findings": []}
{"audit_id": "P2_B-03_batch_16_a017", "atom_id": "md_dmAG_ex_a017", "sample_role": "boundary_h2_example2_self_reference", "verdict": "PASS", "checks": {"verbatim_byte_exact": "PASS — source L20 '## Example 2' matches atom verbatim byte-exact", "atom_type": "PASS — HEADING per ^## prefix", "parent_section": "PASS — '§AG.2 [Example 2]' SELF-reference consistent with CM pilot convention applied across both H2s", "heading_level": "PASS — h_lvl=2", "sibling_index": "PASS — sib=2 (positional second H2 after Example 1)", "extracted_by": "PASS"}, "severity": "INFO", "findings": []}
{"audit_id": "P2_B-03_batch_16_a012", "atom_id": "md_dmAG_ex_a012", "sample_role": "boundary_table_header_ag_xpt_ex1", "verdict": "PASS", "checks": {"verbatim_byte_exact": "PASS — source L13-14 (header + alignment) matches atom verbatim with embedded \\n delimiter; 13 pipe-delimited columns (Row|STUDYID|DOMAIN|USUBJID|AGSEQ|AGTRT|AGPRESP|AGOCCUR|AGDOSE|AGDOSU|AGROUTE|VISIT|AGENDTC) preserved byte-exact", "atom_type": "PASS — TABLE_HEADER", "line_range_2row": "PASS — line_end - line_start = 14-13 = 1 (Hook A1 v1.9 standard 2-row)", "parent_section": "PASS — '§AG.1 [Example 1]' inherit closest H2 parent", "extracted_by": "PASS"}, "severity": "INFO", "findings": []}
{"audit_id": "P2_B-03_batch_16_a042", "atom_id": "md_dmAG_ex_a042", "sample_role": "boundary_table_row_mid_re_xpt", "verdict": "PASS", "checks": {"verbatim_byte_exact": "PASS — source L52 row 1 of re.xpt table '| 1 | XYZ | RE | XYZ-001-001 | ABC001 | 1 | RV1 | FEV1 | Forced Expiratory Volume in 1 Second | 2.43 | L | 2.43 | 2.43 | L | VISIT 2 | 2013-06-18T10:00 | PRE-BRONCHODILATOR ADMINISTRATION | 1 | -PT5M | BRONCHODILATOR ADMINISTRATION | 2013-06-18T10:05 |' matches atom verbatim byte-exact (21 cells preserved including timing reference values)", "atom_type": "PASS — TABLE_ROW", "parent_section": "PASS — '§AG.2 [Example 2]'", "extracted_by": "PASS"}, "severity": "INFO", "findings": []}
{"audit_id": "P2_B-03_batch_16_a011", "atom_id": "md_dmAG_ex_a011", "sample_role": "boundary_bold_caption_ag_xpt_table_title", "verdict": "PASS", "checks": {"verbatim_byte_exact": "PASS — source L11 '**ag.xpt**' matches atom verbatim including bold markers byte-exact (od -c verified: ** a g . x p t **\\n)", "atom_type": "PASS — SENTENCE per §D-5 bold-caption rule (NOT NOTE — 'ag.xpt' caption ≠ Note/Exception literal); accepted per §R-D5 anti-flag", "parent_section": "PASS — '§AG.1 [Example 1]' inherit closest H2 parent", "extracted_by": "PASS"}, "severity": "INFO", "findings": []}
{"audit_id": "P2_B-03_batch_16_a009", "atom_id": "md_dmAG_ex_a009", "sample_role": "boundary_bold_caption_row1", "verdict": "PASS", "checks": {"verbatim_byte_exact": "PASS — source L7 '**Row 1:** The first dose given in the BAC was saline.' matches atom verbatim byte-exact (bold markers + caption + narrative continuation preserved on single line)", "atom_type": "PASS — SENTENCE per §D-5 bold-caption rule (caption text 'Row 1:' not Note/Exception — strict §R-D5 carve-out); caption + narrative continuation on same line emitted as one SENTENCE atom (per writer §D-5 unified policy)", "parent_section": "PASS — '§AG.1 [Example 1]'", "extracted_by": "PASS"}, "severity": "INFO", "findings": []}
{"audit_id": "P2_B-03_batch_16_a054", "atom_id": "md_dmAG_ex_a054", "sample_role": "boundary_last_atom_table_row", "verdict": "PASS", "checks": {"verbatim_byte_exact": "PASS — source L72 '| 3 | XYZ | CM | XYZ-001-001 | CMSPID | RV1 | | 1 |' matches atom verbatim byte-exact (RELTYPE empty cell '| |' preserved; relrec.xpt row 3 of 3)", "atom_type": "PASS — TABLE_ROW", "parent_section": "PASS — '§AG.2 [Example 2]' (relrec.xpt nested inside Example 2)", "extracted_by": "PASS"}, "severity": "INFO", "findings": []}
{"audit_id": "P2_B-03_batch_16_a020", "atom_id": "md_dmAG_ex_a020", "sample_role": "stratified_sub_line_narrative_l22", "verdict": "PASS", "checks": {"verbatim_byte_exact": "PASS — sub-line atom #3 of 4 on L22 captures sentence 'Spirometry measurements (RE domain) were obtained before and after agent administration.' byte-exact from source L22", "atom_type": "PASS — SENTENCE", "sub_line_atomization": "PASS — line_start=line_end=22 (sub-line atoms share line number per §C-1; Hook R22 sub-line SENTENCE multi-atom on same line_range NOT ERROR/MISPLACED). L22 atomized into 4 sentences (a018/a019/a020/a021) — all share L22, all byte-exact distinct sentences", "parent_section": "PASS — '§AG.2 [Example 2]'", "extracted_by": "PASS"}, "severity": "INFO", "findings": []}
{"audit_id": "P2_B-03_batch_16_a032", "atom_id": "md_dmAG_ex_a032", "sample_role": "stratified_table_row_ag_xpt_ex2", "verdict": "PASS", "checks": {"verbatim_byte_exact": "PASS — source L38 row 1 of ag.xpt Example 2 table '| 1 | XYZ | AG | XYZ-001-001 | 1 | RV1 | ALBUTEROL | Y | Y | 2 | PUFF | AEROSOL | ONCE | RESPIRATORY (INHALATION) | VISIT 2 | 2013-06-18T10:05 |' matches atom verbatim byte-exact (16 cells preserved — different table than boundary a042 re.xpt)", "atom_type": "PASS — TABLE_ROW", "parent_section": "PASS — '§AG.2 [Example 2]'", "extracted_by": "PASS"}, "severity": "INFO", "findings": []}
{"audit_id": "P2_B-03_batch_16_a046", "atom_id": "md_dmAG_ex_a046", "sample_role": "stratified_bold_caption_di_xpt", "verdict": "PASS", "checks": {"verbatim_byte_exact": "PASS — source L58 '**di.xpt**' matches atom verbatim including bold markers byte-exact (od -c verified: ** d i . x p t **\\n) — different table-title than boundary a011 ag.xpt", "atom_type": "PASS — SENTENCE per §D-5 bold-caption rule (NOT NOTE — 'di.xpt' caption ≠ Note/Exception literal); accepted per §R-D5 anti-flag", "parent_section": "PASS — '§AG.2 [Example 2]' (di.xpt nested inside Example 2)", "extracted_by": "PASS"}, "severity": "INFO", "findings": []}
