{"atom_id":"ig34_p0231_a017","page":231,"atom_type":"HEADING","verdict":"PASS","atom_type_check":"OK","verbatim_check":"OK","parent_section_check":"OK","heading_fields_check":"OK","notes":"PDF p.231 shows 'IS – Assumptions' as section heading. En-dash matches. L5 sib=3 correct per spec (IS-Assumptions = 3rd L5 heading under §6.3.5.5). All 4 dimensions verified."}
{"atom_id":"ig34_p0232_a001","page":232,"atom_type":"LIST_ITEM","verdict":"PASS","atom_type_check":"OK","verbatim_check":"OK","parent_section_check":"OK","heading_fields_check":"N/A","notes":"PDF p.232 item 3 of numbered list matches verbatim. Smart quotes around 'induced' normalized to straight quotes — acceptable per v1.2 normalization. Full sentence with HLA reference confirmed char-by-char. Parent §6.3.5.5 IS correct."}
{"atom_id":"ig34_p0233_a002","page":233,"atom_type":"HEADING","verdict":"PASS","atom_type_check":"OK","verbatim_check":"OK","parent_section_check":"OK","heading_fields_check":"OK","notes":"PDF p.233 shows 'Example 1' heading under 'IS – Examples' section. L6 sib=1 correct per spec (Examples restart numbering as L6 children under IS-Examples L5 sib=4). Verbatim exact match."}
{"atom_id":"ig34_p0234_a022","page":234,"atom_type":"TABLE_ROW","verdict":"PASS","atom_type_check":"OK","verbatim_check":"OK","parent_section_check":"OK","heading_fields_check":"N/A","notes":"PDF p.234 Example 3 table Row 1: ABC/IS/ABC-004/ISSEQ=1/J123/ISGRPID=1/ADA_BAB/Binding Antidrug Antibody/PRODRUG A/CONFIRM/ANTIDRUG ANTIBODIES/HUMORAL IMMUNITY/POSITIVE/blank/POSITIVE/blank/blank/SERUM/ELECTROCHEMILUMINESCENCE IMMUNOASSAY/VISITNUM=1/VISIT 1/2017-07-27. All fields verified. Column count correct."}
{"atom_id":"ig34_p0235_a001","page":235,"atom_type":"TABLE_ROW","verdict":"PASS","atom_type_check":"OK","verbatim_check":"OK","parent_section_check":"OK","heading_fields_check":"N/A","notes":"PDF p.235 Example 3 continuation Row 3: ABC/IS/ABC-004/ISSEQ=3/J123/ISGRPID=2/ADA_BAB/Binding Antidrug Antibody/PRODRUG A ACTIVE METABOLITE/CONFIRM/ANTIDRUG ANTIBODIES/HUMORAL IMMUNITY/POSITIVE/blank/POSITIVE/blank/blank/SERUM/ELECTROCHEMILUMINESCENCE IMMUNOASSAY/1/VISIT 1/2017-07-27. Verified."}
{"atom_id":"ig34_p0236_a014","page":236,"atom_type":"TABLE_ROW","verdict":"PASS","atom_type_check":"OK","verbatim_check":"OK","parent_section_check":"OK","heading_fields_check":"N/A","notes":"PDF p.236 Example 5 table Row 6: RSC1230/IS/RSV1230-011/ISSEQ=2/13670/blank ISGRPID/MBIGGAB/Microbial-induced IgG Antibody/HUMAN RESPIRATORY SYNCYTIAL VIRUS-PROTEIN B/QUANTIFY/STUDY VACCINE-RELATED IMMUNOGENICITY/HUMORAL IMMUNITY/1:220/220/220/titer/SERUM/ELISA/VISITNUM=3/VISIT 2/2017-08-27. All fields match PDF."}
{"atom_id":"ig34_p0237_a012","page":237,"atom_type":"TABLE_ROW","verdict":"PASS","atom_type_check":"OK","verbatim_check":"OK","parent_section_check":"OK","heading_fields_check":"N/A","notes":"PDF p.237 Example 6 table Row 1: INFL456/IS/INF02-01/ISSEQ=1/SAMPBL0201/ABSCCL/Antibody-secreting Cells/IGG ANTIBODY/STUDY VACCINE-RELATED IMMUNOGENICITY/HUMORAL IMMUNITY/2019/SFC/10^6 PBMC/2019/2019/SFC/10^6 PBMC/PERIPHERAL BLOOD MONONUCLEAR CELL/ELISPOT/2011-08-08. Table has no ISGRPID column — correctly omitted. 19-column structure matches PDF."}
{"atom_id":"ig34_p0238_a004","page":238,"atom_type":"TABLE_HEADER","verdict":"FAIL","atom_type_check":"OK","verbatim_check":"MAJOR","parent_section_check":"OK","heading_fields_check":"N/A","notes":"FAIL: PDF p.238 Example 7 table header contains NHOID column between USUBJID and ISSEQ. Atom verbatim skips NHOID entirely: '...| USUBJID | ISSEQ | ISREFID |...' should be '...| USUBJID | NHOID | ISSEQ | ISREFID |...'. Missing column is a MAJOR verbatim error (R10 strict char-for-char). Also atom claims ISORRESU column (present in atom between ISORRES and ISSTRESC) but PDF Example 7 header does not show ISORRESU for this table. Column-count mismatch: atom=23 cols vs PDF=23 cols but NHOID absent + ISORRESU present = two compensating errors masking the true column-level failure."}
{"atom_id":"ig34_p0239_a003","page":239,"atom_type":"TABLE_ROW","verdict":"PASS","atom_type_check":"OK","verbatim_check":"OK","parent_section_check":"OK","heading_fields_check":"N/A","notes":"PDF p.239 Example 8 table Row 1 (microneutralization): RSV1230/IS/RSV1230-011/NHOID=RESPIRATORY SYNCYTIAL VIRUS/ISSEQ=1/13668/MBNAB/Neutralizing Microbial-induced Antibody/ISBDAGNT=RESPIRATORY SYNCYTIAL VIRUS/ISTSTDTL=NEUTRALIZING TITER 50%/STUDY VACCINE-RELATED IMMUNOGENICITY/HUMORAL IMMUNITY/1:40/40/40/titer/SERUM/MICRONEUTRALIZATION ASSAY/1/BASELINE/2017-05-27. All 22 values verified. NHOID correctly included."}
{"atom_id":"ig34_p0240_a001","page":240,"atom_type":"HEADING","verdict":"PASS","atom_type_check":"OK","verbatim_check":"OK","parent_section_check":"OK","heading_fields_check":"OK","notes":"PDF p.240 shows 'Example 10' as section heading for autoimmune disease study example. L6 sib=10 correct per spec (Examples 1-11 = L6 restart, Example 10 is 10th). Verbatim exact match. Parent §6.3.5.5 IS correct."}
