STUDYID,DOMAIN,USUBJID,CMSEQ,CMSPID,CMTRT,CMDECOD,CMINDC,CMCLAS,CMDOSE,CMDOSU,CMDOSFRQ,CMROUTE,VISITNUM,VISIT,VISITDY,CMDTC,CMSTDTC,CMENDTC,CMSTDY,CMENDY
CDISCPILOT01,CM,01-701-1015,1.0,1,ASPIRIN,ACETYLSALICYLIC ACID,,NERVOUS SYSTEM,1.0,TABLET,PRN,ORAL,1.0,SCREENING 1,-7.0,2013-12-26,2003,,,
CDISCPILOT01,CM,01-701-1015,5.0,1,ASPIRIN,ACETYLSALICYLIC ACID,,NERVOUS SYSTEM,1.0,TABLET,PRN,ORAL,2.0,SCREENING 2,-1.0,2013-12-31,2003,,,
CDISCPILOT01,CM,01-701-1015,9.0,1,ASPIRIN,ACETYLSALICYLIC ACID,,NERVOUS SYSTEM,1.0,TABLET,PRN,ORAL,3.0,BASELINE,1.0,2014-01-02,2003,,,
CDISCPILOT01,CM,01-701-1015,13.0,1,ASPIRIN,ACETYLSALICYLIC ACID,,NERVOUS SYSTEM,1.0,TABLET,PRN,ORAL,4.0,WEEK 2,14.0,2014-01-16,2003,,,
CDISCPILOT01,CM,01-701-1015,18.0,1,ASPIRIN,ACETYLSALICYLIC ACID,,NERVOUS SYSTEM,1.0,TABLET,PRN,ORAL,5.0,WEEK 4,28.0,2014-01-30,2003,,,
CDISCPILOT01,CM,01-701-1015,23.0,1,ASPIRIN,ACETYLSALICYLIC ACID,,NERVOUS SYSTEM,1.0,TABLET,PRN,ORAL,6.0,AMBUL ECG REMOVAL,30.0,2014-02-01,2003,,,
