STUDYID,DOMAIN,USUBJID,LBSEQ,LBTESTCD,LBTEST,LBCAT,LBORRES,LBORRESU,LBORNRLO,LBORNRHI,LBSTRESC,LBSTRESN,LBSTRESU,LBSTNRLO,LBSTNRHI,LBNRIND,LBBLFL,VISITNUM,VISIT,VISITDY,LBDTC,LBDY
CDISCPILOT01,LB,01-701-1015,1.0,ALB,Albumin,CHEMISTRY,3.8,g/dL,3.3,4.9,38,38.0,g/L,33.0,49.0,NORMAL,Y,1.0,SCREENING 1,-7.0,2013-12-26T14:45,-7.0
CDISCPILOT01,LB,01-701-1015,39.0,ALB,Albumin,CHEMISTRY,3.9,g/dL,3.3,4.9,39,39.0,g/L,33.0,49.0,NORMAL,,4.0,WEEK 2,14.0,2014-01-16T13:17,15.0
CDISCPILOT01,LB,01-701-1015,74.0,ALB,Albumin,CHEMISTRY,3.8,g/dL,3.3,4.9,38,38.0,g/L,33.0,49.0,NORMAL,,5.0,WEEK 4,28.0,2014-01-30T08:50,29.0
CDISCPILOT01,LB,01-701-1015,104.0,ALB,Albumin,CHEMISTRY,3.7,g/dL,3.3,4.9,37,37.0,g/L,33.0,49.0,NORMAL,,7.0,WEEK 6,42.0,2014-02-12T12:56,42.0
CDISCPILOT01,LB,01-701-1015,134.0,ALB,Albumin,CHEMISTRY,3.8,g/dL,3.3,4.9,38,38.0,g/L,33.0,49.0,NORMAL,,8.0,WEEK 8,56.0,2014-03-05T12:25,63.0
CDISCPILOT01,LB,01-701-1015,164.0,ALB,Albumin,CHEMISTRY,3.8,g/dL,3.3,4.9,38,38.0,g/L,33.0,49.0,NORMAL,,9.0,WEEK 12,84.0,2014-03-26T15:15,84.0
