{"pdf_atom_id": "ig34_p0086_a008", "pdf_atom_type": "SENTENCE", "pdf_source": "SDTMIG_v3.4", "pdf_page": 86, "pdf_parent_section": "§5.5 [Subject Visits (SV)]", "pdf_verbatim": "The method for deriving these values should be consistent with the visit definitions in the Trial Visits (TV) dataset (see Section 7.3.1, Trial Visits).", "figure_ref": null, "candidates": [{"md_atom_id": "md_dmSV_ex_a035", "md_file": "knowledge_base/domains/SV/examples.md", "md_atom_type": "SENTENCE", "md_parent_section": "§SV.1 [Example 1]", "md_verbatim": "**Row 1:** Shows that screening data for subject 37 was collected during a period of 4 days. This subject is shown as a screen failure in ds.xpt and therefore would have a null DM.RFSTDTC, hence the study day values in SVSTDY and SVENDY, which are based on the sponsor-defined reference start date, are null.", "score": 0.4797, "match_basis": "verbatim_token+domain_route:SV"}, {"md_atom_id": "md_dmSV_ex_a036", "md_file": "knowledge_base/domains/SV/examples.md", "md_atom_type": "SENTENCE", "md_parent_section": "§SV.1 [Example 1]", "md_verbatim": "**Rows 2-3:** Show normal completion of the first 2 visits for subject 85.", "score": 0.4789, "match_basis": "verbatim_token+domain_route:SV"}, {"md_atom_id": "md_dmSV_ex_a038", "md_file": "knowledge_base/domains/SV/examples.md", "md_atom_type": "SENTENCE", "md_parent_section": "§SV.1 [Example 1]", "md_verbatim": "**Rows 5-9:** Normal completion of remaining visits for subject 85.", "score": 0.4779, "match_basis": "verbatim_token+domain_route:SV"}, {"md_atom_id": "md_dmSV_ex_a003", "md_file": "knowledge_base/domains/SV/examples.md", "md_atom_type": "SENTENCE", "md_parent_section": "§SV.1 [Example 1]", "md_verbatim": "This example shows the planned visit schedule for a study, along with disposition and study events data for 3 subjects. For this study, data on screen failures were submitted. The study was disrupted by the COVID-19 pandemic after many subjects had completed the study.", "score": 0.4652, "match_basis": "verbatim_token+domain_route:SV"}, {"md_atom_id": "md_dmSV_ex_a005", "md_file": "knowledge_base/domains/SV/examples.md", "md_atom_type": "SENTENCE", "md_parent_section": "§SV.1 [Example 1]", "md_verbatim": "**Row 1:** The activities for the SCREEN visit may occur over up to 7 days.", "score": 0.4649, "match_basis": "verbatim_token+domain_route:SV"}], "candidate_count": 5, "zero_candidate": false}
{"pdf_atom_id": "ig34_p0086_a009", "pdf_atom_type": "SENTENCE", "pdf_source": "SDTMIG_v3.4", "pdf_page": 86, "pdf_parent_section": "§5.5 [Subject Visits (SV)]", "pdf_verbatim": "For some studies, a visit may be defined to correspond with a clinic visit that occurs within 1 day, whereas for other studies, a visit may reflect data collection over a multiday period.", "figure_ref": null, "candidates": [{"md_atom_id": "md_dmSV_ex_a039", "md_file": "knowledge_base/domains/SV/examples.md", "md_atom_type": "SENTENCE", "md_parent_section": "§SV.1 [Example 1]", "md_verbatim": "**Row 10:** Data for the screening visit was gathered over the course of six days. For this and subsequent visits, SVPRESP = \"Y\" indicates that a visit was planned and SVOCCUR = \"Y\" indicates that the visit occurred.", "score": 0.519, "match_basis": "verbatim_token+domain_route:SV"}, {"md_atom_id": "md_dmSV_ex_a035", "md_file": "knowledge_base/domains/SV/examples.md", "md_atom_type": "SENTENCE", "md_parent_section": "§SV.1 [Example 1]", "md_verbatim": "**Row 1:** Shows that screening data for subject 37 was collected during a period of 4 days. This subject is shown as a screen failure in ds.xpt and therefore would have a null DM.RFSTDTC, hence the study day values in SVSTDY and SVENDY, which are based on the sponsor-defined reference start date, are null.", "score": 0.5176, "match_basis": "verbatim_token+domain_route:SV"}, {"md_atom_id": "md_dmSV_ex_a005", "md_file": "knowledge_base/domains/SV/examples.md", "md_atom_type": "SENTENCE", "md_parent_section": "§SV.1 [Example 1]", "md_verbatim": "**Row 1:** The activities for the SCREEN visit may occur over up to 7 days.", "score": 0.5012, "match_basis": "verbatim_token+domain_route:SV"}, {"md_atom_id": "md_dmSV_ex_a043", "md_file": "knowledge_base/domains/SV/examples.md", "md_atom_type": "SENTENCE", "md_parent_section": "§SV.1 [Example 1]", "md_verbatim": "**Row 14:** Shows an unscheduled visit. SVUPDES provides the information that this visit dealt with evaluation of an adverse event. Since this visit was not planned, VISITDY was not populated, SVPRESP and SVOCCUR are both null. VISITNUM is populated as required, but the sponsor chose not to populate VISIT. Data collected at this encounter may be in a Findings domain such as EG, LB, or VS, in which VISITNUM is treated as an important timing variable. This visit was over remote audio video due to having an adverse event during a pandemic.", "score": 0.4932, "match_basis": "verbatim_token+domain_route:SV"}, {"md_atom_id": "md_dmSV_ex_a037", "md_file": "knowledge_base/domains/SV/examples.md", "md_atom_type": "SENTENCE", "md_parent_section": "§SV.1 [Example 1]", "md_verbatim": "**Row 4:** Shows that for subject 85, the visit called \"WEEK 1\" did not occur; the reason it did not occur is represented in SVREASOC.", "score": 0.4909, "match_basis": "verbatim_token+domain_route:SV"}], "candidate_count": 5, "zero_candidate": false}
{"pdf_atom_id": "ig34_p0086_a010", "pdf_atom_type": "SENTENCE", "pdf_source": "SDTMIG_v3.4", "pdf_page": 86, "pdf_parent_section": "§5.5 [Subject Visits (SV)]", "pdf_verbatim": "The SV dataset provides reviewers with a summary of a subject's visits over the course of their participation in a study.", "figure_ref": null, "candidates": [{"md_atom_id": "md_dmSV_ex_a044", "md_file": "knowledge_base/domains/SV/examples.md", "md_atom_type": "SENTENCE", "md_parent_section": "§SV.1 [Example 1]", "md_verbatim": "**Row 15:** This subject had their last visit, a follow-up visit on study day 26, eight days after the unscheduled visit.", "score": 0.5, "match_basis": "verbatim_token+domain_route:SV"}, {"md_atom_id": "md_dmSV_ex_a036", "md_file": "knowledge_base/domains/SV/examples.md", "md_atom_type": "SENTENCE", "md_parent_section": "§SV.1 [Example 1]", "md_verbatim": "**Rows 2-3:** Show normal completion of the first 2 visits for subject 85.", "score": 0.496, "match_basis": "verbatim_token+domain_route:SV"}, {"md_atom_id": "md_dmSV_ex_a003", "md_file": "knowledge_base/domains/SV/examples.md", "md_atom_type": "SENTENCE", "md_parent_section": "§SV.1 [Example 1]", "md_verbatim": "This example shows the planned visit schedule for a study, along with disposition and study events data for 3 subjects. For this study, data on screen failures were submitted. The study was disrupted by the COVID-19 pandemic after many subjects had completed the study.", "score": 0.4947, "match_basis": "verbatim_token+domain_route:SV"}, {"md_atom_id": "md_dmSV_ex_a038", "md_file": "knowledge_base/domains/SV/examples.md", "md_atom_type": "SENTENCE", "md_parent_section": "§SV.1 [Example 1]", "md_verbatim": "**Rows 5-9:** Normal completion of remaining visits for subject 85.", "score": 0.4857, "match_basis": "verbatim_token+domain_route:SV"}, {"md_atom_id": "md_dmSV_ex_a023", "md_file": "knowledge_base/domains/SV/examples.md", "md_atom_type": "SENTENCE", "md_parent_section": "§SV.1 [Example 1]", "md_verbatim": "**Row 4:** Shows that subject 85 completed the study.", "score": 0.4771, "match_basis": "verbatim_token+domain_route:SV"}], "candidate_count": 5, "zero_candidate": false}
{"pdf_atom_id": "ig34_p0086_a011", "pdf_atom_type": "SENTENCE", "pdf_source": "SDTMIG_v3.4", "pdf_page": 86, "pdf_parent_section": "§5.5 [Subject Visits (SV)]", "pdf_verbatim": "Comparison of an individual subject's SV dataset with the TV dataset, which describes the planned visits for the trial, supports the identification of planned but not completed visits.", "figure_ref": [], "candidates": [{"md_atom_id": "md_dmSV_ex_a003", "md_file": "knowledge_base/domains/SV/examples.md", "md_atom_type": "SENTENCE", "md_parent_section": "§SV.1 [Example 1]", "md_verbatim": "This example shows the planned visit schedule for a study, along with disposition and study events data for 3 subjects. For this study, data on screen failures were submitted. The study was disrupted by the COVID-19 pandemic after many subjects had completed the study.", "score": 0.5301, "match_basis": "verbatim_token+domain_route:SV"}, {"md_atom_id": "md_dmSV_ex_a036", "md_file": "knowledge_base/domains/SV/examples.md", "md_atom_type": "SENTENCE", "md_parent_section": "§SV.1 [Example 1]", "md_verbatim": "**Rows 2-3:** Show normal completion of the first 2 visits for subject 85.", "score": 0.5213, "match_basis": "verbatim_token+domain_route:SV"}, {"md_atom_id": "md_dmSV_ex_a038", "md_file": "knowledge_base/domains/SV/examples.md", "md_atom_type": "SENTENCE", "md_parent_section": "§SV.1 [Example 1]", "md_verbatim": "**Rows 5-9:** Normal completion of remaining visits for subject 85.", "score": 0.5121, "match_basis": "verbatim_token+domain_route:SV"}, {"md_atom_id": "md_dmSV_ex_a034", "md_file": "knowledge_base/domains/SV/examples.md", "md_atom_type": "SENTENCE", "md_parent_section": "§SV.1 [Example 1]", "md_verbatim": "Because the study in this example was disrupted by an epidemic, the permissible variable SVEPCHGI (Epi/Pandemic Related Change Indicator) was included in the SV dataset. As originally planned, visits were to be conducted in person, but pandemic disruption included conducting some visits remotely. When the change to a remote visit was a change due to the pandemic, SVEPCHGI = \"Y\".", "score": 0.5006, "match_basis": "verbatim_token+domain_route:SV"}, {"md_atom_id": "md_dmSV_ex_a039", "md_file": "knowledge_base/domains/SV/examples.md", "md_atom_type": "SENTENCE", "md_parent_section": "§SV.1 [Example 1]", "md_verbatim": "**Row 10:** Data for the screening visit was gathered over the course of six days. For this and subsequent visits, SVPRESP = \"Y\" indicates that a visit was planned and SVOCCUR = \"Y\" indicates that the visit occurred.", "score": 0.496, "match_basis": "verbatim_token+domain_route:SV"}], "candidate_count": 5, "zero_candidate": false}
{"pdf_atom_id": "ig34_p0086_a012", "pdf_atom_type": "SENTENCE", "pdf_source": "SDTMIG_v3.4", "pdf_page": 86, "pdf_parent_section": "§5.5 [Subject Visits (SV)]", "pdf_verbatim": "Comparison of the values of SVSTDY and SVENDY to VISIT and/or VISITDY can often highlight departures from the planned timing of visits.", "figure_ref": null, "candidates": [{"md_atom_id": "md_dmSV_ex_a006", "md_file": "knowledge_base/domains/SV/examples.md", "md_atom_type": "SENTENCE", "md_parent_section": "§SV.1 [Example 1]", "md_verbatim": "**Row 2:** The day 1 visit is planned to start before the start of treatment and end after the start of treatment.", "score": 0.5083, "match_basis": "verbatim_token+domain_route:SV"}, {"md_atom_id": "md_dmSV_ex_a040", "md_file": "knowledge_base/domains/SV/examples.md", "md_atom_type": "SENTENCE", "md_parent_section": "§SV.1 [Example 1]", "md_verbatim": "**Row 11:** The visit called \"DAY 1\" started and ended as planned, on Day 1.", "score": 0.5075, "match_basis": "verbatim_token+domain_route:SV"}, {"md_atom_id": "md_dmSV_ex_a004", "md_file": "knowledge_base/domains/SV/examples.md", "md_atom_type": "SENTENCE", "md_parent_section": "§SV.1 [Example 1]", "md_verbatim": "This is the planned schedule of visits for the study in this example.", "score": 0.4833, "match_basis": "verbatim_token+domain_route:SV"}, {"md_atom_id": "md_dmSV_ex_a035", "md_file": "knowledge_base/domains/SV/examples.md", "md_atom_type": "SENTENCE", "md_parent_section": "§SV.1 [Example 1]", "md_verbatim": "**Row 1:** Shows that screening data for subject 37 was collected during a period of 4 days. This subject is shown as a screen failure in ds.xpt and therefore would have a null DM.RFSTDTC, hence the study day values in SVSTDY and SVENDY, which are based on the sponsor-defined reference start date, are null.", "score": 0.4755, "match_basis": "verbatim_token+domain_route:SV"}, {"md_atom_id": "md_dmSV_ex_a039", "md_file": "knowledge_base/domains/SV/examples.md", "md_atom_type": "SENTENCE", "md_parent_section": "§SV.1 [Example 1]", "md_verbatim": "**Row 10:** Data for the screening visit was gathered over the course of six days. For this and subsequent visits, SVPRESP = \"Y\" indicates that a visit was planned and SVOCCUR = \"Y\" indicates that the visit occurred.", "score": 0.4709, "match_basis": "verbatim_token+domain_route:SV"}], "candidate_count": 5, "zero_candidate": false}
{"pdf_atom_id": "ig34_p0086_a013", "pdf_atom_type": "HEADING", "pdf_source": "SDTMIG_v3.4", "pdf_page": 86, "pdf_parent_section": "§5.5 [Subject Visits (SV)]", "pdf_verbatim": "SV – Specification", "figure_ref": null, "candidates": [{"md_atom_id": "md_dmSV_assn_a001", "md_file": "knowledge_base/domains/SV/assumptions.md", "md_atom_type": "HEADING", "md_parent_section": "§SV [SV — Assumptions]", "md_verbatim": "# SV — Assumptions", "score": 0.4667, "match_basis": "verbatim_token+domain_route:SV"}, {"md_atom_id": "md_dmSV_ex_a001", "md_file": "knowledge_base/domains/SV/examples.md", "md_atom_type": "HEADING", "md_parent_section": "§SV [SV — Examples]", "md_verbatim": "# SV — Examples", "score": 0.4, "match_basis": "verbatim_token+domain_route:SV"}, {"md_atom_id": "md_dmSV_ex_a002", "md_file": "knowledge_base/domains/SV/examples.md", "md_atom_type": "HEADING", "md_parent_section": "§SV [SV — Examples]", "md_verbatim": "## Example 1", "score": 0.4, "match_basis": "verbatim_token+domain_route:SV"}], "candidate_count": 3, "zero_candidate": false}
{"pdf_atom_id": "ig34_p0086_a014", "pdf_atom_type": "CODE_LITERAL", "pdf_source": "SDTMIG_v3.4", "pdf_page": 86, "pdf_parent_section": "§5.5 [Subject Visits (SV)]", "pdf_verbatim": "sv.xpt", "figure_ref": null, "candidates": [{"md_atom_id": "md_dmSV_ex_a009", "md_file": "knowledge_base/domains/SV/examples.md", "md_atom_type": "SENTENCE", "md_parent_section": "§SV.1 [Example 1]", "md_verbatim": "**tv.xpt**", "score": 0.79, "match_basis": "verbatim_token+domain_route:SV"}, {"md_atom_id": "md_dmSV_ex_a026", "md_file": "knowledge_base/domains/SV/examples.md", "md_atom_type": "SENTENCE", "md_parent_section": "§SV.1 [Example 1]", "md_verbatim": "**ds.xpt**", "score": 0.79, "match_basis": "verbatim_token+domain_route:SV"}, {"md_atom_id": "md_dmSV_ex_a045", "md_file": "knowledge_base/domains/SV/examples.md", "md_atom_type": "SENTENCE", "md_parent_section": "§SV.1 [Example 1]", "md_verbatim": "**sv.xpt**", "score": 0.79, "match_basis": "verbatim_token+domain_route:SV"}, {"md_atom_id": "md_dmSV_ex_a035", "md_file": "knowledge_base/domains/SV/examples.md", "md_atom_type": "SENTENCE", "md_parent_section": "§SV.1 [Example 1]", "md_verbatim": "**Row 1:** Shows that screening data for subject 37 was collected during a period of 4 days. This subject is shown as a screen failure in ds.xpt and therefore would have a null DM.RFSTDTC, hence the study day values in SVSTDY and SVENDY, which are based on the sponsor-defined reference start date, are null.", "score": 0.1957, "match_basis": "verbatim_token+domain_route:SV"}, {"md_atom_id": "md_dmSV_assn_a001", "md_file": "knowledge_base/domains/SV/assumptions.md", "md_atom_type": "HEADING", "md_parent_section": "§SV [SV — Assumptions]", "md_verbatim": "# SV — Assumptions", "score": 0.19, "match_basis": "verbatim_token+domain_route:SV"}, {"md_atom_id": "md_dmSV_assn_a002", "md_file": "knowledge_base/domains/SV/assumptions.md", "md_atom_type": "LIST_ITEM", "md_parent_section": "§SV [SV — Assumptions]", "md_verbatim": "1. The Subject Visits domain allows the submission of data on the timing of the trial visits for a subject, including both those visits they actually passed through in their participation in the trial and those visits that did not occur. Refer to Section 7.3.1, Trial Visits (TV), as the TV dataset defines the planned visits for the trial.", "score": 0.19, "match_basis": "verbatim_token+domain_route:SV"}, {"md_atom_id": "md_dmSV_assn_a003", "md_file": "knowledge_base/domains/SV/assumptions.md", "md_atom_type": "LIST_ITEM", "md_parent_section": "§SV [SV — Assumptions]", "md_verbatim": "2. Subjects can have 1 and only 1 record per VISITNUM.", "score": 0.19, "match_basis": "verbatim_token+domain_route:SV"}, {"md_atom_id": "md_dmSV_assn_a004", "md_file": "knowledge_base/domains/SV/assumptions.md", "md_atom_type": "LIST_ITEM", "md_parent_section": "§SV [SV — Assumptions]", "md_verbatim": "3. Subjects who screen fail, withdraw, die, or otherwise discontinue study participation will not have records for planned visits subsequent to their final disposition event.", "score": 0.19, "match_basis": "verbatim_token+domain_route:SV"}, {"md_atom_id": "md_dmSV_assn_a005", "md_file": "knowledge_base/domains/SV/assumptions.md", "md_atom_type": "LIST_ITEM", "md_parent_section": "§SV [SV — Assumptions]", "md_verbatim": "4. Planned and unplanned visits with a subject, whether or not they are physical visits to the investigational site, are represented in this domain.", "score": 0.19, "match_basis": "verbatim_token+domain_route:SV"}, {"md_atom_id": "md_dmSV_assn_a006", "md_file": "knowledge_base/domains/SV/assumptions.md", "md_atom_type": "LIST_ITEM", "md_parent_section": "§SV [SV — Assumptions]", "md_verbatim": "   a. SVPRESP = \"Y\" identifies rows for planned visits.", "score": 0.19, "match_basis": "verbatim_token+domain_route:SV"}], "candidate_count": 10, "zero_candidate": false}
{"pdf_atom_id": "ig34_p0086_a015", "pdf_atom_type": "SENTENCE", "pdf_source": "SDTMIG_v3.4", "pdf_page": 86, "pdf_parent_section": "§5.5 [Subject Visits (SV)]", "pdf_verbatim": "Subject Visits — Special Purpose.", "figure_ref": null, "candidates": [{"md_atom_id": "md_dmSV_ex_a036", "md_file": "knowledge_base/domains/SV/examples.md", "md_atom_type": "SENTENCE", "md_parent_section": "§SV.1 [Example 1]", "md_verbatim": "**Rows 2-3:** Show normal completion of the first 2 visits for subject 85.", "score": 0.535, "match_basis": "verbatim_token+domain_route:SV"}, {"md_atom_id": "md_dmSV_ex_a038", "md_file": "knowledge_base/domains/SV/examples.md", "md_atom_type": "SENTENCE", "md_parent_section": "§SV.1 [Example 1]", "md_verbatim": "**Rows 5-9:** Normal completion of remaining visits for subject 85.", "score": 0.5317, "match_basis": "verbatim_token+domain_route:SV"}, {"md_atom_id": "md_dmSV_ex_a025", "md_file": "knowledge_base/domains/SV/examples.md", "md_atom_type": "SENTENCE", "md_parent_section": "§SV.1 [Example 1]", "md_verbatim": "**Row 6:** Shows that subject 101 chose to withdraw early.", "score": 0.4973, "match_basis": "verbatim_token+domain_route:SV"}, {"md_atom_id": "md_dmSV_ex_a044", "md_file": "knowledge_base/domains/SV/examples.md", "md_atom_type": "SENTENCE", "md_parent_section": "§SV.1 [Example 1]", "md_verbatim": "**Row 15:** This subject had their last visit, a follow-up visit on study day 26, eight days after the unscheduled visit.", "score": 0.4923, "match_basis": "verbatim_token+domain_route:SV"}, {"md_atom_id": "md_dmSV_ex_a019", "md_file": "knowledge_base/domains/SV/examples.md", "md_atom_type": "SENTENCE", "md_parent_section": "§SV.1 [Example 1]", "md_verbatim": "This table shows the disposition records for the subjects in this example.", "score": 0.4894, "match_basis": "verbatim_token+domain_route:SV"}], "candidate_count": 5, "zero_candidate": false}
{"pdf_atom_id": "ig34_p0086_a016", "pdf_atom_type": "SENTENCE", "pdf_source": "SDTMIG_v3.4", "pdf_page": 86, "pdf_parent_section": "§5.5 [Subject Visits (SV)]", "pdf_verbatim": "One record per actual or planned visit per subject, Tabulation.", "figure_ref": null, "candidates": [{"md_atom_id": "md_dmSV_ex_a019", "md_file": "knowledge_base/domains/SV/examples.md", "md_atom_type": "SENTENCE", "md_parent_section": "§SV.1 [Example 1]", "md_verbatim": "This table shows the disposition records for the subjects in this example.", "score": 0.5472, "match_basis": "verbatim_token+domain_route:SV"}, {"md_atom_id": "md_dmSV_ex_a036", "md_file": "knowledge_base/domains/SV/examples.md", "md_atom_type": "SENTENCE", "md_parent_section": "§SV.1 [Example 1]", "md_verbatim": "**Rows 2-3:** Show normal completion of the first 2 visits for subject 85.", "score": 0.5176, "match_basis": "verbatim_token+domain_route:SV"}, {"md_atom_id": "md_dmSV_ex_a038", "md_file": "knowledge_base/domains/SV/examples.md", "md_atom_type": "SENTENCE", "md_parent_section": "§SV.1 [Example 1]", "md_verbatim": "**Rows 5-9:** Normal completion of remaining visits for subject 85.", "score": 0.5154, "match_basis": "verbatim_token+domain_route:SV"}, {"md_atom_id": "md_dmSV_ex_a040", "md_file": "knowledge_base/domains/SV/examples.md", "md_atom_type": "SENTENCE", "md_parent_section": "§SV.1 [Example 1]", "md_verbatim": "**Row 11:** The visit called \"DAY 1\" started and ended as planned, on Day 1.", "score": 0.5021, "match_basis": "verbatim_token+domain_route:SV"}, {"md_atom_id": "md_dmSV_assn_a003", "md_file": "knowledge_base/domains/SV/assumptions.md", "md_atom_type": "LIST_ITEM", "md_parent_section": "§SV [SV — Assumptions]", "md_verbatim": "2. Subjects can have 1 and only 1 record per VISITNUM.", "score": 0.5002, "match_basis": "verbatim_token+domain_route:SV"}], "candidate_count": 5, "zero_candidate": false}
{"pdf_atom_id": "ig34_p0086_a017", "pdf_atom_type": "TABLE_HEADER", "pdf_source": "SDTMIG_v3.4", "pdf_page": 86, "pdf_parent_section": "§5.5 [Subject Visits (SV)]", "pdf_verbatim": "Variable Name | Variable Label | Type | Controlled Terms, Codelist or Format | Role | CDISC Notes | Core", "figure_ref": null, "candidates": [{"md_atom_id": "md_dmSV_ex_a027", "md_file": "knowledge_base/domains/SV/examples.md", "md_atom_type": "TABLE_HEADER", "md_parent_section": "§SV.1 [Example 1]", "md_verbatim": "| Row | STUDYID | DOMAIN | USUBJID | DSSEQ | DSTERM | DSDECOD | DSCAT | DSSCAT | EPOCH | DSDTC | DSSTDTC | DSSTDY |\n|-----|---------|--------|---------|-------|--------|---------|-------|--------|-------|-------|---------|--------|", "score": 0.4225, "match_basis": "verbatim_token+domain_route:SV"}, {"md_atom_id": "md_dmSV_ex_a010", "md_file": "knowledge_base/domains/SV/examples.md", "md_atom_type": "TABLE_HEADER", "md_parent_section": "§SV.1 [Example 1]", "md_verbatim": "| Row | STUDYID | DOMAIN | VISITNUM | VISIT | VISITDY | TVSTRL | TVENRL |\n|-----|---------|--------|----------|-------|---------|--------|--------|", "score": 0.4, "match_basis": "verbatim_token+domain_route:SV"}, {"md_atom_id": "md_dmSV_ex_a046", "md_file": "knowledge_base/domains/SV/examples.md", "md_atom_type": "TABLE_HEADER", "md_parent_section": "§SV.1 [Example 1]", "md_verbatim": "| Row | STUDYID | DOMAIN | USUBJID | VISITNUM | VISIT | SVPRESP | SVOCCUR | SVREASOC | SVCNTMOD | SVEPCHGI | VISITDY | SVSTDTC | SVENDTC | SVSTDY | SVENDY | SVUPDES |\n|-----|---------|--------|---------|----------|-------|---------|---------|----------|----------|----------|---------|---------|---------|--------|--------|---------|", "score": 0.4, "match_basis": "verbatim_token+domain_route:SV"}, {"md_atom_id": "md_dmSV_ex_a012", "md_file": "knowledge_base/domains/SV/examples.md", "md_atom_type": "TABLE_ROW", "md_parent_section": "§SV.1 [Example 1]", "md_verbatim": "| 2 | 123456 | TV | 2 | DAY 1 | 1 | On the day of, but before, the end of the Screen Epoch | On the day of, but after, the start of the Treatment Epoch |", "score": 0.365, "match_basis": "verbatim_token+domain_route:SV"}, {"md_atom_id": "md_dmSV_ex_a028", "md_file": "knowledge_base/domains/SV/examples.md", "md_atom_type": "TABLE_ROW", "md_parent_section": "§SV.1 [Example 1]", "md_verbatim": "| 1 | 123456 | DS | 37 | 1 | INFORMED CONSENT OBTAINED | INFORMED CONSENT OBTAINED | PROTOCOL MILESTONE | | SCREENING | 2019-09-10 | 2019-09-10 | |", "score": 0.3617, "match_basis": "verbatim_token+domain_route:SV"}], "candidate_count": 5, "zero_candidate": false}
{"pdf_atom_id": "ig34_p0086_a018", "pdf_atom_type": "TABLE_ROW", "pdf_source": "SDTMIG_v3.4", "pdf_page": 86, "pdf_parent_section": "§5.5 [Subject Visits (SV)]", "pdf_verbatim": "STUDYID | Study Identifier | Char | | Identifier | Unique identifier for a study. | Req", "figure_ref": null, "candidates": [{"md_atom_id": "md_dmSV_ex_a029", "md_file": "knowledge_base/domains/SV/examples.md", "md_atom_type": "TABLE_ROW", "md_parent_section": "§SV.1 [Example 1]", "md_verbatim": "| 2 | 123456 | DS | 37 | 2 | SCREEN FAILURE | SCREEN FAILURE | DISPOSITION EVENT | STUDY PARTICIPATION | SCREENING | 2019-09-16 | 2019-09-16 | |", "score": 0.4407, "match_basis": "verbatim_token+domain_route:SV"}, {"md_atom_id": "md_dmSV_ex_a031", "md_file": "knowledge_base/domains/SV/examples.md", "md_atom_type": "TABLE_ROW", "md_parent_section": "§SV.1 [Example 1]", "md_verbatim": "| 4 | 123456 | DS | 85 | 2 | COMPLETED | COMPLETED | DISPOSITION EVENT | STUDY PARTICIPATION | TREATMENT | 2020-02-27 | 2020-02-27 | 72 |", "score": 0.44, "match_basis": "verbatim_token+domain_route:SV"}, {"md_atom_id": "md_dmSV_ex_a033", "md_file": "knowledge_base/domains/SV/examples.md", "md_atom_type": "TABLE_ROW", "md_parent_section": "§SV.1 [Example 1]", "md_verbatim": "| 6 | 123456 | DS | 101 | 2 | WITHDRAWAL BY SUBJECT | WITHDRAWAL BY SUBJECT | DISPOSITION EVENT | STUDY PARTICIPATION | TREATMENT | 2020-03-16 | 2020-03-16 | 28 |", "score": 0.4358, "match_basis": "verbatim_token+domain_route:SV"}, {"md_atom_id": "md_dmSV_ex_a012", "md_file": "knowledge_base/domains/SV/examples.md", "md_atom_type": "TABLE_ROW", "md_parent_section": "§SV.1 [Example 1]", "md_verbatim": "| 2 | 123456 | TV | 2 | DAY 1 | 1 | On the day of, but before, the end of the Screen Epoch | On the day of, but after, the start of the Treatment Epoch |", "score": 0.4235, "match_basis": "verbatim_token+domain_route:SV"}, {"md_atom_id": "md_dmSV_ex_a028", "md_file": "knowledge_base/domains/SV/examples.md", "md_atom_type": "TABLE_ROW", "md_parent_section": "§SV.1 [Example 1]", "md_verbatim": "| 1 | 123456 | DS | 37 | 1 | INFORMED CONSENT OBTAINED | INFORMED CONSENT OBTAINED | PROTOCOL MILESTONE | | SCREENING | 2019-09-10 | 2019-09-10 | |", "score": 0.4194, "match_basis": "verbatim_token+domain_route:SV"}], "candidate_count": 5, "zero_candidate": false}
{"pdf_atom_id": "ig34_p0086_a019", "pdf_atom_type": "TABLE_ROW", "pdf_source": "SDTMIG_v3.4", "pdf_page": 86, "pdf_parent_section": "§5.5 [Subject Visits (SV)]", "pdf_verbatim": "DOMAIN | Domain Abbreviation | Char | SV | Identifier | Two-character abbreviation for the domain most relevant to the observation. The domain abbreviation is also used as a prefix for variables to ensure uniqueness when datasets are merged. | Req", "figure_ref": null, "candidates": [{"md_atom_id": "md_dmSV_ex_a060", "md_file": "knowledge_base/domains/SV/examples.md", "md_atom_type": "TABLE_ROW", "md_parent_section": "§SV.1 [Example 1]", "md_verbatim": "| 14 | 123456 | SV | 101 | 4.1 | | | | | REMOTE AUDIO VIDEO | Y | | 2020-03-07 | 2020-03-07 | 18 | 18 | EVALUATION OF AE |", "score": 0.428, "match_basis": "verbatim_token+domain_route:SV"}, {"md_atom_id": "md_dmSV_ex_a029", "md_file": "knowledge_base/domains/SV/examples.md", "md_atom_type": "TABLE_ROW", "md_parent_section": "§SV.1 [Example 1]", "md_verbatim": "| 2 | 123456 | DS | 37 | 2 | SCREEN FAILURE | SCREEN FAILURE | DISPOSITION EVENT | STUDY PARTICIPATION | SCREENING | 2019-09-16 | 2019-09-16 | |", "score": 0.4242, "match_basis": "verbatim_token+domain_route:SV"}, {"md_atom_id": "md_dmSV_ex_a018", "md_file": "knowledge_base/domains/SV/examples.md", "md_atom_type": "TABLE_ROW", "md_parent_section": "§SV.1 [Example 1]", "md_verbatim": "| 8 | 123456 | TV | 8 | FOLLOW-UP | | The earlier of 14 days after the last dose of treatment and 10 weeks after the start of the Treatment Epoch | At Trial Exit |", "score": 0.4236, "match_basis": "verbatim_token+domain_route:SV"}, {"md_atom_id": "md_dmSV_ex_a012", "md_file": "knowledge_base/domains/SV/examples.md", "md_atom_type": "TABLE_ROW", "md_parent_section": "§SV.1 [Example 1]", "md_verbatim": "| 2 | 123456 | TV | 2 | DAY 1 | 1 | On the day of, but before, the end of the Screen Epoch | On the day of, but after, the start of the Treatment Epoch |", "score": 0.4209, "match_basis": "verbatim_token+domain_route:SV"}, {"md_atom_id": "md_dmSV_ex_a028", "md_file": "knowledge_base/domains/SV/examples.md", "md_atom_type": "TABLE_ROW", "md_parent_section": "§SV.1 [Example 1]", "md_verbatim": "| 1 | 123456 | DS | 37 | 1 | INFORMED CONSENT OBTAINED | INFORMED CONSENT OBTAINED | PROTOCOL MILESTONE | | SCREENING | 2019-09-10 | 2019-09-10 | |", "score": 0.419, "match_basis": "verbatim_token+domain_route:SV"}], "candidate_count": 5, "zero_candidate": false}
{"pdf_atom_id": "ig34_p0086_a020", "pdf_atom_type": "TABLE_ROW", "pdf_source": "SDTMIG_v3.4", "pdf_page": 86, "pdf_parent_section": "§5.5 [Subject Visits (SV)]", "pdf_verbatim": "USUBJID | Unique Subject Identifier | Char | | Identifier | Identifier used to uniquely identify a subject across all studies for an applicant or across submissions involving the product. | Req", "figure_ref": null, "candidates": [{"md_atom_id": "md_dmSV_ex_a033", "md_file": "knowledge_base/domains/SV/examples.md", "md_atom_type": "TABLE_ROW", "md_parent_section": "§SV.1 [Example 1]", "md_verbatim": "| 6 | 123456 | DS | 101 | 2 | WITHDRAWAL BY SUBJECT | WITHDRAWAL BY SUBJECT | DISPOSITION EVENT | STUDY PARTICIPATION | TREATMENT | 2020-03-16 | 2020-03-16 | 28 |", "score": 0.45, "match_basis": "verbatim_token+domain_route:SV"}, {"md_atom_id": "md_dmSV_ex_a050", "md_file": "knowledge_base/domains/SV/examples.md", "md_atom_type": "TABLE_ROW", "md_parent_section": "§SV.1 [Example 1]", "md_verbatim": "| 4 | 123456 | SV | 85 | 3 | WEEK 1 | Y | N | SUBJECT LACKED TRANSPORTATION | | | 8 | | | | | |", "score": 0.4409, "match_basis": "verbatim_token+domain_route:SV"}, {"md_atom_id": "md_dmSV_ex_a029", "md_file": "knowledge_base/domains/SV/examples.md", "md_atom_type": "TABLE_ROW", "md_parent_section": "§SV.1 [Example 1]", "md_verbatim": "| 2 | 123456 | DS | 37 | 2 | SCREEN FAILURE | SCREEN FAILURE | DISPOSITION EVENT | STUDY PARTICIPATION | SCREENING | 2019-09-16 | 2019-09-16 | |", "score": 0.4288, "match_basis": "verbatim_token+domain_route:SV"}, {"md_atom_id": "md_dmSV_ex_a028", "md_file": "knowledge_base/domains/SV/examples.md", "md_atom_type": "TABLE_ROW", "md_parent_section": "§SV.1 [Example 1]", "md_verbatim": "| 1 | 123456 | DS | 37 | 1 | INFORMED CONSENT OBTAINED | INFORMED CONSENT OBTAINED | PROTOCOL MILESTONE | | SCREENING | 2019-09-10 | 2019-09-10 | |", "score": 0.4286, "match_basis": "verbatim_token+domain_route:SV"}, {"md_atom_id": "md_dmSV_ex_a030", "md_file": "knowledge_base/domains/SV/examples.md", "md_atom_type": "TABLE_ROW", "md_parent_section": "§SV.1 [Example 1]", "md_verbatim": "| 3 | 123456 | DS | 85 | 1 | INFORMED CONSENT OBTAINED | INFORMED CONSENT OBTAINED | PROTOCOL MILESTONE | | SCREENING | 2019-12-13 | 2019-12-13 | -6 |", "score": 0.4286, "match_basis": "verbatim_token+domain_route:SV"}], "candidate_count": 5, "zero_candidate": false}
{"pdf_atom_id": "ig34_p0086_a021", "pdf_atom_type": "TABLE_ROW", "pdf_source": "SDTMIG_v3.4", "pdf_page": 86, "pdf_parent_section": "§5.5 [Subject Visits (SV)]", "pdf_verbatim": "VISITNUM | Visit Number | Num | | Topic | Clinical encounter number. Numeric version of VISIT, used for sorting. | Req", "figure_ref": null, "candidates": [{"md_atom_id": "md_dmSV_ex_a059", "md_file": "knowledge_base/domains/SV/examples.md", "md_atom_type": "TABLE_ROW", "md_parent_section": "§SV.1 [Example 1]", "md_verbatim": "| 13 | 123456 | SV | 101 | 4 | WEEK 2 | Y | N | CLINIC CLOSED DUE TO BAD WEATHER | | | 15 | | | | | |", "score": 0.45, "match_basis": "verbatim_token+domain_route:SV"}, {"md_atom_id": "md_dmSV_ex_a029", "md_file": "knowledge_base/domains/SV/examples.md", "md_atom_type": "TABLE_ROW", "md_parent_section": "§SV.1 [Example 1]", "md_verbatim": "| 2 | 123456 | DS | 37 | 2 | SCREEN FAILURE | SCREEN FAILURE | DISPOSITION EVENT | STUDY PARTICIPATION | SCREENING | 2019-09-16 | 2019-09-16 | |", "score": 0.4296, "match_basis": "verbatim_token+domain_route:SV"}, {"md_atom_id": "md_dmSV_ex_a031", "md_file": "knowledge_base/domains/SV/examples.md", "md_atom_type": "TABLE_ROW", "md_parent_section": "§SV.1 [Example 1]", "md_verbatim": "| 4 | 123456 | DS | 85 | 2 | COMPLETED | COMPLETED | DISPOSITION EVENT | STUDY PARTICIPATION | TREATMENT | 2020-02-27 | 2020-02-27 | 72 |", "score": 0.4217, "match_basis": "verbatim_token+domain_route:SV"}, {"md_atom_id": "md_dmSV_ex_a033", "md_file": "knowledge_base/domains/SV/examples.md", "md_atom_type": "TABLE_ROW", "md_parent_section": "§SV.1 [Example 1]", "md_verbatim": "| 6 | 123456 | DS | 101 | 2 | WITHDRAWAL BY SUBJECT | WITHDRAWAL BY SUBJECT | DISPOSITION EVENT | STUDY PARTICIPATION | TREATMENT | 2020-03-16 | 2020-03-16 | 28 |", "score": 0.42, "match_basis": "verbatim_token+domain_route:SV"}, {"md_atom_id": "md_dmSV_ex_a011", "md_file": "knowledge_base/domains/SV/examples.md", "md_atom_type": "TABLE_ROW", "md_parent_section": "§SV.1 [Example 1]", "md_verbatim": "| 1 | 123456 | TV | 1 | SCREEN | | Start of Screening Epoch | Up to 7 days after start of the Screening Epoch |", "score": 0.4187, "match_basis": "verbatim_token+domain_route:SV"}], "candidate_count": 5, "zero_candidate": false}
{"pdf_atom_id": "ig34_p0086_a022", "pdf_atom_type": "TABLE_ROW", "pdf_source": "SDTMIG_v3.4", "pdf_page": 86, "pdf_parent_section": "§5.5 [Subject Visits (SV)]", "pdf_verbatim": "VISIT | Visit Name | Char | | Synonym Qualifier | Protocol-defined description of a clinical encounter. | Perm", "figure_ref": null, "candidates": [{"md_atom_id": "md_dmSV_ex_a028", "md_file": "knowledge_base/domains/SV/examples.md", "md_atom_type": "TABLE_ROW", "md_parent_section": "§SV.1 [Example 1]", "md_verbatim": "| 1 | 123456 | DS | 37 | 1 | INFORMED CONSENT OBTAINED | INFORMED CONSENT OBTAINED | PROTOCOL MILESTONE | | SCREENING | 2019-09-10 | 2019-09-10 | |", "score": 0.4614, "match_basis": "verbatim_token+domain_route:SV"}, {"md_atom_id": "md_dmSV_ex_a030", "md_file": "knowledge_base/domains/SV/examples.md", "md_atom_type": "TABLE_ROW", "md_parent_section": "§SV.1 [Example 1]", "md_verbatim": "| 3 | 123456 | DS | 85 | 1 | INFORMED CONSENT OBTAINED | INFORMED CONSENT OBTAINED | PROTOCOL MILESTONE | | SCREENING | 2019-12-13 | 2019-12-13 | -6 |", "score": 0.4614, "match_basis": "verbatim_token+domain_route:SV"}, {"md_atom_id": "md_dmSV_ex_a032", "md_file": "knowledge_base/domains/SV/examples.md", "md_atom_type": "TABLE_ROW", "md_parent_section": "§SV.1 [Example 1]", "md_verbatim": "| 5 | 123456 | DS | 101 | 1 | INFORMED CONSENT OBTAINED | INFORMED CONSENT OBTAINED | PROTOCOL MILESTONE | | SCREENING | 2020-02-13 | 2020-02-13 | -6 |", "score": 0.4607, "match_basis": "verbatim_token+domain_route:SV"}, {"md_atom_id": "md_dmSV_ex_a059", "md_file": "knowledge_base/domains/SV/examples.md", "md_atom_type": "TABLE_ROW", "md_parent_section": "§SV.1 [Example 1]", "md_verbatim": "| 13 | 123456 | SV | 101 | 4 | WEEK 2 | Y | N | CLINIC CLOSED DUE TO BAD WEATHER | | | 15 | | | | | |", "score": 0.4333, "match_basis": "verbatim_token+domain_route:SV"}, {"md_atom_id": "md_dmSV_ex_a029", "md_file": "knowledge_base/domains/SV/examples.md", "md_atom_type": "TABLE_ROW", "md_parent_section": "§SV.1 [Example 1]", "md_verbatim": "| 2 | 123456 | DS | 37 | 2 | SCREEN FAILURE | SCREEN FAILURE | DISPOSITION EVENT | STUDY PARTICIPATION | SCREENING | 2019-09-16 | 2019-09-16 | |", "score": 0.4261, "match_basis": "verbatim_token+domain_route:SV"}], "candidate_count": 5, "zero_candidate": false}
{"pdf_atom_id": "ig34_p0086_a023", "pdf_atom_type": "TABLE_ROW", "pdf_source": "SDTMIG_v3.4", "pdf_page": 86, "pdf_parent_section": "§5.5 [Subject Visits (SV)]", "pdf_verbatim": "SVPRESP | Pre-specified | Char | (NY) | Variable Qualifier | Used to indicate whether the visit was planned (i.e., visits specified in the TV domain). Value is \"Y\" for planned visits, null for unplanned visits. | Exp", "figure_ref": null, "candidates": [{"md_atom_id": "md_dmSV_ex_a059", "md_file": "knowledge_base/domains/SV/examples.md", "md_atom_type": "TABLE_ROW", "md_parent_section": "§SV.1 [Example 1]", "md_verbatim": "| 13 | 123456 | SV | 101 | 4 | WEEK 2 | Y | N | CLINIC CLOSED DUE TO BAD WEATHER | | | 15 | | | | | |", "score": 0.4225, "match_basis": "verbatim_token+domain_route:SV"}, {"md_atom_id": "md_dmSV_ex_a028", "md_file": "knowledge_base/domains/SV/examples.md", "md_atom_type": "TABLE_ROW", "md_parent_section": "§SV.1 [Example 1]", "md_verbatim": "| 1 | 123456 | DS | 37 | 1 | INFORMED CONSENT OBTAINED | INFORMED CONSENT OBTAINED | PROTOCOL MILESTONE | | SCREENING | 2019-09-10 | 2019-09-10 | |", "score": 0.4178, "match_basis": "verbatim_token+domain_route:SV"}, {"md_atom_id": "md_dmSV_ex_a030", "md_file": "knowledge_base/domains/SV/examples.md", "md_atom_type": "TABLE_ROW", "md_parent_section": "§SV.1 [Example 1]", "md_verbatim": "| 3 | 123456 | DS | 85 | 1 | INFORMED CONSENT OBTAINED | INFORMED CONSENT OBTAINED | PROTOCOL MILESTONE | | SCREENING | 2019-12-13 | 2019-12-13 | -6 |", "score": 0.4178, "match_basis": "verbatim_token+domain_route:SV"}, {"md_atom_id": "md_dmSV_ex_a032", "md_file": "knowledge_base/domains/SV/examples.md", "md_atom_type": "TABLE_ROW", "md_parent_section": "§SV.1 [Example 1]", "md_verbatim": "| 5 | 123456 | DS | 101 | 1 | INFORMED CONSENT OBTAINED | INFORMED CONSENT OBTAINED | PROTOCOL MILESTONE | | SCREENING | 2020-02-13 | 2020-02-13 | -6 |", "score": 0.4176, "match_basis": "verbatim_token+domain_route:SV"}, {"md_atom_id": "md_dmSV_ex_a018", "md_file": "knowledge_base/domains/SV/examples.md", "md_atom_type": "TABLE_ROW", "md_parent_section": "§SV.1 [Example 1]", "md_verbatim": "| 8 | 123456 | TV | 8 | FOLLOW-UP | | The earlier of 14 days after the last dose of treatment and 10 weeks after the start of the Treatment Epoch | At Trial Exit |", "score": 0.4175, "match_basis": "verbatim_token+domain_route:SV"}], "candidate_count": 5, "zero_candidate": false}
{"pdf_atom_id": "ig34_p0086_a024", "pdf_atom_type": "TABLE_ROW", "pdf_source": "SDTMIG_v3.4", "pdf_page": 86, "pdf_parent_section": "§5.5 [Subject Visits (SV)]", "pdf_verbatim": "SVOCCUR | Occurrence | Char | (NY) | Record Qualifier | Used to record whether a planned visit occurred. The value is null for unplanned visits. | Exp", "figure_ref": null, "candidates": [{"md_atom_id": "md_dmSV_assn_a007", "md_file": "knowledge_base/domains/SV/assumptions.md", "md_atom_type": "LIST_ITEM", "md_parent_section": "§SV [SV — Assumptions]", "md_verbatim": "   b. For planned visits, SVOCCUR indicates whether the visit occurred.", "score": 0.4664, "match_basis": "verbatim_token+domain_route:SV"}, {"md_atom_id": "md_dmSV_ex_a059", "md_file": "knowledge_base/domains/SV/examples.md", "md_atom_type": "TABLE_ROW", "md_parent_section": "§SV.1 [Example 1]", "md_verbatim": "| 13 | 123456 | SV | 101 | 4 | WEEK 2 | Y | N | CLINIC CLOSED DUE TO BAD WEATHER | | | 15 | | | | | |", "score": 0.4265, "match_basis": "verbatim_token+domain_route:SV"}, {"md_atom_id": "md_dmSV_assn_a008", "md_file": "knowledge_base/domains/SV/assumptions.md", "md_atom_type": "LIST_ITEM", "md_parent_section": "§SV [SV — Assumptions]", "md_verbatim": "   c. For unplanned visits, SVPRESP and SVOCCUR are null.", "score": 0.4236, "match_basis": "verbatim_token+domain_route:SV"}, {"md_atom_id": "md_dmSV_ex_a060", "md_file": "knowledge_base/domains/SV/examples.md", "md_atom_type": "TABLE_ROW", "md_parent_section": "§SV.1 [Example 1]", "md_verbatim": "| 14 | 123456 | SV | 101 | 4.1 | | | | | REMOTE AUDIO VIDEO | Y | | 2020-03-07 | 2020-03-07 | 18 | 18 | EVALUATION OF AE |", "score": 0.4167, "match_basis": "verbatim_token+domain_route:SV"}, {"md_atom_id": "md_dmSV_ex_a012", "md_file": "knowledge_base/domains/SV/examples.md", "md_atom_type": "TABLE_ROW", "md_parent_section": "§SV.1 [Example 1]", "md_verbatim": "| 2 | 123456 | TV | 2 | DAY 1 | 1 | On the day of, but before, the end of the Screen Epoch | On the day of, but after, the start of the Treatment Epoch |", "score": 0.4152, "match_basis": "verbatim_token+domain_route:SV"}], "candidate_count": 5, "zero_candidate": false}
{"pdf_atom_id": "ig34_p0086_a025", "pdf_atom_type": "TABLE_ROW", "pdf_source": "SDTMIG_v3.4", "pdf_page": 86, "pdf_parent_section": "§5.5 [Subject Visits (SV)]", "pdf_verbatim": "SVREASOC | Reason for Occur Value | Char | | Record Qualifier | The reason for the value in SVOCCUR. If SVOCCUR=\"N\", the reason the visit did not occur. | Perm", "figure_ref": null, "candidates": [{"md_atom_id": "md_dmSV_ex_a046", "md_file": "knowledge_base/domains/SV/examples.md", "md_atom_type": "TABLE_HEADER", "md_parent_section": "§SV.1 [Example 1]", "md_verbatim": "| Row | STUDYID | DOMAIN | USUBJID | VISITNUM | VISIT | SVPRESP | SVOCCUR | SVREASOC | SVCNTMOD | SVEPCHGI | VISITDY | SVSTDTC | SVENDTC | SVSTDY | SVENDY | SVUPDES |\n|-----|---------|--------|---------|----------|-------|---------|---------|----------|----------|----------|---------|---------|---------|--------|--------|---------|", "score": 0.4355, "match_basis": "verbatim_token+domain_route:SV"}, {"md_atom_id": "md_dmSV_ex_a012", "md_file": "knowledge_base/domains/SV/examples.md", "md_atom_type": "TABLE_ROW", "md_parent_section": "§SV.1 [Example 1]", "md_verbatim": "| 2 | 123456 | TV | 2 | DAY 1 | 1 | On the day of, but before, the end of the Screen Epoch | On the day of, but after, the start of the Treatment Epoch |", "score": 0.4273, "match_basis": "verbatim_token+domain_route:SV"}, {"md_atom_id": "md_dmSV_ex_a049", "md_file": "knowledge_base/domains/SV/examples.md", "md_atom_type": "TABLE_ROW", "md_parent_section": "§SV.1 [Example 1]", "md_verbatim": "| 3 | 123456 | SV | 85 | 2 | DAY 1 | Y | Y | | IN PERSON | | 1 | 2019-12-19 | 2019-12-19 | 1 | 1 | |", "score": 0.4261, "match_basis": "verbatim_token+domain_route:SV"}, {"md_atom_id": "md_dmSV_ex_a051", "md_file": "knowledge_base/domains/SV/examples.md", "md_atom_type": "TABLE_ROW", "md_parent_section": "§SV.1 [Example 1]", "md_verbatim": "| 5 | 123456 | SV | 85 | 4 | WEEK 2 | Y | Y | | IN PERSON | | 15 | 2020-01-02 | 2020-01-02 | 15 | 15 | |", "score": 0.4255, "match_basis": "verbatim_token+domain_route:SV"}, {"md_atom_id": "md_dmSV_ex_a052", "md_file": "knowledge_base/domains/SV/examples.md", "md_atom_type": "TABLE_ROW", "md_parent_section": "§SV.1 [Example 1]", "md_verbatim": "| 6 | 123456 | SV | 85 | 5 | WEEK 4 | Y | Y | | IN PERSON | | 29 | 2020-01-16 | 2020-01-16 | 30 | 30 | |", "score": 0.4255, "match_basis": "verbatim_token+domain_route:SV"}], "candidate_count": 5, "zero_candidate": false}
{"pdf_atom_id": "ig34_p0087_a001", "pdf_atom_type": "TABLE_ROW", "pdf_source": "SDTMIG_v3.4", "pdf_page": 87, "pdf_parent_section": "§5.5 [Subject Visits (SV)]", "pdf_verbatim": "SVCNTMOD | Contact Mode | Char | (CNTMODE) | Record Qualifier | The way in which the visit was conducted. Examples: \"IN PERSON\", \"TELEPHONE CALL\", \"IVRS\". | Perm", "figure_ref": null, "candidates": [{"md_atom_id": "md_dmSV_assn_a012", "md_file": "knowledge_base/domains/SV/assumptions.md", "md_atom_type": "LIST_ITEM", "md_parent_section": "§SV [SV — Assumptions]", "md_verbatim": "7. The variable SVCNTMOD is used to record the way in which the visit was conducted. For example, for visits to a clinic, SVCNTMOD = \"IN PERSON\", visits conducted remotely might have values such as \"TELEPHONE\", \"REMOTE AUDIO VIDEO\", or \"IVRS\". If there are multiple contact modes, refer to Section 4.2.8.3, Multiple Values for a Non-result Qualifier Variable.", "score": 0.5024, "match_basis": "verbatim_token+domain_route:SV"}, {"md_atom_id": "md_dmSV_ex_a061", "md_file": "knowledge_base/domains/SV/examples.md", "md_atom_type": "TABLE_ROW", "md_parent_section": "§SV.1 [Example 1]", "md_verbatim": "| 15 | 123456 | SV | 101 | 8 | FOLLOW-UP | Y | Y | | TELEPHONE CALL | Y | | 2020-03-16 | 2020-03-16 | 26 | 26 | |", "score": 0.474, "match_basis": "verbatim_token+domain_route:SV"}, {"md_atom_id": "md_dmSV_ex_a049", "md_file": "knowledge_base/domains/SV/examples.md", "md_atom_type": "TABLE_ROW", "md_parent_section": "§SV.1 [Example 1]", "md_verbatim": "| 3 | 123456 | SV | 85 | 2 | DAY 1 | Y | Y | | IN PERSON | | 1 | 2019-12-19 | 2019-12-19 | 1 | 1 | |", "score": 0.4348, "match_basis": "verbatim_token+domain_route:SV"}, {"md_atom_id": "md_dmSV_ex_a051", "md_file": "knowledge_base/domains/SV/examples.md", "md_atom_type": "TABLE_ROW", "md_parent_section": "§SV.1 [Example 1]", "md_verbatim": "| 5 | 123456 | SV | 85 | 4 | WEEK 2 | Y | Y | | IN PERSON | | 15 | 2020-01-02 | 2020-01-02 | 15 | 15 | |", "score": 0.4343, "match_basis": "verbatim_token+domain_route:SV"}, {"md_atom_id": "md_dmSV_ex_a052", "md_file": "knowledge_base/domains/SV/examples.md", "md_atom_type": "TABLE_ROW", "md_parent_section": "§SV.1 [Example 1]", "md_verbatim": "| 6 | 123456 | SV | 85 | 5 | WEEK 4 | Y | Y | | IN PERSON | | 29 | 2020-01-16 | 2020-01-16 | 30 | 30 | |", "score": 0.4343, "match_basis": "verbatim_token+domain_route:SV"}], "candidate_count": 5, "zero_candidate": false}
{"pdf_atom_id": "ig34_p0087_a002", "pdf_atom_type": "TABLE_ROW", "pdf_source": "SDTMIG_v3.4", "pdf_page": 87, "pdf_parent_section": "§5.5 [Subject Visits (SV)]", "pdf_verbatim": "SVEPCHGI | Epi/Pandemic Related Change Indicator | Char | (NY) | Record Qualifier | Indicates whether the visit was changed due to an epidemic or pandemic. | Perm", "figure_ref": null, "candidates": [{"md_atom_id": "md_dmSV_ex_a059", "md_file": "knowledge_base/domains/SV/examples.md", "md_atom_type": "TABLE_ROW", "md_parent_section": "§SV.1 [Example 1]", "md_verbatim": "| 13 | 123456 | SV | 101 | 4 | WEEK 2 | Y | N | CLINIC CLOSED DUE TO BAD WEATHER | | | 15 | | | | | |", "score": 0.4237, "match_basis": "verbatim_token+domain_route:SV"}, {"md_atom_id": "md_dmSV_ex_a018", "md_file": "knowledge_base/domains/SV/examples.md", "md_atom_type": "TABLE_ROW", "md_parent_section": "§SV.1 [Example 1]", "md_verbatim": "| 8 | 123456 | TV | 8 | FOLLOW-UP | | The earlier of 14 days after the last dose of treatment and 10 weeks after the start of the Treatment Epoch | At Trial Exit |", "score": 0.4182, "match_basis": "verbatim_token+domain_route:SV"}, {"md_atom_id": "md_dmSV_ex_a031", "md_file": "knowledge_base/domains/SV/examples.md", "md_atom_type": "TABLE_ROW", "md_parent_section": "§SV.1 [Example 1]", "md_verbatim": "| 4 | 123456 | DS | 85 | 2 | COMPLETED | COMPLETED | DISPOSITION EVENT | STUDY PARTICIPATION | TREATMENT | 2020-02-27 | 2020-02-27 | 72 |", "score": 0.4122, "match_basis": "verbatim_token+domain_route:SV"}, {"md_atom_id": "md_dmSV_ex_a049", "md_file": "knowledge_base/domains/SV/examples.md", "md_atom_type": "TABLE_ROW", "md_parent_section": "§SV.1 [Example 1]", "md_verbatim": "| 3 | 123456 | SV | 85 | 2 | DAY 1 | Y | Y | | IN PERSON | | 1 | 2019-12-19 | 2019-12-19 | 1 | 1 | |", "score": 0.409, "match_basis": "verbatim_token+domain_route:SV"}, {"md_atom_id": "md_dmSV_ex_a051", "md_file": "knowledge_base/domains/SV/examples.md", "md_atom_type": "TABLE_ROW", "md_parent_section": "§SV.1 [Example 1]", "md_verbatim": "| 5 | 123456 | SV | 85 | 4 | WEEK 2 | Y | Y | | IN PERSON | | 15 | 2020-01-02 | 2020-01-02 | 15 | 15 | |", "score": 0.4088, "match_basis": "verbatim_token+domain_route:SV"}], "candidate_count": 5, "zero_candidate": false}
{"pdf_atom_id": "ig34_p0087_a003", "pdf_atom_type": "TABLE_ROW", "pdf_source": "SDTMIG_v3.4", "pdf_page": 87, "pdf_parent_section": "§5.5 [Subject Visits (SV)]", "pdf_verbatim": "VISITDY | Planned Study Day of VISIT | Num | | Timing | Planned study day of VISIT. Should be an integer. | Perm", "figure_ref": null, "candidates": [{"md_atom_id": "md_dmSV_ex_a010", "md_file": "knowledge_base/domains/SV/examples.md", "md_atom_type": "TABLE_HEADER", "md_parent_section": "§SV.1 [Example 1]", "md_verbatim": "| Row | STUDYID | DOMAIN | VISITNUM | VISIT | VISITDY | TVSTRL | TVENRL |\n|-----|---------|--------|----------|-------|---------|--------|--------|", "score": 0.4549, "match_basis": "verbatim_token+domain_route:SV"}, {"md_atom_id": "md_dmSV_ex_a029", "md_file": "knowledge_base/domains/SV/examples.md", "md_atom_type": "TABLE_ROW", "md_parent_section": "§SV.1 [Example 1]", "md_verbatim": "| 2 | 123456 | DS | 37 | 2 | SCREEN FAILURE | SCREEN FAILURE | DISPOSITION EVENT | STUDY PARTICIPATION | SCREENING | 2019-09-16 | 2019-09-16 | |", "score": 0.4448, "match_basis": "verbatim_token+domain_route:SV"}, {"md_atom_id": "md_dmSV_assn_a013", "md_file": "knowledge_base/domains/SV/assumptions.md", "md_atom_type": "LIST_ITEM", "md_parent_section": "§SV [SV — Assumptions]", "md_verbatim": "8. The planned study day of visit variable (VISITDY) should not be populated for unplanned visits.", "score": 0.4404, "match_basis": "verbatim_token+domain_route:SV"}, {"md_atom_id": "md_dmSV_ex_a031", "md_file": "knowledge_base/domains/SV/examples.md", "md_atom_type": "TABLE_ROW", "md_parent_section": "§SV.1 [Example 1]", "md_verbatim": "| 4 | 123456 | DS | 85 | 2 | COMPLETED | COMPLETED | DISPOSITION EVENT | STUDY PARTICIPATION | TREATMENT | 2020-02-27 | 2020-02-27 | 72 |", "score": 0.4348, "match_basis": "verbatim_token+domain_route:SV"}, {"md_atom_id": "md_dmSV_ex_a033", "md_file": "knowledge_base/domains/SV/examples.md", "md_atom_type": "TABLE_ROW", "md_parent_section": "§SV.1 [Example 1]", "md_verbatim": "| 6 | 123456 | DS | 101 | 2 | WITHDRAWAL BY SUBJECT | WITHDRAWAL BY SUBJECT | DISPOSITION EVENT | STUDY PARTICIPATION | TREATMENT | 2020-03-16 | 2020-03-16 | 28 |", "score": 0.4316, "match_basis": "verbatim_token+domain_route:SV"}], "candidate_count": 5, "zero_candidate": false}
{"pdf_atom_id": "ig34_p0087_a004", "pdf_atom_type": "TABLE_ROW", "pdf_source": "SDTMIG_v3.4", "pdf_page": 87, "pdf_parent_section": "§5.5 [Subject Visits (SV)]", "pdf_verbatim": "SVSTDTC | Start Date/Time of Observation | Char | ISO 8601 datetime or interval | Timing | Start date/time of an observation represented in ISO 8601 character format. | Exp", "figure_ref": null, "candidates": [{"md_atom_id": "md_dmSV_ex_a012", "md_file": "knowledge_base/domains/SV/examples.md", "md_atom_type": "TABLE_ROW", "md_parent_section": "§SV.1 [Example 1]", "md_verbatim": "| 2 | 123456 | TV | 2 | DAY 1 | 1 | On the day of, but before, the end of the Screen Epoch | On the day of, but after, the start of the Treatment Epoch |", "score": 0.4462, "match_basis": "verbatim_token+domain_route:SV"}, {"md_atom_id": "md_dmSV_ex_a011", "md_file": "knowledge_base/domains/SV/examples.md", "md_atom_type": "TABLE_ROW", "md_parent_section": "§SV.1 [Example 1]", "md_verbatim": "| 1 | 123456 | TV | 1 | SCREEN | | Start of Screening Epoch | Up to 7 days after start of the Screening Epoch |", "score": 0.4429, "match_basis": "verbatim_token+domain_route:SV"}, {"md_atom_id": "md_dmSV_ex_a013", "md_file": "knowledge_base/domains/SV/examples.md", "md_atom_type": "TABLE_ROW", "md_parent_section": "§SV.1 [Example 1]", "md_verbatim": "| 3 | 123456 | TV | 3 | WEEK 1 | 8 | 1 week after the start of the Treatment Epoch | |", "score": 0.4429, "match_basis": "verbatim_token+domain_route:SV"}, {"md_atom_id": "md_dmSV_ex_a014", "md_file": "knowledge_base/domains/SV/examples.md", "md_atom_type": "TABLE_ROW", "md_parent_section": "§SV.1 [Example 1]", "md_verbatim": "| 4 | 123456 | TV | 4 | WEEK 2 | 15 | 2 weeks after the start of the Treatment Epoch | |", "score": 0.4423, "match_basis": "verbatim_token+domain_route:SV"}, {"md_atom_id": "md_dmSV_ex_a015", "md_file": "knowledge_base/domains/SV/examples.md", "md_atom_type": "TABLE_ROW", "md_parent_section": "§SV.1 [Example 1]", "md_verbatim": "| 5 | 123456 | TV | 5 | WEEK 4 | 29 | 4 weeks after the start of the Treatment Epoch | |", "score": 0.4423, "match_basis": "verbatim_token+domain_route:SV"}], "candidate_count": 5, "zero_candidate": false}
{"pdf_atom_id": "ig34_p0087_a005", "pdf_atom_type": "TABLE_ROW", "pdf_source": "SDTMIG_v3.4", "pdf_page": 87, "pdf_parent_section": "§5.5 [Subject Visits (SV)]", "pdf_verbatim": "SVENDTC | End Date/Time of Observation | Char | ISO 8601 datetime or interval | Timing | End date/time of the observation represented in ISO 8601 character format. | Exp", "figure_ref": null, "candidates": [{"md_atom_id": "md_dmSV_ex_a029", "md_file": "knowledge_base/domains/SV/examples.md", "md_atom_type": "TABLE_ROW", "md_parent_section": "§SV.1 [Example 1]", "md_verbatim": "| 2 | 123456 | DS | 37 | 2 | SCREEN FAILURE | SCREEN FAILURE | DISPOSITION EVENT | STUDY PARTICIPATION | SCREENING | 2019-09-16 | 2019-09-16 | |", "score": 0.4419, "match_basis": "verbatim_token+domain_route:SV"}, {"md_atom_id": "md_dmSV_ex_a031", "md_file": "knowledge_base/domains/SV/examples.md", "md_atom_type": "TABLE_ROW", "md_parent_section": "§SV.1 [Example 1]", "md_verbatim": "| 4 | 123456 | DS | 85 | 2 | COMPLETED | COMPLETED | DISPOSITION EVENT | STUDY PARTICIPATION | TREATMENT | 2020-02-27 | 2020-02-27 | 72 |", "score": 0.4414, "match_basis": "verbatim_token+domain_route:SV"}, {"md_atom_id": "md_dmSV_ex_a012", "md_file": "knowledge_base/domains/SV/examples.md", "md_atom_type": "TABLE_ROW", "md_parent_section": "§SV.1 [Example 1]", "md_verbatim": "| 2 | 123456 | TV | 2 | DAY 1 | 1 | On the day of, but before, the end of the Screen Epoch | On the day of, but after, the start of the Treatment Epoch |", "score": 0.439, "match_basis": "verbatim_token+domain_route:SV"}, {"md_atom_id": "md_dmSV_ex_a028", "md_file": "knowledge_base/domains/SV/examples.md", "md_atom_type": "TABLE_ROW", "md_parent_section": "§SV.1 [Example 1]", "md_verbatim": "| 1 | 123456 | DS | 37 | 1 | INFORMED CONSENT OBTAINED | INFORMED CONSENT OBTAINED | PROTOCOL MILESTONE | | SCREENING | 2019-09-10 | 2019-09-10 | |", "score": 0.4341, "match_basis": "verbatim_token+domain_route:SV"}, {"md_atom_id": "md_dmSV_ex_a030", "md_file": "knowledge_base/domains/SV/examples.md", "md_atom_type": "TABLE_ROW", "md_parent_section": "§SV.1 [Example 1]", "md_verbatim": "| 3 | 123456 | DS | 85 | 1 | INFORMED CONSENT OBTAINED | INFORMED CONSENT OBTAINED | PROTOCOL MILESTONE | | SCREENING | 2019-12-13 | 2019-12-13 | -6 |", "score": 0.4341, "match_basis": "verbatim_token+domain_route:SV"}], "candidate_count": 5, "zero_candidate": false}
{"pdf_atom_id": "ig34_p0087_a006", "pdf_atom_type": "TABLE_ROW", "pdf_source": "SDTMIG_v3.4", "pdf_page": 87, "pdf_parent_section": "§5.5 [Subject Visits (SV)]", "pdf_verbatim": "SVSTDY | Study Day of Start of Observation | Num | | Timing | Actual study day of start of observation expressed in integer days relative to the sponsor-defined RFSTDTC in Demographics. | Perm", "figure_ref": null, "candidates": [{"md_atom_id": "md_dmSV_ex_a029", "md_file": "knowledge_base/domains/SV/examples.md", "md_atom_type": "TABLE_ROW", "md_parent_section": "§SV.1 [Example 1]", "md_verbatim": "| 2 | 123456 | DS | 37 | 2 | SCREEN FAILURE | SCREEN FAILURE | DISPOSITION EVENT | STUDY PARTICIPATION | SCREENING | 2019-09-16 | 2019-09-16 | |", "score": 0.4505, "match_basis": "verbatim_token+domain_route:SV"}, {"md_atom_id": "md_dmSV_ex_a011", "md_file": "knowledge_base/domains/SV/examples.md", "md_atom_type": "TABLE_ROW", "md_parent_section": "§SV.1 [Example 1]", "md_verbatim": "| 1 | 123456 | TV | 1 | SCREEN | | Start of Screening Epoch | Up to 7 days after start of the Screening Epoch |", "score": 0.4467, "match_basis": "verbatim_token+domain_route:SV"}, {"md_atom_id": "md_dmSV_ex_a031", "md_file": "knowledge_base/domains/SV/examples.md", "md_atom_type": "TABLE_ROW", "md_parent_section": "§SV.1 [Example 1]", "md_verbatim": "| 4 | 123456 | DS | 85 | 2 | COMPLETED | COMPLETED | DISPOSITION EVENT | STUDY PARTICIPATION | TREATMENT | 2020-02-27 | 2020-02-27 | 72 |", "score": 0.444, "match_basis": "verbatim_token+domain_route:SV"}, {"md_atom_id": "md_dmSV_ex_a033", "md_file": "knowledge_base/domains/SV/examples.md", "md_atom_type": "TABLE_ROW", "md_parent_section": "§SV.1 [Example 1]", "md_verbatim": "| 6 | 123456 | DS | 101 | 2 | WITHDRAWAL BY SUBJECT | WITHDRAWAL BY SUBJECT | DISPOSITION EVENT | STUDY PARTICIPATION | TREATMENT | 2020-03-16 | 2020-03-16 | 28 |", "score": 0.4414, "match_basis": "verbatim_token+domain_route:SV"}, {"md_atom_id": "md_dmSV_ex_a018", "md_file": "knowledge_base/domains/SV/examples.md", "md_atom_type": "TABLE_ROW", "md_parent_section": "§SV.1 [Example 1]", "md_verbatim": "| 8 | 123456 | TV | 8 | FOLLOW-UP | | The earlier of 14 days after the last dose of treatment and 10 weeks after the start of the Treatment Epoch | At Trial Exit |", "score": 0.4319, "match_basis": "verbatim_token+domain_route:SV"}], "candidate_count": 5, "zero_candidate": false}
{"pdf_atom_id": "ig34_p0087_a007", "pdf_atom_type": "TABLE_ROW", "pdf_source": "SDTMIG_v3.4", "pdf_page": 87, "pdf_parent_section": "§5.5 [Subject Visits (SV)]", "pdf_verbatim": "SVENDY | Study Day of End of Observation | Num | | Timing | Actual study day of end of observation expressed in integer days relative to the sponsor-defined RFSTDTC in Demographics. | Perm", "figure_ref": null, "candidates": [{"md_atom_id": "md_dmSV_ex_a029", "md_file": "knowledge_base/domains/SV/examples.md", "md_atom_type": "TABLE_ROW", "md_parent_section": "§SV.1 [Example 1]", "md_verbatim": "| 2 | 123456 | DS | 37 | 2 | SCREEN FAILURE | SCREEN FAILURE | DISPOSITION EVENT | STUDY PARTICIPATION | SCREENING | 2019-09-16 | 2019-09-16 | |", "score": 0.4514, "match_basis": "verbatim_token+domain_route:SV"}, {"md_atom_id": "md_dmSV_ex_a031", "md_file": "knowledge_base/domains/SV/examples.md", "md_atom_type": "TABLE_ROW", "md_parent_section": "§SV.1 [Example 1]", "md_verbatim": "| 4 | 123456 | DS | 85 | 2 | COMPLETED | COMPLETED | DISPOSITION EVENT | STUDY PARTICIPATION | TREATMENT | 2020-02-27 | 2020-02-27 | 72 |", "score": 0.4449, "match_basis": "verbatim_token+domain_route:SV"}, {"md_atom_id": "md_dmSV_ex_a033", "md_file": "knowledge_base/domains/SV/examples.md", "md_atom_type": "TABLE_ROW", "md_parent_section": "§SV.1 [Example 1]", "md_verbatim": "| 6 | 123456 | DS | 101 | 2 | WITHDRAWAL BY SUBJECT | WITHDRAWAL BY SUBJECT | DISPOSITION EVENT | STUDY PARTICIPATION | TREATMENT | 2020-03-16 | 2020-03-16 | 28 |", "score": 0.4421, "match_basis": "verbatim_token+domain_route:SV"}, {"md_atom_id": "md_dmSV_ex_a011", "md_file": "knowledge_base/domains/SV/examples.md", "md_atom_type": "TABLE_ROW", "md_parent_section": "§SV.1 [Example 1]", "md_verbatim": "| 1 | 123456 | TV | 1 | SCREEN | | Start of Screening Epoch | Up to 7 days after start of the Screening Epoch |", "score": 0.4264, "match_basis": "verbatim_token+domain_route:SV"}, {"md_atom_id": "md_dmSV_ex_a060", "md_file": "knowledge_base/domains/SV/examples.md", "md_atom_type": "TABLE_ROW", "md_parent_section": "§SV.1 [Example 1]", "md_verbatim": "| 14 | 123456 | SV | 101 | 4.1 | | | | | REMOTE AUDIO VIDEO | Y | | 2020-03-07 | 2020-03-07 | 18 | 18 | EVALUATION OF AE |", "score": 0.4258, "match_basis": "verbatim_token+domain_route:SV"}], "candidate_count": 5, "zero_candidate": false}
{"pdf_atom_id": "ig34_p0087_a008", "pdf_atom_type": "TABLE_ROW", "pdf_source": "SDTMIG_v3.4", "pdf_page": 87, "pdf_parent_section": "§5.5 [Subject Visits (SV)]", "pdf_verbatim": "SVUPDES | Description of Unplanned Visit | Char | | Record Qualifier | Description of what happened to the subject during an unplanned visit. Only populated for unplanned visits. | Perm", "figure_ref": null, "candidates": [{"md_atom_id": "md_dmSV_ex_a050", "md_file": "knowledge_base/domains/SV/examples.md", "md_atom_type": "TABLE_ROW", "md_parent_section": "§SV.1 [Example 1]", "md_verbatim": "| 4 | 123456 | SV | 85 | 3 | WEEK 1 | Y | N | SUBJECT LACKED TRANSPORTATION | | | 8 | | | | | |", "score": 0.4488, "match_basis": "verbatim_token+domain_route:SV"}, {"md_atom_id": "md_dmSV_ex_a033", "md_file": "knowledge_base/domains/SV/examples.md", "md_atom_type": "TABLE_ROW", "md_parent_section": "§SV.1 [Example 1]", "md_verbatim": "| 6 | 123456 | DS | 101 | 2 | WITHDRAWAL BY SUBJECT | WITHDRAWAL BY SUBJECT | DISPOSITION EVENT | STUDY PARTICIPATION | TREATMENT | 2020-03-16 | 2020-03-16 | 28 |", "score": 0.4444, "match_basis": "verbatim_token+domain_route:SV"}, {"md_atom_id": "md_dmSV_ex_a029", "md_file": "knowledge_base/domains/SV/examples.md", "md_atom_type": "TABLE_ROW", "md_parent_section": "§SV.1 [Example 1]", "md_verbatim": "| 2 | 123456 | DS | 37 | 2 | SCREEN FAILURE | SCREEN FAILURE | DISPOSITION EVENT | STUDY PARTICIPATION | SCREENING | 2019-09-16 | 2019-09-16 | |", "score": 0.4291, "match_basis": "verbatim_token+domain_route:SV"}, {"md_atom_id": "md_dmSV_ex_a028", "md_file": "knowledge_base/domains/SV/examples.md", "md_atom_type": "TABLE_ROW", "md_parent_section": "§SV.1 [Example 1]", "md_verbatim": "| 1 | 123456 | DS | 37 | 1 | INFORMED CONSENT OBTAINED | INFORMED CONSENT OBTAINED | PROTOCOL MILESTONE | | SCREENING | 2019-09-10 | 2019-09-10 | |", "score": 0.4229, "match_basis": "verbatim_token+domain_route:SV"}, {"md_atom_id": "md_dmSV_ex_a030", "md_file": "knowledge_base/domains/SV/examples.md", "md_atom_type": "TABLE_ROW", "md_parent_section": "§SV.1 [Example 1]", "md_verbatim": "| 3 | 123456 | DS | 85 | 1 | INFORMED CONSENT OBTAINED | INFORMED CONSENT OBTAINED | PROTOCOL MILESTONE | | SCREENING | 2019-12-13 | 2019-12-13 | -6 |", "score": 0.4229, "match_basis": "verbatim_token+domain_route:SV"}], "candidate_count": 5, "zero_candidate": false}
{"pdf_atom_id": "ig34_p0087_a009", "pdf_atom_type": "NOTE", "pdf_source": "SDTMIG_v3.4", "pdf_page": 87, "pdf_parent_section": "§5.5 [Subject Visits (SV)]", "pdf_verbatim": "In this column, an asterisk (*) indicates that the variable may be subject to controlled terminology. CDISC/NCI codelist values are enclosed in parentheses.", "figure_ref": null, "candidates": [{"md_atom_id": "md_dmSV_ex_a035", "md_file": "knowledge_base/domains/SV/examples.md", "md_atom_type": "SENTENCE", "md_parent_section": "§SV.1 [Example 1]", "md_verbatim": "**Row 1:** Shows that screening data for subject 37 was collected during a period of 4 days. This subject is shown as a screen failure in ds.xpt and therefore would have a null DM.RFSTDTC, hence the study day values in SVSTDY and SVENDY, which are based on the sponsor-defined reference start date, are null.", "score": 0.3957, "match_basis": "verbatim_token+domain_route:SV"}, {"md_atom_id": "md_dmSV_ex_a043", "md_file": "knowledge_base/domains/SV/examples.md", "md_atom_type": "SENTENCE", "md_parent_section": "§SV.1 [Example 1]", "md_verbatim": "**Row 14:** Shows an unscheduled visit. SVUPDES provides the information that this visit dealt with evaluation of an adverse event. Since this visit was not planned, VISITDY was not populated, SVPRESP and SVOCCUR are both null. VISITNUM is populated as required, but the sponsor chose not to populate VISIT. Data collected at this encounter may be in a Findings domain such as EG, LB, or VS, in which VISITNUM is treated as an important timing variable. This visit was over remote audio video due to having an adverse event during a pandemic.", "score": 0.3824, "match_basis": "verbatim_token+domain_route:SV"}, {"md_atom_id": "md_dmSV_ex_a044", "md_file": "knowledge_base/domains/SV/examples.md", "md_atom_type": "SENTENCE", "md_parent_section": "§SV.1 [Example 1]", "md_verbatim": "**Row 15:** This subject had their last visit, a follow-up visit on study day 26, eight days after the unscheduled visit.", "score": 0.3773, "match_basis": "verbatim_token+domain_route:SV"}, {"md_atom_id": "md_dmSV_ex_a037", "md_file": "knowledge_base/domains/SV/examples.md", "md_atom_type": "SENTENCE", "md_parent_section": "§SV.1 [Example 1]", "md_verbatim": "**Row 4:** Shows that for subject 85, the visit called \"WEEK 1\" did not occur; the reason it did not occur is represented in SVREASOC.", "score": 0.3761, "match_basis": "verbatim_token+domain_route:SV"}, {"md_atom_id": "md_dmSV_ex_a034", "md_file": "knowledge_base/domains/SV/examples.md", "md_atom_type": "SENTENCE", "md_parent_section": "§SV.1 [Example 1]", "md_verbatim": "Because the study in this example was disrupted by an epidemic, the permissible variable SVEPCHGI (Epi/Pandemic Related Change Indicator) was included in the SV dataset. As originally planned, visits were to be conducted in person, but pandemic disruption included conducting some visits remotely. When the change to a remote visit was a change due to the pandemic, SVEPCHGI = \"Y\".", "score": 0.3756, "match_basis": "verbatim_token+domain_route:SV"}], "candidate_count": 5, "zero_candidate": false}
{"pdf_atom_id": "ig34_p0087_a010", "pdf_atom_type": "HEADING", "pdf_source": "SDTMIG_v3.4", "pdf_page": 87, "pdf_parent_section": "§5.5 [Subject Visits (SV)]", "pdf_verbatim": "SV – Assumptions", "figure_ref": null, "candidates": [{"md_atom_id": "md_dmSV_assn_a001", "md_file": "knowledge_base/domains/SV/assumptions.md", "md_atom_type": "HEADING", "md_parent_section": "§SV [SV — Assumptions]", "md_verbatim": "# SV — Assumptions", "score": 1.0, "match_basis": "verbatim_token+domain_route:SV"}, {"md_atom_id": "md_dmSV_ex_a001", "md_file": "knowledge_base/domains/SV/examples.md", "md_atom_type": "HEADING", "md_parent_section": "§SV [SV — Examples]", "md_verbatim": "# SV — Examples", "score": 0.4, "match_basis": "verbatim_token+domain_route:SV"}, {"md_atom_id": "md_dmSV_ex_a002", "md_file": "knowledge_base/domains/SV/examples.md", "md_atom_type": "HEADING", "md_parent_section": "§SV [SV — Examples]", "md_verbatim": "## Example 1", "score": 0.4, "match_basis": "verbatim_token+domain_route:SV"}], "candidate_count": 3, "zero_candidate": false}
{"pdf_atom_id": "ig34_p0087_a011", "pdf_atom_type": "LIST_ITEM", "pdf_source": "SDTMIG_v3.4", "pdf_page": 87, "pdf_parent_section": "§5.5 [Subject Visits (SV)]", "pdf_verbatim": "The Subject Visits domain allows the submission of data on the timing of the trial visits for a subject, including both those visits they actually passed through in their participation in the trial and those visits that did not occur. Refer to Section 7.3.1, Trial Visits (TV), as the TV dataset defines the planned visits for the trial.", "figure_ref": null, "candidates": [{"md_atom_id": "md_dmSV_assn_a002", "md_file": "knowledge_base/domains/SV/assumptions.md", "md_atom_type": "LIST_ITEM", "md_parent_section": "§SV [SV — Assumptions]", "md_verbatim": "1. The Subject Visits domain allows the submission of data on the timing of the trial visits for a subject, including both those visits they actually passed through in their participation in the trial and those visits that did not occur. Refer to Section 7.3.1, Trial Visits (TV), as the TV dataset defines the planned visits for the trial.", "score": 1.0, "match_basis": "verbatim_token+domain_route:SV"}, {"md_atom_id": "md_dmSV_assn_a027", "md_file": "knowledge_base/domains/SV/assumptions.md", "md_atom_type": "LIST_ITEM", "md_parent_section": "§SV [SV — Assumptions]", "md_verbatim": "16. SVOCCUR = \"N\" records are only to be created for planned visits that were expected to occur before the end of the subject's participation.", "score": 0.5548, "match_basis": "verbatim_token+domain_route:SV"}, {"md_atom_id": "md_dmSV_assn_a011", "md_file": "knowledge_base/domains/SV/assumptions.md", "md_atom_type": "LIST_ITEM", "md_parent_section": "§SV [SV — Assumptions]", "md_verbatim": "6. Records for unplanned visits should be included in the SV dataset. For unplanned visits, SVUPDES can be populated with a description of the reason for the unplanned visit. Some judgment may be required to determine what constitutes an unplanned visit. When data are collected outside a planned visit, that act of collecting data may or may not be described as a \"visit.\" The encounter should generally be treated as a visit if data from the encounter are included in any domain for which VISITNUM is included; a record with a missing value for VISITNUM is generally less useful than a record with VISITNUM populated. If the occasion is considered a visit, its date/times must be included in the SV table and a value of VISITNUM must be assigned. Refer to Section 4.4.5, Clinical Encounters and Visits, for information on the population of visit variables for unplanned visits.", "score": 0.5234, "match_basis": "verbatim_token+domain_route:SV"}, {"md_atom_id": "md_dmSV_assn_a004", "md_file": "knowledge_base/domains/SV/assumptions.md", "md_atom_type": "LIST_ITEM", "md_parent_section": "§SV [SV — Assumptions]", "md_verbatim": "3. Subjects who screen fail, withdraw, die, or otherwise discontinue study participation will not have records for planned visits subsequent to their final disposition event.", "score": 0.5231, "match_basis": "verbatim_token+domain_route:SV"}, {"md_atom_id": "md_dmSV_assn_a010", "md_file": "knowledge_base/domains/SV/assumptions.md", "md_atom_type": "LIST_ITEM", "md_parent_section": "§SV [SV — Assumptions]", "md_verbatim": "5. The identification of an actual visit with a planned visit sometimes calls for judgment. In general, data collection forms are prepared for particular visits, and the fact that data was collected on a form labeled with a planned visit is sufficient to make the association. Occasionally, the association will not be so clear, and the sponsor will need to make decisions about how to label actual visits. The sponsor's rules for making such decisions should be documented in the Define-XML document.", "score": 0.5229, "match_basis": "verbatim_token+domain_route:SV"}], "candidate_count": 5, "zero_candidate": false}
{"pdf_atom_id": "ig34_p0087_a012", "pdf_atom_type": "LIST_ITEM", "pdf_source": "SDTMIG_v3.4", "pdf_page": 87, "pdf_parent_section": "§5.5 [Subject Visits (SV)]", "pdf_verbatim": "Subjects can have 1 and only 1 record per VISITNUM.", "figure_ref": null, "candidates": [{"md_atom_id": "md_dmSV_assn_a003", "md_file": "knowledge_base/domains/SV/assumptions.md", "md_atom_type": "LIST_ITEM", "md_parent_section": "§SV [SV — Assumptions]", "md_verbatim": "2. Subjects can have 1 and only 1 record per VISITNUM.", "score": 1.0, "match_basis": "verbatim_token+domain_route:SV"}, {"md_atom_id": "md_dmSV_assn_a027", "md_file": "knowledge_base/domains/SV/assumptions.md", "md_atom_type": "LIST_ITEM", "md_parent_section": "§SV [SV — Assumptions]", "md_verbatim": "16. SVOCCUR = \"N\" records are only to be created for planned visits that were expected to occur before the end of the subject's participation.", "score": 0.5273, "match_basis": "verbatim_token+domain_route:SV"}, {"md_atom_id": "md_dmSV_assn_a004", "md_file": "knowledge_base/domains/SV/assumptions.md", "md_atom_type": "LIST_ITEM", "md_parent_section": "§SV [SV — Assumptions]", "md_verbatim": "3. Subjects who screen fail, withdraw, die, or otherwise discontinue study participation will not have records for planned visits subsequent to their final disposition event.", "score": 0.4928, "match_basis": "verbatim_token+domain_route:SV"}, {"md_atom_id": "md_dmSV_assn_a005", "md_file": "knowledge_base/domains/SV/assumptions.md", "md_atom_type": "LIST_ITEM", "md_parent_section": "§SV [SV — Assumptions]", "md_verbatim": "4. Planned and unplanned visits with a subject, whether or not they are physical visits to the investigational site, are represented in this domain.", "score": 0.4711, "match_basis": "verbatim_token+domain_route:SV"}, {"md_atom_id": "md_dmSV_assn_a021", "md_file": "knowledge_base/domains/SV/assumptions.md", "md_atom_type": "LIST_ITEM", "md_parent_section": "§SV [SV — Assumptions]", "md_verbatim": "    a. If TAETORD and/or EPOCH are added, then the values must be those at the start of the visit.", "score": 0.4625, "match_basis": "verbatim_token+domain_route:SV"}], "candidate_count": 5, "zero_candidate": false}
{"pdf_atom_id": "ig34_p0087_a013", "pdf_atom_type": "LIST_ITEM", "pdf_source": "SDTMIG_v3.4", "pdf_page": 87, "pdf_parent_section": "§5.5 [Subject Visits (SV)]", "pdf_verbatim": "Subjects who screen fail, withdraw, die, or otherwise discontinue study participation will not have records for planned visits subsequent to their final disposition event.", "figure_ref": null, "candidates": [{"md_atom_id": "md_dmSV_assn_a004", "md_file": "knowledge_base/domains/SV/assumptions.md", "md_atom_type": "LIST_ITEM", "md_parent_section": "§SV [SV — Assumptions]", "md_verbatim": "3. Subjects who screen fail, withdraw, die, or otherwise discontinue study participation will not have records for planned visits subsequent to their final disposition event.", "score": 1.0, "match_basis": "verbatim_token+domain_route:SV"}, {"md_atom_id": "md_dmSV_assn_a027", "md_file": "knowledge_base/domains/SV/assumptions.md", "md_atom_type": "LIST_ITEM", "md_parent_section": "§SV [SV — Assumptions]", "md_verbatim": "16. SVOCCUR = \"N\" records are only to be created for planned visits that were expected to occur before the end of the subject's participation.", "score": 0.5752, "match_basis": "verbatim_token+domain_route:SV"}, {"md_atom_id": "md_dmSV_assn_a002", "md_file": "knowledge_base/domains/SV/assumptions.md", "md_atom_type": "LIST_ITEM", "md_parent_section": "§SV [SV — Assumptions]", "md_verbatim": "1. The Subject Visits domain allows the submission of data on the timing of the trial visits for a subject, including both those visits they actually passed through in their participation in the trial and those visits that did not occur. Refer to Section 7.3.1, Trial Visits (TV), as the TV dataset defines the planned visits for the trial.", "score": 0.5231, "match_basis": "verbatim_token+domain_route:SV"}, {"md_atom_id": "md_dmSV_assn_a005", "md_file": "knowledge_base/domains/SV/assumptions.md", "md_atom_type": "LIST_ITEM", "md_parent_section": "§SV [SV — Assumptions]", "md_verbatim": "4. Planned and unplanned visits with a subject, whether or not they are physical visits to the investigational site, are represented in this domain.", "score": 0.5134, "match_basis": "verbatim_token+domain_route:SV"}, {"md_atom_id": "md_dmSV_assn_a003", "md_file": "knowledge_base/domains/SV/assumptions.md", "md_atom_type": "LIST_ITEM", "md_parent_section": "§SV [SV — Assumptions]", "md_verbatim": "2. Subjects can have 1 and only 1 record per VISITNUM.", "score": 0.4928, "match_basis": "verbatim_token+domain_route:SV"}], "candidate_count": 5, "zero_candidate": false}
{"pdf_atom_id": "ig34_p0087_a014", "pdf_atom_type": "LIST_ITEM", "pdf_source": "SDTMIG_v3.4", "pdf_page": 87, "pdf_parent_section": "§5.5 [Subject Visits (SV)]", "pdf_verbatim": "Planned and unplanned visits with a subject, whether or not they are physical visits to the investigational site, are represented in this domain.", "figure_ref": null, "candidates": [{"md_atom_id": "md_dmSV_assn_a005", "md_file": "knowledge_base/domains/SV/assumptions.md", "md_atom_type": "LIST_ITEM", "md_parent_section": "§SV [SV — Assumptions]", "md_verbatim": "4. Planned and unplanned visits with a subject, whether or not they are physical visits to the investigational site, are represented in this domain.", "score": 1.0, "match_basis": "verbatim_token+domain_route:SV"}, {"md_atom_id": "md_dmSV_assn_a008", "md_file": "knowledge_base/domains/SV/assumptions.md", "md_atom_type": "LIST_ITEM", "md_parent_section": "§SV [SV — Assumptions]", "md_verbatim": "   c. For unplanned visits, SVPRESP and SVOCCUR are null.", "score": 0.5233, "match_basis": "verbatim_token+domain_route:SV"}, {"md_atom_id": "md_dmSV_assn_a022", "md_file": "knowledge_base/domains/SV/assumptions.md", "md_atom_type": "LIST_ITEM", "md_parent_section": "§SV [SV — Assumptions]", "md_verbatim": "    b. The purpose of --DTC and --DY in other domains with start and end dates (Event and Intervention Domains) is to record the date on which data was collected. For a visit that occurred, it is not necessary to submit the date on which information about the visit was collected. When SVPRESP = \"Y\" and SVOCCUR = \"N\", --DTC and --DY are available for use to represent the date on which it was recorded that the visit did not take place.", "score": 0.5233, "match_basis": "verbatim_token+domain_route:SV"}, {"md_atom_id": "md_dmSV_assn_a027", "md_file": "knowledge_base/domains/SV/assumptions.md", "md_atom_type": "LIST_ITEM", "md_parent_section": "§SV [SV — Assumptions]", "md_verbatim": "16. SVOCCUR = \"N\" records are only to be created for planned visits that were expected to occur before the end of the subject's participation.", "score": 0.5212, "match_basis": "verbatim_token+domain_route:SV"}, {"md_atom_id": "md_dmSV_assn_a007", "md_file": "knowledge_base/domains/SV/assumptions.md", "md_atom_type": "LIST_ITEM", "md_parent_section": "§SV [SV — Assumptions]", "md_verbatim": "   b. For planned visits, SVOCCUR indicates whether the visit occurred.", "score": 0.5169, "match_basis": "verbatim_token+domain_route:SV"}], "candidate_count": 5, "zero_candidate": false}
{"pdf_atom_id": "ig34_p0087_a015", "pdf_atom_type": "LIST_ITEM", "pdf_source": "SDTMIG_v3.4", "pdf_page": 87, "pdf_parent_section": "§5.5 [Subject Visits (SV)]", "pdf_verbatim": "a. SVPRESP = \"Y\" identifies rows for planned visits.", "figure_ref": null, "candidates": [{"md_atom_id": "md_dmSV_assn_a006", "md_file": "knowledge_base/domains/SV/assumptions.md", "md_atom_type": "LIST_ITEM", "md_parent_section": "§SV [SV — Assumptions]", "md_verbatim": "   a. SVPRESP = \"Y\" identifies rows for planned visits.", "score": 1.0, "match_basis": "verbatim_token+domain_route:SV"}, {"md_atom_id": "md_dmSV_assn_a008", "md_file": "knowledge_base/domains/SV/assumptions.md", "md_atom_type": "LIST_ITEM", "md_parent_section": "§SV [SV — Assumptions]", "md_verbatim": "   c. For unplanned visits, SVPRESP and SVOCCUR are null.", "score": 0.65, "match_basis": "verbatim_token+domain_route:SV"}, {"md_atom_id": "md_dmSV_assn_a007", "md_file": "knowledge_base/domains/SV/assumptions.md", "md_atom_type": "LIST_ITEM", "md_parent_section": "§SV [SV — Assumptions]", "md_verbatim": "   b. For planned visits, SVOCCUR indicates whether the visit occurred.", "score": 0.5333, "match_basis": "verbatim_token+domain_route:SV"}, {"md_atom_id": "md_dmSV_assn_a013", "md_file": "knowledge_base/domains/SV/assumptions.md", "md_atom_type": "LIST_ITEM", "md_parent_section": "§SV [SV — Assumptions]", "md_verbatim": "8. The planned study day of visit variable (VISITDY) should not be populated for unplanned visits.", "score": 0.5154, "match_basis": "verbatim_token+domain_route:SV"}, {"md_atom_id": "md_dmSV_assn_a005", "md_file": "knowledge_base/domains/SV/assumptions.md", "md_atom_type": "LIST_ITEM", "md_parent_section": "§SV [SV — Assumptions]", "md_verbatim": "4. Planned and unplanned visits with a subject, whether or not they are physical visits to the investigational site, are represented in this domain.", "score": 0.496, "match_basis": "verbatim_token+domain_route:SV"}], "candidate_count": 5, "zero_candidate": false}
{"pdf_atom_id": "ig34_p0087_a016", "pdf_atom_type": "LIST_ITEM", "pdf_source": "SDTMIG_v3.4", "pdf_page": 87, "pdf_parent_section": "§5.5 [Subject Visits (SV)]", "pdf_verbatim": "b. For planned visits, SVOCCUR indicates whether the visit occurred.", "figure_ref": null, "candidates": [{"md_atom_id": "md_dmSV_assn_a007", "md_file": "knowledge_base/domains/SV/assumptions.md", "md_atom_type": "LIST_ITEM", "md_parent_section": "§SV [SV — Assumptions]", "md_verbatim": "   b. For planned visits, SVOCCUR indicates whether the visit occurred.", "score": 1.0, "match_basis": "verbatim_token+domain_route:SV"}, {"md_atom_id": "md_dmSV_assn_a008", "md_file": "knowledge_base/domains/SV/assumptions.md", "md_atom_type": "LIST_ITEM", "md_parent_section": "§SV [SV — Assumptions]", "md_verbatim": "   c. For unplanned visits, SVPRESP and SVOCCUR are null.", "score": 0.6195, "match_basis": "verbatim_token+domain_route:SV"}, {"md_atom_id": "md_dmSV_assn_a027", "md_file": "knowledge_base/domains/SV/assumptions.md", "md_atom_type": "LIST_ITEM", "md_parent_section": "§SV [SV — Assumptions]", "md_verbatim": "16. SVOCCUR = \"N\" records are only to be created for planned visits that were expected to occur before the end of the subject's participation.", "score": 0.5457, "match_basis": "verbatim_token+domain_route:SV"}, {"md_atom_id": "md_dmSV_ex_a039", "md_file": "knowledge_base/domains/SV/examples.md", "md_atom_type": "SENTENCE", "md_parent_section": "§SV.1 [Example 1]", "md_verbatim": "**Row 10:** Data for the screening visit was gathered over the course of six days. For this and subsequent visits, SVPRESP = \"Y\" indicates that a visit was planned and SVOCCUR = \"Y\" indicates that the visit occurred.", "score": 0.5382, "match_basis": "verbatim_token+domain_route:SV"}, {"md_atom_id": "md_dmSV_assn_a006", "md_file": "knowledge_base/domains/SV/assumptions.md", "md_atom_type": "LIST_ITEM", "md_parent_section": "§SV [SV — Assumptions]", "md_verbatim": "   a. SVPRESP = \"Y\" identifies rows for planned visits.", "score": 0.5333, "match_basis": "verbatim_token+domain_route:SV"}], "candidate_count": 5, "zero_candidate": false}
{"pdf_atom_id": "ig34_p0087_a017", "pdf_atom_type": "LIST_ITEM", "pdf_source": "SDTMIG_v3.4", "pdf_page": 87, "pdf_parent_section": "§5.5 [Subject Visits (SV)]", "pdf_verbatim": "c. For unplanned visits, SVPRESP and SVOCCUR are null.", "figure_ref": null, "candidates": [{"md_atom_id": "md_dmSV_assn_a008", "md_file": "knowledge_base/domains/SV/assumptions.md", "md_atom_type": "LIST_ITEM", "md_parent_section": "§SV [SV — Assumptions]", "md_verbatim": "   c. For unplanned visits, SVPRESP and SVOCCUR are null.", "score": 1.0, "match_basis": "verbatim_token+domain_route:SV"}, {"md_atom_id": "md_dmSV_assn_a006", "md_file": "knowledge_base/domains/SV/assumptions.md", "md_atom_type": "LIST_ITEM", "md_parent_section": "§SV [SV — Assumptions]", "md_verbatim": "   a. SVPRESP = \"Y\" identifies rows for planned visits.", "score": 0.65, "match_basis": "verbatim_token+domain_route:SV"}, {"md_atom_id": "md_dmSV_assn_a007", "md_file": "knowledge_base/domains/SV/assumptions.md", "md_atom_type": "LIST_ITEM", "md_parent_section": "§SV [SV — Assumptions]", "md_verbatim": "   b. For planned visits, SVOCCUR indicates whether the visit occurred.", "score": 0.6195, "match_basis": "verbatim_token+domain_route:SV"}, {"md_atom_id": "md_dmSV_assn_a027", "md_file": "knowledge_base/domains/SV/assumptions.md", "md_atom_type": "LIST_ITEM", "md_parent_section": "§SV [SV — Assumptions]", "md_verbatim": "16. SVOCCUR = \"N\" records are only to be created for planned visits that were expected to occur before the end of the subject's participation.", "score": 0.5433, "match_basis": "verbatim_token+domain_route:SV"}, {"md_atom_id": "md_dmSV_assn_a013", "md_file": "knowledge_base/domains/SV/assumptions.md", "md_atom_type": "LIST_ITEM", "md_parent_section": "§SV [SV — Assumptions]", "md_verbatim": "8. The planned study day of visit variable (VISITDY) should not be populated for unplanned visits.", "score": 0.5412, "match_basis": "verbatim_token+domain_route:SV"}], "candidate_count": 5, "zero_candidate": false}
{"pdf_atom_id": "ig34_p0087_a018", "pdf_atom_type": "LIST_ITEM", "pdf_source": "SDTMIG_v3.4", "pdf_page": 87, "pdf_parent_section": "§5.5 [Subject Visits (SV)]", "pdf_verbatim": "d. See Section 4.5.7, Presence of/Absence of Prespefified Interventions and Events, for more information on the use of --PRESP and --OCCUR.", "figure_ref": ["§4.5.7"], "candidates": [{"md_atom_id": "md_dmSV_assn_a009", "md_file": "knowledge_base/domains/SV/assumptions.md", "md_atom_type": "LIST_ITEM", "md_parent_section": "§SV [SV — Assumptions]", "md_verbatim": "   d. See Section 4.5.7, Presence or Absence of Prespecified Interventions and Events, for more information on the use of --PRESP and --OCCUR.", "score": 0.9294, "match_basis": "verbatim_token+domain_route:SV"}, {"md_atom_id": "md_dmSV_assn_a022", "md_file": "knowledge_base/domains/SV/assumptions.md", "md_atom_type": "LIST_ITEM", "md_parent_section": "§SV [SV — Assumptions]", "md_verbatim": "    b. The purpose of --DTC and --DY in other domains with start and end dates (Event and Intervention Domains) is to record the date on which data was collected. For a visit that occurred, it is not necessary to submit the date on which information about the visit was collected. When SVPRESP = \"Y\" and SVOCCUR = \"N\", --DTC and --DY are available for use to represent the date on which it was recorded that the visit did not take place.", "score": 0.5364, "match_basis": "verbatim_token+domain_route:SV"}, {"md_atom_id": "md_dmSV_assn_a006", "md_file": "knowledge_base/domains/SV/assumptions.md", "md_atom_type": "LIST_ITEM", "md_parent_section": "§SV [SV — Assumptions]", "md_verbatim": "   a. SVPRESP = \"Y\" identifies rows for planned visits.", "score": 0.4738, "match_basis": "verbatim_token+domain_route:SV"}, {"md_atom_id": "md_dmSV_assn_a005", "md_file": "knowledge_base/domains/SV/assumptions.md", "md_atom_type": "LIST_ITEM", "md_parent_section": "§SV [SV — Assumptions]", "md_verbatim": "4. Planned and unplanned visits with a subject, whether or not they are physical visits to the investigational site, are represented in this domain.", "score": 0.4735, "match_basis": "verbatim_token+domain_route:SV"}, {"md_atom_id": "md_dmSV_assn_a008", "md_file": "knowledge_base/domains/SV/assumptions.md", "md_atom_type": "LIST_ITEM", "md_parent_section": "§SV [SV — Assumptions]", "md_verbatim": "   c. For unplanned visits, SVPRESP and SVOCCUR are null.", "score": 0.4727, "match_basis": "verbatim_token+domain_route:SV"}], "candidate_count": 5, "zero_candidate": false}
{"pdf_atom_id": "ig34_p0087_a019", "pdf_atom_type": "LIST_ITEM", "pdf_source": "SDTMIG_v3.4", "pdf_page": 87, "pdf_parent_section": "§5.5 [Subject Visits (SV)]", "pdf_verbatim": "The identification of an actual visit with a planned visit sometimes calls for judgment. In general, data collection forms are prepared for particular visits, and the fact that data was collected on a form labeled with a planned visit is sufficient to make the association. Occasionally, the association will not be so clear, and the sponsor will need to make decisions about how to label actual visits. The sponsor's rules for making such decisions should be documented in the Define-XML document.", "figure_ref": null, "candidates": [{"md_atom_id": "md_dmSV_assn_a010", "md_file": "knowledge_base/domains/SV/assumptions.md", "md_atom_type": "LIST_ITEM", "md_parent_section": "§SV [SV — Assumptions]", "md_verbatim": "5. The identification of an actual visit with a planned visit sometimes calls for judgment. In general, data collection forms are prepared for particular visits, and the fact that data was collected on a form labeled with a planned visit is sufficient to make the association. Occasionally, the association will not be so clear, and the sponsor will need to make decisions about how to label actual visits. The sponsor's rules for making such decisions should be documented in the Define-XML document.", "score": 1.0, "match_basis": "verbatim_token+domain_route:SV"}, {"md_atom_id": "md_dmSV_assn_a011", "md_file": "knowledge_base/domains/SV/assumptions.md", "md_atom_type": "LIST_ITEM", "md_parent_section": "§SV [SV — Assumptions]", "md_verbatim": "6. Records for unplanned visits should be included in the SV dataset. For unplanned visits, SVUPDES can be populated with a description of the reason for the unplanned visit. Some judgment may be required to determine what constitutes an unplanned visit. When data are collected outside a planned visit, that act of collecting data may or may not be described as a \"visit.\" The encounter should generally be treated as a visit if data from the encounter are included in any domain for which VISITNUM is included; a record with a missing value for VISITNUM is generally less useful than a record with VISITNUM populated. If the occasion is considered a visit, its date/times must be included in the SV table and a value of VISITNUM must be assigned. Refer to Section 4.4.5, Clinical Encounters and Visits, for information on the population of visit variables for unplanned visits.", "score": 0.5565, "match_basis": "verbatim_token+domain_route:SV"}, {"md_atom_id": "md_dmSV_assn_a016", "md_file": "knowledge_base/domains/SV/assumptions.md", "md_atom_type": "LIST_ITEM", "md_parent_section": "§SV [SV — Assumptions]", "md_verbatim": "11. For many studies, all visits are assumed to occur within 1 calendar day, and only 1 date is collected for the visit. In such a case, the values for SVENDTC duplicate values in SVSTDTC. However, if the data for a visit is actually collected over several physical visits and/or over several days, then SVSTDTC and SVENDTC should reflect this fact. Note that it is fairly common for screening data to be collected over several days, but for the data to be treated as belonging to a single planned screening visit, even in studies for which all other visits are single-day visits.", "score": 0.5322, "match_basis": "verbatim_token+domain_route:SV"}, {"md_atom_id": "md_dmSV_assn_a002", "md_file": "knowledge_base/domains/SV/assumptions.md", "md_atom_type": "LIST_ITEM", "md_parent_section": "§SV [SV — Assumptions]", "md_verbatim": "1. The Subject Visits domain allows the submission of data on the timing of the trial visits for a subject, including both those visits they actually passed through in their participation in the trial and those visits that did not occur. Refer to Section 7.3.1, Trial Visits (TV), as the TV dataset defines the planned visits for the trial.", "score": 0.5229, "match_basis": "verbatim_token+domain_route:SV"}, {"md_atom_id": "md_dmSV_assn_a018", "md_file": "knowledge_base/domains/SV/assumptions.md", "md_atom_type": "LIST_ITEM", "md_parent_section": "§SV [SV — Assumptions]", "md_verbatim": "13. Algorithms for populating SVSTDTC and SVENDTC from the dates of assessments performed at a visit may be particularly challenging for screening visits, since baseline values collected at a screening visit are sometimes historical data from tests performed before the subject started screening for the trial. Therefore dates prior to informed consent are not part of the determination of SVSTDTC.", "score": 0.5128, "match_basis": "verbatim_token+domain_route:SV"}], "candidate_count": 5, "zero_candidate": false}
{"pdf_atom_id": "ig34_p0087_a020", "pdf_atom_type": "LIST_ITEM", "pdf_source": "SDTMIG_v3.4", "pdf_page": 87, "pdf_parent_section": "§5.5 [Subject Visits (SV)]", "pdf_verbatim": "Records for unplanned visits should be included in the SV dataset. For unplanned visits, SVUPDES can be populated with a description of the reason for the unplanned visit. Some judgment may be required to determine what constitutes an unplanned visit. When data are collected outside a planned visit, that act of collecting data may or may not be described as a \"visit.\" The encounter should generally be treated as a visit if data from the encounter are included in any domain for which VISITNUM is included; a record with a missing value for VISITNUM is generally less useful than a record with [TRUNCATED_AT_PAGE_BOUNDARY]", "figure_ref": null, "candidates": [{"md_atom_id": "md_dmSV_assn_a011", "md_file": "knowledge_base/domains/SV/assumptions.md", "md_atom_type": "LIST_ITEM", "md_parent_section": "§SV [SV — Assumptions]", "md_verbatim": "6. Records for unplanned visits should be included in the SV dataset. For unplanned visits, SVUPDES can be populated with a description of the reason for the unplanned visit. Some judgment may be required to determine what constitutes an unplanned visit. When data are collected outside a planned visit, that act of collecting data may or may not be described as a \"visit.\" The encounter should generally be treated as a visit if data from the encounter are included in any domain for which VISITNUM is included; a record with a missing value for VISITNUM is generally less useful than a record with VISITNUM populated. If the occasion is considered a visit, its date/times must be included in the SV table and a value of VISITNUM must be assigned. Refer to Section 4.4.5, Clinical Encounters and Visits, for information on the population of visit variables for unplanned visits.", "score": 0.8472, "match_basis": "verbatim_token+domain_route:SV"}, {"md_atom_id": "md_dmSV_assn_a010", "md_file": "knowledge_base/domains/SV/assumptions.md", "md_atom_type": "LIST_ITEM", "md_parent_section": "§SV [SV — Assumptions]", "md_verbatim": "5. The identification of an actual visit with a planned visit sometimes calls for judgment. In general, data collection forms are prepared for particular visits, and the fact that data was collected on a form labeled with a planned visit is sufficient to make the association. Occasionally, the association will not be so clear, and the sponsor will need to make decisions about how to label actual visits. The sponsor's rules for making such decisions should be documented in the Define-XML document.", "score": 0.5395, "match_basis": "verbatim_token+domain_route:SV"}, {"md_atom_id": "md_dmSV_assn_a016", "md_file": "knowledge_base/domains/SV/assumptions.md", "md_atom_type": "LIST_ITEM", "md_parent_section": "§SV [SV — Assumptions]", "md_verbatim": "11. For many studies, all visits are assumed to occur within 1 calendar day, and only 1 date is collected for the visit. In such a case, the values for SVENDTC duplicate values in SVSTDTC. However, if the data for a visit is actually collected over several physical visits and/or over several days, then SVSTDTC and SVENDTC should reflect this fact. Note that it is fairly common for screening data to be collected over several days, but for the data to be treated as belonging to a single planned screening visit, even in studies for which all other visits are single-day visits.", "score": 0.5266, "match_basis": "verbatim_token+domain_route:SV"}, {"md_atom_id": "md_dmSV_assn_a018", "md_file": "knowledge_base/domains/SV/assumptions.md", "md_atom_type": "LIST_ITEM", "md_parent_section": "§SV [SV — Assumptions]", "md_verbatim": "13. Algorithms for populating SVSTDTC and SVENDTC from the dates of assessments performed at a visit may be particularly challenging for screening visits, since baseline values collected at a screening visit are sometimes historical data from tests performed before the subject started screening for the trial. Therefore dates prior to informed consent are not part of the determination of SVSTDTC.", "score": 0.5223, "match_basis": "verbatim_token+domain_route:SV"}, {"md_atom_id": "md_dmSV_assn_a022", "md_file": "knowledge_base/domains/SV/assumptions.md", "md_atom_type": "LIST_ITEM", "md_parent_section": "§SV [SV — Assumptions]", "md_verbatim": "    b. The purpose of --DTC and --DY in other domains with start and end dates (Event and Intervention Domains) is to record the date on which data was collected. For a visit that occurred, it is not necessary to submit the date on which information about the visit was collected. When SVPRESP = \"Y\" and SVOCCUR = \"N\", --DTC and --DY are available for use to represent the date on which it was recorded that the visit did not take place.", "score": 0.522, "match_basis": "verbatim_token+domain_route:SV"}], "candidate_count": 5, "zero_candidate": false}
{"pdf_atom_id": "ig34_p0088_a001", "pdf_atom_type": "LIST_ITEM", "pdf_source": "SDTMIG_v3.4", "pdf_page": 88, "pdf_parent_section": "§5.5 [Subject Visits (SV)]", "pdf_verbatim": "VISITNUM populated. If the occasion is considered a visit, its date/times must be included in the SV table and a value of VISITNUM must be assigned. Refer to Section 4.4.5, Clinical Encounters and Visits, for information on the population of visit variables in unplanned visits.", "figure_ref": null, "candidates": [{"md_atom_id": "md_dmSV_assn_a011", "md_file": "knowledge_base/domains/SV/assumptions.md", "md_atom_type": "LIST_ITEM", "md_parent_section": "§SV [SV — Assumptions]", "md_verbatim": "6. Records for unplanned visits should be included in the SV dataset. For unplanned visits, SVUPDES can be populated with a description of the reason for the unplanned visit. Some judgment may be required to determine what constitutes an unplanned visit. When data are collected outside a planned visit, that act of collecting data may or may not be described as a \"visit.\" The encounter should generally be treated as a visit if data from the encounter are included in any domain for which VISITNUM is included; a record with a missing value for VISITNUM is generally less useful than a record with VISITNUM populated. If the occasion is considered a visit, its date/times must be included in the SV table and a value of VISITNUM must be assigned. Refer to Section 4.4.5, Clinical Encounters and Visits, for information on the population of visit variables for unplanned visits.", "score": 0.679, "match_basis": "verbatim_token+domain_route:SV"}, {"md_atom_id": "md_dmSV_assn_a013", "md_file": "knowledge_base/domains/SV/assumptions.md", "md_atom_type": "LIST_ITEM", "md_parent_section": "§SV [SV — Assumptions]", "md_verbatim": "8. The planned study day of visit variable (VISITDY) should not be populated for unplanned visits.", "score": 0.55, "match_basis": "verbatim_token+domain_route:SV"}, {"md_atom_id": "md_dmSV_assn_a002", "md_file": "knowledge_base/domains/SV/assumptions.md", "md_atom_type": "LIST_ITEM", "md_parent_section": "§SV [SV — Assumptions]", "md_verbatim": "1. The Subject Visits domain allows the submission of data on the timing of the trial visits for a subject, including both those visits they actually passed through in their participation in the trial and those visits that did not occur. Refer to Section 7.3.1, Trial Visits (TV), as the TV dataset defines the planned visits for the trial.", "score": 0.52, "match_basis": "verbatim_token+domain_route:SV"}, {"md_atom_id": "md_dmSV_assn_a018", "md_file": "knowledge_base/domains/SV/assumptions.md", "md_atom_type": "LIST_ITEM", "md_parent_section": "§SV [SV — Assumptions]", "md_verbatim": "13. Algorithms for populating SVSTDTC and SVENDTC from the dates of assessments performed at a visit may be particularly challenging for screening visits, since baseline values collected at a screening visit are sometimes historical data from tests performed before the subject started screening for the trial. Therefore dates prior to informed consent are not part of the determination of SVSTDTC.", "score": 0.5153, "match_basis": "verbatim_token+domain_route:SV"}, {"md_atom_id": "md_dmSV_assn_a012", "md_file": "knowledge_base/domains/SV/assumptions.md", "md_atom_type": "LIST_ITEM", "md_parent_section": "§SV [SV — Assumptions]", "md_verbatim": "7. The variable SVCNTMOD is used to record the way in which the visit was conducted. For example, for visits to a clinic, SVCNTMOD = \"IN PERSON\", visits conducted remotely might have values such as \"TELEPHONE\", \"REMOTE AUDIO VIDEO\", or \"IVRS\". If there are multiple contact modes, refer to Section 4.2.8.3, Multiple Values for a Non-result Qualifier Variable.", "score": 0.5103, "match_basis": "verbatim_token+domain_route:SV"}], "candidate_count": 5, "zero_candidate": false}
{"pdf_atom_id": "ig34_p0088_a002", "pdf_atom_type": "LIST_ITEM", "pdf_source": "SDTMIG_v3.4", "pdf_page": 88, "pdf_parent_section": "§5.5 [Subject Visits (SV)]", "pdf_verbatim": "The variable SVCNTMOD is used to record the way in which the visit was conducted. For example, for visits to a clinic, SVCNTMOD = \"IN PERSON\", visits conducted remotely might have values such as \"TELEPHONE CALL\", \"REMOTE AUDIO VIDEO\", or \"IVRS\". If there are multiple contact modes, refer to Section 4.2.8.3, Multiple Values for a Non-result Qualifier Variable.", "figure_ref": ["§4.2.8.3"], "candidates": [{"md_atom_id": "md_dmSV_assn_a012", "md_file": "knowledge_base/domains/SV/assumptions.md", "md_atom_type": "LIST_ITEM", "md_parent_section": "§SV [SV — Assumptions]", "md_verbatim": "7. The variable SVCNTMOD is used to record the way in which the visit was conducted. For example, for visits to a clinic, SVCNTMOD = \"IN PERSON\", visits conducted remotely might have values such as \"TELEPHONE\", \"REMOTE AUDIO VIDEO\", or \"IVRS\". If there are multiple contact modes, refer to Section 4.2.8.3, Multiple Values for a Non-result Qualifier Variable.", "score": 0.9896, "match_basis": "verbatim_token+domain_route:SV"}, {"md_atom_id": "md_dmSV_assn_a011", "md_file": "knowledge_base/domains/SV/assumptions.md", "md_atom_type": "LIST_ITEM", "md_parent_section": "§SV [SV — Assumptions]", "md_verbatim": "6. Records for unplanned visits should be included in the SV dataset. For unplanned visits, SVUPDES can be populated with a description of the reason for the unplanned visit. Some judgment may be required to determine what constitutes an unplanned visit. When data are collected outside a planned visit, that act of collecting data may or may not be described as a \"visit.\" The encounter should generally be treated as a visit if data from the encounter are included in any domain for which VISITNUM is included; a record with a missing value for VISITNUM is generally less useful than a record with VISITNUM populated. If the occasion is considered a visit, its date/times must be included in the SV table and a value of VISITNUM must be assigned. Refer to Section 4.4.5, Clinical Encounters and Visits, for information on the population of visit variables for unplanned visits.", "score": 0.5052, "match_basis": "verbatim_token+domain_route:SV"}, {"md_atom_id": "md_dmSV_assn_a016", "md_file": "knowledge_base/domains/SV/assumptions.md", "md_atom_type": "LIST_ITEM", "md_parent_section": "§SV [SV — Assumptions]", "md_verbatim": "11. For many studies, all visits are assumed to occur within 1 calendar day, and only 1 date is collected for the visit. In such a case, the values for SVENDTC duplicate values in SVSTDTC. However, if the data for a visit is actually collected over several physical visits and/or over several days, then SVSTDTC and SVENDTC should reflect this fact. Note that it is fairly common for screening data to be collected over several days, but for the data to be treated as belonging to a single planned screening visit, even in studies for which all other visits are single-day visits.", "score": 0.4711, "match_basis": "verbatim_token+domain_route:SV"}, {"md_atom_id": "md_dmSV_assn_a022", "md_file": "knowledge_base/domains/SV/assumptions.md", "md_atom_type": "LIST_ITEM", "md_parent_section": "§SV [SV — Assumptions]", "md_verbatim": "    b. The purpose of --DTC and --DY in other domains with start and end dates (Event and Intervention Domains) is to record the date on which data was collected. For a visit that occurred, it is not necessary to submit the date on which information about the visit was collected. When SVPRESP = \"Y\" and SVOCCUR = \"N\", --DTC and --DY are available for use to represent the date on which it was recorded that the visit did not take place.", "score": 0.4702, "match_basis": "verbatim_token+domain_route:SV"}, {"md_atom_id": "md_dmSV_assn_a027", "md_file": "knowledge_base/domains/SV/assumptions.md", "md_atom_type": "LIST_ITEM", "md_parent_section": "§SV [SV — Assumptions]", "md_verbatim": "16. SVOCCUR = \"N\" records are only to be created for planned visits that were expected to occur before the end of the subject's participation.", "score": 0.4658, "match_basis": "verbatim_token+domain_route:SV"}], "candidate_count": 5, "zero_candidate": false}
{"pdf_atom_id": "ig34_p0088_a003", "pdf_atom_type": "LIST_ITEM", "pdf_source": "SDTMIG_v3.4", "pdf_page": 88, "pdf_parent_section": "§5.5 [Subject Visits (SV)]", "pdf_verbatim": "The planned study day of visit variable (VISITDY) should not be populated for unplanned visits.", "figure_ref": null, "candidates": [{"md_atom_id": "md_dmSV_assn_a013", "md_file": "knowledge_base/domains/SV/assumptions.md", "md_atom_type": "LIST_ITEM", "md_parent_section": "§SV [SV — Assumptions]", "md_verbatim": "8. The planned study day of visit variable (VISITDY) should not be populated for unplanned visits.", "score": 1.0, "match_basis": "verbatim_token+domain_route:SV"}, {"md_atom_id": "md_dmSV_assn_a014", "md_file": "knowledge_base/domains/SV/assumptions.md", "md_atom_type": "LIST_ITEM", "md_parent_section": "§SV [SV — Assumptions]", "md_verbatim": "9. If SVSTDY is included, it is the actual study day corresponding to SVSTDTC. In studies for which VISITDY has been populated, it may be desirable to populate SVSTDY, as this will facilitate the comparison of planned (VISITDY) and actual (SVSTDY) study days for the start of a visit.", "score": 0.5545, "match_basis": "verbatim_token+domain_route:SV"}, {"md_atom_id": "md_dmSV_assn_a008", "md_file": "knowledge_base/domains/SV/assumptions.md", "md_atom_type": "LIST_ITEM", "md_parent_section": "§SV [SV — Assumptions]", "md_verbatim": "   c. For unplanned visits, SVPRESP and SVOCCUR are null.", "score": 0.5412, "match_basis": "verbatim_token+domain_route:SV"}, {"md_atom_id": "md_dmSV_assn_a007", "md_file": "knowledge_base/domains/SV/assumptions.md", "md_atom_type": "LIST_ITEM", "md_parent_section": "§SV [SV — Assumptions]", "md_verbatim": "   b. For planned visits, SVOCCUR indicates whether the visit occurred.", "score": 0.5309, "match_basis": "verbatim_token+domain_route:SV"}, {"md_atom_id": "md_dmSV_assn_a006", "md_file": "knowledge_base/domains/SV/assumptions.md", "md_atom_type": "LIST_ITEM", "md_parent_section": "§SV [SV — Assumptions]", "md_verbatim": "   a. SVPRESP = \"Y\" identifies rows for planned visits.", "score": 0.5154, "match_basis": "verbatim_token+domain_route:SV"}], "candidate_count": 5, "zero_candidate": false}
{"pdf_atom_id": "ig34_p0088_a004", "pdf_atom_type": "LIST_ITEM", "pdf_source": "SDTMIG_v3.4", "pdf_page": 88, "pdf_parent_section": "§5.5 [Subject Visits (SV)]", "pdf_verbatim": "If SVSTDY is included, it is the actual study day corresponding to SVSTDTC. In studies for which VISITDY has been populated, it may be desirable to populate SVSTDY, as this will facilitate the comparison of planned (VISITDY) and actual (SVSTDY) study days for the start of a visit.", "figure_ref": null, "candidates": [{"md_atom_id": "md_dmSV_assn_a014", "md_file": "knowledge_base/domains/SV/assumptions.md", "md_atom_type": "LIST_ITEM", "md_parent_section": "§SV [SV — Assumptions]", "md_verbatim": "9. If SVSTDY is included, it is the actual study day corresponding to SVSTDTC. In studies for which VISITDY has been populated, it may be desirable to populate SVSTDY, as this will facilitate the comparison of planned (VISITDY) and actual (SVSTDY) study days for the start of a visit.", "score": 1.0, "match_basis": "verbatim_token+domain_route:SV"}, {"md_atom_id": "md_dmSV_assn_a013", "md_file": "knowledge_base/domains/SV/assumptions.md", "md_atom_type": "LIST_ITEM", "md_parent_section": "§SV [SV — Assumptions]", "md_verbatim": "8. The planned study day of visit variable (VISITDY) should not be populated for unplanned visits.", "score": 0.5545, "match_basis": "verbatim_token+domain_route:SV"}, {"md_atom_id": "md_dmSV_assn_a015", "md_file": "knowledge_base/domains/SV/assumptions.md", "md_atom_type": "LIST_ITEM", "md_parent_section": "§SV [SV — Assumptions]", "md_verbatim": "10. If SVENDY is included, it is the actual day corresponding to SVENDTC.", "score": 0.5516, "match_basis": "verbatim_token+domain_route:SV"}, {"md_atom_id": "md_dmSV_assn_a016", "md_file": "knowledge_base/domains/SV/assumptions.md", "md_atom_type": "LIST_ITEM", "md_parent_section": "§SV [SV — Assumptions]", "md_verbatim": "11. For many studies, all visits are assumed to occur within 1 calendar day, and only 1 date is collected for the visit. In such a case, the values for SVENDTC duplicate values in SVSTDTC. However, if the data for a visit is actually collected over several physical visits and/or over several days, then SVSTDTC and SVENDTC should reflect this fact. Note that it is fairly common for screening data to be collected over several days, but for the data to be treated as belonging to a single planned screening visit, even in studies for which all other visits are single-day visits.", "score": 0.5187, "match_basis": "verbatim_token+domain_route:SV"}, {"md_atom_id": "md_dmSV_assn_a002", "md_file": "knowledge_base/domains/SV/assumptions.md", "md_atom_type": "LIST_ITEM", "md_parent_section": "§SV [SV — Assumptions]", "md_verbatim": "1. The Subject Visits domain allows the submission of data on the timing of the trial visits for a subject, including both those visits they actually passed through in their participation in the trial and those visits that did not occur. Refer to Section 7.3.1, Trial Visits (TV), as the TV dataset defines the planned visits for the trial.", "score": 0.4873, "match_basis": "verbatim_token+domain_route:SV"}], "candidate_count": 5, "zero_candidate": false}
{"pdf_atom_id": "ig34_p0088_a005", "pdf_atom_type": "LIST_ITEM", "pdf_source": "SDTMIG_v3.4", "pdf_page": 88, "pdf_parent_section": "§5.5 [Subject Visits (SV)]", "pdf_verbatim": "If SVENDY is included, it is the actual day corresponding to SVENDTC.", "figure_ref": null, "candidates": [{"md_atom_id": "md_dmSV_assn_a015", "md_file": "knowledge_base/domains/SV/assumptions.md", "md_atom_type": "LIST_ITEM", "md_parent_section": "§SV [SV — Assumptions]", "md_verbatim": "10. If SVENDY is included, it is the actual day corresponding to SVENDTC.", "score": 1.0, "match_basis": "verbatim_token+domain_route:SV"}, {"md_atom_id": "md_dmSV_assn_a014", "md_file": "knowledge_base/domains/SV/assumptions.md", "md_atom_type": "LIST_ITEM", "md_parent_section": "§SV [SV — Assumptions]", "md_verbatim": "9. If SVSTDY is included, it is the actual study day corresponding to SVSTDTC. In studies for which VISITDY has been populated, it may be desirable to populate SVSTDY, as this will facilitate the comparison of planned (VISITDY) and actual (SVSTDY) study days for the start of a visit.", "score": 0.5516, "match_basis": "verbatim_token+domain_route:SV"}, {"md_atom_id": "md_dmSV_assn_a002", "md_file": "knowledge_base/domains/SV/assumptions.md", "md_atom_type": "LIST_ITEM", "md_parent_section": "§SV [SV — Assumptions]", "md_verbatim": "1. The Subject Visits domain allows the submission of data on the timing of the trial visits for a subject, including both those visits they actually passed through in their participation in the trial and those visits that did not occur. Refer to Section 7.3.1, Trial Visits (TV), as the TV dataset defines the planned visits for the trial.", "score": 0.4564, "match_basis": "verbatim_token+domain_route:SV"}, {"md_atom_id": "md_dmSV_assn_a016", "md_file": "knowledge_base/domains/SV/assumptions.md", "md_atom_type": "LIST_ITEM", "md_parent_section": "§SV [SV — Assumptions]", "md_verbatim": "11. For many studies, all visits are assumed to occur within 1 calendar day, and only 1 date is collected for the visit. In such a case, the values for SVENDTC duplicate values in SVSTDTC. However, if the data for a visit is actually collected over several physical visits and/or over several days, then SVSTDTC and SVENDTC should reflect this fact. Note that it is fairly common for screening data to be collected over several days, but for the data to be treated as belonging to a single planned screening visit, even in studies for which all other visits are single-day visits.", "score": 0.4459, "match_basis": "verbatim_token+domain_route:SV"}, {"md_atom_id": "md_dmSV_assn_a022", "md_file": "knowledge_base/domains/SV/assumptions.md", "md_atom_type": "LIST_ITEM", "md_parent_section": "§SV [SV — Assumptions]", "md_verbatim": "    b. The purpose of --DTC and --DY in other domains with start and end dates (Event and Intervention Domains) is to record the date on which data was collected. For a visit that occurred, it is not necessary to submit the date on which information about the visit was collected. When SVPRESP = \"Y\" and SVOCCUR = \"N\", --DTC and --DY are available for use to represent the date on which it was recorded that the visit did not take place.", "score": 0.4403, "match_basis": "verbatim_token+domain_route:SV"}], "candidate_count": 5, "zero_candidate": false}
{"pdf_atom_id": "ig34_p0088_a006", "pdf_atom_type": "LIST_ITEM", "pdf_source": "SDTMIG_v3.4", "pdf_page": 88, "pdf_parent_section": "§5.5 [Subject Visits (SV)]", "pdf_verbatim": "For many studies, all visits are assumed to occur within 1 calendar day, and only 1 date is collected for the visit. In such a case, the values for SVENDTC duplicate values in SVSTDTC. However, if the data for a visit is actually collected over several physical visits and/or over several days, then SVSTDTC and SVENDTC should reflect this fact. Note that it is fairly common for screening data to be collected over several days, but for the data to be treated as belonging to a single planned screening visit, even in studies for which all other visits are single-day visits.", "figure_ref": null, "candidates": [{"md_atom_id": "md_dmSV_assn_a016", "md_file": "knowledge_base/domains/SV/assumptions.md", "md_atom_type": "LIST_ITEM", "md_parent_section": "§SV [SV — Assumptions]", "md_verbatim": "11. For many studies, all visits are assumed to occur within 1 calendar day, and only 1 date is collected for the visit. In such a case, the values for SVENDTC duplicate values in SVSTDTC. However, if the data for a visit is actually collected over several physical visits and/or over several days, then SVSTDTC and SVENDTC should reflect this fact. Note that it is fairly common for screening data to be collected over several days, but for the data to be treated as belonging to a single planned screening visit, even in studies for which all other visits are single-day visits.", "score": 1.0, "match_basis": "verbatim_token+domain_route:SV"}, {"md_atom_id": "md_dmSV_assn_a018", "md_file": "knowledge_base/domains/SV/assumptions.md", "md_atom_type": "LIST_ITEM", "md_parent_section": "§SV [SV — Assumptions]", "md_verbatim": "13. Algorithms for populating SVSTDTC and SVENDTC from the dates of assessments performed at a visit may be particularly challenging for screening visits, since baseline values collected at a screening visit are sometimes historical data from tests performed before the subject started screening for the trial. Therefore dates prior to informed consent are not part of the determination of SVSTDTC.", "score": 0.5379, "match_basis": "verbatim_token+domain_route:SV"}, {"md_atom_id": "md_dmSV_assn_a010", "md_file": "knowledge_base/domains/SV/assumptions.md", "md_atom_type": "LIST_ITEM", "md_parent_section": "§SV [SV — Assumptions]", "md_verbatim": "5. The identification of an actual visit with a planned visit sometimes calls for judgment. In general, data collection forms are prepared for particular visits, and the fact that data was collected on a form labeled with a planned visit is sufficient to make the association. Occasionally, the association will not be so clear, and the sponsor will need to make decisions about how to label actual visits. The sponsor's rules for making such decisions should be documented in the Define-XML document.", "score": 0.5322, "match_basis": "verbatim_token+domain_route:SV"}, {"md_atom_id": "md_dmSV_assn_a011", "md_file": "knowledge_base/domains/SV/assumptions.md", "md_atom_type": "LIST_ITEM", "md_parent_section": "§SV [SV — Assumptions]", "md_verbatim": "6. Records for unplanned visits should be included in the SV dataset. For unplanned visits, SVUPDES can be populated with a description of the reason for the unplanned visit. Some judgment may be required to determine what constitutes an unplanned visit. When data are collected outside a planned visit, that act of collecting data may or may not be described as a \"visit.\" The encounter should generally be treated as a visit if data from the encounter are included in any domain for which VISITNUM is included; a record with a missing value for VISITNUM is generally less useful than a record with VISITNUM populated. If the occasion is considered a visit, its date/times must be included in the SV table and a value of VISITNUM must be assigned. Refer to Section 4.4.5, Clinical Encounters and Visits, for information on the population of visit variables for unplanned visits.", "score": 0.5234, "match_basis": "verbatim_token+domain_route:SV"}, {"md_atom_id": "md_dmSV_assn_a014", "md_file": "knowledge_base/domains/SV/assumptions.md", "md_atom_type": "LIST_ITEM", "md_parent_section": "§SV [SV — Assumptions]", "md_verbatim": "9. If SVSTDY is included, it is the actual study day corresponding to SVSTDTC. In studies for which VISITDY has been populated, it may be desirable to populate SVSTDY, as this will facilitate the comparison of planned (VISITDY) and actual (SVSTDY) study days for the start of a visit.", "score": 0.5187, "match_basis": "verbatim_token+domain_route:SV"}], "candidate_count": 5, "zero_candidate": false}
{"pdf_atom_id": "ig34_p0088_a007", "pdf_atom_type": "LIST_ITEM", "pdf_source": "SDTMIG_v3.4", "pdf_page": 88, "pdf_parent_section": "§5.5 [Subject Visits (SV)]", "pdf_verbatim": "Differentiating between planned and unplanned visits may be challenging if unplanned assessments (e.g., repeat labs) are performed during the time period of a planned visit.", "figure_ref": null, "candidates": [{"md_atom_id": "md_dmSV_assn_a017", "md_file": "knowledge_base/domains/SV/assumptions.md", "md_atom_type": "LIST_ITEM", "md_parent_section": "§SV [SV — Assumptions]", "md_verbatim": "12. Differentiating between planned and unplanned visits may be challenging if unplanned assessments (e.g., repeat labs) are performed during the time period of a planned visit.", "score": 1.0, "match_basis": "verbatim_token+domain_route:SV"}, {"md_atom_id": "md_dmSV_assn_a018", "md_file": "knowledge_base/domains/SV/assumptions.md", "md_atom_type": "LIST_ITEM", "md_parent_section": "§SV [SV — Assumptions]", "md_verbatim": "13. Algorithms for populating SVSTDTC and SVENDTC from the dates of assessments performed at a visit may be particularly challenging for screening visits, since baseline values collected at a screening visit are sometimes historical data from tests performed before the subject started screening for the trial. Therefore dates prior to informed consent are not part of the determination of SVSTDTC.", "score": 0.5341, "match_basis": "verbatim_token+domain_route:SV"}, {"md_atom_id": "md_dmSV_assn_a008", "md_file": "knowledge_base/domains/SV/assumptions.md", "md_atom_type": "LIST_ITEM", "md_parent_section": "§SV [SV — Assumptions]", "md_verbatim": "   c. For unplanned visits, SVPRESP and SVOCCUR are null.", "score": 0.5024, "match_basis": "verbatim_token+domain_route:SV"}, {"md_atom_id": "md_dmSV_assn_a025", "md_file": "knowledge_base/domains/SV/assumptions.md", "md_atom_type": "LIST_ITEM", "md_parent_section": "§SV [SV — Assumptions]", "md_verbatim": "    e. --STRF and --ENRF could be used to say whether a visit started and ended before, during, or after the study reference period, although this seems unnecessary.", "score": 0.4927, "match_basis": "verbatim_token+domain_route:SV"}, {"md_atom_id": "md_dmSV_assn_a005", "md_file": "knowledge_base/domains/SV/assumptions.md", "md_atom_type": "LIST_ITEM", "md_parent_section": "§SV [SV — Assumptions]", "md_verbatim": "4. Planned and unplanned visits with a subject, whether or not they are physical visits to the investigational site, are represented in this domain.", "score": 0.4887, "match_basis": "verbatim_token+domain_route:SV"}], "candidate_count": 5, "zero_candidate": false}
{"pdf_atom_id": "ig34_p0088_a008", "pdf_atom_type": "LIST_ITEM", "pdf_source": "SDTMIG_v3.4", "pdf_page": 88, "pdf_parent_section": "§5.5 [Subject Visits (SV)]", "pdf_verbatim": "Algorithms for populating SVSTDTC and SVENDTC from the dates of assessments performed at a visit may be particularly challenging for screening visits, since baseline values collected at a screening visit are sometimes historical data from tests performed before the subject started screening for the trial. Therefore dates prior to informed consent are not part of the determination of SVSTDTC.", "figure_ref": null, "candidates": [{"md_atom_id": "md_dmSV_assn_a018", "md_file": "knowledge_base/domains/SV/assumptions.md", "md_atom_type": "LIST_ITEM", "md_parent_section": "§SV [SV — Assumptions]", "md_verbatim": "13. Algorithms for populating SVSTDTC and SVENDTC from the dates of assessments performed at a visit may be particularly challenging for screening visits, since baseline values collected at a screening visit are sometimes historical data from tests performed before the subject started screening for the trial. Therefore dates prior to informed consent are not part of the determination of SVSTDTC.", "score": 1.0, "match_basis": "verbatim_token+domain_route:SV"}, {"md_atom_id": "md_dmSV_assn_a011", "md_file": "knowledge_base/domains/SV/assumptions.md", "md_atom_type": "LIST_ITEM", "md_parent_section": "§SV [SV — Assumptions]", "md_verbatim": "6. Records for unplanned visits should be included in the SV dataset. For unplanned visits, SVUPDES can be populated with a description of the reason for the unplanned visit. Some judgment may be required to determine what constitutes an unplanned visit. When data are collected outside a planned visit, that act of collecting data may or may not be described as a \"visit.\" The encounter should generally be treated as a visit if data from the encounter are included in any domain for which VISITNUM is included; a record with a missing value for VISITNUM is generally less useful than a record with VISITNUM populated. If the occasion is considered a visit, its date/times must be included in the SV table and a value of VISITNUM must be assigned. Refer to Section 4.4.5, Clinical Encounters and Visits, for information on the population of visit variables for unplanned visits.", "score": 0.5479, "match_basis": "verbatim_token+domain_route:SV"}, {"md_atom_id": "md_dmSV_assn_a016", "md_file": "knowledge_base/domains/SV/assumptions.md", "md_atom_type": "LIST_ITEM", "md_parent_section": "§SV [SV — Assumptions]", "md_verbatim": "11. For many studies, all visits are assumed to occur within 1 calendar day, and only 1 date is collected for the visit. In such a case, the values for SVENDTC duplicate values in SVSTDTC. However, if the data for a visit is actually collected over several physical visits and/or over several days, then SVSTDTC and SVENDTC should reflect this fact. Note that it is fairly common for screening data to be collected over several days, but for the data to be treated as belonging to a single planned screening visit, even in studies for which all other visits are single-day visits.", "score": 0.5379, "match_basis": "verbatim_token+domain_route:SV"}, {"md_atom_id": "md_dmSV_assn_a017", "md_file": "knowledge_base/domains/SV/assumptions.md", "md_atom_type": "LIST_ITEM", "md_parent_section": "§SV [SV — Assumptions]", "md_verbatim": "12. Differentiating between planned and unplanned visits may be challenging if unplanned assessments (e.g., repeat labs) are performed during the time period of a planned visit.", "score": 0.5341, "match_basis": "verbatim_token+domain_route:SV"}, {"md_atom_id": "md_dmSV_assn_a010", "md_file": "knowledge_base/domains/SV/assumptions.md", "md_atom_type": "LIST_ITEM", "md_parent_section": "§SV [SV — Assumptions]", "md_verbatim": "5. The identification of an actual visit with a planned visit sometimes calls for judgment. In general, data collection forms are prepared for particular visits, and the fact that data was collected on a form labeled with a planned visit is sufficient to make the association. Occasionally, the association will not be so clear, and the sponsor will need to make decisions about how to label actual visits. The sponsor's rules for making such decisions should be documented in the Define-XML document.", "score": 0.5128, "match_basis": "verbatim_token+domain_route:SV"}], "candidate_count": 5, "zero_candidate": false}
{"pdf_atom_id": "ig34_p0088_a009", "pdf_atom_type": "LIST_ITEM", "pdf_source": "SDTMIG_v3.4", "pdf_page": 88, "pdf_parent_section": "§5.5 [Subject Visits (SV)]", "pdf_verbatim": "The following Identifier variables are permissible and may be added as appropriate: --SEQ, --GRIDID, --REFID, and --SPID.", "figure_ref": null, "candidates": [{"md_atom_id": "md_dmSV_assn_a019", "md_file": "knowledge_base/domains/SV/assumptions.md", "md_atom_type": "LIST_ITEM", "md_parent_section": "§SV [SV — Assumptions]", "md_verbatim": "14. The following Identifier variables are permissible and may be added as appropriate: --SEQ, --GRPID, --REFID, and --SPID.", "score": 0.9368, "match_basis": "verbatim_token+domain_route:SV"}, {"md_atom_id": "md_dmSV_assn_a024", "md_file": "knowledge_base/domains/SV/assumptions.md", "md_atom_type": "LIST_ITEM", "md_parent_section": "§SV [SV — Assumptions]", "md_verbatim": "    d. It would be inappropriate to add the variables that support time points (--TPT, --TPTNUM, --ELTM, --TPTREF, and --RFTDTC), because the topic of this dataset is visits.", "score": 0.5096, "match_basis": "verbatim_token+domain_route:SV"}, {"md_atom_id": "md_dmSV_assn_a020", "md_file": "knowledge_base/domains/SV/assumptions.md", "md_atom_type": "LIST_ITEM", "md_parent_section": "§SV [SV — Assumptions]", "md_verbatim": "15. Care should be taken in adding additional timing variables:", "score": 0.4811, "match_basis": "verbatim_token+domain_route:SV"}, {"md_atom_id": "md_dmSV_assn_a011", "md_file": "knowledge_base/domains/SV/assumptions.md", "md_atom_type": "LIST_ITEM", "md_parent_section": "§SV [SV — Assumptions]", "md_verbatim": "6. Records for unplanned visits should be included in the SV dataset. For unplanned visits, SVUPDES can be populated with a description of the reason for the unplanned visit. Some judgment may be required to determine what constitutes an unplanned visit. When data are collected outside a planned visit, that act of collecting data may or may not be described as a \"visit.\" The encounter should generally be treated as a visit if data from the encounter are included in any domain for which VISITNUM is included; a record with a missing value for VISITNUM is generally less useful than a record with VISITNUM populated. If the occasion is considered a visit, its date/times must be included in the SV table and a value of VISITNUM must be assigned. Refer to Section 4.4.5, Clinical Encounters and Visits, for information on the population of visit variables for unplanned visits.", "score": 0.4595, "match_basis": "verbatim_token+domain_route:SV"}, {"md_atom_id": "md_dmSV_assn_a006", "md_file": "knowledge_base/domains/SV/assumptions.md", "md_atom_type": "LIST_ITEM", "md_parent_section": "§SV [SV — Assumptions]", "md_verbatim": "   a. SVPRESP = \"Y\" identifies rows for planned visits.", "score": 0.4575, "match_basis": "verbatim_token+domain_route:SV"}], "candidate_count": 5, "zero_candidate": false}
{"pdf_atom_id": "ig34_p0088_a010", "pdf_atom_type": "LIST_ITEM", "pdf_source": "SDTMIG_v3.4", "pdf_page": 88, "pdf_parent_section": "§5.5 [Subject Visits (SV)]", "pdf_verbatim": "Care should be taken in adding additional timing variables:", "figure_ref": null, "candidates": [{"md_atom_id": "md_dmSV_assn_a020", "md_file": "knowledge_base/domains/SV/assumptions.md", "md_atom_type": "LIST_ITEM", "md_parent_section": "§SV [SV — Assumptions]", "md_verbatim": "15. Care should be taken in adding additional timing variables:", "score": 1.0, "match_basis": "verbatim_token+domain_route:SV"}, {"md_atom_id": "md_dmSV_assn_a013", "md_file": "knowledge_base/domains/SV/assumptions.md", "md_atom_type": "LIST_ITEM", "md_parent_section": "§SV [SV — Assumptions]", "md_verbatim": "8. The planned study day of visit variable (VISITDY) should not be populated for unplanned visits.", "score": 0.5071, "match_basis": "verbatim_token+domain_route:SV"}, {"md_atom_id": "md_dmSV_assn_a019", "md_file": "knowledge_base/domains/SV/assumptions.md", "md_atom_type": "LIST_ITEM", "md_parent_section": "§SV [SV — Assumptions]", "md_verbatim": "14. The following Identifier variables are permissible and may be added as appropriate: --SEQ, --GRPID, --REFID, and --SPID.", "score": 0.4833, "match_basis": "verbatim_token+domain_route:SV"}, {"md_atom_id": "md_dmSV_assn_a024", "md_file": "knowledge_base/domains/SV/assumptions.md", "md_atom_type": "LIST_ITEM", "md_parent_section": "§SV [SV — Assumptions]", "md_verbatim": "    d. It would be inappropriate to add the variables that support time points (--TPT, --TPTNUM, --ELTM, --TPTREF, and --RFTDTC), because the topic of this dataset is visits.", "score": 0.4767, "match_basis": "verbatim_token+domain_route:SV"}, {"md_atom_id": "md_dmSV_assn_a023", "md_file": "knowledge_base/domains/SV/assumptions.md", "md_atom_type": "LIST_ITEM", "md_parent_section": "§SV [SV — Assumptions]", "md_verbatim": "    c. --DUR could be added if the duration of a visit was collected.", "score": 0.4625, "match_basis": "verbatim_token+domain_route:SV"}], "candidate_count": 5, "zero_candidate": false}
{"pdf_atom_id": "ig34_p0088_a011", "pdf_atom_type": "LIST_ITEM", "pdf_source": "SDTMIG_v3.4", "pdf_page": 88, "pdf_parent_section": "§5.5 [Subject Visits (SV)]", "pdf_verbatim": "a. If TAETORD and/or EPOCH are added, then the values must be those at the start of the visit.", "figure_ref": null, "candidates": [{"md_atom_id": "md_dmSV_assn_a021", "md_file": "knowledge_base/domains/SV/assumptions.md", "md_atom_type": "LIST_ITEM", "md_parent_section": "§SV [SV — Assumptions]", "md_verbatim": "    a. If TAETORD and/or EPOCH are added, then the values must be those at the start of the visit.", "score": 1.0, "match_basis": "verbatim_token+domain_route:SV"}, {"md_atom_id": "md_dmSV_assn_a023", "md_file": "knowledge_base/domains/SV/assumptions.md", "md_atom_type": "LIST_ITEM", "md_parent_section": "§SV [SV — Assumptions]", "md_verbatim": "    c. --DUR could be added if the duration of a visit was collected.", "score": 0.4894, "match_basis": "verbatim_token+domain_route:SV"}, {"md_atom_id": "md_dmSV_assn_a025", "md_file": "knowledge_base/domains/SV/assumptions.md", "md_atom_type": "LIST_ITEM", "md_parent_section": "§SV [SV — Assumptions]", "md_verbatim": "    e. --STRF and --ENRF could be used to say whether a visit started and ended before, during, or after the study reference period, although this seems unnecessary.", "score": 0.4652, "match_basis": "verbatim_token+domain_route:SV"}, {"md_atom_id": "md_dmSV_assn_a003", "md_file": "knowledge_base/domains/SV/assumptions.md", "md_atom_type": "LIST_ITEM", "md_parent_section": "§SV [SV — Assumptions]", "md_verbatim": "2. Subjects can have 1 and only 1 record per VISITNUM.", "score": 0.4625, "match_basis": "verbatim_token+domain_route:SV"}, {"md_atom_id": "md_dmSV_assn_a026", "md_file": "knowledge_base/domains/SV/assumptions.md", "md_atom_type": "LIST_ITEM", "md_parent_section": "§SV [SV — Assumptions]", "md_verbatim": "    f. --STRTPT, --STTPT, --ENRTPT, and --ENTPT could be used to say that a visit started or ended before or after particular dates, although this seems unnecessary.", "score": 0.4614, "match_basis": "verbatim_token+domain_route:SV"}], "candidate_count": 5, "zero_candidate": false}
{"pdf_atom_id": "ig34_p0088_a012", "pdf_atom_type": "LIST_ITEM", "pdf_source": "SDTMIG_v3.4", "pdf_page": 88, "pdf_parent_section": "§5.5 [Subject Visits (SV)]", "pdf_verbatim": "b. The purpose of --DTC and --DY in other domains with start and end dates (Event and Intervention Domains) is to record the date on which data was collected. For a visit that occurred, it is not necessary to submit the date on which information about the visit was recorded. When SVPRESP = \"Y\" and SVOCCUR = \"N\", --DTC and --DY are available for use to represent the date on which it was recorded that the visit did not take place.", "figure_ref": null, "candidates": [{"md_atom_id": "md_dmSV_assn_a022", "md_file": "knowledge_base/domains/SV/assumptions.md", "md_atom_type": "LIST_ITEM", "md_parent_section": "§SV [SV — Assumptions]", "md_verbatim": "    b. The purpose of --DTC and --DY in other domains with start and end dates (Event and Intervention Domains) is to record the date on which data was collected. For a visit that occurred, it is not necessary to submit the date on which information about the visit was collected. When SVPRESP = \"Y\" and SVOCCUR = \"N\", --DTC and --DY are available for use to represent the date on which it was recorded that the visit did not take place.", "score": 1.0, "match_basis": "verbatim_token+domain_route:SV"}, {"md_atom_id": "md_dmSV_assn_a009", "md_file": "knowledge_base/domains/SV/assumptions.md", "md_atom_type": "LIST_ITEM", "md_parent_section": "§SV [SV — Assumptions]", "md_verbatim": "   d. See Section 4.5.7, Presence or Absence of Prespecified Interventions and Events, for more information on the use of --PRESP and --OCCUR.", "score": 0.5364, "match_basis": "verbatim_token+domain_route:SV"}, {"md_atom_id": "md_dmSV_assn_a011", "md_file": "knowledge_base/domains/SV/assumptions.md", "md_atom_type": "LIST_ITEM", "md_parent_section": "§SV [SV — Assumptions]", "md_verbatim": "6. Records for unplanned visits should be included in the SV dataset. For unplanned visits, SVUPDES can be populated with a description of the reason for the unplanned visit. Some judgment may be required to determine what constitutes an unplanned visit. When data are collected outside a planned visit, that act of collecting data may or may not be described as a \"visit.\" The encounter should generally be treated as a visit if data from the encounter are included in any domain for which VISITNUM is included; a record with a missing value for VISITNUM is generally less useful than a record with VISITNUM populated. If the occasion is considered a visit, its date/times must be included in the SV table and a value of VISITNUM must be assigned. Refer to Section 4.4.5, Clinical Encounters and Visits, for information on the population of visit variables for unplanned visits.", "score": 0.5302, "match_basis": "verbatim_token+domain_route:SV"}, {"md_atom_id": "md_dmSV_assn_a005", "md_file": "knowledge_base/domains/SV/assumptions.md", "md_atom_type": "LIST_ITEM", "md_parent_section": "§SV [SV — Assumptions]", "md_verbatim": "4. Planned and unplanned visits with a subject, whether or not they are physical visits to the investigational site, are represented in this domain.", "score": 0.5233, "match_basis": "verbatim_token+domain_route:SV"}, {"md_atom_id": "md_dmSV_assn_a027", "md_file": "knowledge_base/domains/SV/assumptions.md", "md_atom_type": "LIST_ITEM", "md_parent_section": "§SV [SV — Assumptions]", "md_verbatim": "16. SVOCCUR = \"N\" records are only to be created for planned visits that were expected to occur before the end of the subject's participation.", "score": 0.5175, "match_basis": "verbatim_token+domain_route:SV"}], "candidate_count": 5, "zero_candidate": false}
{"pdf_atom_id": "ig34_p0088_a013", "pdf_atom_type": "LIST_ITEM", "pdf_source": "SDTMIG_v3.4", "pdf_page": 88, "pdf_parent_section": "§5.5 [Subject Visits (SV)]", "pdf_verbatim": "c. --DUR could be added if the duration of a visit was collected.", "figure_ref": null, "candidates": [{"md_atom_id": "md_dmSV_assn_a023", "md_file": "knowledge_base/domains/SV/assumptions.md", "md_atom_type": "LIST_ITEM", "md_parent_section": "§SV [SV — Assumptions]", "md_verbatim": "    c. --DUR could be added if the duration of a visit was collected.", "score": 1.0, "match_basis": "verbatim_token+domain_route:SV"}, {"md_atom_id": "md_dmSV_assn_a021", "md_file": "knowledge_base/domains/SV/assumptions.md", "md_atom_type": "LIST_ITEM", "md_parent_section": "§SV [SV — Assumptions]", "md_verbatim": "    a. If TAETORD and/or EPOCH are added, then the values must be those at the start of the visit.", "score": 0.4894, "match_basis": "verbatim_token+domain_route:SV"}, {"md_atom_id": "md_dmSV_assn_a027", "md_file": "knowledge_base/domains/SV/assumptions.md", "md_atom_type": "LIST_ITEM", "md_parent_section": "§SV [SV — Assumptions]", "md_verbatim": "16. SVOCCUR = \"N\" records are only to be created for planned visits that were expected to occur before the end of the subject's participation.", "score": 0.4845, "match_basis": "verbatim_token+domain_route:SV"}, {"md_atom_id": "md_dmSV_assn_a022", "md_file": "knowledge_base/domains/SV/assumptions.md", "md_atom_type": "LIST_ITEM", "md_parent_section": "§SV [SV — Assumptions]", "md_verbatim": "    b. The purpose of --DTC and --DY in other domains with start and end dates (Event and Intervention Domains) is to record the date on which data was collected. For a visit that occurred, it is not necessary to submit the date on which information about the visit was collected. When SVPRESP = \"Y\" and SVOCCUR = \"N\", --DTC and --DY are available for use to represent the date on which it was recorded that the visit did not take place.", "score": 0.4787, "match_basis": "verbatim_token+domain_route:SV"}, {"md_atom_id": "md_dmSV_assn_a013", "md_file": "knowledge_base/domains/SV/assumptions.md", "md_atom_type": "LIST_ITEM", "md_parent_section": "§SV [SV — Assumptions]", "md_verbatim": "8. The planned study day of visit variable (VISITDY) should not be populated for unplanned visits.", "score": 0.4778, "match_basis": "verbatim_token+domain_route:SV"}], "candidate_count": 5, "zero_candidate": false}
{"pdf_atom_id": "ig34_p0088_a014", "pdf_atom_type": "LIST_ITEM", "pdf_source": "SDTMIG_v3.4", "pdf_page": 88, "pdf_parent_section": "§5.5 [Subject Visits (SV)]", "pdf_verbatim": "d. It would be inappropriate to add the variables that support time points (--TPT, --TPTNUM, --ELTM, --TPTREF, and --RFTDTC), because the topic of this dataset is visits.", "figure_ref": null, "candidates": [{"md_atom_id": "md_dmSV_assn_a024", "md_file": "knowledge_base/domains/SV/assumptions.md", "md_atom_type": "LIST_ITEM", "md_parent_section": "§SV [SV — Assumptions]", "md_verbatim": "    d. It would be inappropriate to add the variables that support time points (--TPT, --TPTNUM, --ELTM, --TPTREF, and --RFTDTC), because the topic of this dataset is visits.", "score": 1.0, "match_basis": "verbatim_token+domain_route:SV"}, {"md_atom_id": "md_dmSV_assn_a019", "md_file": "knowledge_base/domains/SV/assumptions.md", "md_atom_type": "LIST_ITEM", "md_parent_section": "§SV [SV — Assumptions]", "md_verbatim": "14. The following Identifier variables are permissible and may be added as appropriate: --SEQ, --GRPID, --REFID, and --SPID.", "score": 0.5118, "match_basis": "verbatim_token+domain_route:SV"}, {"md_atom_id": "md_dmSV_assn_a013", "md_file": "knowledge_base/domains/SV/assumptions.md", "md_atom_type": "LIST_ITEM", "md_parent_section": "§SV [SV — Assumptions]", "md_verbatim": "8. The planned study day of visit variable (VISITDY) should not be populated for unplanned visits.", "score": 0.4923, "match_basis": "verbatim_token+domain_route:SV"}, {"md_atom_id": "md_dmSV_assn_a020", "md_file": "knowledge_base/domains/SV/assumptions.md", "md_atom_type": "LIST_ITEM", "md_parent_section": "§SV [SV — Assumptions]", "md_verbatim": "15. Care should be taken in adding additional timing variables:", "score": 0.4767, "match_basis": "verbatim_token+domain_route:SV"}, {"md_atom_id": "md_dmSV_assn_a011", "md_file": "knowledge_base/domains/SV/assumptions.md", "md_atom_type": "LIST_ITEM", "md_parent_section": "§SV [SV — Assumptions]", "md_verbatim": "6. Records for unplanned visits should be included in the SV dataset. For unplanned visits, SVUPDES can be populated with a description of the reason for the unplanned visit. Some judgment may be required to determine what constitutes an unplanned visit. When data are collected outside a planned visit, that act of collecting data may or may not be described as a \"visit.\" The encounter should generally be treated as a visit if data from the encounter are included in any domain for which VISITNUM is included; a record with a missing value for VISITNUM is generally less useful than a record with VISITNUM populated. If the occasion is considered a visit, its date/times must be included in the SV table and a value of VISITNUM must be assigned. Refer to Section 4.4.5, Clinical Encounters and Visits, for information on the population of visit variables for unplanned visits.", "score": 0.4756, "match_basis": "verbatim_token+domain_route:SV"}], "candidate_count": 5, "zero_candidate": false}
{"pdf_atom_id": "ig34_p0088_a015", "pdf_atom_type": "LIST_ITEM", "pdf_source": "SDTMIG_v3.4", "pdf_page": 88, "pdf_parent_section": "§5.5 [Subject Visits (SV)]", "pdf_verbatim": "e. --STRF and --ENRF could be used to say whether a visit started and ended before, during, or after the study reference period, although this seems unnecessary.", "figure_ref": null, "candidates": [{"md_atom_id": "md_dmSV_assn_a025", "md_file": "knowledge_base/domains/SV/assumptions.md", "md_atom_type": "LIST_ITEM", "md_parent_section": "§SV [SV — Assumptions]", "md_verbatim": "    e. --STRF and --ENRF could be used to say whether a visit started and ended before, during, or after the study reference period, although this seems unnecessary.", "score": 1.0, "match_basis": "verbatim_token+domain_route:SV"}, {"md_atom_id": "md_dmSV_assn_a026", "md_file": "knowledge_base/domains/SV/assumptions.md", "md_atom_type": "LIST_ITEM", "md_parent_section": "§SV [SV — Assumptions]", "md_verbatim": "    f. --STRTPT, --STTPT, --ENRTPT, and --ENTPT could be used to say that a visit started or ended before or after particular dates, although this seems unnecessary.", "score": 0.7065, "match_basis": "verbatim_token+domain_route:SV"}, {"md_atom_id": "md_dmSV_assn_a017", "md_file": "knowledge_base/domains/SV/assumptions.md", "md_atom_type": "LIST_ITEM", "md_parent_section": "§SV [SV — Assumptions]", "md_verbatim": "12. Differentiating between planned and unplanned visits may be challenging if unplanned assessments (e.g., repeat labs) are performed during the time period of a planned visit.", "score": 0.4927, "match_basis": "verbatim_token+domain_route:SV"}, {"md_atom_id": "md_dmSV_assn_a022", "md_file": "knowledge_base/domains/SV/assumptions.md", "md_atom_type": "LIST_ITEM", "md_parent_section": "§SV [SV — Assumptions]", "md_verbatim": "    b. The purpose of --DTC and --DY in other domains with start and end dates (Event and Intervention Domains) is to record the date on which data was collected. For a visit that occurred, it is not necessary to submit the date on which information about the visit was collected. When SVPRESP = \"Y\" and SVOCCUR = \"N\", --DTC and --DY are available for use to represent the date on which it was recorded that the visit did not take place.", "score": 0.4847, "match_basis": "verbatim_token+domain_route:SV"}, {"md_atom_id": "md_dmSV_assn_a013", "md_file": "knowledge_base/domains/SV/assumptions.md", "md_atom_type": "LIST_ITEM", "md_parent_section": "§SV [SV — Assumptions]", "md_verbatim": "8. The planned study day of visit variable (VISITDY) should not be populated for unplanned visits.", "score": 0.4812, "match_basis": "verbatim_token+domain_route:SV"}], "candidate_count": 5, "zero_candidate": false}
{"pdf_atom_id": "ig34_p0088_a016", "pdf_atom_type": "LIST_ITEM", "pdf_source": "SDTMIG_v3.4", "pdf_page": 88, "pdf_parent_section": "§5.5 [Subject Visits (SV)]", "pdf_verbatim": "f. --STRTPT, --STTPT, --ENRTPT, and --ENTPT could be used to say that a visit started or ended before or after particular dates, although this seems unnecessary.", "figure_ref": null, "candidates": [{"md_atom_id": "md_dmSV_assn_a026", "md_file": "knowledge_base/domains/SV/assumptions.md", "md_atom_type": "LIST_ITEM", "md_parent_section": "§SV [SV — Assumptions]", "md_verbatim": "    f. --STRTPT, --STTPT, --ENRTPT, and --ENTPT could be used to say that a visit started or ended before or after particular dates, although this seems unnecessary.", "score": 1.0, "match_basis": "verbatim_token+domain_route:SV"}, {"md_atom_id": "md_dmSV_assn_a025", "md_file": "knowledge_base/domains/SV/assumptions.md", "md_atom_type": "LIST_ITEM", "md_parent_section": "§SV [SV — Assumptions]", "md_verbatim": "    e. --STRF and --ENRF could be used to say whether a visit started and ended before, during, or after the study reference period, although this seems unnecessary.", "score": 0.7065, "match_basis": "verbatim_token+domain_route:SV"}, {"md_atom_id": "md_dmSV_assn_a022", "md_file": "knowledge_base/domains/SV/assumptions.md", "md_atom_type": "LIST_ITEM", "md_parent_section": "§SV [SV — Assumptions]", "md_verbatim": "    b. The purpose of --DTC and --DY in other domains with start and end dates (Event and Intervention Domains) is to record the date on which data was collected. For a visit that occurred, it is not necessary to submit the date on which information about the visit was collected. When SVPRESP = \"Y\" and SVOCCUR = \"N\", --DTC and --DY are available for use to represent the date on which it was recorded that the visit did not take place.", "score": 0.5006, "match_basis": "verbatim_token+domain_route:SV"}, {"md_atom_id": "md_dmSV_assn_a027", "md_file": "knowledge_base/domains/SV/assumptions.md", "md_atom_type": "LIST_ITEM", "md_parent_section": "§SV [SV — Assumptions]", "md_verbatim": "16. SVOCCUR = \"N\" records are only to be created for planned visits that were expected to occur before the end of the subject's participation.", "score": 0.4953, "match_basis": "verbatim_token+domain_route:SV"}, {"md_atom_id": "md_dmSV_assn_a018", "md_file": "knowledge_base/domains/SV/assumptions.md", "md_atom_type": "LIST_ITEM", "md_parent_section": "§SV [SV — Assumptions]", "md_verbatim": "13. Algorithms for populating SVSTDTC and SVENDTC from the dates of assessments performed at a visit may be particularly challenging for screening visits, since baseline values collected at a screening visit are sometimes historical data from tests performed before the subject started screening for the trial. Therefore dates prior to informed consent are not part of the determination of SVSTDTC.", "score": 0.4894, "match_basis": "verbatim_token+domain_route:SV"}], "candidate_count": 5, "zero_candidate": false}
{"pdf_atom_id": "ig34_p0088_a017", "pdf_atom_type": "LIST_ITEM", "pdf_source": "SDTMIG_v3.4", "pdf_page": 88, "pdf_parent_section": "§5.5 [Subject Visits (SV)]", "pdf_verbatim": "SVOCCUR = \"N\" records are only to be created for planned visits that were expected to occur before the end of the subject's participation.", "figure_ref": null, "candidates": [{"md_atom_id": "md_dmSV_assn_a027", "md_file": "knowledge_base/domains/SV/assumptions.md", "md_atom_type": "LIST_ITEM", "md_parent_section": "§SV [SV — Assumptions]", "md_verbatim": "16. SVOCCUR = \"N\" records are only to be created for planned visits that were expected to occur before the end of the subject's participation.", "score": 1.0, "match_basis": "verbatim_token+domain_route:SV"}, {"md_atom_id": "md_dmSV_assn_a004", "md_file": "knowledge_base/domains/SV/assumptions.md", "md_atom_type": "LIST_ITEM", "md_parent_section": "§SV [SV — Assumptions]", "md_verbatim": "3. Subjects who screen fail, withdraw, die, or otherwise discontinue study participation will not have records for planned visits subsequent to their final disposition event.", "score": 0.5752, "match_basis": "verbatim_token+domain_route:SV"}, {"md_atom_id": "md_dmSV_assn_a002", "md_file": "knowledge_base/domains/SV/assumptions.md", "md_atom_type": "LIST_ITEM", "md_parent_section": "§SV [SV — Assumptions]", "md_verbatim": "1. The Subject Visits domain allows the submission of data on the timing of the trial visits for a subject, including both those visits they actually passed through in their participation in the trial and those visits that did not occur. Refer to Section 7.3.1, Trial Visits (TV), as the TV dataset defines the planned visits for the trial.", "score": 0.5548, "match_basis": "verbatim_token+domain_route:SV"}, {"md_atom_id": "md_dmSV_assn_a007", "md_file": "knowledge_base/domains/SV/assumptions.md", "md_atom_type": "LIST_ITEM", "md_parent_section": "§SV [SV — Assumptions]", "md_verbatim": "   b. For planned visits, SVOCCUR indicates whether the visit occurred.", "score": 0.5457, "match_basis": "verbatim_token+domain_route:SV"}, {"md_atom_id": "md_dmSV_assn_a008", "md_file": "knowledge_base/domains/SV/assumptions.md", "md_atom_type": "LIST_ITEM", "md_parent_section": "§SV [SV — Assumptions]", "md_verbatim": "   c. For unplanned visits, SVPRESP and SVOCCUR are null.", "score": 0.5433, "match_basis": "verbatim_token+domain_route:SV"}], "candidate_count": 5, "zero_candidate": false}
{"pdf_atom_id": "ig34_p0089_a001", "pdf_atom_type": "HEADING", "pdf_source": "SDTMIG_v3.4", "pdf_page": 89, "pdf_parent_section": "§5.5 [Subject Visits (SV)]", "pdf_verbatim": "SV – Examples", "figure_ref": null, "candidates": [{"md_atom_id": "md_dmSV_ex_a001", "md_file": "knowledge_base/domains/SV/examples.md", "md_atom_type": "HEADING", "md_parent_section": "§SV [SV — Examples]", "md_verbatim": "# SV — Examples", "score": 1.0, "match_basis": "verbatim_token+domain_route:SV"}, {"md_atom_id": "md_dmSV_ex_a002", "md_file": "knowledge_base/domains/SV/examples.md", "md_atom_type": "HEADING", "md_parent_section": "§SV [SV — Examples]", "md_verbatim": "## Example 1", "score": 0.9, "match_basis": "verbatim_token+domain_route:SV"}, {"md_atom_id": "md_dmSV_assn_a001", "md_file": "knowledge_base/domains/SV/assumptions.md", "md_atom_type": "HEADING", "md_parent_section": "§SV [SV — Assumptions]", "md_verbatim": "# SV — Assumptions", "score": 0.4, "match_basis": "verbatim_token+domain_route:SV"}], "candidate_count": 3, "zero_candidate": false}
{"pdf_atom_id": "ig34_p0089_a002", "pdf_atom_type": "HEADING", "pdf_source": "SDTMIG_v3.4", "pdf_page": 89, "pdf_parent_section": "§5.5 [Subject Visits (SV)]", "pdf_verbatim": "Example 1", "figure_ref": null, "candidates": [{"md_atom_id": "md_dmSV_ex_a002", "md_file": "knowledge_base/domains/SV/examples.md", "md_atom_type": "HEADING", "md_parent_section": "§SV [SV — Examples]", "md_verbatim": "## Example 1", "score": 1.0, "match_basis": "verbatim_token+domain_route:SV"}, {"md_atom_id": "md_dmSV_ex_a001", "md_file": "knowledge_base/domains/SV/examples.md", "md_atom_type": "HEADING", "md_parent_section": "§SV [SV — Examples]", "md_verbatim": "# SV — Examples", "score": 0.9, "match_basis": "verbatim_token+domain_route:SV"}, {"md_atom_id": "md_dmSV_assn_a001", "md_file": "knowledge_base/domains/SV/assumptions.md", "md_atom_type": "HEADING", "md_parent_section": "§SV [SV — Assumptions]", "md_verbatim": "# SV — Assumptions", "score": 0.4, "match_basis": "verbatim_token+domain_route:SV"}], "candidate_count": 3, "zero_candidate": false}
{"pdf_atom_id": "ig34_p0089_a003", "pdf_atom_type": "SENTENCE", "pdf_source": "SDTMIG_v3.4", "pdf_page": 89, "pdf_parent_section": "§5.5 [Subject Visits (SV)]", "pdf_verbatim": "This example shows the planned visit schedule for a study, along with disposition and study events data for 3 subjects.", "figure_ref": null, "candidates": [{"md_atom_id": "md_dmSV_ex_a003", "md_file": "knowledge_base/domains/SV/examples.md", "md_atom_type": "SENTENCE", "md_parent_section": "§SV.1 [Example 1]", "md_verbatim": "This example shows the planned visit schedule for a study, along with disposition and study events data for 3 subjects. For this study, data on screen failures were submitted. The study was disrupted by the COVID-19 pandemic after many subjects had completed the study.", "score": 0.7402, "match_basis": "verbatim_token+domain_route:SV"}, {"md_atom_id": "md_dmSV_ex_a004", "md_file": "knowledge_base/domains/SV/examples.md", "md_atom_type": "SENTENCE", "md_parent_section": "§SV.1 [Example 1]", "md_verbatim": "This is the planned schedule of visits for the study in this example.", "score": 0.6786, "match_basis": "verbatim_token+domain_route:SV"}, {"md_atom_id": "md_dmSV_ex_a019", "md_file": "knowledge_base/domains/SV/examples.md", "md_atom_type": "SENTENCE", "md_parent_section": "§SV.1 [Example 1]", "md_verbatim": "This table shows the disposition records for the subjects in this example.", "score": 0.6571, "match_basis": "verbatim_token+domain_route:SV"}, {"md_atom_id": "md_dmSV_ex_a044", "md_file": "knowledge_base/domains/SV/examples.md", "md_atom_type": "SENTENCE", "md_parent_section": "§SV.1 [Example 1]", "md_verbatim": "**Row 15:** This subject had their last visit, a follow-up visit on study day 26, eight days after the unscheduled visit.", "score": 0.5579, "match_basis": "verbatim_token+domain_route:SV"}, {"md_atom_id": "md_dmSV_ex_a036", "md_file": "knowledge_base/domains/SV/examples.md", "md_atom_type": "SENTENCE", "md_parent_section": "§SV.1 [Example 1]", "md_verbatim": "**Rows 2-3:** Show normal completion of the first 2 visits for subject 85.", "score": 0.55, "match_basis": "verbatim_token+domain_route:SV"}], "candidate_count": 5, "zero_candidate": false}
{"pdf_atom_id": "ig34_p0089_a004", "pdf_atom_type": "SENTENCE", "pdf_source": "SDTMIG_v3.4", "pdf_page": 89, "pdf_parent_section": "§5.5 [Subject Visits (SV)]", "pdf_verbatim": "For this study, data on screen failures were submitted.", "figure_ref": null, "candidates": [{"md_atom_id": "md_dmSV_ex_a003", "md_file": "knowledge_base/domains/SV/examples.md", "md_atom_type": "SENTENCE", "md_parent_section": "§SV.1 [Example 1]", "md_verbatim": "This example shows the planned visit schedule for a study, along with disposition and study events data for 3 subjects. For this study, data on screen failures were submitted. The study was disrupted by the COVID-19 pandemic after many subjects had completed the study.", "score": 0.567, "match_basis": "verbatim_token+domain_route:SV"}, {"md_atom_id": "md_dmSV_ex_a035", "md_file": "knowledge_base/domains/SV/examples.md", "md_atom_type": "SENTENCE", "md_parent_section": "§SV.1 [Example 1]", "md_verbatim": "**Row 1:** Shows that screening data for subject 37 was collected during a period of 4 days. This subject is shown as a screen failure in ds.xpt and therefore would have a null DM.RFSTDTC, hence the study day values in SVSTDY and SVENDY, which are based on the sponsor-defined reference start date, are null.", "score": 0.5062, "match_basis": "verbatim_token+domain_route:SV"}, {"md_atom_id": "md_dmSV_ex_a039", "md_file": "knowledge_base/domains/SV/examples.md", "md_atom_type": "SENTENCE", "md_parent_section": "§SV.1 [Example 1]", "md_verbatim": "**Row 10:** Data for the screening visit was gathered over the course of six days. For this and subsequent visits, SVPRESP = \"Y\" indicates that a visit was planned and SVOCCUR = \"Y\" indicates that the visit occurred.", "score": 0.4867, "match_basis": "verbatim_token+domain_route:SV"}, {"md_atom_id": "md_dmSV_ex_a021", "md_file": "knowledge_base/domains/SV/examples.md", "md_atom_type": "SENTENCE", "md_parent_section": "§SV.1 [Example 1]", "md_verbatim": "**Row 2:** Shows the subject 37 was discontinued due to screen failure. Note that because the subject did not start treatment, DSSTDY is not populated in their records.", "score": 0.4776, "match_basis": "verbatim_token+domain_route:SV"}, {"md_atom_id": "md_dmSV_ex_a004", "md_file": "knowledge_base/domains/SV/examples.md", "md_atom_type": "SENTENCE", "md_parent_section": "§SV.1 [Example 1]", "md_verbatim": "This is the planned schedule of visits for the study in this example.", "score": 0.475, "match_basis": "verbatim_token+domain_route:SV"}], "candidate_count": 5, "zero_candidate": false}
{"pdf_atom_id": "ig34_p0089_a005", "pdf_atom_type": "SENTENCE", "pdf_source": "SDTMIG_v3.4", "pdf_page": 89, "pdf_parent_section": "§5.5 [Subject Visits (SV)]", "pdf_verbatim": "The study was disrupted by the COVID-19 pandemic after many subjects had completed the study.", "figure_ref": null, "candidates": [{"md_atom_id": "md_dmSV_ex_a003", "md_file": "knowledge_base/domains/SV/examples.md", "md_atom_type": "SENTENCE", "md_parent_section": "§SV.1 [Example 1]", "md_verbatim": "This example shows the planned visit schedule for a study, along with disposition and study events data for 3 subjects. For this study, data on screen failures were submitted. The study was disrupted by the COVID-19 pandemic after many subjects had completed the study.", "score": 0.6412, "match_basis": "verbatim_token+domain_route:SV"}, {"md_atom_id": "md_dmSV_ex_a023", "md_file": "knowledge_base/domains/SV/examples.md", "md_atom_type": "SENTENCE", "md_parent_section": "§SV.1 [Example 1]", "md_verbatim": "**Row 4:** Shows that subject 85 completed the study.", "score": 0.6133, "match_basis": "verbatim_token+domain_route:SV"}, {"md_atom_id": "md_dmSV_ex_a044", "md_file": "knowledge_base/domains/SV/examples.md", "md_atom_type": "SENTENCE", "md_parent_section": "§SV.1 [Example 1]", "md_verbatim": "**Row 15:** This subject had their last visit, a follow-up visit on study day 26, eight days after the unscheduled visit.", "score": 0.5164, "match_basis": "verbatim_token+domain_route:SV"}, {"md_atom_id": "md_dmSV_ex_a036", "md_file": "knowledge_base/domains/SV/examples.md", "md_atom_type": "SENTENCE", "md_parent_section": "§SV.1 [Example 1]", "md_verbatim": "**Rows 2-3:** Show normal completion of the first 2 visits for subject 85.", "score": 0.5138, "match_basis": "verbatim_token+domain_route:SV"}, {"md_atom_id": "md_dmSV_ex_a038", "md_file": "knowledge_base/domains/SV/examples.md", "md_atom_type": "SENTENCE", "md_parent_section": "§SV.1 [Example 1]", "md_verbatim": "**Rows 5-9:** Normal completion of remaining visits for subject 85.", "score": 0.5, "match_basis": "verbatim_token+domain_route:SV"}], "candidate_count": 5, "zero_candidate": false}
{"pdf_atom_id": "ig34_p0089_a006", "pdf_atom_type": "SENTENCE", "pdf_source": "SDTMIG_v3.4", "pdf_page": 89, "pdf_parent_section": "§5.5 [Subject Visits (SV)]", "pdf_verbatim": "This is the planned schedule of visits for the study in this example:", "figure_ref": null, "candidates": [{"md_atom_id": "md_dmSV_ex_a004", "md_file": "knowledge_base/domains/SV/examples.md", "md_atom_type": "SENTENCE", "md_parent_section": "§SV.1 [Example 1]", "md_verbatim": "This is the planned schedule of visits for the study in this example.", "score": 1.0, "match_basis": "verbatim_token+domain_route:SV"}, {"md_atom_id": "md_dmSV_ex_a044", "md_file": "knowledge_base/domains/SV/examples.md", "md_atom_type": "SENTENCE", "md_parent_section": "§SV.1 [Example 1]", "md_verbatim": "**Row 15:** This subject had their last visit, a follow-up visit on study day 26, eight days after the unscheduled visit.", "score": 0.5698, "match_basis": "verbatim_token+domain_route:SV"}, {"md_atom_id": "md_dmSV_ex_a041", "md_file": "knowledge_base/domains/SV/examples.md", "md_atom_type": "SENTENCE", "md_parent_section": "§SV.1 [Example 1]", "md_verbatim": "**Row 12:** The visit scheduled for Day 8 occurred one day early, on Day 7.", "score": 0.565, "match_basis": "verbatim_token+domain_route:SV"}, {"md_atom_id": "md_dmSV_ex_a003", "md_file": "knowledge_base/domains/SV/examples.md", "md_atom_type": "SENTENCE", "md_parent_section": "§SV.1 [Example 1]", "md_verbatim": "This example shows the planned visit schedule for a study, along with disposition and study events data for 3 subjects. For this study, data on screen failures were submitted. The study was disrupted by the COVID-19 pandemic after many subjects had completed the study.", "score": 0.5592, "match_basis": "verbatim_token+domain_route:SV"}, {"md_atom_id": "md_dmSV_ex_a040", "md_file": "knowledge_base/domains/SV/examples.md", "md_atom_type": "SENTENCE", "md_parent_section": "§SV.1 [Example 1]", "md_verbatim": "**Row 11:** The visit called \"DAY 1\" started and ended as planned, on Day 1.", "score": 0.5286, "match_basis": "verbatim_token+domain_route:SV"}], "candidate_count": 5, "zero_candidate": false}
{"pdf_atom_id": "ig34_p0089_a007", "pdf_atom_type": "LIST_ITEM", "pdf_source": "SDTMIG_v3.4", "pdf_page": 89, "pdf_parent_section": "§5.5 [Subject Visits (SV)]", "pdf_verbatim": "Row 1: The activities for the SCREEN visit may occur over up to 7 days.", "figure_ref": null, "candidates": [{"md_atom_id": "md_dmSV_ex_a005", "md_file": "knowledge_base/domains/SV/examples.md", "md_atom_type": "SENTENCE", "md_parent_section": "§SV.1 [Example 1]", "md_verbatim": "**Row 1:** The activities for the SCREEN visit may occur over up to 7 days.", "score": 0.91, "match_basis": "verbatim_token+domain_route:SV"}, {"md_atom_id": "md_dmSV_assn_a007", "md_file": "knowledge_base/domains/SV/assumptions.md", "md_atom_type": "LIST_ITEM", "md_parent_section": "§SV [SV — Assumptions]", "md_verbatim": "   b. For planned visits, SVOCCUR indicates whether the visit occurred.", "score": 0.5, "match_basis": "verbatim_token+domain_route:SV"}, {"md_atom_id": "md_dmSV_assn_a008", "md_file": "knowledge_base/domains/SV/assumptions.md", "md_atom_type": "LIST_ITEM", "md_parent_section": "§SV [SV — Assumptions]", "md_verbatim": "   c. For unplanned visits, SVPRESP and SVOCCUR are null.", "score": 0.4933, "match_basis": "verbatim_token+domain_route:SV"}, {"md_atom_id": "md_dmSV_assn_a006", "md_file": "knowledge_base/domains/SV/assumptions.md", "md_atom_type": "LIST_ITEM", "md_parent_section": "§SV [SV — Assumptions]", "md_verbatim": "   a. SVPRESP = \"Y\" identifies rows for planned visits.", "score": 0.48, "match_basis": "verbatim_token+domain_route:SV"}, {"md_atom_id": "md_dmSV_assn_a016", "md_file": "knowledge_base/domains/SV/assumptions.md", "md_atom_type": "LIST_ITEM", "md_parent_section": "§SV [SV — Assumptions]", "md_verbatim": "11. For many studies, all visits are assumed to occur within 1 calendar day, and only 1 date is collected for the visit. In such a case, the values for SVENDTC duplicate values in SVSTDTC. However, if the data for a visit is actually collected over several physical visits and/or over several days, then SVSTDTC and SVENDTC should reflect this fact. Note that it is fairly common for screening data to be collected over several days, but for the data to be treated as belonging to a single planned screening visit, even in studies for which all other visits are single-day visits.", "score": 0.473, "match_basis": "verbatim_token+domain_route:SV"}], "candidate_count": 5, "zero_candidate": false}
{"pdf_atom_id": "ig34_p0089_a008", "pdf_atom_type": "LIST_ITEM", "pdf_source": "SDTM_v3.4", "pdf_page": 89, "pdf_parent_section": "§5.5 [Subject Visits (SV)]", "pdf_verbatim": "Row 2: The day 1 visit is planned to start before the start of treatment and end after the start of treatment.", "figure_ref": null, "candidates": [{"md_atom_id": "md_dmSV_ex_a006", "md_file": "knowledge_base/domains/SV/examples.md", "md_atom_type": "SENTENCE", "md_parent_section": "§SV.1 [Example 1]", "md_verbatim": "**Row 2:** The day 1 visit is planned to start before the start of treatment and end after the start of treatment.", "score": 0.91, "match_basis": "verbatim_token+domain_route:SV"}, {"md_atom_id": "md_dmSV_ex_a040", "md_file": "knowledge_base/domains/SV/examples.md", "md_atom_type": "SENTENCE", "md_parent_section": "§SV.1 [Example 1]", "md_verbatim": "**Row 11:** The visit called \"DAY 1\" started and ended as planned, on Day 1.", "score": 0.5626, "match_basis": "verbatim_token+domain_route:SV"}, {"md_atom_id": "md_dmSV_assn_a006", "md_file": "knowledge_base/domains/SV/assumptions.md", "md_atom_type": "LIST_ITEM", "md_parent_section": "§SV [SV — Assumptions]", "md_verbatim": "   a. SVPRESP = \"Y\" identifies rows for planned visits.", "score": 0.55, "match_basis": "verbatim_token+domain_route:SV"}, {"md_atom_id": "md_dmSV_assn_a027", "md_file": "knowledge_base/domains/SV/assumptions.md", "md_atom_type": "LIST_ITEM", "md_parent_section": "§SV [SV — Assumptions]", "md_verbatim": "16. SVOCCUR = \"N\" records are only to be created for planned visits that were expected to occur before the end of the subject's participation.", "score": 0.5457, "match_basis": "verbatim_token+domain_route:SV"}, {"md_atom_id": "md_dmSV_ex_a012", "md_file": "knowledge_base/domains/SV/examples.md", "md_atom_type": "TABLE_ROW", "md_parent_section": "§SV.1 [Example 1]", "md_verbatim": "| 2 | 123456 | TV | 2 | DAY 1 | 1 | On the day of, but before, the end of the Screen Epoch | On the day of, but after, the start of the Treatment Epoch |", "score": 0.5357, "match_basis": "verbatim_token+domain_route:SV"}], "candidate_count": 5, "zero_candidate": false}
{"pdf_atom_id": "ig34_p0089_a009", "pdf_atom_type": "LIST_ITEM", "pdf_source": "SDTMIG_v3.4", "pdf_page": 89, "pdf_parent_section": "§5.5 [Subject Visits (SV)]", "pdf_verbatim": "Rows 3-7: These visits are scheduled relative to the start of the treatment epoch.", "figure_ref": null, "candidates": [{"md_atom_id": "md_dmSV_ex_a007", "md_file": "knowledge_base/domains/SV/examples.md", "md_atom_type": "SENTENCE", "md_parent_section": "§SV.1 [Example 1]", "md_verbatim": "**Rows 3-7:** These visits are scheduled relative to the start of the treatment epoch.", "score": 0.91, "match_basis": "verbatim_token+domain_route:SV"}, {"md_atom_id": "md_dmSV_ex_a008", "md_file": "knowledge_base/domains/SV/examples.md", "md_atom_type": "SENTENCE", "md_parent_section": "§SV.1 [Example 1]", "md_verbatim": "**Row 8:** The follow-up visit is generally scheduled relative to the start of the treatment epoch, but may occur earlier if treatment is stopped early.", "score": 0.6052, "match_basis": "verbatim_token+domain_route:SV"}, {"md_atom_id": "md_dmSV_assn_a021", "md_file": "knowledge_base/domains/SV/assumptions.md", "md_atom_type": "LIST_ITEM", "md_parent_section": "§SV [SV — Assumptions]", "md_verbatim": "    a. If TAETORD and/or EPOCH are added, then the values must be those at the start of the visit.", "score": 0.52, "match_basis": "verbatim_token+domain_route:SV"}, {"md_atom_id": "md_dmSV_ex_a006", "md_file": "knowledge_base/domains/SV/examples.md", "md_atom_type": "SENTENCE", "md_parent_section": "§SV.1 [Example 1]", "md_verbatim": "**Row 2:** The day 1 visit is planned to start before the start of treatment and end after the start of treatment.", "score": 0.4865, "match_basis": "verbatim_token+domain_route:SV"}, {"md_atom_id": "md_dmSV_assn_a006", "md_file": "knowledge_base/domains/SV/assumptions.md", "md_atom_type": "LIST_ITEM", "md_parent_section": "§SV [SV — Assumptions]", "md_verbatim": "   a. SVPRESP = \"Y\" identifies rows for planned visits.", "score": 0.4778, "match_basis": "verbatim_token+domain_route:SV"}], "candidate_count": 5, "zero_candidate": false}
{"pdf_atom_id": "ig34_p0089_a010", "pdf_atom_type": "LIST_ITEM", "pdf_source": "SDTMIG_v3.4", "pdf_page": 89, "pdf_parent_section": "§5.5 [Subject Visits (SV)]", "pdf_verbatim": "Row 8: The follow-up visit is generally scheduled relative to the start of the treatment epoch, but may occur earlier if treatment is stopped early.", "figure_ref": null, "candidates": [{"md_atom_id": "md_dmSV_ex_a008", "md_file": "knowledge_base/domains/SV/examples.md", "md_atom_type": "SENTENCE", "md_parent_section": "§SV.1 [Example 1]", "md_verbatim": "**Row 8:** The follow-up visit is generally scheduled relative to the start of the treatment epoch, but may occur earlier if treatment is stopped early.", "score": 0.91, "match_basis": "verbatim_token+domain_route:SV"}, {"md_atom_id": "md_dmSV_ex_a007", "md_file": "knowledge_base/domains/SV/examples.md", "md_atom_type": "SENTENCE", "md_parent_section": "§SV.1 [Example 1]", "md_verbatim": "**Rows 3-7:** These visits are scheduled relative to the start of the treatment epoch.", "score": 0.6052, "match_basis": "verbatim_token+domain_route:SV"}, {"md_atom_id": "md_dmSV_ex_a041", "md_file": "knowledge_base/domains/SV/examples.md", "md_atom_type": "SENTENCE", "md_parent_section": "§SV.1 [Example 1]", "md_verbatim": "**Row 12:** The visit scheduled for Day 8 occurred one day early, on Day 7.", "score": 0.4788, "match_basis": "verbatim_token+domain_route:SV"}, {"md_atom_id": "md_dmSV_assn_a021", "md_file": "knowledge_base/domains/SV/assumptions.md", "md_atom_type": "LIST_ITEM", "md_parent_section": "§SV [SV — Assumptions]", "md_verbatim": "    a. If TAETORD and/or EPOCH are added, then the values must be those at the start of the visit.", "score": 0.4769, "match_basis": "verbatim_token+domain_route:SV"}, {"md_atom_id": "md_dmSV_assn_a010", "md_file": "knowledge_base/domains/SV/assumptions.md", "md_atom_type": "LIST_ITEM", "md_parent_section": "§SV [SV — Assumptions]", "md_verbatim": "5. The identification of an actual visit with a planned visit sometimes calls for judgment. In general, data collection forms are prepared for particular visits, and the fact that data was collected on a form labeled with a planned visit is sufficient to make the association. Occasionally, the association will not be so clear, and the sponsor will need to make decisions about how to label actual visits. The sponsor's rules for making such decisions should be documented in the Define-XML document.", "score": 0.4645, "match_basis": "verbatim_token+domain_route:SV"}], "candidate_count": 5, "zero_candidate": false}
{"pdf_atom_id": "ig34_p0089_a011", "pdf_atom_type": "CODE_LITERAL", "pdf_source": "SDTMIG_v3.4", "pdf_page": 89, "pdf_parent_section": "§5.5 [Subject Visits (SV)]", "pdf_verbatim": "tv.xpt", "figure_ref": null, "candidates": [{"md_atom_id": "md_dmSV_ex_a009", "md_file": "knowledge_base/domains/SV/examples.md", "md_atom_type": "SENTENCE", "md_parent_section": "§SV.1 [Example 1]", "md_verbatim": "**tv.xpt**", "score": 0.79, "match_basis": "verbatim_token+domain_route:SV"}, {"md_atom_id": "md_dmSV_ex_a026", "md_file": "knowledge_base/domains/SV/examples.md", "md_atom_type": "SENTENCE", "md_parent_section": "§SV.1 [Example 1]", "md_verbatim": "**ds.xpt**", "score": 0.79, "match_basis": "verbatim_token+domain_route:SV"}, {"md_atom_id": "md_dmSV_ex_a045", "md_file": "knowledge_base/domains/SV/examples.md", "md_atom_type": "SENTENCE", "md_parent_section": "§SV.1 [Example 1]", "md_verbatim": "**sv.xpt**", "score": 0.79, "match_basis": "verbatim_token+domain_route:SV"}, {"md_atom_id": "md_dmSV_ex_a035", "md_file": "knowledge_base/domains/SV/examples.md", "md_atom_type": "SENTENCE", "md_parent_section": "§SV.1 [Example 1]", "md_verbatim": "**Row 1:** Shows that screening data for subject 37 was collected during a period of 4 days. This subject is shown as a screen failure in ds.xpt and therefore would have a null DM.RFSTDTC, hence the study day values in SVSTDY and SVENDY, which are based on the sponsor-defined reference start date, are null.", "score": 0.1957, "match_basis": "verbatim_token+domain_route:SV"}, {"md_atom_id": "md_dmSV_assn_a001", "md_file": "knowledge_base/domains/SV/assumptions.md", "md_atom_type": "HEADING", "md_parent_section": "§SV [SV — Assumptions]", "md_verbatim": "# SV — Assumptions", "score": 0.19, "match_basis": "verbatim_token+domain_route:SV"}, {"md_atom_id": "md_dmSV_assn_a002", "md_file": "knowledge_base/domains/SV/assumptions.md", "md_atom_type": "LIST_ITEM", "md_parent_section": "§SV [SV — Assumptions]", "md_verbatim": "1. The Subject Visits domain allows the submission of data on the timing of the trial visits for a subject, including both those visits they actually passed through in their participation in the trial and those visits that did not occur. Refer to Section 7.3.1, Trial Visits (TV), as the TV dataset defines the planned visits for the trial.", "score": 0.19, "match_basis": "verbatim_token+domain_route:SV"}, {"md_atom_id": "md_dmSV_assn_a003", "md_file": "knowledge_base/domains/SV/assumptions.md", "md_atom_type": "LIST_ITEM", "md_parent_section": "§SV [SV — Assumptions]", "md_verbatim": "2. Subjects can have 1 and only 1 record per VISITNUM.", "score": 0.19, "match_basis": "verbatim_token+domain_route:SV"}, {"md_atom_id": "md_dmSV_assn_a004", "md_file": "knowledge_base/domains/SV/assumptions.md", "md_atom_type": "LIST_ITEM", "md_parent_section": "§SV [SV — Assumptions]", "md_verbatim": "3. Subjects who screen fail, withdraw, die, or otherwise discontinue study participation will not have records for planned visits subsequent to their final disposition event.", "score": 0.19, "match_basis": "verbatim_token+domain_route:SV"}, {"md_atom_id": "md_dmSV_assn_a005", "md_file": "knowledge_base/domains/SV/assumptions.md", "md_atom_type": "LIST_ITEM", "md_parent_section": "§SV [SV — Assumptions]", "md_verbatim": "4. Planned and unplanned visits with a subject, whether or not they are physical visits to the investigational site, are represented in this domain.", "score": 0.19, "match_basis": "verbatim_token+domain_route:SV"}, {"md_atom_id": "md_dmSV_assn_a006", "md_file": "knowledge_base/domains/SV/assumptions.md", "md_atom_type": "LIST_ITEM", "md_parent_section": "§SV [SV — Assumptions]", "md_verbatim": "   a. SVPRESP = \"Y\" identifies rows for planned visits.", "score": 0.19, "match_basis": "verbatim_token+domain_route:SV"}], "candidate_count": 10, "zero_candidate": false}
{"pdf_atom_id": "ig34_p0089_a012", "pdf_atom_type": "TABLE_HEADER", "pdf_source": "SDTMIG_v3.4", "pdf_page": 89, "pdf_parent_section": "§5.5 [Subject Visits (SV)]", "pdf_verbatim": "Row | STUDYID | DOMAIN | VISITNUM | VISIT | VISITDY | TVSTRL | TVENRL", "figure_ref": null, "candidates": [{"md_atom_id": "md_dmSV_ex_a010", "md_file": "knowledge_base/domains/SV/examples.md", "md_atom_type": "TABLE_HEADER", "md_parent_section": "§SV.1 [Example 1]", "md_verbatim": "| Row | STUDYID | DOMAIN | VISITNUM | VISIT | VISITDY | TVSTRL | TVENRL |\n|-----|---------|--------|----------|-------|---------|--------|--------|", "score": 1.0, "match_basis": "verbatim_token+domain_route:SV"}, {"md_atom_id": "md_dmSV_ex_a046", "md_file": "knowledge_base/domains/SV/examples.md", "md_atom_type": "TABLE_HEADER", "md_parent_section": "§SV.1 [Example 1]", "md_verbatim": "| Row | STUDYID | DOMAIN | USUBJID | VISITNUM | VISIT | SVPRESP | SVOCCUR | SVREASOC | SVCNTMOD | SVEPCHGI | VISITDY | SVSTDTC | SVENDTC | SVSTDY | SVENDY | SVUPDES |\n|-----|---------|--------|---------|----------|-------|---------|---------|----------|----------|----------|---------|---------|---------|--------|--------|---------|", "score": 0.569, "match_basis": "verbatim_token+domain_route:SV"}, {"md_atom_id": "md_dmSV_ex_a027", "md_file": "knowledge_base/domains/SV/examples.md", "md_atom_type": "TABLE_HEADER", "md_parent_section": "§SV.1 [Example 1]", "md_verbatim": "| Row | STUDYID | DOMAIN | USUBJID | DSSEQ | DSTERM | DSDECOD | DSCAT | DSSCAT | EPOCH | DSDTC | DSSTDTC | DSSTDY |\n|-----|---------|--------|---------|-------|--------|---------|-------|--------|-------|-------|---------|--------|", "score": 0.52, "match_basis": "verbatim_token+domain_route:SV"}, {"md_atom_id": "md_dmSV_ex_a029", "md_file": "knowledge_base/domains/SV/examples.md", "md_atom_type": "TABLE_ROW", "md_parent_section": "§SV.1 [Example 1]", "md_verbatim": "| 2 | 123456 | DS | 37 | 2 | SCREEN FAILURE | SCREEN FAILURE | DISPOSITION EVENT | STUDY PARTICIPATION | SCREENING | 2019-09-16 | 2019-09-16 | |", "score": 0.3876, "match_basis": "verbatim_token+domain_route:SV"}, {"md_atom_id": "md_dmSV_ex_a031", "md_file": "knowledge_base/domains/SV/examples.md", "md_atom_type": "TABLE_ROW", "md_parent_section": "§SV.1 [Example 1]", "md_verbatim": "| 4 | 123456 | DS | 85 | 2 | COMPLETED | COMPLETED | DISPOSITION EVENT | STUDY PARTICIPATION | TREATMENT | 2020-02-27 | 2020-02-27 | 72 |", "score": 0.3869, "match_basis": "verbatim_token+domain_route:SV"}], "candidate_count": 5, "zero_candidate": false}
{"pdf_atom_id": "ig34_p0089_a013", "pdf_atom_type": "TABLE_ROW", "pdf_source": "SDTMIG_v3.4", "pdf_page": 89, "pdf_parent_section": "§5.5 [Subject Visits (SV)]", "pdf_verbatim": "1 | 123456 | TV | 1 | SCREEN | 1 | Start of Screening Epoch | Up to 7 days after start of the Screening Epoch", "figure_ref": null, "candidates": [{"md_atom_id": "md_dmSV_ex_a011", "md_file": "knowledge_base/domains/SV/examples.md", "md_atom_type": "TABLE_ROW", "md_parent_section": "§SV.1 [Example 1]", "md_verbatim": "| 1 | 123456 | TV | 1 | SCREEN | | Start of Screening Epoch | Up to 7 days after start of the Screening Epoch |", "score": 1.0, "match_basis": "verbatim_token+domain_route:SV"}, {"md_atom_id": "md_dmSV_ex_a012", "md_file": "knowledge_base/domains/SV/examples.md", "md_atom_type": "TABLE_ROW", "md_parent_section": "§SV.1 [Example 1]", "md_verbatim": "| 2 | 123456 | TV | 2 | DAY 1 | 1 | On the day of, but before, the end of the Screen Epoch | On the day of, but after, the start of the Treatment Epoch |", "score": 0.7167, "match_basis": "verbatim_token+domain_route:SV"}, {"md_atom_id": "md_dmSV_ex_a013", "md_file": "knowledge_base/domains/SV/examples.md", "md_atom_type": "TABLE_ROW", "md_parent_section": "§SV.1 [Example 1]", "md_verbatim": "| 3 | 123456 | TV | 3 | WEEK 1 | 8 | 1 week after the start of the Treatment Epoch | |", "score": 0.6625, "match_basis": "verbatim_token+domain_route:SV"}, {"md_atom_id": "md_dmSV_ex_a014", "md_file": "knowledge_base/domains/SV/examples.md", "md_atom_type": "TABLE_ROW", "md_parent_section": "§SV.1 [Example 1]", "md_verbatim": "| 4 | 123456 | TV | 4 | WEEK 2 | 15 | 2 weeks after the start of the Treatment Epoch | |", "score": 0.6545, "match_basis": "verbatim_token+domain_route:SV"}, {"md_atom_id": "md_dmSV_ex_a015", "md_file": "knowledge_base/domains/SV/examples.md", "md_atom_type": "TABLE_ROW", "md_parent_section": "§SV.1 [Example 1]", "md_verbatim": "| 5 | 123456 | TV | 5 | WEEK 4 | 29 | 4 weeks after the start of the Treatment Epoch | |", "score": 0.6545, "match_basis": "verbatim_token+domain_route:SV"}], "candidate_count": 5, "zero_candidate": false}
{"pdf_atom_id": "ig34_p0089_a014", "pdf_atom_type": "TABLE_ROW", "pdf_source": "SDTMIG_v3.4", "pdf_page": 89, "pdf_parent_section": "§5.5 [Subject Visits (SV)]", "pdf_verbatim": "2 | 123456 | TV | 2 | DAY 1 | 1 | On the day of, but before, the end of the Screen Epoch | On the day of, but after, the start of the Treatment Epoch", "figure_ref": null, "candidates": [{"md_atom_id": "md_dmSV_ex_a012", "md_file": "knowledge_base/domains/SV/examples.md", "md_atom_type": "TABLE_ROW", "md_parent_section": "§SV.1 [Example 1]", "md_verbatim": "| 2 | 123456 | TV | 2 | DAY 1 | 1 | On the day of, but before, the end of the Screen Epoch | On the day of, but after, the start of the Treatment Epoch |", "score": 1.0, "match_basis": "verbatim_token+domain_route:SV"}, {"md_atom_id": "md_dmSV_ex_a013", "md_file": "knowledge_base/domains/SV/examples.md", "md_atom_type": "TABLE_ROW", "md_parent_section": "§SV.1 [Example 1]", "md_verbatim": "| 3 | 123456 | TV | 3 | WEEK 1 | 8 | 1 week after the start of the Treatment Epoch | |", "score": 0.7706, "match_basis": "verbatim_token+domain_route:SV"}, {"md_atom_id": "md_dmSV_ex_a014", "md_file": "knowledge_base/domains/SV/examples.md", "md_atom_type": "TABLE_ROW", "md_parent_section": "§SV.1 [Example 1]", "md_verbatim": "| 4 | 123456 | TV | 4 | WEEK 2 | 15 | 2 weeks after the start of the Treatment Epoch | |", "score": 0.76, "match_basis": "verbatim_token+domain_route:SV"}, {"md_atom_id": "md_dmSV_ex_a015", "md_file": "knowledge_base/domains/SV/examples.md", "md_atom_type": "TABLE_ROW", "md_parent_section": "§SV.1 [Example 1]", "md_verbatim": "| 5 | 123456 | TV | 5 | WEEK 4 | 29 | 4 weeks after the start of the Treatment Epoch | |", "score": 0.76, "match_basis": "verbatim_token+domain_route:SV"}, {"md_atom_id": "md_dmSV_ex_a016", "md_file": "knowledge_base/domains/SV/examples.md", "md_atom_type": "TABLE_ROW", "md_parent_section": "§SV.1 [Example 1]", "md_verbatim": "| 6 | 123456 | TV | 6 | WEEK 6 | 43 | 6 weeks after the start of the Treatment Epoch | |", "score": 0.76, "match_basis": "verbatim_token+domain_route:SV"}], "candidate_count": 5, "zero_candidate": false}
{"pdf_atom_id": "ig34_p0089_a015", "pdf_atom_type": "TABLE_ROW", "pdf_source": "SDTMIG_v3.4", "pdf_page": 89, "pdf_parent_section": "§5.5 [Subject Visits (SV)]", "pdf_verbatim": "3 | 123456 | TV | 3 | WEEK 1 | 8 | 1 week after the start of the Treatment Epoch", "figure_ref": null, "candidates": [{"md_atom_id": "md_dmSV_ex_a013", "md_file": "knowledge_base/domains/SV/examples.md", "md_atom_type": "TABLE_ROW", "md_parent_section": "§SV.1 [Example 1]", "md_verbatim": "| 3 | 123456 | TV | 3 | WEEK 1 | 8 | 1 week after the start of the Treatment Epoch | |", "score": 1.0, "match_basis": "verbatim_token+domain_route:SV"}, {"md_atom_id": "md_dmSV_ex_a014", "md_file": "knowledge_base/domains/SV/examples.md", "md_atom_type": "TABLE_ROW", "md_parent_section": "§SV.1 [Example 1]", "md_verbatim": "| 4 | 123456 | TV | 4 | WEEK 2 | 15 | 2 weeks after the start of the Treatment Epoch | |", "score": 0.975, "match_basis": "verbatim_token+domain_route:SV"}, {"md_atom_id": "md_dmSV_ex_a015", "md_file": "knowledge_base/domains/SV/examples.md", "md_atom_type": "TABLE_ROW", "md_parent_section": "§SV.1 [Example 1]", "md_verbatim": "| 5 | 123456 | TV | 5 | WEEK 4 | 29 | 4 weeks after the start of the Treatment Epoch | |", "score": 0.975, "match_basis": "verbatim_token+domain_route:SV"}, {"md_atom_id": "md_dmSV_ex_a016", "md_file": "knowledge_base/domains/SV/examples.md", "md_atom_type": "TABLE_ROW", "md_parent_section": "§SV.1 [Example 1]", "md_verbatim": "| 6 | 123456 | TV | 6 | WEEK 6 | 43 | 6 weeks after the start of the Treatment Epoch | |", "score": 0.975, "match_basis": "verbatim_token+domain_route:SV"}, {"md_atom_id": "md_dmSV_ex_a017", "md_file": "knowledge_base/domains/SV/examples.md", "md_atom_type": "TABLE_ROW", "md_parent_section": "§SV.1 [Example 1]", "md_verbatim": "| 7 | 123456 | TV | 7 | WEEK 8 | 57 | 8 weeks after the start of the Treatment Epoch | |", "score": 0.975, "match_basis": "verbatim_token+domain_route:SV"}], "candidate_count": 5, "zero_candidate": false}
{"pdf_atom_id": "ig34_p0089_a016", "pdf_atom_type": "TABLE_ROW", "pdf_source": "SDTMIG_v3.4", "pdf_page": 89, "pdf_parent_section": "§5.5 [Subject Visits (SV)]", "pdf_verbatim": "4 | 123456 | TV | 4 | WEEK 2 | 15 | 2 weeks after the start of the Treatment Epoch", "figure_ref": null, "candidates": [{"md_atom_id": "md_dmSV_ex_a014", "md_file": "knowledge_base/domains/SV/examples.md", "md_atom_type": "TABLE_ROW", "md_parent_section": "§SV.1 [Example 1]", "md_verbatim": "| 4 | 123456 | TV | 4 | WEEK 2 | 15 | 2 weeks after the start of the Treatment Epoch | |", "score": 1.0, "match_basis": "verbatim_token+domain_route:SV"}, {"md_atom_id": "md_dmSV_ex_a015", "md_file": "knowledge_base/domains/SV/examples.md", "md_atom_type": "TABLE_ROW", "md_parent_section": "§SV.1 [Example 1]", "md_verbatim": "| 5 | 123456 | TV | 5 | WEEK 4 | 29 | 4 weeks after the start of the Treatment Epoch | |", "score": 1.0, "match_basis": "verbatim_token+domain_route:SV"}, {"md_atom_id": "md_dmSV_ex_a016", "md_file": "knowledge_base/domains/SV/examples.md", "md_atom_type": "TABLE_ROW", "md_parent_section": "§SV.1 [Example 1]", "md_verbatim": "| 6 | 123456 | TV | 6 | WEEK 6 | 43 | 6 weeks after the start of the Treatment Epoch | |", "score": 1.0, "match_basis": "verbatim_token+domain_route:SV"}, {"md_atom_id": "md_dmSV_ex_a017", "md_file": "knowledge_base/domains/SV/examples.md", "md_atom_type": "TABLE_ROW", "md_parent_section": "§SV.1 [Example 1]", "md_verbatim": "| 7 | 123456 | TV | 7 | WEEK 8 | 57 | 8 weeks after the start of the Treatment Epoch | |", "score": 1.0, "match_basis": "verbatim_token+domain_route:SV"}, {"md_atom_id": "md_dmSV_ex_a013", "md_file": "knowledge_base/domains/SV/examples.md", "md_atom_type": "TABLE_ROW", "md_parent_section": "§SV.1 [Example 1]", "md_verbatim": "| 3 | 123456 | TV | 3 | WEEK 1 | 8 | 1 week after the start of the Treatment Epoch | |", "score": 0.975, "match_basis": "verbatim_token+domain_route:SV"}], "candidate_count": 5, "zero_candidate": false}
{"pdf_atom_id": "ig34_p0089_a017", "pdf_atom_type": "TABLE_ROW", "pdf_source": "SDTMIG_v3.4", "pdf_page": 89, "pdf_parent_section": "§5.5 [Subject Visits (SV)]", "pdf_verbatim": "5 | 123456 | TV | 5 | WEEK 4 | 29 | 4 weeks after the start of the Treatment Epoch", "figure_ref": null, "candidates": [{"md_atom_id": "md_dmSV_ex_a014", "md_file": "knowledge_base/domains/SV/examples.md", "md_atom_type": "TABLE_ROW", "md_parent_section": "§SV.1 [Example 1]", "md_verbatim": "| 4 | 123456 | TV | 4 | WEEK 2 | 15 | 2 weeks after the start of the Treatment Epoch | |", "score": 1.0, "match_basis": "verbatim_token+domain_route:SV"}, {"md_atom_id": "md_dmSV_ex_a015", "md_file": "knowledge_base/domains/SV/examples.md", "md_atom_type": "TABLE_ROW", "md_parent_section": "§SV.1 [Example 1]", "md_verbatim": "| 5 | 123456 | TV | 5 | WEEK 4 | 29 | 4 weeks after the start of the Treatment Epoch | |", "score": 1.0, "match_basis": "verbatim_token+domain_route:SV"}, {"md_atom_id": "md_dmSV_ex_a016", "md_file": "knowledge_base/domains/SV/examples.md", "md_atom_type": "TABLE_ROW", "md_parent_section": "§SV.1 [Example 1]", "md_verbatim": "| 6 | 123456 | TV | 6 | WEEK 6 | 43 | 6 weeks after the start of the Treatment Epoch | |", "score": 1.0, "match_basis": "verbatim_token+domain_route:SV"}, {"md_atom_id": "md_dmSV_ex_a017", "md_file": "knowledge_base/domains/SV/examples.md", "md_atom_type": "TABLE_ROW", "md_parent_section": "§SV.1 [Example 1]", "md_verbatim": "| 7 | 123456 | TV | 7 | WEEK 8 | 57 | 8 weeks after the start of the Treatment Epoch | |", "score": 1.0, "match_basis": "verbatim_token+domain_route:SV"}, {"md_atom_id": "md_dmSV_ex_a013", "md_file": "knowledge_base/domains/SV/examples.md", "md_atom_type": "TABLE_ROW", "md_parent_section": "§SV.1 [Example 1]", "md_verbatim": "| 3 | 123456 | TV | 3 | WEEK 1 | 8 | 1 week after the start of the Treatment Epoch | |", "score": 0.975, "match_basis": "verbatim_token+domain_route:SV"}], "candidate_count": 5, "zero_candidate": false}
{"pdf_atom_id": "ig34_p0089_a018", "pdf_atom_type": "TABLE_ROW", "pdf_source": "SDTMIG_v3.4", "pdf_page": 89, "pdf_parent_section": "§5.5 [Subject Visits (SV)]", "pdf_verbatim": "6 | 123456 | TV | 6 | WEEK 6 | 43 | 6 weeks after the start of the Treatment Epoch", "figure_ref": null, "candidates": [{"md_atom_id": "md_dmSV_ex_a014", "md_file": "knowledge_base/domains/SV/examples.md", "md_atom_type": "TABLE_ROW", "md_parent_section": "§SV.1 [Example 1]", "md_verbatim": "| 4 | 123456 | TV | 4 | WEEK 2 | 15 | 2 weeks after the start of the Treatment Epoch | |", "score": 1.0, "match_basis": "verbatim_token+domain_route:SV"}, {"md_atom_id": "md_dmSV_ex_a015", "md_file": "knowledge_base/domains/SV/examples.md", "md_atom_type": "TABLE_ROW", "md_parent_section": "§SV.1 [Example 1]", "md_verbatim": "| 5 | 123456 | TV | 5 | WEEK 4 | 29 | 4 weeks after the start of the Treatment Epoch | |", "score": 1.0, "match_basis": "verbatim_token+domain_route:SV"}, {"md_atom_id": "md_dmSV_ex_a016", "md_file": "knowledge_base/domains/SV/examples.md", "md_atom_type": "TABLE_ROW", "md_parent_section": "§SV.1 [Example 1]", "md_verbatim": "| 6 | 123456 | TV | 6 | WEEK 6 | 43 | 6 weeks after the start of the Treatment Epoch | |", "score": 1.0, "match_basis": "verbatim_token+domain_route:SV"}, {"md_atom_id": "md_dmSV_ex_a017", "md_file": "knowledge_base/domains/SV/examples.md", "md_atom_type": "TABLE_ROW", "md_parent_section": "§SV.1 [Example 1]", "md_verbatim": "| 7 | 123456 | TV | 7 | WEEK 8 | 57 | 8 weeks after the start of the Treatment Epoch | |", "score": 1.0, "match_basis": "verbatim_token+domain_route:SV"}, {"md_atom_id": "md_dmSV_ex_a013", "md_file": "knowledge_base/domains/SV/examples.md", "md_atom_type": "TABLE_ROW", "md_parent_section": "§SV.1 [Example 1]", "md_verbatim": "| 3 | 123456 | TV | 3 | WEEK 1 | 8 | 1 week after the start of the Treatment Epoch | |", "score": 0.975, "match_basis": "verbatim_token+domain_route:SV"}], "candidate_count": 5, "zero_candidate": false}
{"pdf_atom_id": "ig34_p0089_a019", "pdf_atom_type": "TABLE_ROW", "pdf_source": "SDTMIG_v3.4", "pdf_page": 89, "pdf_parent_section": "§5.5 [Subject Visits (SV)]", "pdf_verbatim": "7 | 123456 | TV | 7 | WEEK 8 | 57 | 8 weeks after the start of the Treatment Epoch", "figure_ref": null, "candidates": [{"md_atom_id": "md_dmSV_ex_a014", "md_file": "knowledge_base/domains/SV/examples.md", "md_atom_type": "TABLE_ROW", "md_parent_section": "§SV.1 [Example 1]", "md_verbatim": "| 4 | 123456 | TV | 4 | WEEK 2 | 15 | 2 weeks after the start of the Treatment Epoch | |", "score": 1.0, "match_basis": "verbatim_token+domain_route:SV"}, {"md_atom_id": "md_dmSV_ex_a015", "md_file": "knowledge_base/domains/SV/examples.md", "md_atom_type": "TABLE_ROW", "md_parent_section": "§SV.1 [Example 1]", "md_verbatim": "| 5 | 123456 | TV | 5 | WEEK 4 | 29 | 4 weeks after the start of the Treatment Epoch | |", "score": 1.0, "match_basis": "verbatim_token+domain_route:SV"}, {"md_atom_id": "md_dmSV_ex_a016", "md_file": "knowledge_base/domains/SV/examples.md", "md_atom_type": "TABLE_ROW", "md_parent_section": "§SV.1 [Example 1]", "md_verbatim": "| 6 | 123456 | TV | 6 | WEEK 6 | 43 | 6 weeks after the start of the Treatment Epoch | |", "score": 1.0, "match_basis": "verbatim_token+domain_route:SV"}, {"md_atom_id": "md_dmSV_ex_a017", "md_file": "knowledge_base/domains/SV/examples.md", "md_atom_type": "TABLE_ROW", "md_parent_section": "§SV.1 [Example 1]", "md_verbatim": "| 7 | 123456 | TV | 7 | WEEK 8 | 57 | 8 weeks after the start of the Treatment Epoch | |", "score": 1.0, "match_basis": "verbatim_token+domain_route:SV"}, {"md_atom_id": "md_dmSV_ex_a013", "md_file": "knowledge_base/domains/SV/examples.md", "md_atom_type": "TABLE_ROW", "md_parent_section": "§SV.1 [Example 1]", "md_verbatim": "| 3 | 123456 | TV | 3 | WEEK 1 | 8 | 1 week after the start of the Treatment Epoch | |", "score": 0.975, "match_basis": "verbatim_token+domain_route:SV"}], "candidate_count": 5, "zero_candidate": false}
{"pdf_atom_id": "ig34_p0089_a020", "pdf_atom_type": "TABLE_ROW", "pdf_source": "SDTMIG_v3.4", "pdf_page": 89, "pdf_parent_section": "§5.5 [Subject Visits (SV)]", "pdf_verbatim": "8 | 123456 | TV | 8 | FOLLOW-UP | | The earlier of 14 days after the last dose of treatment and 10 weeks after the start of the Treatment Epoch | At Trial Exit", "figure_ref": null, "candidates": [{"md_atom_id": "md_dmSV_ex_a018", "md_file": "knowledge_base/domains/SV/examples.md", "md_atom_type": "TABLE_ROW", "md_parent_section": "§SV.1 [Example 1]", "md_verbatim": "| 8 | 123456 | TV | 8 | FOLLOW-UP | | The earlier of 14 days after the last dose of treatment and 10 weeks after the start of the Treatment Epoch | At Trial Exit |", "score": 1.0, "match_basis": "verbatim_token+domain_route:SV"}, {"md_atom_id": "md_dmSV_ex_a014", "md_file": "knowledge_base/domains/SV/examples.md", "md_atom_type": "TABLE_ROW", "md_parent_section": "§SV.1 [Example 1]", "md_verbatim": "| 4 | 123456 | TV | 4 | WEEK 2 | 15 | 2 weeks after the start of the Treatment Epoch | |", "score": 0.72, "match_basis": "verbatim_token+domain_route:SV"}, {"md_atom_id": "md_dmSV_ex_a015", "md_file": "knowledge_base/domains/SV/examples.md", "md_atom_type": "TABLE_ROW", "md_parent_section": "§SV.1 [Example 1]", "md_verbatim": "| 5 | 123456 | TV | 5 | WEEK 4 | 29 | 4 weeks after the start of the Treatment Epoch | |", "score": 0.72, "match_basis": "verbatim_token+domain_route:SV"}, {"md_atom_id": "md_dmSV_ex_a016", "md_file": "knowledge_base/domains/SV/examples.md", "md_atom_type": "TABLE_ROW", "md_parent_section": "§SV.1 [Example 1]", "md_verbatim": "| 6 | 123456 | TV | 6 | WEEK 6 | 43 | 6 weeks after the start of the Treatment Epoch | |", "score": 0.72, "match_basis": "verbatim_token+domain_route:SV"}, {"md_atom_id": "md_dmSV_ex_a017", "md_file": "knowledge_base/domains/SV/examples.md", "md_atom_type": "TABLE_ROW", "md_parent_section": "§SV.1 [Example 1]", "md_verbatim": "| 7 | 123456 | TV | 7 | WEEK 8 | 57 | 8 weeks after the start of the Treatment Epoch | |", "score": 0.72, "match_basis": "verbatim_token+domain_route:SV"}], "candidate_count": 5, "zero_candidate": false}
{"pdf_atom_id": "ig34_p0089_a021", "pdf_atom_type": "SENTENCE", "pdf_source": "SDTMIG_v3.4", "pdf_page": 89, "pdf_parent_section": "§5.5 [Subject Visits (SV)]", "pdf_verbatim": "This table shows the disposition records for the subjects in this example.", "figure_ref": null, "candidates": [{"md_atom_id": "md_dmSV_ex_a019", "md_file": "knowledge_base/domains/SV/examples.md", "md_atom_type": "SENTENCE", "md_parent_section": "§SV.1 [Example 1]", "md_verbatim": "This table shows the disposition records for the subjects in this example.", "score": 1.0, "match_basis": "verbatim_token+domain_route:SV"}, {"md_atom_id": "md_dmSV_ex_a036", "md_file": "knowledge_base/domains/SV/examples.md", "md_atom_type": "SENTENCE", "md_parent_section": "§SV.1 [Example 1]", "md_verbatim": "**Rows 2-3:** Show normal completion of the first 2 visits for subject 85.", "score": 0.58, "match_basis": "verbatim_token+domain_route:SV"}, {"md_atom_id": "md_dmSV_ex_a003", "md_file": "knowledge_base/domains/SV/examples.md", "md_atom_type": "SENTENCE", "md_parent_section": "§SV.1 [Example 1]", "md_verbatim": "This example shows the planned visit schedule for a study, along with disposition and study events data for 3 subjects. For this study, data on screen failures were submitted. The study was disrupted by the COVID-19 pandemic after many subjects had completed the study.", "score": 0.5543, "match_basis": "verbatim_token+domain_route:SV"}, {"md_atom_id": "md_dmSV_ex_a023", "md_file": "knowledge_base/domains/SV/examples.md", "md_atom_type": "SENTENCE", "md_parent_section": "§SV.1 [Example 1]", "md_verbatim": "**Row 4:** Shows that subject 85 completed the study.", "score": 0.5435, "match_basis": "verbatim_token+domain_route:SV"}, {"md_atom_id": "md_dmSV_ex_a038", "md_file": "knowledge_base/domains/SV/examples.md", "md_atom_type": "SENTENCE", "md_parent_section": "§SV.1 [Example 1]", "md_verbatim": "**Rows 5-9:** Normal completion of remaining visits for subject 85.", "score": 0.5333, "match_basis": "verbatim_token+domain_route:SV"}], "candidate_count": 5, "zero_candidate": false}
{"pdf_atom_id": "ig34_p0089_a022", "pdf_atom_type": "LIST_ITEM", "pdf_source": "SDTMIG_v3.4", "pdf_page": 89, "pdf_parent_section": "§5.5 [Subject Visits (SV)]", "pdf_verbatim": "Row 1: Shows informed consent for subject 37.", "figure_ref": null, "candidates": [{"md_atom_id": "md_dmSV_ex_a020", "md_file": "knowledge_base/domains/SV/examples.md", "md_atom_type": "SENTENCE", "md_parent_section": "§SV.1 [Example 1]", "md_verbatim": "**Row 1:** Shows informed consent for subject 37.", "score": 0.91, "match_basis": "verbatim_token+domain_route:SV"}, {"md_atom_id": "md_dmSV_ex_a022", "md_file": "knowledge_base/domains/SV/examples.md", "md_atom_type": "SENTENCE", "md_parent_section": "§SV.1 [Example 1]", "md_verbatim": "**Row 3:** Shows informed consent for subject 85.", "score": 0.91, "match_basis": "verbatim_token+domain_route:SV"}, {"md_atom_id": "md_dmSV_ex_a024", "md_file": "knowledge_base/domains/SV/examples.md", "md_atom_type": "SENTENCE", "md_parent_section": "§SV.1 [Example 1]", "md_verbatim": "**Row 5:** Shows informed consent for subject 101.", "score": 0.8814, "match_basis": "verbatim_token+domain_route:SV"}, {"md_atom_id": "md_dmSV_assn_a009", "md_file": "knowledge_base/domains/SV/assumptions.md", "md_atom_type": "LIST_ITEM", "md_parent_section": "§SV [SV — Assumptions]", "md_verbatim": "   d. See Section 4.5.7, Presence or Absence of Prespecified Interventions and Events, for more information on the use of --PRESP and --OCCUR.", "score": 0.48, "match_basis": "verbatim_token+domain_route:SV"}, {"md_atom_id": "md_dmSV_ex_a036", "md_file": "knowledge_base/domains/SV/examples.md", "md_atom_type": "SENTENCE", "md_parent_section": "§SV.1 [Example 1]", "md_verbatim": "**Rows 2-3:** Show normal completion of the first 2 visits for subject 85.", "score": 0.4792, "match_basis": "verbatim_token+domain_route:SV"}], "candidate_count": 5, "zero_candidate": false}
{"pdf_atom_id": "ig34_p0089_a023", "pdf_atom_type": "LIST_ITEM", "pdf_source": "SDTMIG_v3.4", "pdf_page": 89, "pdf_parent_section": "§5.5 [Subject Visits (SV)]", "pdf_verbatim": "Row 2: Shows the subject 37 was discontinued due to screen failure. Note that because the subject did not start treatment, DSSTDY is not populated in their records.", "figure_ref": null, "candidates": [{"md_atom_id": "md_dmSV_ex_a021", "md_file": "knowledge_base/domains/SV/examples.md", "md_atom_type": "SENTENCE", "md_parent_section": "§SV.1 [Example 1]", "md_verbatim": "**Row 2:** Shows the subject 37 was discontinued due to screen failure. Note that because the subject did not start treatment, DSSTDY is not populated in their records.", "score": 0.91, "match_basis": "verbatim_token+domain_route:SV"}, {"md_atom_id": "md_dmSV_assn_a004", "md_file": "knowledge_base/domains/SV/assumptions.md", "md_atom_type": "LIST_ITEM", "md_parent_section": "§SV [SV — Assumptions]", "md_verbatim": "3. Subjects who screen fail, withdraw, die, or otherwise discontinue study participation will not have records for planned visits subsequent to their final disposition event.", "score": 0.5465, "match_basis": "verbatim_token+domain_route:SV"}, {"md_atom_id": "md_dmSV_assn_a027", "md_file": "knowledge_base/domains/SV/assumptions.md", "md_atom_type": "LIST_ITEM", "md_parent_section": "§SV [SV — Assumptions]", "md_verbatim": "16. SVOCCUR = \"N\" records are only to be created for planned visits that were expected to occur before the end of the subject's participation.", "score": 0.5065, "match_basis": "verbatim_token+domain_route:SV"}, {"md_atom_id": "md_dmSV_assn_a018", "md_file": "knowledge_base/domains/SV/assumptions.md", "md_atom_type": "LIST_ITEM", "md_parent_section": "§SV [SV — Assumptions]", "md_verbatim": "13. Algorithms for populating SVSTDTC and SVENDTC from the dates of assessments performed at a visit may be particularly challenging for screening visits, since baseline values collected at a screening visit are sometimes historical data from tests performed before the subject started screening for the trial. Therefore dates prior to informed consent are not part of the determination of SVSTDTC.", "score": 0.4812, "match_basis": "verbatim_token+domain_route:SV"}, {"md_atom_id": "md_dmSV_assn_a022", "md_file": "knowledge_base/domains/SV/assumptions.md", "md_atom_type": "LIST_ITEM", "md_parent_section": "§SV [SV — Assumptions]", "md_verbatim": "    b. The purpose of --DTC and --DY in other domains with start and end dates (Event and Intervention Domains) is to record the date on which data was collected. For a visit that occurred, it is not necessary to submit the date on which information about the visit was collected. When SVPRESP = \"Y\" and SVOCCUR = \"N\", --DTC and --DY are available for use to represent the date on which it was recorded that the visit did not take place.", "score": 0.4778, "match_basis": "verbatim_token+domain_route:SV"}], "candidate_count": 5, "zero_candidate": false}
