{"pdf_atom_id": "sv20_p0012_a013", "pdf_atom_type": "TABLE_ROW", "pdf_source": "SDTM_v2.0", "pdf_page": 12, "pdf_parent_section": "§3.1.1 The Interventions Observation Class", "pdf_verbatim": "| 8 | --OCCUR | Occurrence Indicator | Char | | Record Qualifier | | | C171000 | An indication as to whether a prespecified event or intervention has occurred. | | |", "figure_ref": null, "candidates": [{"md_atom_id": "md_ch03_a035", "md_file": "knowledge_base/chapters/ch03_submitting_data.md", "md_atom_type": "TABLE_ROW", "md_parent_section": "§3.2.1 [Dataset-level Metadata]", "md_verbatim": "| PR | Procedures | Interventions | One record per recorded procedure per occurrence per subject | Tabulation | STUDYID, USUBJID, PRTRT, PRSTDTC | pr.xpt |", "score": 0.4455, "match_basis": "verbatim_token+chapter_route:ch03"}, {"md_atom_id": "md_ch03_a031", "md_file": "knowledge_base/chapters/ch03_submitting_data.md", "md_atom_type": "TABLE_ROW", "md_parent_section": "§3.2.1 [Dataset-level Metadata]", "md_verbatim": "| CM | Concomitant/Prior Medications | Interventions | One record per recorded intervention occurrence or constant-dosing interval per subject | Tabulation | STUDYID, USUBJID, CMTRT, CMSTDTC | cm.xpt |", "score": 0.4368, "match_basis": "verbatim_token+chapter_route:ch03"}, {"md_atom_id": "md_ch03_a030", "md_file": "knowledge_base/chapters/ch03_submitting_data.md", "md_atom_type": "TABLE_ROW", "md_parent_section": "§3.2.1 [Dataset-level Metadata]", "md_verbatim": "| AG | Procedure Agents | Interventions | One record per recorded intervention occurrence per subject | Tabulation | STUDYID, USUBJID, AGTRT, AGSTDTC | ag.xpt |", "score": 0.4353, "match_basis": "verbatim_token+chapter_route:ch03"}, {"md_atom_id": "md_ch03_a036", "md_file": "knowledge_base/chapters/ch03_submitting_data.md", "md_atom_type": "TABLE_ROW", "md_parent_section": "§3.2.1 [Dataset-level Metadata]", "md_verbatim": "| SU | Substance Use | Interventions | One record per substance type per reported occurrence per subject | Tabulation | STUDYID, USUBJID, SUTRT, SUSTDTC | su.xpt |", "score": 0.4327, "match_basis": "verbatim_token+chapter_route:ch03"}, {"md_atom_id": "md_ch03_a034", "md_file": "knowledge_base/chapters/ch03_submitting_data.md", "md_atom_type": "TABLE_ROW", "md_parent_section": "§3.2.1 [Dataset-level Metadata]", "md_verbatim": "| ML | Meal Data | Interventions | One record per food product occurrence or constant intake interval per subject | Tabulation | STUDYID, USUBJID, MLTRT, MLSTDTC | ml.xpt |", "score": 0.4243, "match_basis": "verbatim_token+chapter_route:ch03"}], "candidate_count": 5, "zero_candidate": false}
{"pdf_atom_id": "sv20_p0012_a014", "pdf_atom_type": "TABLE_ROW", "pdf_source": "SDTM_v2.0", "pdf_page": 12, "pdf_parent_section": "§3.1.1 The Interventions Observation Class", "pdf_verbatim": "| 9 | --REASOC | Reason for Occur Value | Char | | Record Qualifier | | | | | --REASOC is the reason the intervention did or did not occur, according to the value in --OCCUR. This does not replace --INDC. | |", "figure_ref": null, "candidates": [{"md_atom_id": "md_ch03_a036", "md_file": "knowledge_base/chapters/ch03_submitting_data.md", "md_atom_type": "TABLE_ROW", "md_parent_section": "§3.2.1 [Dataset-level Metadata]", "md_verbatim": "| SU | Substance Use | Interventions | One record per substance type per reported occurrence per subject | Tabulation | STUDYID, USUBJID, SUTRT, SUSTDTC | su.xpt |", "score": 0.4049, "match_basis": "verbatim_token+chapter_route:ch03"}, {"md_atom_id": "md_ch03_a035", "md_file": "knowledge_base/chapters/ch03_submitting_data.md", "md_atom_type": "TABLE_ROW", "md_parent_section": "§3.2.1 [Dataset-level Metadata]", "md_verbatim": "| PR | Procedures | Interventions | One record per recorded procedure per occurrence per subject | Tabulation | STUDYID, USUBJID, PRTRT, PRSTDTC | pr.xpt |", "score": 0.402, "match_basis": "verbatim_token+chapter_route:ch03"}, {"md_atom_id": "md_ch03_a030", "md_file": "knowledge_base/chapters/ch03_submitting_data.md", "md_atom_type": "TABLE_ROW", "md_parent_section": "§3.2.1 [Dataset-level Metadata]", "md_verbatim": "| AG | Procedure Agents | Interventions | One record per recorded intervention occurrence per subject | Tabulation | STUDYID, USUBJID, AGTRT, AGSTDTC | ag.xpt |", "score": 0.4, "match_basis": "verbatim_token+chapter_route:ch03"}, {"md_atom_id": "md_ch03_a031", "md_file": "knowledge_base/chapters/ch03_submitting_data.md", "md_atom_type": "TABLE_ROW", "md_parent_section": "§3.2.1 [Dataset-level Metadata]", "md_verbatim": "| CM | Concomitant/Prior Medications | Interventions | One record per recorded intervention occurrence or constant-dosing interval per subject | Tabulation | STUDYID, USUBJID, CMTRT, CMSTDTC | cm.xpt |", "score": 0.3991, "match_basis": "verbatim_token+chapter_route:ch03"}, {"md_atom_id": "md_ch03_a033", "md_file": "knowledge_base/chapters/ch03_submitting_data.md", "md_atom_type": "TABLE_ROW", "md_parent_section": "§3.2.1 [Dataset-level Metadata]", "md_verbatim": "| EX | Exposure | Interventions | One record per protocol-specified study treatment, constant-dosing interval, per subject | Tabulation | STUDYID, USUBJID, EXTRT, EXSTDTC | ex.xpt |", "score": 0.3983, "match_basis": "verbatim_token+chapter_route:ch03"}], "candidate_count": 5, "zero_candidate": false}
{"pdf_atom_id": "sv20_p0012_a015", "pdf_atom_type": "TABLE_ROW", "pdf_source": "SDTM_v2.0", "pdf_page": 12, "pdf_parent_section": "§3.1.1 The Interventions Observation Class", "pdf_verbatim": "| 10 | --STAT | Completion Status | Char | | Record Qualifier | | | | | Used to indicate when a question about the occurrence of a prespecified intervention was not answered. Should be null or have a value of \"NOT DONE\". | |", "figure_ref": null, "candidates": [{"md_atom_id": "md_ch03_a031", "md_file": "knowledge_base/chapters/ch03_submitting_data.md", "md_atom_type": "TABLE_ROW", "md_parent_section": "§3.2.1 [Dataset-level Metadata]", "md_verbatim": "| CM | Concomitant/Prior Medications | Interventions | One record per recorded intervention occurrence or constant-dosing interval per subject | Tabulation | STUDYID, USUBJID, CMTRT, CMSTDTC | cm.xpt |", "score": 0.4252, "match_basis": "verbatim_token+chapter_route:ch03"}, {"md_atom_id": "md_ch03_a036", "md_file": "knowledge_base/chapters/ch03_submitting_data.md", "md_atom_type": "TABLE_ROW", "md_parent_section": "§3.2.1 [Dataset-level Metadata]", "md_verbatim": "| SU | Substance Use | Interventions | One record per substance type per reported occurrence per subject | Tabulation | STUDYID, USUBJID, SUTRT, SUSTDTC | su.xpt |", "score": 0.4154, "match_basis": "verbatim_token+chapter_route:ch03"}, {"md_atom_id": "md_ch03_a035", "md_file": "knowledge_base/chapters/ch03_submitting_data.md", "md_atom_type": "TABLE_ROW", "md_parent_section": "§3.2.1 [Dataset-level Metadata]", "md_verbatim": "| PR | Procedures | Interventions | One record per recorded procedure per occurrence per subject | Tabulation | STUDYID, USUBJID, PRTRT, PRSTDTC | pr.xpt |", "score": 0.4134, "match_basis": "verbatim_token+chapter_route:ch03"}, {"md_atom_id": "md_ch03_a034", "md_file": "knowledge_base/chapters/ch03_submitting_data.md", "md_atom_type": "TABLE_ROW", "md_parent_section": "§3.2.1 [Dataset-level Metadata]", "md_verbatim": "| ML | Meal Data | Interventions | One record per food product occurrence or constant intake interval per subject | Tabulation | STUDYID, USUBJID, MLTRT, MLSTDTC | ml.xpt |", "score": 0.4095, "match_basis": "verbatim_token+chapter_route:ch03"}, {"md_atom_id": "md_ch03_a030", "md_file": "knowledge_base/chapters/ch03_submitting_data.md", "md_atom_type": "TABLE_ROW", "md_parent_section": "§3.2.1 [Dataset-level Metadata]", "md_verbatim": "| AG | Procedure Agents | Interventions | One record per recorded intervention occurrence per subject | Tabulation | STUDYID, USUBJID, AGTRT, AGSTDTC | ag.xpt |", "score": 0.4062, "match_basis": "verbatim_token+chapter_route:ch03"}], "candidate_count": 5, "zero_candidate": false}
{"pdf_atom_id": "sv20_p0012_a016", "pdf_atom_type": "TABLE_ROW", "pdf_source": "SDTM_v2.0", "pdf_page": 12, "pdf_parent_section": "§3.1.1 The Interventions Observation Class", "pdf_verbatim": "| 11 | --REASND | Reason Not Done | Char | | Record Qualifier | | | C82556 | The explanation for why requested information was not available. | Used in conjunction with --STAT when value is \"NOT DONE\". | |", "figure_ref": null, "candidates": [{"md_atom_id": "md_ch03_a086", "md_file": "knowledge_base/chapters/ch03_submitting_data.md", "md_atom_type": "TABLE_ROW", "md_parent_section": "§3.2.1 [Dataset-level Metadata]", "md_verbatim": "| SUPP-- | Supplemental Qualifiers for [domain name] | Relationship | One record per supplemental qualifier per related parent domain record(s) | Tabulation | STUDYID, RDOMAIN, USUBJID, IDVAR, IDVARVAL, QNAM | supp--.xpt |", "score": 0.385, "match_basis": "verbatim_token+chapter_route:ch03"}, {"md_atom_id": "md_ch03_a044", "md_file": "knowledge_base/chapters/ch03_submitting_data.md", "md_atom_type": "TABLE_ROW", "md_parent_section": "§3.2.1 [Dataset-level Metadata]", "md_verbatim": "| BS | Biospecimen Findings | Findings | One record per measurement per biospecimen identifier per subject | Tabulation | STUDYID, USUBJID, BSREFID, BSTESTCD | bs.xpt |", "score": 0.3641, "match_basis": "verbatim_token+chapter_route:ch03"}, {"md_atom_id": "md_ch03_a077", "md_file": "knowledge_base/chapters/ch03_submitting_data.md", "md_atom_type": "TABLE_ROW", "md_parent_section": "§3.2.1 [Dataset-level Metadata]", "md_verbatim": "| TD | Trial Disease Assessments | Trial Design | One record per planned constant assessment period | Tabulation | STUDYID, TDORDER | td.xpt |", "score": 0.3639, "match_basis": "verbatim_token+chapter_route:ch03"}, {"md_atom_id": "md_ch03_a033", "md_file": "knowledge_base/chapters/ch03_submitting_data.md", "md_atom_type": "TABLE_ROW", "md_parent_section": "§3.2.1 [Dataset-level Metadata]", "md_verbatim": "| EX | Exposure | Interventions | One record per protocol-specified study treatment, constant-dosing interval, per subject | Tabulation | STUDYID, USUBJID, EXTRT, EXSTDTC | ex.xpt |", "score": 0.3634, "match_basis": "verbatim_token+chapter_route:ch03"}, {"md_atom_id": "md_ch03_a069", "md_file": "knowledge_base/chapters/ch03_submitting_data.md", "md_atom_type": "TABLE_ROW", "md_parent_section": "§3.2.1 [Dataset-level Metadata]", "md_verbatim": "| SS | Subject Status | Findings | One record per status per visit per subject | Tabulation | STUDYID, USUBJID, SSTESTCD, VISITNUM | ss.xpt |", "score": 0.3632, "match_basis": "verbatim_token+chapter_route:ch03"}], "candidate_count": 5, "zero_candidate": false}
{"pdf_atom_id": "sv20_p0012_a017", "pdf_atom_type": "TABLE_ROW", "pdf_source": "SDTM_v2.0", "pdf_page": 12, "pdf_parent_section": "§3.1.1 The Interventions Observation Class", "pdf_verbatim": "| 12 | --CNTMOD | Contact Mode | Char | | Record Qualifier | | | | | The way in which the event, visit, or contact was conducted. | |", "figure_ref": null, "candidates": [{"md_atom_id": "md_ch03_a086", "md_file": "knowledge_base/chapters/ch03_submitting_data.md", "md_atom_type": "TABLE_ROW", "md_parent_section": "§3.2.1 [Dataset-level Metadata]", "md_verbatim": "| SUPP-- | Supplemental Qualifiers for [domain name] | Relationship | One record per supplemental qualifier per related parent domain record(s) | Tabulation | STUDYID, RDOMAIN, USUBJID, IDVAR, IDVARVAL, QNAM | supp--.xpt |", "score": 0.3875, "match_basis": "verbatim_token+chapter_route:ch03"}, {"md_atom_id": "md_ch03_a068", "md_file": "knowledge_base/chapters/ch03_submitting_data.md", "md_atom_type": "TABLE_ROW", "md_parent_section": "§3.2.1 [Dataset-level Metadata]", "md_verbatim": "| SC | Subject Characteristics | Findings | One record per characteristic per visit per subject. | Tabulation | STUDYID, USUBJID, SCTESTCD, VISITNUM | sc.xpt |", "score": 0.375, "match_basis": "verbatim_token+chapter_route:ch03"}, {"md_atom_id": "md_ch03_a029", "md_file": "knowledge_base/chapters/ch03_submitting_data.md", "md_atom_type": "TABLE_ROW", "md_parent_section": "§3.2.1 [Dataset-level Metadata]", "md_verbatim": "| SV | Subject Visits | Special Purpose | One record per actual or planned visit per subject | Tabulation | STUDYID, USUBJID, SVTERM | sv.xpt |", "score": 0.3621, "match_basis": "verbatim_token+chapter_route:ch03"}, {"md_atom_id": "md_ch03_a084", "md_file": "knowledge_base/chapters/ch03_submitting_data.md", "md_atom_type": "TABLE_ROW", "md_parent_section": "§3.2.1 [Dataset-level Metadata]", "md_verbatim": "| RELSPEC | Related Specimens | Relationship | One record per specimen identifier per subject | Tabulation | STUDYID, USUBJID, REFID | relspec.xpt |", "score": 0.3614, "match_basis": "verbatim_token+chapter_route:ch03"}, {"md_atom_id": "md_ch03_a038", "md_file": "knowledge_base/chapters/ch03_submitting_data.md", "md_atom_type": "TABLE_ROW", "md_parent_section": "§3.2.1 [Dataset-level Metadata]", "md_verbatim": "| BE | Biospecimen Events | Events | One record per instance per biospecimen event per biospecimen identifier per subject | Tabulation | STUDYID, USUBJID, BEREFID, BETERM, BESTDTC | be.xpt |", "score": 0.3606, "match_basis": "verbatim_token+chapter_route:ch03"}], "candidate_count": 5, "zero_candidate": false}
{"pdf_atom_id": "sv20_p0013_a001", "pdf_atom_type": "TABLE_ROW", "pdf_source": "SDTM_v2.0", "pdf_page": 13, "pdf_parent_section": "§3.1.1 The Interventions Observation Class", "pdf_verbatim": "| 13 | --EPCHGI | Epi/Pandemic Related Change Indicator | Char | | Record Qualifier | | | | | Indicates whether the intervention was changed due to an epidemic or pandemic. | |", "figure_ref": null, "candidates": [{"md_atom_id": "md_ch03_a086", "md_file": "knowledge_base/chapters/ch03_submitting_data.md", "md_atom_type": "TABLE_ROW", "md_parent_section": "§3.2.1 [Dataset-level Metadata]", "md_verbatim": "| SUPP-- | Supplemental Qualifiers for [domain name] | Relationship | One record per supplemental qualifier per related parent domain record(s) | Tabulation | STUDYID, RDOMAIN, USUBJID, IDVAR, IDVARVAL, QNAM | supp--.xpt |", "score": 0.4036, "match_basis": "verbatim_token+chapter_route:ch03"}, {"md_atom_id": "md_ch03_a084", "md_file": "knowledge_base/chapters/ch03_submitting_data.md", "md_atom_type": "TABLE_ROW", "md_parent_section": "§3.2.1 [Dataset-level Metadata]", "md_verbatim": "| RELSPEC | Related Specimens | Relationship | One record per specimen identifier per subject | Tabulation | STUDYID, USUBJID, REFID | relspec.xpt |", "score": 0.403, "match_basis": "verbatim_token+chapter_route:ch03"}, {"md_atom_id": "md_ch03_a074", "md_file": "knowledge_base/chapters/ch03_submitting_data.md", "md_atom_type": "TABLE_ROW", "md_parent_section": "§3.2.1 [Dataset-level Metadata]", "md_verbatim": "| FA | Findings About Events or Interventions | Findings About | One record per finding, per object, per time point, per visit per subject | Tabulation | STUDYID, USUBJID, FATESTCD, FAOBJ, VISITNUM, FATPTREF, FATPTNUM | fa.xpt |", "score": 0.4, "match_basis": "verbatim_token+chapter_route:ch03"}, {"md_atom_id": "md_ch03_a071", "md_file": "knowledge_base/chapters/ch03_submitting_data.md", "md_atom_type": "TABLE_ROW", "md_parent_section": "§3.2.1 [Dataset-level Metadata]", "md_verbatim": "| TU | Tumor/Lesion Identification | Findings | One record per identified tumor per subject per assessor | Tabulation | STUDYID, USUBJID, TUEVALID, TULNKID | tu.xpt |", "score": 0.3919, "match_basis": "verbatim_token+chapter_route:ch03"}, {"md_atom_id": "md_ch03_a031", "md_file": "knowledge_base/chapters/ch03_submitting_data.md", "md_atom_type": "TABLE_ROW", "md_parent_section": "§3.2.1 [Dataset-level Metadata]", "md_verbatim": "| CM | Concomitant/Prior Medications | Interventions | One record per recorded intervention occurrence or constant-dosing interval per subject | Tabulation | STUDYID, USUBJID, CMTRT, CMSTDTC | cm.xpt |", "score": 0.3885, "match_basis": "verbatim_token+chapter_route:ch03"}], "candidate_count": 5, "zero_candidate": false}
{"pdf_atom_id": "sv20_p0013_a002", "pdf_atom_type": "TABLE_ROW", "pdf_source": "SDTM_v2.0", "pdf_page": 13, "pdf_parent_section": "§3.1.1 The Interventions Observation Class", "pdf_verbatim": "| 14 | --INDC | Indication | Char | | Record Qualifier | | | C41184 | The sign, symptom, or condition that is the basis for initiation of a treatment. | | |", "figure_ref": null, "candidates": [{"md_atom_id": "md_ch03_a086", "md_file": "knowledge_base/chapters/ch03_submitting_data.md", "md_atom_type": "TABLE_ROW", "md_parent_section": "§3.2.1 [Dataset-level Metadata]", "md_verbatim": "| SUPP-- | Supplemental Qualifiers for [domain name] | Relationship | One record per supplemental qualifier per related parent domain record(s) | Tabulation | STUDYID, RDOMAIN, USUBJID, IDVAR, IDVARVAL, QNAM | supp--.xpt |", "score": 0.3953, "match_basis": "verbatim_token+chapter_route:ch03"}, {"md_atom_id": "md_ch03_a033", "md_file": "knowledge_base/chapters/ch03_submitting_data.md", "md_atom_type": "TABLE_ROW", "md_parent_section": "§3.2.1 [Dataset-level Metadata]", "md_verbatim": "| EX | Exposure | Interventions | One record per protocol-specified study treatment, constant-dosing interval, per subject | Tabulation | STUDYID, USUBJID, EXTRT, EXSTDTC | ex.xpt |", "score": 0.3857, "match_basis": "verbatim_token+chapter_route:ch03"}, {"md_atom_id": "md_ch03_a071", "md_file": "knowledge_base/chapters/ch03_submitting_data.md", "md_atom_type": "TABLE_ROW", "md_parent_section": "§3.2.1 [Dataset-level Metadata]", "md_verbatim": "| TU | Tumor/Lesion Identification | Findings | One record per identified tumor per subject per assessor | Tabulation | STUDYID, USUBJID, TUEVALID, TULNKID | tu.xpt |", "score": 0.3833, "match_basis": "verbatim_token+chapter_route:ch03"}, {"md_atom_id": "md_ch03_a078", "md_file": "knowledge_base/chapters/ch03_submitting_data.md", "md_atom_type": "TABLE_ROW", "md_parent_section": "§3.2.1 [Dataset-level Metadata]", "md_verbatim": "| TE | Trial Elements | Trial Design | One record per planned Element | Tabulation | STUDYID, ETCD | te.xpt |", "score": 0.3786, "match_basis": "verbatim_token+chapter_route:ch03"}, {"md_atom_id": "md_ch03_a032", "md_file": "knowledge_base/chapters/ch03_submitting_data.md", "md_atom_type": "TABLE_ROW", "md_parent_section": "§3.2.1 [Dataset-level Metadata]", "md_verbatim": "| EC | Exposure as Collected | Interventions | One record per protocol-specified study treatment, collected-dosing interval, per subject, per mood | Tabulation | STUDYID, USUBJID, ECTRT, ECSTDTC, ECMOOD | ec.xpt |", "score": 0.378, "match_basis": "verbatim_token+chapter_route:ch03"}], "candidate_count": 5, "zero_candidate": false}
{"pdf_atom_id": "sv20_p0013_a003", "pdf_atom_type": "TABLE_ROW", "pdf_source": "SDTM_v2.0", "pdf_page": 13, "pdf_parent_section": "§3.1.1 The Interventions Observation Class", "pdf_verbatim": "| 15 | --CLAS | Class | Char | | Variable Qualifier | --TRT | | C170987 | A standardized or dictionary-derived name for a grouping of drugs, procedures, or therapies. | | |", "figure_ref": null, "candidates": [{"md_atom_id": "md_ch03_a086", "md_file": "knowledge_base/chapters/ch03_submitting_data.md", "md_atom_type": "TABLE_ROW", "md_parent_section": "§3.2.1 [Dataset-level Metadata]", "md_verbatim": "| SUPP-- | Supplemental Qualifiers for [domain name] | Relationship | One record per supplemental qualifier per related parent domain record(s) | Tabulation | STUDYID, RDOMAIN, USUBJID, IDVAR, IDVARVAL, QNAM | supp--.xpt |", "score": 0.36, "match_basis": "verbatim_token+chapter_route:ch03"}, {"md_atom_id": "md_ch03_a035", "md_file": "knowledge_base/chapters/ch03_submitting_data.md", "md_atom_type": "TABLE_ROW", "md_parent_section": "§3.2.1 [Dataset-level Metadata]", "md_verbatim": "| PR | Procedures | Interventions | One record per recorded procedure per occurrence per subject | Tabulation | STUDYID, USUBJID, PRTRT, PRSTDTC | pr.xpt |", "score": 0.3524, "match_basis": "verbatim_token+chapter_route:ch03"}, {"md_atom_id": "md_ch03_a030", "md_file": "knowledge_base/chapters/ch03_submitting_data.md", "md_atom_type": "TABLE_ROW", "md_parent_section": "§3.2.1 [Dataset-level Metadata]", "md_verbatim": "| AG | Procedure Agents | Interventions | One record per recorded intervention occurrence per subject | Tabulation | STUDYID, USUBJID, AGTRT, AGSTDTC | ag.xpt |", "score": 0.3465, "match_basis": "verbatim_token+chapter_route:ch03"}, {"md_atom_id": "md_ch03_a033", "md_file": "knowledge_base/chapters/ch03_submitting_data.md", "md_atom_type": "TABLE_ROW", "md_parent_section": "§3.2.1 [Dataset-level Metadata]", "md_verbatim": "| EX | Exposure | Interventions | One record per protocol-specified study treatment, constant-dosing interval, per subject | Tabulation | STUDYID, USUBJID, EXTRT, EXSTDTC | ex.xpt |", "score": 0.3414, "match_basis": "verbatim_token+chapter_route:ch03"}, {"md_atom_id": "md_ch03_a077", "md_file": "knowledge_base/chapters/ch03_submitting_data.md", "md_atom_type": "TABLE_ROW", "md_parent_section": "§3.2.1 [Dataset-level Metadata]", "md_verbatim": "| TD | Trial Disease Assessments | Trial Design | One record per planned constant assessment period | Tabulation | STUDYID, TDORDER | td.xpt |", "score": 0.3384, "match_basis": "verbatim_token+chapter_route:ch03"}], "candidate_count": 5, "zero_candidate": false}
{"pdf_atom_id": "sv20_p0013_a004", "pdf_atom_type": "TABLE_ROW", "pdf_source": "SDTM_v2.0", "pdf_page": 13, "pdf_parent_section": "§3.1.1 The Interventions Observation Class", "pdf_verbatim": "| 16 | --CLASCD | Class Code | Char | | Variable Qualifier | --TRT | | C170988 | A standardized or dictionary-derived short sequence of characters used to represent a grouping of drugs, procedures, or therapies. | Used to represent code for --CLAS. | |", "figure_ref": null, "candidates": [{"md_atom_id": "md_ch03_a035", "md_file": "knowledge_base/chapters/ch03_submitting_data.md", "md_atom_type": "TABLE_ROW", "md_parent_section": "§3.2.1 [Dataset-level Metadata]", "md_verbatim": "| PR | Procedures | Interventions | One record per recorded procedure per occurrence per subject | Tabulation | STUDYID, USUBJID, PRTRT, PRSTDTC | pr.xpt |", "score": 0.3612, "match_basis": "verbatim_token+chapter_route:ch03"}, {"md_atom_id": "md_ch03_a030", "md_file": "knowledge_base/chapters/ch03_submitting_data.md", "md_atom_type": "TABLE_ROW", "md_parent_section": "§3.2.1 [Dataset-level Metadata]", "md_verbatim": "| AG | Procedure Agents | Interventions | One record per recorded intervention occurrence per subject | Tabulation | STUDYID, USUBJID, AGTRT, AGSTDTC | ag.xpt |", "score": 0.356, "match_basis": "verbatim_token+chapter_route:ch03"}, {"md_atom_id": "md_ch03_a086", "md_file": "knowledge_base/chapters/ch03_submitting_data.md", "md_atom_type": "TABLE_ROW", "md_parent_section": "§3.2.1 [Dataset-level Metadata]", "md_verbatim": "| SUPP-- | Supplemental Qualifiers for [domain name] | Relationship | One record per supplemental qualifier per related parent domain record(s) | Tabulation | STUDYID, RDOMAIN, USUBJID, IDVAR, IDVARVAL, QNAM | supp--.xpt |", "score": 0.3503, "match_basis": "verbatim_token+chapter_route:ch03"}, {"md_atom_id": "md_ch03_a036", "md_file": "knowledge_base/chapters/ch03_submitting_data.md", "md_atom_type": "TABLE_ROW", "md_parent_section": "§3.2.1 [Dataset-level Metadata]", "md_verbatim": "| SU | Substance Use | Interventions | One record per substance type per reported occurrence per subject | Tabulation | STUDYID, USUBJID, SUTRT, SUSTDTC | su.xpt |", "score": 0.3468, "match_basis": "verbatim_token+chapter_route:ch03"}, {"md_atom_id": "md_ch03_a068", "md_file": "knowledge_base/chapters/ch03_submitting_data.md", "md_atom_type": "TABLE_ROW", "md_parent_section": "§3.2.1 [Dataset-level Metadata]", "md_verbatim": "| SC | Subject Characteristics | Findings | One record per characteristic per visit per subject. | Tabulation | STUDYID, USUBJID, SCTESTCD, VISITNUM | sc.xpt |", "score": 0.3452, "match_basis": "verbatim_token+chapter_route:ch03"}], "candidate_count": 5, "zero_candidate": false}
{"pdf_atom_id": "sv20_p0013_a005", "pdf_atom_type": "TABLE_ROW", "pdf_source": "SDTM_v2.0", "pdf_page": 13, "pdf_parent_section": "§3.1.1 The Interventions Observation Class", "pdf_verbatim": "| 17 | --DOSE | Dose | Num | | Record Qualifier | | | C25488 | The quantity of an agent (e.g., drug, substance, radiation) taken or absorbed at a single administration. | Not populated when --DOSTXT is populated. | |", "figure_ref": null, "candidates": [{"md_atom_id": "md_ch03_a086", "md_file": "knowledge_base/chapters/ch03_submitting_data.md", "md_atom_type": "TABLE_ROW", "md_parent_section": "§3.2.1 [Dataset-level Metadata]", "md_verbatim": "| SUPP-- | Supplemental Qualifiers for [domain name] | Relationship | One record per supplemental qualifier per related parent domain record(s) | Tabulation | STUDYID, RDOMAIN, USUBJID, IDVAR, IDVARVAL, QNAM | supp--.xpt |", "score": 0.3945, "match_basis": "verbatim_token+chapter_route:ch03"}, {"md_atom_id": "md_ch03_a036", "md_file": "knowledge_base/chapters/ch03_submitting_data.md", "md_atom_type": "TABLE_ROW", "md_parent_section": "§3.2.1 [Dataset-level Metadata]", "md_verbatim": "| SU | Substance Use | Interventions | One record per substance type per reported occurrence per subject | Tabulation | STUDYID, USUBJID, SUTRT, SUSTDTC | su.xpt |", "score": 0.3905, "match_basis": "verbatim_token+chapter_route:ch03"}, {"md_atom_id": "md_ch03_a087", "md_file": "knowledge_base/chapters/ch03_submitting_data.md", "md_atom_type": "TABLE_ROW", "md_parent_section": "§3.2.1 [Dataset-level Metadata]", "md_verbatim": "| OI | Non-host Organism Identifiers | Study Reference | One record per taxon per non-host organism | Tabulation | NHOID, OISEQ | oi.xpt |", "score": 0.3903, "match_basis": "verbatim_token+chapter_route:ch03"}, {"md_atom_id": "md_ch03_a038", "md_file": "knowledge_base/chapters/ch03_submitting_data.md", "md_atom_type": "TABLE_ROW", "md_parent_section": "§3.2.1 [Dataset-level Metadata]", "md_verbatim": "| BE | Biospecimen Events | Events | One record per instance per biospecimen event per biospecimen identifier per subject | Tabulation | STUDYID, USUBJID, BEREFID, BETERM, BESTDTC | be.xpt |", "score": 0.3898, "match_basis": "verbatim_token+chapter_route:ch03"}, {"md_atom_id": "md_ch03_a084", "md_file": "knowledge_base/chapters/ch03_submitting_data.md", "md_atom_type": "TABLE_ROW", "md_parent_section": "§3.2.1 [Dataset-level Metadata]", "md_verbatim": "| RELSPEC | Related Specimens | Relationship | One record per specimen identifier per subject | Tabulation | STUDYID, USUBJID, REFID | relspec.xpt |", "score": 0.3872, "match_basis": "verbatim_token+chapter_route:ch03"}], "candidate_count": 5, "zero_candidate": false}
{"pdf_atom_id": "sv20_p0013_a006", "pdf_atom_type": "TABLE_ROW", "pdf_source": "SDTM_v2.0", "pdf_page": 13, "pdf_parent_section": "§3.1.1 The Interventions Observation Class", "pdf_verbatim": "| 18 | --DOSTXT | Dose Description | Char | | Record Qualifier | | | C70961 | A textual description of the quantity of an agent (e.g., drug, substance, radiation) taken or absorbed at a single administration. | Not populated when --DOSE is populated. | \"200-400\" |", "figure_ref": null, "candidates": [{"md_atom_id": "md_ch03_a086", "md_file": "knowledge_base/chapters/ch03_submitting_data.md", "md_atom_type": "TABLE_ROW", "md_parent_section": "§3.2.1 [Dataset-level Metadata]", "md_verbatim": "| SUPP-- | Supplemental Qualifiers for [domain name] | Relationship | One record per supplemental qualifier per related parent domain record(s) | Tabulation | STUDYID, RDOMAIN, USUBJID, IDVAR, IDVARVAL, QNAM | supp--.xpt |", "score": 0.3851, "match_basis": "verbatim_token+chapter_route:ch03"}, {"md_atom_id": "md_ch03_a033", "md_file": "knowledge_base/chapters/ch03_submitting_data.md", "md_atom_type": "TABLE_ROW", "md_parent_section": "§3.2.1 [Dataset-level Metadata]", "md_verbatim": "| EX | Exposure | Interventions | One record per protocol-specified study treatment, constant-dosing interval, per subject | Tabulation | STUDYID, USUBJID, EXTRT, EXSTDTC | ex.xpt |", "score": 0.3829, "match_basis": "verbatim_token+chapter_route:ch03"}, {"md_atom_id": "md_ch03_a036", "md_file": "knowledge_base/chapters/ch03_submitting_data.md", "md_atom_type": "TABLE_ROW", "md_parent_section": "§3.2.1 [Dataset-level Metadata]", "md_verbatim": "| SU | Substance Use | Interventions | One record per substance type per reported occurrence per subject | Tabulation | STUDYID, USUBJID, SUTRT, SUSTDTC | su.xpt |", "score": 0.3814, "match_basis": "verbatim_token+chapter_route:ch03"}, {"md_atom_id": "md_ch03_a038", "md_file": "knowledge_base/chapters/ch03_submitting_data.md", "md_atom_type": "TABLE_ROW", "md_parent_section": "§3.2.1 [Dataset-level Metadata]", "md_verbatim": "| BE | Biospecimen Events | Events | One record per instance per biospecimen event per biospecimen identifier per subject | Tabulation | STUDYID, USUBJID, BEREFID, BETERM, BESTDTC | be.xpt |", "score": 0.3809, "match_basis": "verbatim_token+chapter_route:ch03"}, {"md_atom_id": "md_ch03_a087", "md_file": "knowledge_base/chapters/ch03_submitting_data.md", "md_atom_type": "TABLE_ROW", "md_parent_section": "§3.2.1 [Dataset-level Metadata]", "md_verbatim": "| OI | Non-host Organism Identifiers | Study Reference | One record per taxon per non-host organism | Tabulation | NHOID, OISEQ | oi.xpt |", "score": 0.3803, "match_basis": "verbatim_token+chapter_route:ch03"}], "candidate_count": 5, "zero_candidate": false}
{"pdf_atom_id": "sv20_p0013_a007", "pdf_atom_type": "TABLE_ROW", "pdf_source": "SDTM_v2.0", "pdf_page": 13, "pdf_parent_section": "§3.1.1 The Interventions Observation Class", "pdf_verbatim": "| 19 | --DOSU | Dose Units | Char | | Variable Qualifier | --DOSE; --DOSTXT; --DOSTOT | | C73558 | The unit of measure for the administered agent (e.g., drug, substance, radiation), using standardized values. | Units for --DOSE, --DOSTOT, or --DOSTXT. | \"ng\", \"mg\", \"mg/kg\" |", "figure_ref": null, "candidates": [{"md_atom_id": "md_ch03_a044", "md_file": "knowledge_base/chapters/ch03_submitting_data.md", "md_atom_type": "TABLE_ROW", "md_parent_section": "§3.2.1 [Dataset-level Metadata]", "md_verbatim": "| BS | Biospecimen Findings | Findings | One record per measurement per biospecimen identifier per subject | Tabulation | STUDYID, USUBJID, BSREFID, BSTESTCD | bs.xpt |", "score": 0.3716, "match_basis": "verbatim_token+chapter_route:ch03"}, {"md_atom_id": "md_ch03_a033", "md_file": "knowledge_base/chapters/ch03_submitting_data.md", "md_atom_type": "TABLE_ROW", "md_parent_section": "§3.2.1 [Dataset-level Metadata]", "md_verbatim": "| EX | Exposure | Interventions | One record per protocol-specified study treatment, constant-dosing interval, per subject | Tabulation | STUDYID, USUBJID, EXTRT, EXSTDTC | ex.xpt |", "score": 0.3703, "match_basis": "verbatim_token+chapter_route:ch03"}, {"md_atom_id": "md_ch03_a086", "md_file": "knowledge_base/chapters/ch03_submitting_data.md", "md_atom_type": "TABLE_ROW", "md_parent_section": "§3.2.1 [Dataset-level Metadata]", "md_verbatim": "| SUPP-- | Supplemental Qualifiers for [domain name] | Relationship | One record per supplemental qualifier per related parent domain record(s) | Tabulation | STUDYID, RDOMAIN, USUBJID, IDVAR, IDVARVAL, QNAM | supp--.xpt |", "score": 0.3667, "match_basis": "verbatim_token+chapter_route:ch03"}, {"md_atom_id": "md_ch03_a038", "md_file": "knowledge_base/chapters/ch03_submitting_data.md", "md_atom_type": "TABLE_ROW", "md_parent_section": "§3.2.1 [Dataset-level Metadata]", "md_verbatim": "| BE | Biospecimen Events | Events | One record per instance per biospecimen event per biospecimen identifier per subject | Tabulation | STUDYID, USUBJID, BEREFID, BETERM, BESTDTC | be.xpt |", "score": 0.3622, "match_basis": "verbatim_token+chapter_route:ch03"}, {"md_atom_id": "md_ch03_a032", "md_file": "knowledge_base/chapters/ch03_submitting_data.md", "md_atom_type": "TABLE_ROW", "md_parent_section": "§3.2.1 [Dataset-level Metadata]", "md_verbatim": "| EC | Exposure as Collected | Interventions | One record per protocol-specified study treatment, collected-dosing interval, per subject, per mood | Tabulation | STUDYID, USUBJID, ECTRT, ECSTDTC, ECMOOD | ec.xpt |", "score": 0.36, "match_basis": "verbatim_token+chapter_route:ch03"}], "candidate_count": 5, "zero_candidate": false}
{"pdf_atom_id": "sv20_p0013_a008", "pdf_atom_type": "TABLE_ROW", "pdf_source": "SDTM_v2.0", "pdf_page": 13, "pdf_parent_section": "§3.1.1 The Interventions Observation Class", "pdf_verbatim": "| 20 | --TDOSD | Toxic/Physiologic Dose Descr | Char | | Record Qualifier | | | | A description of a statistically derived estimate of a dose with a certain toxicological or physiological effect in a population, based on data from a dose-response study. | | \"LD50\", \"ED90\" |", "figure_ref": null, "candidates": [{"md_atom_id": "md_ch03_a086", "md_file": "knowledge_base/chapters/ch03_submitting_data.md", "md_atom_type": "TABLE_ROW", "md_parent_section": "§3.2.1 [Dataset-level Metadata]", "md_verbatim": "| SUPP-- | Supplemental Qualifiers for [domain name] | Relationship | One record per supplemental qualifier per related parent domain record(s) | Tabulation | STUDYID, RDOMAIN, USUBJID, IDVAR, IDVARVAL, QNAM | supp--.xpt |", "score": 0.3917, "match_basis": "verbatim_token+chapter_route:ch03"}, {"md_atom_id": "md_ch03_a068", "md_file": "knowledge_base/chapters/ch03_submitting_data.md", "md_atom_type": "TABLE_ROW", "md_parent_section": "§3.2.1 [Dataset-level Metadata]", "md_verbatim": "| SC | Subject Characteristics | Findings | One record per characteristic per visit per subject. | Tabulation | STUDYID, USUBJID, SCTESTCD, VISITNUM | sc.xpt |", "score": 0.3889, "match_basis": "verbatim_token+chapter_route:ch03"}, {"md_atom_id": "md_ch03_a067", "md_file": "knowledge_base/chapters/ch03_submitting_data.md", "md_atom_type": "TABLE_ROW", "md_parent_section": "§3.2.1 [Dataset-level Metadata]", "md_verbatim": "| RS | Disease Response and Clin Classification | Findings | One record per response assessment or clinical classification assessment per time point per visit per subject per assessor per medical evaluator | Tabulation | STUDYID, USUBJID, RSTESTCD, VISITNUM, RSTPTREF, RSEVAL, RSPTPNUM, RSEVALID | rs.xpt |", "score": 0.3862, "match_basis": "verbatim_token+chapter_route:ch03"}, {"md_atom_id": "md_ch03_a075", "md_file": "knowledge_base/chapters/ch03_submitting_data.md", "md_atom_type": "TABLE_ROW", "md_parent_section": "§3.2.1 [Dataset-level Metadata]", "md_verbatim": "| SR | Skin Response | Findings About | One record per finding, per object, per time point, per visit per subject | Tabulation | STUDYID, USUBJID, SRTESTCD, SROBJ, VISITNUM, SRTPTREF, SRTPTNUM | sr.xpt |", "score": 0.3857, "match_basis": "verbatim_token+chapter_route:ch03"}, {"md_atom_id": "md_ch03_a077", "md_file": "knowledge_base/chapters/ch03_submitting_data.md", "md_atom_type": "TABLE_ROW", "md_parent_section": "§3.2.1 [Dataset-level Metadata]", "md_verbatim": "| TD | Trial Disease Assessments | Trial Design | One record per planned constant assessment period | Tabulation | STUDYID, TDORDER | td.xpt |", "score": 0.3832, "match_basis": "verbatim_token+chapter_route:ch03"}], "candidate_count": 5, "zero_candidate": false}
{"pdf_atom_id": "sv20_p0013_a009", "pdf_atom_type": "TABLE_ROW", "pdf_source": "SDTM_v2.0", "pdf_page": 13, "pdf_parent_section": "§3.1.1 The Interventions Observation Class", "pdf_verbatim": "| 21 | --FTDOSD | Factor for Toxic/Physiologic Dose Descr | Num | | Variable Qualifier | --TDOSD | | | The quantity given for the multiplier of --TDOSD. | If --TDOSD=\"LD50\" and --FTDOSD=\"5\", then the value represented by --DOSE and --DOSU is 5 times the LD50. | |", "figure_ref": null, "candidates": [{"md_atom_id": "md_ch03_a086", "md_file": "knowledge_base/chapters/ch03_submitting_data.md", "md_atom_type": "TABLE_ROW", "md_parent_section": "§3.2.1 [Dataset-level Metadata]", "md_verbatim": "| SUPP-- | Supplemental Qualifiers for [domain name] | Relationship | One record per supplemental qualifier per related parent domain record(s) | Tabulation | STUDYID, RDOMAIN, USUBJID, IDVAR, IDVARVAL, QNAM | supp--.xpt |", "score": 0.3545, "match_basis": "verbatim_token+chapter_route:ch03"}, {"md_atom_id": "md_ch03_a033", "md_file": "knowledge_base/chapters/ch03_submitting_data.md", "md_atom_type": "TABLE_ROW", "md_parent_section": "§3.2.1 [Dataset-level Metadata]", "md_verbatim": "| EX | Exposure | Interventions | One record per protocol-specified study treatment, constant-dosing interval, per subject | Tabulation | STUDYID, USUBJID, EXTRT, EXSTDTC | ex.xpt |", "score": 0.3411, "match_basis": "verbatim_token+chapter_route:ch03"}, {"md_atom_id": "md_ch03_a032", "md_file": "knowledge_base/chapters/ch03_submitting_data.md", "md_atom_type": "TABLE_ROW", "md_parent_section": "§3.2.1 [Dataset-level Metadata]", "md_verbatim": "| EC | Exposure as Collected | Interventions | One record per protocol-specified study treatment, collected-dosing interval, per subject, per mood | Tabulation | STUDYID, USUBJID, ECTRT, ECSTDTC, ECMOOD | ec.xpt |", "score": 0.3403, "match_basis": "verbatim_token+chapter_route:ch03"}, {"md_atom_id": "md_ch03_a067", "md_file": "knowledge_base/chapters/ch03_submitting_data.md", "md_atom_type": "TABLE_ROW", "md_parent_section": "§3.2.1 [Dataset-level Metadata]", "md_verbatim": "| RS | Disease Response and Clin Classification | Findings | One record per response assessment or clinical classification assessment per time point per visit per subject per assessor per medical evaluator | Tabulation | STUDYID, USUBJID, RSTESTCD, VISITNUM, RSTPTREF, RSEVAL, RSPTPNUM, RSEVALID | rs.xpt |", "score": 0.3379, "match_basis": "verbatim_token+chapter_route:ch03"}, {"md_atom_id": "md_ch03_a066", "md_file": "knowledge_base/chapters/ch03_submitting_data.md", "md_atom_type": "TABLE_ROW", "md_parent_section": "§3.2.1 [Dataset-level Metadata]", "md_verbatim": "| RP | Reproductive System Findings | Findings | One record per finding or result per time point per visit per subject | Tabulation | STUDYID, DOMAIN, USUBJID, RPTESTCD, VISITNUM | rp.xpt |", "score": 0.3343, "match_basis": "verbatim_token+chapter_route:ch03"}], "candidate_count": 5, "zero_candidate": false}
{"pdf_atom_id": "sv20_p0013_a010", "pdf_atom_type": "TABLE_ROW", "pdf_source": "SDTM_v2.0", "pdf_page": 13, "pdf_parent_section": "§3.1.1 The Interventions Observation Class", "pdf_verbatim": "| 22 | --DOSFRM | Dose Form | Char | | Variable Qualifier | --TRT | | C42636 | Physical characteristics of a drug product, (e.g., tablet, capsule, or solution) that contains a drug substance, generally (but not necessarily) in association with one or more other ingredients. | | \"TABLET\", \"CAPSULE\" |", "figure_ref": null, "candidates": [{"md_atom_id": "md_ch03_a068", "md_file": "knowledge_base/chapters/ch03_submitting_data.md", "md_atom_type": "TABLE_ROW", "md_parent_section": "§3.2.1 [Dataset-level Metadata]", "md_verbatim": "| SC | Subject Characteristics | Findings | One record per characteristic per visit per subject. | Tabulation | STUDYID, USUBJID, SCTESTCD, VISITNUM | sc.xpt |", "score": 0.3759, "match_basis": "verbatim_token+chapter_route:ch03"}, {"md_atom_id": "md_ch03_a061", "md_file": "knowledge_base/chapters/ch03_submitting_data.md", "md_atom_type": "TABLE_ROW", "md_parent_section": "§3.2.1 [Dataset-level Metadata]", "md_verbatim": "| PC | Pharmacokinetics Concentrations | Findings | One record per sample characteristic or time-point concentration per reference time point or per analyte per subject | Tabulation | STUDYID, USUBJID, PCTESTCD, VISITNUM, PCTPTREF, PCTPTNUM | pc.xpt |", "score": 0.369, "match_basis": "verbatim_token+chapter_route:ch03"}, {"md_atom_id": "md_ch03_a034", "md_file": "knowledge_base/chapters/ch03_submitting_data.md", "md_atom_type": "TABLE_ROW", "md_parent_section": "§3.2.1 [Dataset-level Metadata]", "md_verbatim": "| ML | Meal Data | Interventions | One record per food product occurrence or constant intake interval per subject | Tabulation | STUDYID, USUBJID, MLTRT, MLSTDTC | ml.xpt |", "score": 0.3651, "match_basis": "verbatim_token+chapter_route:ch03"}, {"md_atom_id": "md_ch03_a086", "md_file": "knowledge_base/chapters/ch03_submitting_data.md", "md_atom_type": "TABLE_ROW", "md_parent_section": "§3.2.1 [Dataset-level Metadata]", "md_verbatim": "| SUPP-- | Supplemental Qualifiers for [domain name] | Relationship | One record per supplemental qualifier per related parent domain record(s) | Tabulation | STUDYID, RDOMAIN, USUBJID, IDVAR, IDVARVAL, QNAM | supp--.xpt |", "score": 0.3632, "match_basis": "verbatim_token+chapter_route:ch03"}, {"md_atom_id": "md_ch03_a038", "md_file": "knowledge_base/chapters/ch03_submitting_data.md", "md_atom_type": "TABLE_ROW", "md_parent_section": "§3.2.1 [Dataset-level Metadata]", "md_verbatim": "| BE | Biospecimen Events | Events | One record per instance per biospecimen event per biospecimen identifier per subject | Tabulation | STUDYID, USUBJID, BEREFID, BETERM, BESTDTC | be.xpt |", "score": 0.3596, "match_basis": "verbatim_token+chapter_route:ch03"}], "candidate_count": 5, "zero_candidate": false}
{"pdf_atom_id": "sv20_p0013_a011", "pdf_atom_type": "TABLE_ROW", "pdf_source": "SDTM_v2.0", "pdf_page": 13, "pdf_parent_section": "§3.1.1 The Interventions Observation Class", "pdf_verbatim": "| 23 | --DOSFRQ | Dosing Frequency per Interval | Char | | Record Qualifier | | | C15682 | The number of times that an agent (e.g., drug, substance, radiation) is administered per unit of time. | | \"Q2H\", \"QD\", \"PRN\" |", "figure_ref": null, "candidates": [{"md_atom_id": "md_ch03_a031", "md_file": "knowledge_base/chapters/ch03_submitting_data.md", "md_atom_type": "TABLE_ROW", "md_parent_section": "§3.2.1 [Dataset-level Metadata]", "md_verbatim": "| CM | Concomitant/Prior Medications | Interventions | One record per recorded intervention occurrence or constant-dosing interval per subject | Tabulation | STUDYID, USUBJID, CMTRT, CMSTDTC | cm.xpt |", "score": 0.4059, "match_basis": "verbatim_token+chapter_route:ch03"}, {"md_atom_id": "md_ch03_a033", "md_file": "knowledge_base/chapters/ch03_submitting_data.md", "md_atom_type": "TABLE_ROW", "md_parent_section": "§3.2.1 [Dataset-level Metadata]", "md_verbatim": "| EX | Exposure | Interventions | One record per protocol-specified study treatment, constant-dosing interval, per subject | Tabulation | STUDYID, USUBJID, EXTRT, EXSTDTC | ex.xpt |", "score": 0.4051, "match_basis": "verbatim_token+chapter_route:ch03"}, {"md_atom_id": "md_ch03_a036", "md_file": "knowledge_base/chapters/ch03_submitting_data.md", "md_atom_type": "TABLE_ROW", "md_parent_section": "§3.2.1 [Dataset-level Metadata]", "md_verbatim": "| SU | Substance Use | Interventions | One record per substance type per reported occurrence per subject | Tabulation | STUDYID, USUBJID, SUTRT, SUSTDTC | su.xpt |", "score": 0.4, "match_basis": "verbatim_token+chapter_route:ch03"}, {"md_atom_id": "md_ch03_a038", "md_file": "knowledge_base/chapters/ch03_submitting_data.md", "md_atom_type": "TABLE_ROW", "md_parent_section": "§3.2.1 [Dataset-level Metadata]", "md_verbatim": "| BE | Biospecimen Events | Events | One record per instance per biospecimen event per biospecimen identifier per subject | Tabulation | STUDYID, USUBJID, BEREFID, BETERM, BESTDTC | be.xpt |", "score": 0.3992, "match_basis": "verbatim_token+chapter_route:ch03"}, {"md_atom_id": "md_ch03_a032", "md_file": "knowledge_base/chapters/ch03_submitting_data.md", "md_atom_type": "TABLE_ROW", "md_parent_section": "§3.2.1 [Dataset-level Metadata]", "md_verbatim": "| EC | Exposure as Collected | Interventions | One record per protocol-specified study treatment, collected-dosing interval, per subject, per mood | Tabulation | STUDYID, USUBJID, ECTRT, ECSTDTC, ECMOOD | ec.xpt |", "score": 0.393, "match_basis": "verbatim_token+chapter_route:ch03"}], "candidate_count": 5, "zero_candidate": false}
{"pdf_atom_id": "sv20_p0013_a012", "pdf_atom_type": "TABLE_ROW", "pdf_source": "SDTM_v2.0", "pdf_page": 13, "pdf_parent_section": "§3.1.1 The Interventions Observation Class", "pdf_verbatim": "| 24 | --DOSTOT | Total Daily Dose | Num | | Record Qualifier | | | C70888 | The quantity of an agent (e.g., drug, substance, radiation) taken or absorbed on a single day. | Uses the units in --DOSU. | |", "figure_ref": null, "candidates": [{"md_atom_id": "md_ch03_a033", "md_file": "knowledge_base/chapters/ch03_submitting_data.md", "md_atom_type": "TABLE_ROW", "md_parent_section": "§3.2.1 [Dataset-level Metadata]", "md_verbatim": "| EX | Exposure | Interventions | One record per protocol-specified study treatment, constant-dosing interval, per subject | Tabulation | STUDYID, USUBJID, EXTRT, EXSTDTC | ex.xpt |", "score": 0.3857, "match_basis": "verbatim_token+chapter_route:ch03"}, {"md_atom_id": "md_ch03_a036", "md_file": "knowledge_base/chapters/ch03_submitting_data.md", "md_atom_type": "TABLE_ROW", "md_parent_section": "§3.2.1 [Dataset-level Metadata]", "md_verbatim": "| SU | Substance Use | Interventions | One record per substance type per reported occurrence per subject | Tabulation | STUDYID, USUBJID, SUTRT, SUSTDTC | su.xpt |", "score": 0.3843, "match_basis": "verbatim_token+chapter_route:ch03"}, {"md_atom_id": "md_ch03_a038", "md_file": "knowledge_base/chapters/ch03_submitting_data.md", "md_atom_type": "TABLE_ROW", "md_parent_section": "§3.2.1 [Dataset-level Metadata]", "md_verbatim": "| BE | Biospecimen Events | Events | One record per instance per biospecimen event per biospecimen identifier per subject | Tabulation | STUDYID, USUBJID, BEREFID, BETERM, BESTDTC | be.xpt |", "score": 0.3836, "match_basis": "verbatim_token+chapter_route:ch03"}, {"md_atom_id": "md_ch03_a086", "md_file": "knowledge_base/chapters/ch03_submitting_data.md", "md_atom_type": "TABLE_ROW", "md_parent_section": "§3.2.1 [Dataset-level Metadata]", "md_verbatim": "| SUPP-- | Supplemental Qualifiers for [domain name] | Relationship | One record per supplemental qualifier per related parent domain record(s) | Tabulation | STUDYID, RDOMAIN, USUBJID, IDVAR, IDVARVAL, QNAM | supp--.xpt |", "score": 0.3829, "match_basis": "verbatim_token+chapter_route:ch03"}, {"md_atom_id": "md_ch03_a071", "md_file": "knowledge_base/chapters/ch03_submitting_data.md", "md_atom_type": "TABLE_ROW", "md_parent_section": "§3.2.1 [Dataset-level Metadata]", "md_verbatim": "| TU | Tumor/Lesion Identification | Findings | One record per identified tumor per subject per assessor | Tabulation | STUDYID, USUBJID, TUEVALID, TULNKID | tu.xpt |", "score": 0.378, "match_basis": "verbatim_token+chapter_route:ch03"}], "candidate_count": 5, "zero_candidate": false}
{"pdf_atom_id": "sv20_p0014_a001", "pdf_atom_type": "TABLE_ROW", "pdf_source": "SDTM_v2.0", "pdf_page": 14, "pdf_parent_section": "§3.1.1 The Interventions Observation Class", "pdf_verbatim": "| 25 | --DOSRGM | Intended Dose Regimen | Char | | Record Qualifier | | | C71137 | The planned schedule for the administration of an agent (e.g., drug, substance, radiation). | | \"TWO WEEKS ON, TWO WEEKS OFF\" |", "figure_ref": null, "candidates": [{"md_atom_id": "md_ch03_a038", "md_file": "knowledge_base/chapters/ch03_submitting_data.md", "md_atom_type": "TABLE_ROW", "md_parent_section": "§3.2.1 [Dataset-level Metadata]", "md_verbatim": "| BE | Biospecimen Events | Events | One record per instance per biospecimen event per biospecimen identifier per subject | Tabulation | STUDYID, USUBJID, BEREFID, BETERM, BESTDTC | be.xpt |", "score": 0.3837, "match_basis": "verbatim_token+chapter_route:ch03"}, {"md_atom_id": "md_ch03_a086", "md_file": "knowledge_base/chapters/ch03_submitting_data.md", "md_atom_type": "TABLE_ROW", "md_parent_section": "§3.2.1 [Dataset-level Metadata]", "md_verbatim": "| SUPP-- | Supplemental Qualifiers for [domain name] | Relationship | One record per supplemental qualifier per related parent domain record(s) | Tabulation | STUDYID, RDOMAIN, USUBJID, IDVAR, IDVARVAL, QNAM | supp--.xpt |", "score": 0.3831, "match_basis": "verbatim_token+chapter_route:ch03"}, {"md_atom_id": "md_ch03_a078", "md_file": "knowledge_base/chapters/ch03_submitting_data.md", "md_atom_type": "TABLE_ROW", "md_parent_section": "§3.2.1 [Dataset-level Metadata]", "md_verbatim": "| TE | Trial Elements | Trial Design | One record per planned Element | Tabulation | STUDYID, ETCD | te.xpt |", "score": 0.38, "match_basis": "verbatim_token+chapter_route:ch03"}, {"md_atom_id": "md_ch03_a036", "md_file": "knowledge_base/chapters/ch03_submitting_data.md", "md_atom_type": "TABLE_ROW", "md_parent_section": "§3.2.1 [Dataset-level Metadata]", "md_verbatim": "| SU | Substance Use | Interventions | One record per substance type per reported occurrence per subject | Tabulation | STUDYID, USUBJID, SUTRT, SUSTDTC | su.xpt |", "score": 0.3791, "match_basis": "verbatim_token+chapter_route:ch03"}, {"md_atom_id": "md_ch03_a077", "md_file": "knowledge_base/chapters/ch03_submitting_data.md", "md_atom_type": "TABLE_ROW", "md_parent_section": "§3.2.1 [Dataset-level Metadata]", "md_verbatim": "| TD | Trial Disease Assessments | Trial Design | One record per planned constant assessment period | Tabulation | STUDYID, TDORDER | td.xpt |", "score": 0.3787, "match_basis": "verbatim_token+chapter_route:ch03"}], "candidate_count": 5, "zero_candidate": false}
{"pdf_atom_id": "sv20_p0014_a002", "pdf_atom_type": "TABLE_ROW", "pdf_source": "SDTM_v2.0", "pdf_page": 14, "pdf_parent_section": "§3.1.1 The Interventions Observation Class", "pdf_verbatim": "| 26 | --ROUTE | Route of Administration | Char | | Record Qualifier | | | C38114 | Designation of the part of the body through which or into which, or the way in which, a substance is introduced. | | \"ORAL\", \"INTRAVENOUS\" |", "figure_ref": null, "candidates": [{"md_atom_id": "md_ch03_a036", "md_file": "knowledge_base/chapters/ch03_submitting_data.md", "md_atom_type": "TABLE_ROW", "md_parent_section": "§3.2.1 [Dataset-level Metadata]", "md_verbatim": "| SU | Substance Use | Interventions | One record per substance type per reported occurrence per subject | Tabulation | STUDYID, USUBJID, SUTRT, SUSTDTC | su.xpt |", "score": 0.3762, "match_basis": "verbatim_token+chapter_route:ch03"}, {"md_atom_id": "md_ch03_a038", "md_file": "knowledge_base/chapters/ch03_submitting_data.md", "md_atom_type": "TABLE_ROW", "md_parent_section": "§3.2.1 [Dataset-level Metadata]", "md_verbatim": "| BE | Biospecimen Events | Events | One record per instance per biospecimen event per biospecimen identifier per subject | Tabulation | STUDYID, USUBJID, BEREFID, BETERM, BESTDTC | be.xpt |", "score": 0.3756, "match_basis": "verbatim_token+chapter_route:ch03"}, {"md_atom_id": "md_ch03_a086", "md_file": "knowledge_base/chapters/ch03_submitting_data.md", "md_atom_type": "TABLE_ROW", "md_parent_section": "§3.2.1 [Dataset-level Metadata]", "md_verbatim": "| SUPP-- | Supplemental Qualifiers for [domain name] | Relationship | One record per supplemental qualifier per related parent domain record(s) | Tabulation | STUDYID, RDOMAIN, USUBJID, IDVAR, IDVARVAL, QNAM | supp--.xpt |", "score": 0.375, "match_basis": "verbatim_token+chapter_route:ch03"}, {"md_atom_id": "md_ch03_a034", "md_file": "knowledge_base/chapters/ch03_submitting_data.md", "md_atom_type": "TABLE_ROW", "md_parent_section": "§3.2.1 [Dataset-level Metadata]", "md_verbatim": "| ML | Meal Data | Interventions | One record per food product occurrence or constant intake interval per subject | Tabulation | STUDYID, USUBJID, MLTRT, MLSTDTC | ml.xpt |", "score": 0.3722, "match_basis": "verbatim_token+chapter_route:ch03"}, {"md_atom_id": "md_ch03_a082", "md_file": "knowledge_base/chapters/ch03_submitting_data.md", "md_atom_type": "TABLE_ROW", "md_parent_section": "§3.2.1 [Dataset-level Metadata]", "md_verbatim": "| TV | Trial Visits | Trial Design | One record per planned Visit per Arm | Tabulation | STUDYID, ARM, VISIT | tv.xpt |", "score": 0.3653, "match_basis": "verbatim_token+chapter_route:ch03"}], "candidate_count": 5, "zero_candidate": false}
{"pdf_atom_id": "sv20_p0014_a003", "pdf_atom_type": "TABLE_ROW", "pdf_source": "SDTM_v2.0", "pdf_page": 14, "pdf_parent_section": "§3.1.1 The Interventions Observation Class", "pdf_verbatim": "| 27 | --LOT | Lot Number | Char | | Record Qualifier | | | C70848 | An identifier assigned by the manufacturer or distributor to a specific quantity of manufactured material or product. | Although the identifier for a lot is generally called a lot number, it may contain characters other than digits (e.g., letters). | |", "figure_ref": null, "candidates": [{"md_atom_id": "md_ch03_a084", "md_file": "knowledge_base/chapters/ch03_submitting_data.md", "md_atom_type": "TABLE_ROW", "md_parent_section": "§3.2.1 [Dataset-level Metadata]", "md_verbatim": "| RELSPEC | Related Specimens | Relationship | One record per specimen identifier per subject | Tabulation | STUDYID, USUBJID, REFID | relspec.xpt |", "score": 0.3632, "match_basis": "verbatim_token+chapter_route:ch03"}, {"md_atom_id": "md_ch03_a038", "md_file": "knowledge_base/chapters/ch03_submitting_data.md", "md_atom_type": "TABLE_ROW", "md_parent_section": "§3.2.1 [Dataset-level Metadata]", "md_verbatim": "| BE | Biospecimen Events | Events | One record per instance per biospecimen event per biospecimen identifier per subject | Tabulation | STUDYID, USUBJID, BEREFID, BETERM, BESTDTC | be.xpt |", "score": 0.3626, "match_basis": "verbatim_token+chapter_route:ch03"}, {"md_atom_id": "md_ch03_a086", "md_file": "knowledge_base/chapters/ch03_submitting_data.md", "md_atom_type": "TABLE_ROW", "md_parent_section": "§3.2.1 [Dataset-level Metadata]", "md_verbatim": "| SUPP-- | Supplemental Qualifiers for [domain name] | Relationship | One record per supplemental qualifier per related parent domain record(s) | Tabulation | STUDYID, RDOMAIN, USUBJID, IDVAR, IDVARVAL, QNAM | supp--.xpt |", "score": 0.3622, "match_basis": "verbatim_token+chapter_route:ch03"}, {"md_atom_id": "md_ch03_a077", "md_file": "knowledge_base/chapters/ch03_submitting_data.md", "md_atom_type": "TABLE_ROW", "md_parent_section": "§3.2.1 [Dataset-level Metadata]", "md_verbatim": "| TD | Trial Disease Assessments | Trial Design | One record per planned constant assessment period | Tabulation | STUDYID, TDORDER | td.xpt |", "score": 0.3619, "match_basis": "verbatim_token+chapter_route:ch03"}, {"md_atom_id": "md_ch03_a044", "md_file": "knowledge_base/chapters/ch03_submitting_data.md", "md_atom_type": "TABLE_ROW", "md_parent_section": "§3.2.1 [Dataset-level Metadata]", "md_verbatim": "| BS | Biospecimen Findings | Findings | One record per measurement per biospecimen identifier per subject | Tabulation | STUDYID, USUBJID, BSREFID, BSTESTCD | bs.xpt |", "score": 0.3582, "match_basis": "verbatim_token+chapter_route:ch03"}], "candidate_count": 5, "zero_candidate": false}
{"pdf_atom_id": "sv20_p0014_a004", "pdf_atom_type": "TABLE_ROW", "pdf_source": "SDTM_v2.0", "pdf_page": 14, "pdf_parent_section": "§3.1.1 The Interventions Observation Class", "pdf_verbatim": "| 28 | --LOC | Location of Administration | Char | | Record Qualifier | | | | Anatomical location of an intervention, such as an injection site. | | \"ARM\" for an injection |", "figure_ref": null, "candidates": [{"md_atom_id": "md_ch03_a031", "md_file": "knowledge_base/chapters/ch03_submitting_data.md", "md_atom_type": "TABLE_ROW", "md_parent_section": "§3.2.1 [Dataset-level Metadata]", "md_verbatim": "| CM | Concomitant/Prior Medications | Interventions | One record per recorded intervention occurrence or constant-dosing interval per subject | Tabulation | STUDYID, USUBJID, CMTRT, CMSTDTC | cm.xpt |", "score": 0.4043, "match_basis": "verbatim_token+chapter_route:ch03"}, {"md_atom_id": "md_ch03_a039", "md_file": "knowledge_base/chapters/ch03_submitting_data.md", "md_atom_type": "TABLE_ROW", "md_parent_section": "§3.2.1 [Dataset-level Metadata]", "md_verbatim": "| CE | Clinical Events | Events | One record per event per subject | Tabulation | STUDYID, USUBJID, CETERM, CESTDTC | ce.xpt |", "score": 0.4034, "match_basis": "verbatim_token+chapter_route:ch03"}, {"md_atom_id": "md_ch03_a035", "md_file": "knowledge_base/chapters/ch03_submitting_data.md", "md_atom_type": "TABLE_ROW", "md_parent_section": "§3.2.1 [Dataset-level Metadata]", "md_verbatim": "| PR | Procedures | Interventions | One record per recorded procedure per occurrence per subject | Tabulation | STUDYID, USUBJID, PRTRT, PRSTDTC | pr.xpt |", "score": 0.401, "match_basis": "verbatim_token+chapter_route:ch03"}, {"md_atom_id": "md_ch03_a030", "md_file": "knowledge_base/chapters/ch03_submitting_data.md", "md_atom_type": "TABLE_ROW", "md_parent_section": "§3.2.1 [Dataset-level Metadata]", "md_verbatim": "| AG | Procedure Agents | Interventions | One record per recorded intervention occurrence per subject | Tabulation | STUDYID, USUBJID, AGTRT, AGSTDTC | ag.xpt |", "score": 0.399, "match_basis": "verbatim_token+chapter_route:ch03"}, {"md_atom_id": "md_ch03_a074", "md_file": "knowledge_base/chapters/ch03_submitting_data.md", "md_atom_type": "TABLE_ROW", "md_parent_section": "§3.2.1 [Dataset-level Metadata]", "md_verbatim": "| FA | Findings About Events or Interventions | Findings About | One record per finding, per object, per time point, per visit per subject | Tabulation | STUDYID, USUBJID, FATESTCD, FAOBJ, VISITNUM, FATPTREF, FATPTNUM | fa.xpt |", "score": 0.3982, "match_basis": "verbatim_token+chapter_route:ch03"}], "candidate_count": 5, "zero_candidate": false}
{"pdf_atom_id": "sv20_p0014_a005", "pdf_atom_type": "TABLE_ROW", "pdf_source": "SDTM_v2.0", "pdf_page": 14, "pdf_parent_section": "§3.1.1 The Interventions Observation Class", "pdf_verbatim": "| 29 | --METHOD | Method of Administration | Char | | Record Qualifier | | Not in human clinical trials; EX domain only | | Method of administration of the treatment. | | \"INFUSION\" when ROUTE is \"INTRAVENOUS\" |", "figure_ref": null, "candidates": [{"md_atom_id": "md_ch03_a086", "md_file": "knowledge_base/chapters/ch03_submitting_data.md", "md_atom_type": "TABLE_ROW", "md_parent_section": "§3.2.1 [Dataset-level Metadata]", "md_verbatim": "| SUPP-- | Supplemental Qualifiers for [domain name] | Relationship | One record per supplemental qualifier per related parent domain record(s) | Tabulation | STUDYID, RDOMAIN, USUBJID, IDVAR, IDVARVAL, QNAM | supp--.xpt |", "score": 0.3976, "match_basis": "verbatim_token+chapter_route:ch03"}, {"md_atom_id": "md_ch03_a039", "md_file": "knowledge_base/chapters/ch03_submitting_data.md", "md_atom_type": "TABLE_ROW", "md_parent_section": "§3.2.1 [Dataset-level Metadata]", "md_verbatim": "| CE | Clinical Events | Events | One record per event per subject | Tabulation | STUDYID, USUBJID, CETERM, CESTDTC | ce.xpt |", "score": 0.3849, "match_basis": "verbatim_token+chapter_route:ch03"}, {"md_atom_id": "md_ch03_a033", "md_file": "knowledge_base/chapters/ch03_submitting_data.md", "md_atom_type": "TABLE_ROW", "md_parent_section": "§3.2.1 [Dataset-level Metadata]", "md_verbatim": "| EX | Exposure | Interventions | One record per protocol-specified study treatment, constant-dosing interval, per subject | Tabulation | STUDYID, USUBJID, EXTRT, EXSTDTC | ex.xpt |", "score": 0.3788, "match_basis": "verbatim_token+chapter_route:ch03"}, {"md_atom_id": "md_ch03_a032", "md_file": "knowledge_base/chapters/ch03_submitting_data.md", "md_atom_type": "TABLE_ROW", "md_parent_section": "§3.2.1 [Dataset-level Metadata]", "md_verbatim": "| EC | Exposure as Collected | Interventions | One record per protocol-specified study treatment, collected-dosing interval, per subject, per mood | Tabulation | STUDYID, USUBJID, ECTRT, ECSTDTC, ECMOOD | ec.xpt |", "score": 0.3771, "match_basis": "verbatim_token+chapter_route:ch03"}, {"md_atom_id": "md_ch03_a078", "md_file": "knowledge_base/chapters/ch03_submitting_data.md", "md_atom_type": "TABLE_ROW", "md_parent_section": "§3.2.1 [Dataset-level Metadata]", "md_verbatim": "| TE | Trial Elements | Trial Design | One record per planned Element | Tabulation | STUDYID, ETCD | te.xpt |", "score": 0.3706, "match_basis": "verbatim_token+chapter_route:ch03"}], "candidate_count": 5, "zero_candidate": false}
{"pdf_atom_id": "sv20_p0014_a006", "pdf_atom_type": "TABLE_ROW", "pdf_source": "SDTM_v2.0", "pdf_page": 14, "pdf_parent_section": "§3.1.1 The Interventions Observation Class", "pdf_verbatim": "| 30 | --LAT | Laterality | Char | | Variable Qualifier | --LOC | | | Qualifier for anatomical location further detailing laterality of intervention administration. | | \"RIGHT\", \"LEFT\", \"BILATERAL\" |", "figure_ref": null, "candidates": [{"md_atom_id": "md_ch03_a086", "md_file": "knowledge_base/chapters/ch03_submitting_data.md", "md_atom_type": "TABLE_ROW", "md_parent_section": "§3.2.1 [Dataset-level Metadata]", "md_verbatim": "| SUPP-- | Supplemental Qualifiers for [domain name] | Relationship | One record per supplemental qualifier per related parent domain record(s) | Tabulation | STUDYID, RDOMAIN, USUBJID, IDVAR, IDVARVAL, QNAM | supp--.xpt |", "score": 0.3714, "match_basis": "verbatim_token+chapter_route:ch03"}, {"md_atom_id": "md_ch03_a031", "md_file": "knowledge_base/chapters/ch03_submitting_data.md", "md_atom_type": "TABLE_ROW", "md_parent_section": "§3.2.1 [Dataset-level Metadata]", "md_verbatim": "| CM | Concomitant/Prior Medications | Interventions | One record per recorded intervention occurrence or constant-dosing interval per subject | Tabulation | STUDYID, USUBJID, CMTRT, CMSTDTC | cm.xpt |", "score": 0.3706, "match_basis": "verbatim_token+chapter_route:ch03"}, {"md_atom_id": "md_ch03_a033", "md_file": "knowledge_base/chapters/ch03_submitting_data.md", "md_atom_type": "TABLE_ROW", "md_parent_section": "§3.2.1 [Dataset-level Metadata]", "md_verbatim": "| EX | Exposure | Interventions | One record per protocol-specified study treatment, constant-dosing interval, per subject | Tabulation | STUDYID, USUBJID, EXTRT, EXSTDTC | ex.xpt |", "score": 0.3652, "match_basis": "verbatim_token+chapter_route:ch03"}, {"md_atom_id": "md_ch03_a074", "md_file": "knowledge_base/chapters/ch03_submitting_data.md", "md_atom_type": "TABLE_ROW", "md_parent_section": "§3.2.1 [Dataset-level Metadata]", "md_verbatim": "| FA | Findings About Events or Interventions | Findings About | One record per finding, per object, per time point, per visit per subject | Tabulation | STUDYID, USUBJID, FATESTCD, FAOBJ, VISITNUM, FATPTREF, FATPTNUM | fa.xpt |", "score": 0.3641, "match_basis": "verbatim_token+chapter_route:ch03"}, {"md_atom_id": "md_ch03_a032", "md_file": "knowledge_base/chapters/ch03_submitting_data.md", "md_atom_type": "TABLE_ROW", "md_parent_section": "§3.2.1 [Dataset-level Metadata]", "md_verbatim": "| EC | Exposure as Collected | Interventions | One record per protocol-specified study treatment, collected-dosing interval, per subject, per mood | Tabulation | STUDYID, USUBJID, ECTRT, ECSTDTC, ECMOOD | ec.xpt |", "score": 0.3638, "match_basis": "verbatim_token+chapter_route:ch03"}], "candidate_count": 5, "zero_candidate": false}
{"pdf_atom_id": "sv20_p0014_a007", "pdf_atom_type": "TABLE_ROW", "pdf_source": "SDTM_v2.0", "pdf_page": 14, "pdf_parent_section": "§3.1.1 The Interventions Observation Class", "pdf_verbatim": "| 31 | --DIR | Directionality | Char | | Variable Qualifier | --LOC | | | Qualifier for anatomical location further detailing directionality of intervention administration. | | \"ANTERIOR\", \"LOWER\", \"PROXIMAL\" |", "figure_ref": null, "candidates": [{"md_atom_id": "md_ch03_a031", "md_file": "knowledge_base/chapters/ch03_submitting_data.md", "md_atom_type": "TABLE_ROW", "md_parent_section": "§3.2.1 [Dataset-level Metadata]", "md_verbatim": "| CM | Concomitant/Prior Medications | Interventions | One record per recorded intervention occurrence or constant-dosing interval per subject | Tabulation | STUDYID, USUBJID, CMTRT, CMSTDTC | cm.xpt |", "score": 0.3851, "match_basis": "verbatim_token+chapter_route:ch03"}, {"md_atom_id": "md_ch03_a033", "md_file": "knowledge_base/chapters/ch03_submitting_data.md", "md_atom_type": "TABLE_ROW", "md_parent_section": "§3.2.1 [Dataset-level Metadata]", "md_verbatim": "| EX | Exposure | Interventions | One record per protocol-specified study treatment, constant-dosing interval, per subject | Tabulation | STUDYID, USUBJID, EXTRT, EXSTDTC | ex.xpt |", "score": 0.375, "match_basis": "verbatim_token+chapter_route:ch03"}, {"md_atom_id": "md_ch03_a032", "md_file": "knowledge_base/chapters/ch03_submitting_data.md", "md_atom_type": "TABLE_ROW", "md_parent_section": "§3.2.1 [Dataset-level Metadata]", "md_verbatim": "| EC | Exposure as Collected | Interventions | One record per protocol-specified study treatment, collected-dosing interval, per subject, per mood | Tabulation | STUDYID, USUBJID, ECTRT, ECSTDTC, ECMOOD | ec.xpt |", "score": 0.3689, "match_basis": "verbatim_token+chapter_route:ch03"}, {"md_atom_id": "md_ch03_a035", "md_file": "knowledge_base/chapters/ch03_submitting_data.md", "md_atom_type": "TABLE_ROW", "md_parent_section": "§3.2.1 [Dataset-level Metadata]", "md_verbatim": "| PR | Procedures | Interventions | One record per recorded procedure per occurrence per subject | Tabulation | STUDYID, USUBJID, PRTRT, PRSTDTC | pr.xpt |", "score": 0.3646, "match_basis": "verbatim_token+chapter_route:ch03"}, {"md_atom_id": "md_ch03_a034", "md_file": "knowledge_base/chapters/ch03_submitting_data.md", "md_atom_type": "TABLE_ROW", "md_parent_section": "§3.2.1 [Dataset-level Metadata]", "md_verbatim": "| ML | Meal Data | Interventions | One record per food product occurrence or constant intake interval per subject | Tabulation | STUDYID, USUBJID, MLTRT, MLSTDTC | ml.xpt |", "score": 0.3643, "match_basis": "verbatim_token+chapter_route:ch03"}], "candidate_count": 5, "zero_candidate": false}
{"pdf_atom_id": "sv20_p0014_a008", "pdf_atom_type": "TABLE_ROW", "pdf_source": "SDTM_v2.0", "pdf_page": 14, "pdf_parent_section": "§3.1.1 The Interventions Observation Class", "pdf_verbatim": "| 32 | --PORTOT | Portion or Totality | Char | | Variable Qualifier | --LOC | | | Qualifier for anatomical location further detailing the distribution, which means arrangement of or apportioning of the intervention administration. | | \"ENTIRE\", \"SINGLE\", \"SEGMENT\", \"MANY\" |", "figure_ref": null, "candidates": [{"md_atom_id": "md_ch03_a086", "md_file": "knowledge_base/chapters/ch03_submitting_data.md", "md_atom_type": "TABLE_ROW", "md_parent_section": "§3.2.1 [Dataset-level Metadata]", "md_verbatim": "| SUPP-- | Supplemental Qualifiers for [domain name] | Relationship | One record per supplemental qualifier per related parent domain record(s) | Tabulation | STUDYID, RDOMAIN, USUBJID, IDVAR, IDVARVAL, QNAM | supp--.xpt |", "score": 0.3619, "match_basis": "verbatim_token+chapter_route:ch03"}, {"md_atom_id": "md_ch03_a031", "md_file": "knowledge_base/chapters/ch03_submitting_data.md", "md_atom_type": "TABLE_ROW", "md_parent_section": "§3.2.1 [Dataset-level Metadata]", "md_verbatim": "| CM | Concomitant/Prior Medications | Interventions | One record per recorded intervention occurrence or constant-dosing interval per subject | Tabulation | STUDYID, USUBJID, CMTRT, CMSTDTC | cm.xpt |", "score": 0.3578, "match_basis": "verbatim_token+chapter_route:ch03"}, {"md_atom_id": "md_ch03_a033", "md_file": "knowledge_base/chapters/ch03_submitting_data.md", "md_atom_type": "TABLE_ROW", "md_parent_section": "§3.2.1 [Dataset-level Metadata]", "md_verbatim": "| EX | Exposure | Interventions | One record per protocol-specified study treatment, constant-dosing interval, per subject | Tabulation | STUDYID, USUBJID, EXTRT, EXSTDTC | ex.xpt |", "score": 0.3575, "match_basis": "verbatim_token+chapter_route:ch03"}, {"md_atom_id": "md_ch03_a032", "md_file": "knowledge_base/chapters/ch03_submitting_data.md", "md_atom_type": "TABLE_ROW", "md_parent_section": "§3.2.1 [Dataset-level Metadata]", "md_verbatim": "| EC | Exposure as Collected | Interventions | One record per protocol-specified study treatment, collected-dosing interval, per subject, per mood | Tabulation | STUDYID, USUBJID, ECTRT, ECSTDTC, ECMOOD | ec.xpt |", "score": 0.3565, "match_basis": "verbatim_token+chapter_route:ch03"}, {"md_atom_id": "md_ch03_a036", "md_file": "knowledge_base/chapters/ch03_submitting_data.md", "md_atom_type": "TABLE_ROW", "md_parent_section": "§3.2.1 [Dataset-level Metadata]", "md_verbatim": "| SU | Substance Use | Interventions | One record per substance type per reported occurrence per subject | Tabulation | STUDYID, USUBJID, SUTRT, SUSTDTC | su.xpt |", "score": 0.35, "match_basis": "verbatim_token+chapter_route:ch03"}], "candidate_count": 5, "zero_candidate": false}
{"pdf_atom_id": "sv20_p0014_a009", "pdf_atom_type": "TABLE_ROW", "pdf_source": "SDTM_v2.0", "pdf_page": 14, "pdf_parent_section": "§3.1.1 The Interventions Observation Class", "pdf_verbatim": "| 33 | --FAST | Fasting Status | Char | | Record Qualifier | | | C93566 | An indication as to whether a subject has abstained from food and liquid for a prescribed amount of time. | Valid values include \"Y\", \"N\", \"U\", or null if not relevant. | |", "figure_ref": null, "candidates": [{"md_atom_id": "md_ch03_a071", "md_file": "knowledge_base/chapters/ch03_submitting_data.md", "md_atom_type": "TABLE_ROW", "md_parent_section": "§3.2.1 [Dataset-level Metadata]", "md_verbatim": "| TU | Tumor/Lesion Identification | Findings | One record per identified tumor per subject per assessor | Tabulation | STUDYID, USUBJID, TUEVALID, TULNKID | tu.xpt |", "score": 0.3993, "match_basis": "verbatim_token+chapter_route:ch03"}, {"md_atom_id": "md_ch03_a067", "md_file": "knowledge_base/chapters/ch03_submitting_data.md", "md_atom_type": "TABLE_ROW", "md_parent_section": "§3.2.1 [Dataset-level Metadata]", "md_verbatim": "| RS | Disease Response and Clin Classification | Findings | One record per response assessment or clinical classification assessment per time point per visit per subject per assessor per medical evaluator | Tabulation | STUDYID, USUBJID, RSTESTCD, VISITNUM, RSTPTREF, RSEVAL, RSPTPNUM, RSEVALID | rs.xpt |", "score": 0.3955, "match_basis": "verbatim_token+chapter_route:ch03"}, {"md_atom_id": "md_ch03_a052", "md_file": "knowledge_base/chapters/ch03_submitting_data.md", "md_atom_type": "TABLE_ROW", "md_parent_section": "§3.2.1 [Dataset-level Metadata]", "md_verbatim": "| IE | Inclusion/Exclusion Criteria Not Met | Findings | One record per inclusion/exclusion criterion not met per subject | Tabulation | STUDYID, USUBJID, IETESTCD | ie.xpt |", "score": 0.3916, "match_basis": "verbatim_token+chapter_route:ch03"}, {"md_atom_id": "md_ch03_a064", "md_file": "knowledge_base/chapters/ch03_submitting_data.md", "md_atom_type": "TABLE_ROW", "md_parent_section": "§3.2.1 [Dataset-level Metadata]", "md_verbatim": "| QS | Questionnaires | Findings | One record per questionnaire per question per time point per visit per subject | Tabulation | STUDYID, USUBJID, QSCAT, QSSCAT, VISITNUM, QSTESTCD | qs.xpt |", "score": 0.3913, "match_basis": "verbatim_token+chapter_route:ch03"}, {"md_atom_id": "md_ch03_a069", "md_file": "knowledge_base/chapters/ch03_submitting_data.md", "md_atom_type": "TABLE_ROW", "md_parent_section": "§3.2.1 [Dataset-level Metadata]", "md_verbatim": "| SS | Subject Status | Findings | One record per status per visit per subject | Tabulation | STUDYID, USUBJID, SSTESTCD, VISITNUM | ss.xpt |", "score": 0.3912, "match_basis": "verbatim_token+chapter_route:ch03"}], "candidate_count": 5, "zero_candidate": false}
{"pdf_atom_id": "sv20_p0014_a010", "pdf_atom_type": "TABLE_ROW", "pdf_source": "SDTM_v2.0", "pdf_page": 14, "pdf_parent_section": "§3.1.1 The Interventions Observation Class", "pdf_verbatim": "| 34 | --PSTRG | Pharmaceutical Strength | Num | | Record Qualifier | | | C53294 | The amount of active ingredient per unit of pharmaceutical dosage form. | | \"50\", \"300\" |", "figure_ref": null, "candidates": [{"md_atom_id": "md_ch03_a086", "md_file": "knowledge_base/chapters/ch03_submitting_data.md", "md_atom_type": "TABLE_ROW", "md_parent_section": "§3.2.1 [Dataset-level Metadata]", "md_verbatim": "| SUPP-- | Supplemental Qualifiers for [domain name] | Relationship | One record per supplemental qualifier per related parent domain record(s) | Tabulation | STUDYID, RDOMAIN, USUBJID, IDVAR, IDVARVAL, QNAM | supp--.xpt |", "score": 0.3769, "match_basis": "verbatim_token+chapter_route:ch03"}, {"md_atom_id": "md_ch03_a061", "md_file": "knowledge_base/chapters/ch03_submitting_data.md", "md_atom_type": "TABLE_ROW", "md_parent_section": "§3.2.1 [Dataset-level Metadata]", "md_verbatim": "| PC | Pharmacokinetics Concentrations | Findings | One record per sample characteristic or time-point concentration per reference time point or per analyte per subject | Tabulation | STUDYID, USUBJID, PCTESTCD, VISITNUM, PCTPTREF, PCTPTNUM | pc.xpt |", "score": 0.3685, "match_basis": "verbatim_token+chapter_route:ch03"}, {"md_atom_id": "md_ch03_a062", "md_file": "knowledge_base/chapters/ch03_submitting_data.md", "md_atom_type": "TABLE_ROW", "md_parent_section": "§3.2.1 [Dataset-level Metadata]", "md_verbatim": "| PE | Physical Examination | Findings | One record per body system or abnormality per visit per subject | Tabulation | STUDYID, USUBJID, PETESTCD, VISITNUM | pe.xpt |", "score": 0.3581, "match_basis": "verbatim_token+chapter_route:ch03"}, {"md_atom_id": "md_ch03_a087", "md_file": "knowledge_base/chapters/ch03_submitting_data.md", "md_atom_type": "TABLE_ROW", "md_parent_section": "§3.2.1 [Dataset-level Metadata]", "md_verbatim": "| OI | Non-host Organism Identifiers | Study Reference | One record per taxon per non-host organism | Tabulation | NHOID, OISEQ | oi.xpt |", "score": 0.3571, "match_basis": "verbatim_token+chapter_route:ch03"}, {"md_atom_id": "md_ch03_a063", "md_file": "knowledge_base/chapters/ch03_submitting_data.md", "md_atom_type": "TABLE_ROW", "md_parent_section": "§3.2.1 [Dataset-level Metadata]", "md_verbatim": "| PP | Pharmacokinetics Parameters | Findings | One record per PK parameter per time-concentration profile per modeling method per subject | Tabulation | STUDYID, USUBJID, PPTESTCD, PPCAT, VISITNUM, PPRFTDTC | pp.xpt |", "score": 0.3564, "match_basis": "verbatim_token+chapter_route:ch03"}], "candidate_count": 5, "zero_candidate": false}
{"pdf_atom_id": "sv20_p0014_a011", "pdf_atom_type": "TABLE_ROW", "pdf_source": "SDTM_v2.0", "pdf_page": 14, "pdf_parent_section": "§3.1.1 The Interventions Observation Class", "pdf_verbatim": "| 35 | --PSTRGU | Pharmaceutical Strength Units | Char | | Variable Qualifier | --PSTRG | | C117055 | The unit of measure for the amount of active ingredient per unit of pharmaceutical dosage form, using standardized values. | Unit for --PSTRG. | \"mg/TABLET\", \"mg/mL\" |", "figure_ref": null, "candidates": [{"md_atom_id": "md_ch03_a086", "md_file": "knowledge_base/chapters/ch03_submitting_data.md", "md_atom_type": "TABLE_ROW", "md_parent_section": "§3.2.1 [Dataset-level Metadata]", "md_verbatim": "| SUPP-- | Supplemental Qualifiers for [domain name] | Relationship | One record per supplemental qualifier per related parent domain record(s) | Tabulation | STUDYID, RDOMAIN, USUBJID, IDVAR, IDVARVAL, QNAM | supp--.xpt |", "score": 0.3579, "match_basis": "verbatim_token+chapter_route:ch03"}, {"md_atom_id": "md_ch03_a033", "md_file": "knowledge_base/chapters/ch03_submitting_data.md", "md_atom_type": "TABLE_ROW", "md_parent_section": "§3.2.1 [Dataset-level Metadata]", "md_verbatim": "| EX | Exposure | Interventions | One record per protocol-specified study treatment, constant-dosing interval, per subject | Tabulation | STUDYID, USUBJID, EXTRT, EXSTDTC | ex.xpt |", "score": 0.3535, "match_basis": "verbatim_token+chapter_route:ch03"}, {"md_atom_id": "md_ch03_a044", "md_file": "knowledge_base/chapters/ch03_submitting_data.md", "md_atom_type": "TABLE_ROW", "md_parent_section": "§3.2.1 [Dataset-level Metadata]", "md_verbatim": "| BS | Biospecimen Findings | Findings | One record per measurement per biospecimen identifier per subject | Tabulation | STUDYID, USUBJID, BSREFID, BSTESTCD | bs.xpt |", "score": 0.349, "match_basis": "verbatim_token+chapter_route:ch03"}, {"md_atom_id": "md_ch03_a061", "md_file": "knowledge_base/chapters/ch03_submitting_data.md", "md_atom_type": "TABLE_ROW", "md_parent_section": "§3.2.1 [Dataset-level Metadata]", "md_verbatim": "| PC | Pharmacokinetics Concentrations | Findings | One record per sample characteristic or time-point concentration per reference time point or per analyte per subject | Tabulation | STUDYID, USUBJID, PCTESTCD, VISITNUM, PCTPTREF, PCTPTNUM | pc.xpt |", "score": 0.3469, "match_basis": "verbatim_token+chapter_route:ch03"}, {"md_atom_id": "md_ch03_a031", "md_file": "knowledge_base/chapters/ch03_submitting_data.md", "md_atom_type": "TABLE_ROW", "md_parent_section": "§3.2.1 [Dataset-level Metadata]", "md_verbatim": "| CM | Concomitant/Prior Medications | Interventions | One record per recorded intervention occurrence or constant-dosing interval per subject | Tabulation | STUDYID, USUBJID, CMTRT, CMSTDTC | cm.xpt |", "score": 0.3456, "match_basis": "verbatim_token+chapter_route:ch03"}], "candidate_count": 5, "zero_candidate": false}
{"pdf_atom_id": "sv20_p0014_a012", "pdf_atom_type": "TABLE_ROW", "pdf_source": "SDTM_v2.0", "pdf_page": 14, "pdf_parent_section": "§3.1.1 The Interventions Observation Class", "pdf_verbatim": "| 36 | --TRTV | Treatment Vehicle | Char | | Record Qualifier | | | C927 | A carrier or inert medium in which a medicinally active agent is administered. | | \"SALINE\" |", "figure_ref": null, "candidates": [{"md_atom_id": "md_ch03_a033", "md_file": "knowledge_base/chapters/ch03_submitting_data.md", "md_atom_type": "TABLE_ROW", "md_parent_section": "§3.2.1 [Dataset-level Metadata]", "md_verbatim": "| EX | Exposure | Interventions | One record per protocol-specified study treatment, constant-dosing interval, per subject | Tabulation | STUDYID, USUBJID, EXTRT, EXSTDTC | ex.xpt |", "score": 0.3677, "match_basis": "verbatim_token+chapter_route:ch03"}, {"md_atom_id": "md_ch03_a032", "md_file": "knowledge_base/chapters/ch03_submitting_data.md", "md_atom_type": "TABLE_ROW", "md_parent_section": "§3.2.1 [Dataset-level Metadata]", "md_verbatim": "| EC | Exposure as Collected | Interventions | One record per protocol-specified study treatment, collected-dosing interval, per subject, per mood | Tabulation | STUDYID, USUBJID, ECTRT, ECSTDTC, ECMOOD | ec.xpt |", "score": 0.3662, "match_basis": "verbatim_token+chapter_route:ch03"}, {"md_atom_id": "md_ch03_a086", "md_file": "knowledge_base/chapters/ch03_submitting_data.md", "md_atom_type": "TABLE_ROW", "md_parent_section": "§3.2.1 [Dataset-level Metadata]", "md_verbatim": "| SUPP-- | Supplemental Qualifiers for [domain name] | Relationship | One record per supplemental qualifier per related parent domain record(s) | Tabulation | STUDYID, RDOMAIN, USUBJID, IDVAR, IDVARVAL, QNAM | supp--.xpt |", "score": 0.3634, "match_basis": "verbatim_token+chapter_route:ch03"}, {"md_atom_id": "md_ch03_a067", "md_file": "knowledge_base/chapters/ch03_submitting_data.md", "md_atom_type": "TABLE_ROW", "md_parent_section": "§3.2.1 [Dataset-level Metadata]", "md_verbatim": "| RS | Disease Response and Clin Classification | Findings | One record per response assessment or clinical classification assessment per time point per visit per subject per assessor per medical evaluator | Tabulation | STUDYID, USUBJID, RSTESTCD, VISITNUM, RSTPTREF, RSEVAL, RSPTPNUM, RSEVALID | rs.xpt |", "score": 0.3556, "match_basis": "verbatim_token+chapter_route:ch03"}, {"md_atom_id": "md_ch03_a087", "md_file": "knowledge_base/chapters/ch03_submitting_data.md", "md_atom_type": "TABLE_ROW", "md_parent_section": "§3.2.1 [Dataset-level Metadata]", "md_verbatim": "| OI | Non-host Organism Identifiers | Study Reference | One record per taxon per non-host organism | Tabulation | NHOID, OISEQ | oi.xpt |", "score": 0.355, "match_basis": "verbatim_token+chapter_route:ch03"}], "candidate_count": 5, "zero_candidate": false}
{"pdf_atom_id": "sv20_p0014_a013", "pdf_atom_type": "TABLE_ROW", "pdf_source": "SDTM_v2.0", "pdf_page": 14, "pdf_parent_section": "§3.1.1 The Interventions Observation Class", "pdf_verbatim": "| 37 | --VAMT | Treatment Vehicle Amount | Num | | Record Qualifier | | | C82553 | Amount of the prepared product (treatment plus vehicle) administered. | Note: Should not be diluent amount alone. | |", "figure_ref": null, "candidates": [{"md_atom_id": "md_ch03_a086", "md_file": "knowledge_base/chapters/ch03_submitting_data.md", "md_atom_type": "TABLE_ROW", "md_parent_section": "§3.2.1 [Dataset-level Metadata]", "md_verbatim": "| SUPP-- | Supplemental Qualifiers for [domain name] | Relationship | One record per supplemental qualifier per related parent domain record(s) | Tabulation | STUDYID, RDOMAIN, USUBJID, IDVAR, IDVARVAL, QNAM | supp--.xpt |", "score": 0.378, "match_basis": "verbatim_token+chapter_route:ch03"}, {"md_atom_id": "md_ch03_a033", "md_file": "knowledge_base/chapters/ch03_submitting_data.md", "md_atom_type": "TABLE_ROW", "md_parent_section": "§3.2.1 [Dataset-level Metadata]", "md_verbatim": "| EX | Exposure | Interventions | One record per protocol-specified study treatment, constant-dosing interval, per subject | Tabulation | STUDYID, USUBJID, EXTRT, EXSTDTC | ex.xpt |", "score": 0.3711, "match_basis": "verbatim_token+chapter_route:ch03"}, {"md_atom_id": "md_ch03_a032", "md_file": "knowledge_base/chapters/ch03_submitting_data.md", "md_atom_type": "TABLE_ROW", "md_parent_section": "§3.2.1 [Dataset-level Metadata]", "md_verbatim": "| EC | Exposure as Collected | Interventions | One record per protocol-specified study treatment, collected-dosing interval, per subject, per mood | Tabulation | STUDYID, USUBJID, ECTRT, ECSTDTC, ECMOOD | ec.xpt |", "score": 0.3696, "match_basis": "verbatim_token+chapter_route:ch03"}, {"md_atom_id": "md_ch03_a047", "md_file": "knowledge_base/chapters/ch03_submitting_data.md", "md_atom_type": "TABLE_ROW", "md_parent_section": "§3.2.1 [Dataset-level Metadata]", "md_verbatim": "| DA | Product Accountability | Findings | One record per product accountability finding per subject | Tabulation | STUDYID, USUBJID, DATESTCD, DADTC | da.xpt |", "score": 0.3615, "match_basis": "verbatim_token+chapter_route:ch03"}, {"md_atom_id": "md_ch03_a066", "md_file": "knowledge_base/chapters/ch03_submitting_data.md", "md_atom_type": "TABLE_ROW", "md_parent_section": "§3.2.1 [Dataset-level Metadata]", "md_verbatim": "| RP | Reproductive System Findings | Findings | One record per finding or result per time point per visit per subject | Tabulation | STUDYID, DOMAIN, USUBJID, RPTESTCD, VISITNUM | rp.xpt |", "score": 0.36, "match_basis": "verbatim_token+chapter_route:ch03"}], "candidate_count": 5, "zero_candidate": false}
{"pdf_atom_id": "sv20_p0014_a014", "pdf_atom_type": "TABLE_ROW", "pdf_source": "SDTM_v2.0", "pdf_page": 14, "pdf_parent_section": "§3.1.1 The Interventions Observation Class", "pdf_verbatim": "| 38 | --VAMTU | Treatment Vehicle Amount Units | Char | | Variable Qualifier | --VAMT | | C82583 | The unit of measure for the prepared product (treatment plus vehicle) using standardized values. | | \"mL\", \"mg\" |", "figure_ref": null, "candidates": [{"md_atom_id": "md_ch03_a033", "md_file": "knowledge_base/chapters/ch03_submitting_data.md", "md_atom_type": "TABLE_ROW", "md_parent_section": "§3.2.1 [Dataset-level Metadata]", "md_verbatim": "| EX | Exposure | Interventions | One record per protocol-specified study treatment, constant-dosing interval, per subject | Tabulation | STUDYID, USUBJID, EXTRT, EXSTDTC | ex.xpt |", "score": 0.3718, "match_basis": "verbatim_token+chapter_route:ch03"}, {"md_atom_id": "md_ch03_a086", "md_file": "knowledge_base/chapters/ch03_submitting_data.md", "md_atom_type": "TABLE_ROW", "md_parent_section": "§3.2.1 [Dataset-level Metadata]", "md_verbatim": "| SUPP-- | Supplemental Qualifiers for [domain name] | Relationship | One record per supplemental qualifier per related parent domain record(s) | Tabulation | STUDYID, RDOMAIN, USUBJID, IDVAR, IDVARVAL, QNAM | supp--.xpt |", "score": 0.3632, "match_basis": "verbatim_token+chapter_route:ch03"}, {"md_atom_id": "md_ch03_a032", "md_file": "knowledge_base/chapters/ch03_submitting_data.md", "md_atom_type": "TABLE_ROW", "md_parent_section": "§3.2.1 [Dataset-level Metadata]", "md_verbatim": "| EC | Exposure as Collected | Interventions | One record per protocol-specified study treatment, collected-dosing interval, per subject, per mood | Tabulation | STUDYID, USUBJID, ECTRT, ECSTDTC, ECMOOD | ec.xpt |", "score": 0.3612, "match_basis": "verbatim_token+chapter_route:ch03"}, {"md_atom_id": "md_ch03_a044", "md_file": "knowledge_base/chapters/ch03_submitting_data.md", "md_atom_type": "TABLE_ROW", "md_parent_section": "§3.2.1 [Dataset-level Metadata]", "md_verbatim": "| BS | Biospecimen Findings | Findings | One record per measurement per biospecimen identifier per subject | Tabulation | STUDYID, USUBJID, BSREFID, BSTESTCD | bs.xpt |", "score": 0.3485, "match_basis": "verbatim_token+chapter_route:ch03"}, {"md_atom_id": "md_ch03_a070", "md_file": "knowledge_base/chapters/ch03_submitting_data.md", "md_atom_type": "TABLE_ROW", "md_parent_section": "§3.2.1 [Dataset-level Metadata]", "md_verbatim": "| TR | Tumor/Lesion Results | Findings | One record per tumor measurement/assessment per visit per subject per assessor | Tabulation | STUDYID, USUBJID, TRTESTCD, TREVALID, VISITNUM | tr.xpt |", "score": 0.3449, "match_basis": "verbatim_token+chapter_route:ch03"}], "candidate_count": 5, "zero_candidate": false}
{"pdf_atom_id": "sv20_p0014_a015", "pdf_atom_type": "TABLE_ROW", "pdf_source": "SDTM_v2.0", "pdf_page": 14, "pdf_parent_section": "§3.1.1 The Interventions Observation Class", "pdf_verbatim": "| 39 | --ADJ | Reason for Dose Adjustment | Char | | Record Qualifier | | | C82555 | The explanation given for why a dose was changed as compared to a previous dose. | | \"ADVERSE EVENT\", \"INSUFFICIENT RESPONSE\", \"NON-MEDICAL REASON\" |", "figure_ref": null, "candidates": [{"md_atom_id": "md_ch03_a086", "md_file": "knowledge_base/chapters/ch03_submitting_data.md", "md_atom_type": "TABLE_ROW", "md_parent_section": "§3.2.1 [Dataset-level Metadata]", "md_verbatim": "| SUPP-- | Supplemental Qualifiers for [domain name] | Relationship | One record per supplemental qualifier per related parent domain record(s) | Tabulation | STUDYID, RDOMAIN, USUBJID, IDVAR, IDVARVAL, QNAM | supp--.xpt |", "score": 0.3913, "match_basis": "verbatim_token+chapter_route:ch03"}, {"md_atom_id": "md_ch03_a067", "md_file": "knowledge_base/chapters/ch03_submitting_data.md", "md_atom_type": "TABLE_ROW", "md_parent_section": "§3.2.1 [Dataset-level Metadata]", "md_verbatim": "| RS | Disease Response and Clin Classification | Findings | One record per response assessment or clinical classification assessment per time point per visit per subject per assessor per medical evaluator | Tabulation | STUDYID, USUBJID, RSTESTCD, VISITNUM, RSTPTREF, RSEVAL, RSPTPNUM, RSEVALID | rs.xpt |", "score": 0.3857, "match_basis": "verbatim_token+chapter_route:ch03"}, {"md_atom_id": "md_ch03_a037", "md_file": "knowledge_base/chapters/ch03_submitting_data.md", "md_atom_type": "TABLE_ROW", "md_parent_section": "§3.2.1 [Dataset-level Metadata]", "md_verbatim": "| AE | Adverse Events | Events | One record per adverse event per subject | Tabulation | STUDYID, USUBJID, AEDECOD, AESTDTC | ae.xpt |", "score": 0.3744, "match_basis": "verbatim_token+chapter_route:ch03"}, {"md_atom_id": "md_ch03_a043", "md_file": "knowledge_base/chapters/ch03_submitting_data.md", "md_atom_type": "TABLE_ROW", "md_parent_section": "§3.2.1 [Dataset-level Metadata]", "md_verbatim": "| MH | Medical History | Events | One record per medical history event per subject | Tabulation | STUDYID, USUBJID, MHDECOD | mh.xpt |", "score": 0.3744, "match_basis": "verbatim_token+chapter_route:ch03"}, {"md_atom_id": "md_ch03_a033", "md_file": "knowledge_base/chapters/ch03_submitting_data.md", "md_atom_type": "TABLE_ROW", "md_parent_section": "§3.2.1 [Dataset-level Metadata]", "md_verbatim": "| EX | Exposure | Interventions | One record per protocol-specified study treatment, constant-dosing interval, per subject | Tabulation | STUDYID, USUBJID, EXTRT, EXSTDTC | ex.xpt |", "score": 0.3662, "match_basis": "verbatim_token+chapter_route:ch03"}], "candidate_count": 5, "zero_candidate": false}
{"pdf_atom_id": "sv20_p0015_a001", "pdf_atom_type": "TABLE_ROW", "pdf_source": "SDTM_v2.0", "pdf_page": 15, "pdf_parent_section": "§3.1.1 The Interventions Observation Class", "pdf_verbatim": "| 40 | --RSDISC | Reason for Treatment Discontinuation | Char | | Record Qualifier | | | | | Reason the treatment was discontinued. | |", "figure_ref": null, "candidates": [{"md_atom_id": "md_ch03_a086", "md_file": "knowledge_base/chapters/ch03_submitting_data.md", "md_atom_type": "TABLE_ROW", "md_parent_section": "§3.2.1 [Dataset-level Metadata]", "md_verbatim": "| SUPP-- | Supplemental Qualifiers for [domain name] | Relationship | One record per supplemental qualifier per related parent domain record(s) | Tabulation | STUDYID, RDOMAIN, USUBJID, IDVAR, IDVARVAL, QNAM | supp--.xpt |", "score": 0.4074, "match_basis": "verbatim_token+chapter_route:ch03"}, {"md_atom_id": "md_ch03_a033", "md_file": "knowledge_base/chapters/ch03_submitting_data.md", "md_atom_type": "TABLE_ROW", "md_parent_section": "§3.2.1 [Dataset-level Metadata]", "md_verbatim": "| EX | Exposure | Interventions | One record per protocol-specified study treatment, constant-dosing interval, per subject | Tabulation | STUDYID, USUBJID, EXTRT, EXSTDTC | ex.xpt |", "score": 0.4019, "match_basis": "verbatim_token+chapter_route:ch03"}, {"md_atom_id": "md_ch03_a032", "md_file": "knowledge_base/chapters/ch03_submitting_data.md", "md_atom_type": "TABLE_ROW", "md_parent_section": "§3.2.1 [Dataset-level Metadata]", "md_verbatim": "| EC | Exposure as Collected | Interventions | One record per protocol-specified study treatment, collected-dosing interval, per subject, per mood | Tabulation | STUDYID, USUBJID, ECTRT, ECSTDTC, ECMOOD | ec.xpt |", "score": 0.3927, "match_basis": "verbatim_token+chapter_route:ch03"}, {"md_atom_id": "md_ch03_a084", "md_file": "knowledge_base/chapters/ch03_submitting_data.md", "md_atom_type": "TABLE_ROW", "md_parent_section": "§3.2.1 [Dataset-level Metadata]", "md_verbatim": "| RELSPEC | Related Specimens | Relationship | One record per specimen identifier per subject | Tabulation | STUDYID, USUBJID, REFID | relspec.xpt |", "score": 0.3907, "match_basis": "verbatim_token+chapter_route:ch03"}, {"md_atom_id": "md_ch03_a087", "md_file": "knowledge_base/chapters/ch03_submitting_data.md", "md_atom_type": "TABLE_ROW", "md_parent_section": "§3.2.1 [Dataset-level Metadata]", "md_verbatim": "| OI | Non-host Organism Identifiers | Study Reference | One record per taxon per non-host organism | Tabulation | NHOID, OISEQ | oi.xpt |", "score": 0.3867, "match_basis": "verbatim_token+chapter_route:ch03"}], "candidate_count": 5, "zero_candidate": false}
{"pdf_atom_id": "sv20_p0015_a002", "pdf_atom_type": "TABLE_ROW", "pdf_source": "SDTM_v2.0", "pdf_page": 15, "pdf_parent_section": "§3.1.1 The Interventions Observation Class", "pdf_verbatim": "| 41 | --USCHFL | Unscheduled Flag | Char | | Record Qualifier | | Not in human clinical trials | C170510 | An indication that the performed test or observation was done at a time that was not planned. | If a test or observation was performed based upon a schedule defined in the protocol, this flag should be null. Expected values are \"Y\" or null. This variable would not be needed when information on planned assessments is provided, such as when the Trial Visits (TV) and Subject Visits (SV) domains are used. | |", "figure_ref": null, "candidates": [{"md_atom_id": "md_ch03_a067", "md_file": "knowledge_base/chapters/ch03_submitting_data.md", "md_atom_type": "TABLE_ROW", "md_parent_section": "§3.2.1 [Dataset-level Metadata]", "md_verbatim": "| RS | Disease Response and Clin Classification | Findings | One record per response assessment or clinical classification assessment per time point per visit per subject per assessor per medical evaluator | Tabulation | STUDYID, USUBJID, RSTESTCD, VISITNUM, RSTPTREF, RSEVAL, RSPTPNUM, RSEVALID | rs.xpt |", "score": 0.4291, "match_basis": "verbatim_token+chapter_route:ch03"}, {"md_atom_id": "md_ch03_a053", "md_file": "knowledge_base/chapters/ch03_submitting_data.md", "md_atom_type": "TABLE_ROW", "md_parent_section": "§3.2.1 [Dataset-level Metadata]", "md_verbatim": "| IS | Immunogenicity Specimen Assessments | Findings | One record per test per visit per subject | Tabulation | STUDYID, USUBJID, ISTESTCD, ISBDAGNT, ISSCMBDL, ISSTOPO, VISITNUM | is.xpt |", "score": 0.3949, "match_basis": "verbatim_token+chapter_route:ch03"}, {"md_atom_id": "md_ch03_a070", "md_file": "knowledge_base/chapters/ch03_submitting_data.md", "md_atom_type": "TABLE_ROW", "md_parent_section": "§3.2.1 [Dataset-level Metadata]", "md_verbatim": "| TR | Tumor/Lesion Results | Findings | One record per tumor measurement/assessment per visit per subject per assessor | Tabulation | STUDYID, USUBJID, TRTESTCD, TREVALID, VISITNUM | tr.xpt |", "score": 0.3919, "match_basis": "verbatim_token+chapter_route:ch03"}, {"md_atom_id": "md_ch03_a049", "md_file": "knowledge_base/chapters/ch03_submitting_data.md", "md_atom_type": "TABLE_ROW", "md_parent_section": "§3.2.1 [Dataset-level Metadata]", "md_verbatim": "| EG | ECG Test Results | Findings | One record per ECG observation per replicate per time point or one record per ECG observation per beat per visit per subject | Tabulation | STUDYID, USUBJID, EGTESTCD, VISITNUM, EGTPTREF, EGTPTNUM, EGREPNUM | eg.xpt |", "score": 0.391, "match_basis": "verbatim_token+chapter_route:ch03"}, {"md_atom_id": "md_ch03_a051", "md_file": "knowledge_base/chapters/ch03_submitting_data.md", "md_atom_type": "TABLE_ROW", "md_parent_section": "§3.2.1 [Dataset-level Metadata]", "md_verbatim": "| GF | Genomics Findings | Findings | One record per finding per observation per biospecimen per subject | Tabulation | STUDYID, USUBJID, GFTESTCD, GFSPEC, VISITNUM, GFTPTREF, GFTPTNUM | gf.xpt |", "score": 0.3907, "match_basis": "verbatim_token+chapter_route:ch03"}], "candidate_count": 5, "zero_candidate": false}
{"pdf_atom_id": "sv20_p0015_a003", "pdf_atom_type": "TABLE_ROW", "pdf_source": "SDTM_v2.0", "pdf_page": 15, "pdf_parent_section": "§3.1.1 The Interventions Observation Class", "pdf_verbatim": "| 42 | --RSTIND | Restraint Indicator | Char | | Record Qualifier | | Not in human clinical trials | | | An indicator as to whether the animal subject was restrained during the intervention period. Expected values are \"Y\" or null. | |", "figure_ref": null, "candidates": [{"md_atom_id": "md_ch03_a067", "md_file": "knowledge_base/chapters/ch03_submitting_data.md", "md_atom_type": "TABLE_ROW", "md_parent_section": "§3.2.1 [Dataset-level Metadata]", "md_verbatim": "| RS | Disease Response and Clin Classification | Findings | One record per response assessment or clinical classification assessment per time point per visit per subject per assessor per medical evaluator | Tabulation | STUDYID, USUBJID, RSTESTCD, VISITNUM, RSTPTREF, RSEVAL, RSPTPNUM, RSEVALID | rs.xpt |", "score": 0.4236, "match_basis": "verbatim_token+chapter_route:ch03"}, {"md_atom_id": "md_ch03_a032", "md_file": "knowledge_base/chapters/ch03_submitting_data.md", "md_atom_type": "TABLE_ROW", "md_parent_section": "§3.2.1 [Dataset-level Metadata]", "md_verbatim": "| EC | Exposure as Collected | Interventions | One record per protocol-specified study treatment, collected-dosing interval, per subject, per mood | Tabulation | STUDYID, USUBJID, ECTRT, ECSTDTC, ECMOOD | ec.xpt |", "score": 0.4159, "match_basis": "verbatim_token+chapter_route:ch03"}, {"md_atom_id": "md_ch03_a039", "md_file": "knowledge_base/chapters/ch03_submitting_data.md", "md_atom_type": "TABLE_ROW", "md_parent_section": "§3.2.1 [Dataset-level Metadata]", "md_verbatim": "| CE | Clinical Events | Events | One record per event per subject | Tabulation | STUDYID, USUBJID, CETERM, CESTDTC | ce.xpt |", "score": 0.4158, "match_basis": "verbatim_token+chapter_route:ch03"}, {"md_atom_id": "md_ch03_a031", "md_file": "knowledge_base/chapters/ch03_submitting_data.md", "md_atom_type": "TABLE_ROW", "md_parent_section": "§3.2.1 [Dataset-level Metadata]", "md_verbatim": "| CM | Concomitant/Prior Medications | Interventions | One record per recorded intervention occurrence or constant-dosing interval per subject | Tabulation | STUDYID, USUBJID, CMTRT, CMSTDTC | cm.xpt |", "score": 0.4091, "match_basis": "verbatim_token+chapter_route:ch03"}, {"md_atom_id": "md_ch03_a033", "md_file": "knowledge_base/chapters/ch03_submitting_data.md", "md_atom_type": "TABLE_ROW", "md_parent_section": "§3.2.1 [Dataset-level Metadata]", "md_verbatim": "| EX | Exposure | Interventions | One record per protocol-specified study treatment, constant-dosing interval, per subject | Tabulation | STUDYID, USUBJID, EXTRT, EXSTDTC | ex.xpt |", "score": 0.4083, "match_basis": "verbatim_token+chapter_route:ch03"}], "candidate_count": 5, "zero_candidate": false}
{"pdf_atom_id": "sv20_p0015_a004", "pdf_atom_type": "TABLE_ROW", "pdf_source": "SDTM_v2.0", "pdf_page": 15, "pdf_parent_section": "§3.1.1 The Interventions Observation Class", "pdf_verbatim": "| 43 | --RSTMOD | Restraint Mode | Char | | Record Qualifier | | Not in human clinical trials | | | A description of whether the restraint was physical and/or chemical. | |", "figure_ref": null, "candidates": [{"md_atom_id": "md_ch03_a039", "md_file": "knowledge_base/chapters/ch03_submitting_data.md", "md_atom_type": "TABLE_ROW", "md_parent_section": "§3.2.1 [Dataset-level Metadata]", "md_verbatim": "| CE | Clinical Events | Events | One record per event per subject | Tabulation | STUDYID, USUBJID, CETERM, CESTDTC | ce.xpt |", "score": 0.3804, "match_basis": "verbatim_token+chapter_route:ch03"}, {"md_atom_id": "md_ch03_a067", "md_file": "knowledge_base/chapters/ch03_submitting_data.md", "md_atom_type": "TABLE_ROW", "md_parent_section": "§3.2.1 [Dataset-level Metadata]", "md_verbatim": "| RS | Disease Response and Clin Classification | Findings | One record per response assessment or clinical classification assessment per time point per visit per subject per assessor per medical evaluator | Tabulation | STUDYID, USUBJID, RSTESTCD, VISITNUM, RSTPTREF, RSEVAL, RSPTPNUM, RSEVALID | rs.xpt |", "score": 0.374, "match_basis": "verbatim_token+chapter_route:ch03"}, {"md_atom_id": "md_ch03_a079", "md_file": "knowledge_base/chapters/ch03_submitting_data.md", "md_atom_type": "TABLE_ROW", "md_parent_section": "§3.2.1 [Dataset-level Metadata]", "md_verbatim": "| TI | Trial Inclusion/Exclusion Criteria | Trial Design | One record per I/E criterion | Tabulation | STUDYID, IETESTCD | ti.xpt |", "score": 0.3735, "match_basis": "verbatim_token+chapter_route:ch03"}, {"md_atom_id": "md_ch03_a086", "md_file": "knowledge_base/chapters/ch03_submitting_data.md", "md_atom_type": "TABLE_ROW", "md_parent_section": "§3.2.1 [Dataset-level Metadata]", "md_verbatim": "| SUPP-- | Supplemental Qualifiers for [domain name] | Relationship | One record per supplemental qualifier per related parent domain record(s) | Tabulation | STUDYID, RDOMAIN, USUBJID, IDVAR, IDVARVAL, QNAM | supp--.xpt |", "score": 0.3712, "match_basis": "verbatim_token+chapter_route:ch03"}, {"md_atom_id": "md_ch03_a062", "md_file": "knowledge_base/chapters/ch03_submitting_data.md", "md_atom_type": "TABLE_ROW", "md_parent_section": "§3.2.1 [Dataset-level Metadata]", "md_verbatim": "| PE | Physical Examination | Findings | One record per body system or abnormality per visit per subject | Tabulation | STUDYID, USUBJID, PETESTCD, VISITNUM | pe.xpt |", "score": 0.3689, "match_basis": "verbatim_token+chapter_route:ch03"}], "candidate_count": 5, "zero_candidate": false}
{"pdf_atom_id": "sv20_p0015_a005", "pdf_atom_type": "HEADING", "pdf_source": "SDTM_v2.0", "pdf_page": 15, "pdf_parent_section": "§3.1 The General Observation Classes", "pdf_verbatim": "3.1.2 The Events Observation Class", "figure_ref": null, "candidates": [{"md_atom_id": "md_ch03_a102", "md_file": "knowledge_base/chapters/ch03_submitting_data.md", "md_atom_type": "HEADING", "md_parent_section": "§3.2.1 [Dataset-level Metadata]", "md_verbatim": "### 3.2.1.2 CDISC Submission Value-level Metadata", "score": 0.3316, "match_basis": "verbatim_token+chapter_route:ch03"}, {"md_atom_id": "md_ch03_a003", "md_file": "knowledge_base/chapters/ch03_submitting_data.md", "md_atom_type": "HEADING", "md_parent_section": "§3 [Submitting Data in Standard Format]", "md_verbatim": "## 3.1 Standard Metadata for Dataset Contents and Attributes", "score": 0.3267, "match_basis": "verbatim_token+chapter_route:ch03"}, {"md_atom_id": "md_ch03_a013", "md_file": "knowledge_base/chapters/ch03_submitting_data.md", "md_atom_type": "HEADING", "md_parent_section": "§3 [Submitting Data in Standard Format]", "md_verbatim": "## 3.2 Using the CDISC Domain Models in Regulatory Submissions — Dataset Metadata", "score": 0.3214, "match_basis": "verbatim_token+chapter_route:ch03"}, {"md_atom_id": "md_ch03_a021", "md_file": "knowledge_base/chapters/ch03_submitting_data.md", "md_atom_type": "HEADING", "md_parent_section": "§3.2 [Using the CDISC Domain Models in Regulatory Submissions — Dataset Metadata]", "md_verbatim": "### 3.2.1 Dataset-level Metadata", "score": 0.3214, "match_basis": "verbatim_token+chapter_route:ch03"}, {"md_atom_id": "md_ch03_a001", "md_file": "knowledge_base/chapters/ch03_submitting_data.md", "md_atom_type": "HEADING", "md_parent_section": "§3 [Submitting Data in Standard Format]", "md_verbatim": "# SDTMIG v3.4 — Chapter 3: Submitting Data in Standard Format", "score": 0.3, "match_basis": "verbatim_token+chapter_route:ch03"}], "candidate_count": 5, "zero_candidate": false}
{"pdf_atom_id": "sv20_p0015_a006", "pdf_atom_type": "HEADING", "pdf_source": "SDTM_v2.0", "pdf_page": 15, "pdf_parent_section": "§3.1.2 The Events Observation Class", "pdf_verbatim": "Events—Topic and Qualifier Variables—One Record per Event", "figure_ref": null, "candidates": [{"md_atom_id": "md_ch03_a003", "md_file": "knowledge_base/chapters/ch03_submitting_data.md", "md_atom_type": "HEADING", "md_parent_section": "§3 [Submitting Data in Standard Format]", "md_verbatim": "## 3.1 Standard Metadata for Dataset Contents and Attributes", "score": 0.3327, "match_basis": "verbatim_token+chapter_route:ch03"}, {"md_atom_id": "md_ch03_a021", "md_file": "knowledge_base/chapters/ch03_submitting_data.md", "md_atom_type": "HEADING", "md_parent_section": "§3.2 [Using the CDISC Domain Models in Regulatory Submissions — Dataset Metadata]", "md_verbatim": "### 3.2.1 Dataset-level Metadata", "score": 0.3154, "match_basis": "verbatim_token+chapter_route:ch03"}, {"md_atom_id": "md_ch03_a102", "md_file": "knowledge_base/chapters/ch03_submitting_data.md", "md_atom_type": "HEADING", "md_parent_section": "§3.2.1 [Dataset-level Metadata]", "md_verbatim": "### 3.2.1.2 CDISC Submission Value-level Metadata", "score": 0.312, "match_basis": "verbatim_token+chapter_route:ch03"}, {"md_atom_id": "md_ch03_a001", "md_file": "knowledge_base/chapters/ch03_submitting_data.md", "md_atom_type": "HEADING", "md_parent_section": "§3 [Submitting Data in Standard Format]", "md_verbatim": "# SDTMIG v3.4 — Chapter 3: Submitting Data in Standard Format", "score": 0.3107, "match_basis": "verbatim_token+chapter_route:ch03"}, {"md_atom_id": "md_ch03_a013", "md_file": "knowledge_base/chapters/ch03_submitting_data.md", "md_atom_type": "HEADING", "md_parent_section": "§3 [Submitting Data in Standard Format]", "md_verbatim": "## 3.2 Using the CDISC Domain Models in Regulatory Submissions — Dataset Metadata", "score": 0.3, "match_basis": "verbatim_token+chapter_route:ch03"}], "candidate_count": 5, "zero_candidate": false}
{"pdf_atom_id": "sv20_p0015_a007", "pdf_atom_type": "TABLE_HEADER", "pdf_source": "SDTM_v2.0", "pdf_page": 15, "pdf_parent_section": "§3.1.2 The Events Observation Class", "pdf_verbatim": "| # | Variable Name | Variable Label | Type | Format | Role | Variable(s) Qualified | Usage Restrictions | Variable C-code | Definition | Notes | Examples |", "figure_ref": null, "candidates": [{"md_atom_id": "md_ch03_a024", "md_file": "knowledge_base/chapters/ch03_submitting_data.md", "md_atom_type": "TABLE_HEADER", "md_parent_section": "§3.2.1 [Dataset-level Metadata]", "md_verbatim": "| Dataset | Description | Class | Structure | Purpose | Keys | Location |\n|---------|-------------|-------|-----------|---------|------|----------|", "score": 0.3205, "match_basis": "verbatim_token+chapter_route:ch03"}, {"md_atom_id": "md_ch03_a086", "md_file": "knowledge_base/chapters/ch03_submitting_data.md", "md_atom_type": "TABLE_ROW", "md_parent_section": "§3.2.1 [Dataset-level Metadata]", "md_verbatim": "| SUPP-- | Supplemental Qualifiers for [domain name] | Relationship | One record per supplemental qualifier per related parent domain record(s) | Tabulation | STUDYID, RDOMAIN, USUBJID, IDVAR, IDVARVAL, QNAM | supp--.xpt |", "score": 0.3157, "match_basis": "verbatim_token+chapter_route:ch03"}, {"md_atom_id": "md_ch03_a080", "md_file": "knowledge_base/chapters/ch03_submitting_data.md", "md_atom_type": "TABLE_ROW", "md_parent_section": "§3.2.1 [Dataset-level Metadata]", "md_verbatim": "| TM | Trial Disease Milestones | Trial Design | One record per Disease Milestone type | Tabulation | STUDYID, MIDSTYPE | tm.xpt |", "score": 0.2916, "match_basis": "verbatim_token+chapter_route:ch03"}, {"md_atom_id": "md_ch03_a062", "md_file": "knowledge_base/chapters/ch03_submitting_data.md", "md_atom_type": "TABLE_ROW", "md_parent_section": "§3.2.1 [Dataset-level Metadata]", "md_verbatim": "| PE | Physical Examination | Findings | One record per body system or abnormality per visit per subject | Tabulation | STUDYID, USUBJID, PETESTCD, VISITNUM | pe.xpt |", "score": 0.2904, "match_basis": "verbatim_token+chapter_route:ch03"}, {"md_atom_id": "md_ch03_a071", "md_file": "knowledge_base/chapters/ch03_submitting_data.md", "md_atom_type": "TABLE_ROW", "md_parent_section": "§3.2.1 [Dataset-level Metadata]", "md_verbatim": "| TU | Tumor/Lesion Identification | Findings | One record per identified tumor per subject per assessor | Tabulation | STUDYID, USUBJID, TUEVALID, TULNKID | tu.xpt |", "score": 0.2814, "match_basis": "verbatim_token+chapter_route:ch03"}], "candidate_count": 5, "zero_candidate": false}
{"pdf_atom_id": "sv20_p0015_a008", "pdf_atom_type": "TABLE_ROW", "pdf_source": "SDTM_v2.0", "pdf_page": 15, "pdf_parent_section": "§3.1.2 The Events Observation Class", "pdf_verbatim": "| 1 | --TERM | Reported Term | Char | | Topic | | | C82571 | The collected name for an event observation. | The verbatim or prespecified name of the event. | |", "figure_ref": null, "candidates": [{"md_atom_id": "md_ch03_a032", "md_file": "knowledge_base/chapters/ch03_submitting_data.md", "md_atom_type": "TABLE_ROW", "md_parent_section": "§3.2.1 [Dataset-level Metadata]", "md_verbatim": "| EC | Exposure as Collected | Interventions | One record per protocol-specified study treatment, collected-dosing interval, per subject, per mood | Tabulation | STUDYID, USUBJID, ECTRT, ECSTDTC, ECMOOD | ec.xpt |", "score": 0.4138, "match_basis": "verbatim_token+chapter_route:ch03"}, {"md_atom_id": "md_ch03_a033", "md_file": "knowledge_base/chapters/ch03_submitting_data.md", "md_atom_type": "TABLE_ROW", "md_parent_section": "§3.2.1 [Dataset-level Metadata]", "md_verbatim": "| EX | Exposure | Interventions | One record per protocol-specified study treatment, constant-dosing interval, per subject | Tabulation | STUDYID, USUBJID, EXTRT, EXSTDTC | ex.xpt |", "score": 0.3864, "match_basis": "verbatim_token+chapter_route:ch03"}, {"md_atom_id": "md_ch03_a036", "md_file": "knowledge_base/chapters/ch03_submitting_data.md", "md_atom_type": "TABLE_ROW", "md_parent_section": "§3.2.1 [Dataset-level Metadata]", "md_verbatim": "| SU | Substance Use | Interventions | One record per substance type per reported occurrence per subject | Tabulation | STUDYID, USUBJID, SUTRT, SUSTDTC | su.xpt |", "score": 0.3785, "match_basis": "verbatim_token+chapter_route:ch03"}, {"md_atom_id": "md_ch03_a038", "md_file": "knowledge_base/chapters/ch03_submitting_data.md", "md_atom_type": "TABLE_ROW", "md_parent_section": "§3.2.1 [Dataset-level Metadata]", "md_verbatim": "| BE | Biospecimen Events | Events | One record per instance per biospecimen event per biospecimen identifier per subject | Tabulation | STUDYID, USUBJID, BEREFID, BETERM, BESTDTC | be.xpt |", "score": 0.3778, "match_basis": "verbatim_token+chapter_route:ch03"}, {"md_atom_id": "md_ch03_a051", "md_file": "knowledge_base/chapters/ch03_submitting_data.md", "md_atom_type": "TABLE_ROW", "md_parent_section": "§3.2.1 [Dataset-level Metadata]", "md_verbatim": "| GF | Genomics Findings | Findings | One record per finding per observation per biospecimen per subject | Tabulation | STUDYID, USUBJID, GFTESTCD, GFSPEC, VISITNUM, GFTPTREF, GFTPTNUM | gf.xpt |", "score": 0.3672, "match_basis": "verbatim_token+chapter_route:ch03"}], "candidate_count": 5, "zero_candidate": false}
{"pdf_atom_id": "sv20_p0015_a009", "pdf_atom_type": "TABLE_ROW", "pdf_source": "SDTM_v2.0", "pdf_page": 15, "pdf_parent_section": "§3.1.2 The Events Observation Class", "pdf_verbatim": "| 2 | --MODIFY | Modified Reported Term | Char | | Synonym Qualifier | --TERM | | C170998 | A value which represents an alteration to a collected value for coding purposes. | If the value for --TERM is modified for coding purposes, then the modified text is placed here. | |", "figure_ref": null, "candidates": [{"md_atom_id": "md_ch03_a032", "md_file": "knowledge_base/chapters/ch03_submitting_data.md", "md_atom_type": "TABLE_ROW", "md_parent_section": "§3.2.1 [Dataset-level Metadata]", "md_verbatim": "| EC | Exposure as Collected | Interventions | One record per protocol-specified study treatment, collected-dosing interval, per subject, per mood | Tabulation | STUDYID, USUBJID, ECTRT, ECSTDTC, ECMOOD | ec.xpt |", "score": 0.375, "match_basis": "verbatim_token+chapter_route:ch03"}, {"md_atom_id": "md_ch03_a027", "md_file": "knowledge_base/chapters/ch03_submitting_data.md", "md_atom_type": "TABLE_ROW", "md_parent_section": "§3.2.1 [Dataset-level Metadata]", "md_verbatim": "| SE | Subject Elements | Special Purpose | One record per actual Element per subject | Tabulation | STUDYID, USUBJID, ETCD, SESTDTC | se.xpt |", "score": 0.365, "match_basis": "verbatim_token+chapter_route:ch03"}, {"md_atom_id": "md_ch03_a029", "md_file": "knowledge_base/chapters/ch03_submitting_data.md", "md_atom_type": "TABLE_ROW", "md_parent_section": "§3.2.1 [Dataset-level Metadata]", "md_verbatim": "| SV | Subject Visits | Special Purpose | One record per actual or planned visit per subject | Tabulation | STUDYID, USUBJID, SVTERM | sv.xpt |", "score": 0.365, "match_basis": "verbatim_token+chapter_route:ch03"}, {"md_atom_id": "md_ch03_a086", "md_file": "knowledge_base/chapters/ch03_submitting_data.md", "md_atom_type": "TABLE_ROW", "md_parent_section": "§3.2.1 [Dataset-level Metadata]", "md_verbatim": "| SUPP-- | Supplemental Qualifiers for [domain name] | Relationship | One record per supplemental qualifier per related parent domain record(s) | Tabulation | STUDYID, RDOMAIN, USUBJID, IDVAR, IDVARVAL, QNAM | supp--.xpt |", "score": 0.3632, "match_basis": "verbatim_token+chapter_route:ch03"}, {"md_atom_id": "md_ch03_a071", "md_file": "knowledge_base/chapters/ch03_submitting_data.md", "md_atom_type": "TABLE_ROW", "md_parent_section": "§3.2.1 [Dataset-level Metadata]", "md_verbatim": "| TU | Tumor/Lesion Identification | Findings | One record per identified tumor per subject per assessor | Tabulation | STUDYID, USUBJID, TUEVALID, TULNKID | tu.xpt |", "score": 0.3586, "match_basis": "verbatim_token+chapter_route:ch03"}], "candidate_count": 5, "zero_candidate": false}
{"pdf_atom_id": "sv20_p0015_a010", "pdf_atom_type": "TABLE_ROW", "pdf_source": "SDTM_v2.0", "pdf_page": 15, "pdf_parent_section": "§3.1.2 The Events Observation Class", "pdf_verbatim": "| 3 | --LLT | Lowest Level Term | Char | | Variable Qualifier | --TERM | Not in nonclinical trials | C71886 | The lowest-level term assigned to the event from MedDRA. | | |", "figure_ref": null, "candidates": [{"md_atom_id": "md_ch03_a039", "md_file": "knowledge_base/chapters/ch03_submitting_data.md", "md_atom_type": "TABLE_ROW", "md_parent_section": "§3.2.1 [Dataset-level Metadata]", "md_verbatim": "| CE | Clinical Events | Events | One record per event per subject | Tabulation | STUDYID, USUBJID, CETERM, CESTDTC | ce.xpt |", "score": 0.3783, "match_basis": "verbatim_token+chapter_route:ch03"}, {"md_atom_id": "md_ch03_a067", "md_file": "knowledge_base/chapters/ch03_submitting_data.md", "md_atom_type": "TABLE_ROW", "md_parent_section": "§3.2.1 [Dataset-level Metadata]", "md_verbatim": "| RS | Disease Response and Clin Classification | Findings | One record per response assessment or clinical classification assessment per time point per visit per subject per assessor per medical evaluator | Tabulation | STUDYID, USUBJID, RSTESTCD, VISITNUM, RSTPTREF, RSEVAL, RSPTPNUM, RSEVALID | rs.xpt |", "score": 0.3506, "match_basis": "verbatim_token+chapter_route:ch03"}, {"md_atom_id": "md_ch03_a079", "md_file": "knowledge_base/chapters/ch03_submitting_data.md", "md_atom_type": "TABLE_ROW", "md_parent_section": "§3.2.1 [Dataset-level Metadata]", "md_verbatim": "| TI | Trial Inclusion/Exclusion Criteria | Trial Design | One record per I/E criterion | Tabulation | STUDYID, IETESTCD | ti.xpt |", "score": 0.35, "match_basis": "verbatim_token+chapter_route:ch03"}, {"md_atom_id": "md_ch03_a078", "md_file": "knowledge_base/chapters/ch03_submitting_data.md", "md_atom_type": "TABLE_ROW", "md_parent_section": "§3.2.1 [Dataset-level Metadata]", "md_verbatim": "| TE | Trial Elements | Trial Design | One record per planned Element | Tabulation | STUDYID, ETCD | te.xpt |", "score": 0.3467, "match_basis": "verbatim_token+chapter_route:ch03"}, {"md_atom_id": "md_ch03_a038", "md_file": "knowledge_base/chapters/ch03_submitting_data.md", "md_atom_type": "TABLE_ROW", "md_parent_section": "§3.2.1 [Dataset-level Metadata]", "md_verbatim": "| BE | Biospecimen Events | Events | One record per instance per biospecimen event per biospecimen identifier per subject | Tabulation | STUDYID, USUBJID, BEREFID, BETERM, BESTDTC | be.xpt |", "score": 0.3466, "match_basis": "verbatim_token+chapter_route:ch03"}], "candidate_count": 5, "zero_candidate": false}
{"pdf_atom_id": "sv20_p0015_a011", "pdf_atom_type": "TABLE_ROW", "pdf_source": "SDTM_v2.0", "pdf_page": 15, "pdf_parent_section": "§3.1.2 The Events Observation Class", "pdf_verbatim": "| 4 | --LLTCD | Lowest Level Term Code | Num | | Variable Qualifier | --LLT | Not in nonclinical trials | C117048 | The lowest-level term code assigned to the event from MedDRA. | | |", "figure_ref": null, "candidates": [{"md_atom_id": "md_ch03_a039", "md_file": "knowledge_base/chapters/ch03_submitting_data.md", "md_atom_type": "TABLE_ROW", "md_parent_section": "§3.2.1 [Dataset-level Metadata]", "md_verbatim": "| CE | Clinical Events | Events | One record per event per subject | Tabulation | STUDYID, USUBJID, CETERM, CESTDTC | ce.xpt |", "score": 0.375, "match_basis": "verbatim_token+chapter_route:ch03"}, {"md_atom_id": "md_ch03_a067", "md_file": "knowledge_base/chapters/ch03_submitting_data.md", "md_atom_type": "TABLE_ROW", "md_parent_section": "§3.2.1 [Dataset-level Metadata]", "md_verbatim": "| RS | Disease Response and Clin Classification | Findings | One record per response assessment or clinical classification assessment per time point per visit per subject per assessor per medical evaluator | Tabulation | STUDYID, USUBJID, RSTESTCD, VISITNUM, RSTPTREF, RSEVAL, RSPTPNUM, RSEVALID | rs.xpt |", "score": 0.3577, "match_basis": "verbatim_token+chapter_route:ch03"}, {"md_atom_id": "md_ch03_a079", "md_file": "knowledge_base/chapters/ch03_submitting_data.md", "md_atom_type": "TABLE_ROW", "md_parent_section": "§3.2.1 [Dataset-level Metadata]", "md_verbatim": "| TI | Trial Inclusion/Exclusion Criteria | Trial Design | One record per I/E criterion | Tabulation | STUDYID, IETESTCD | ti.xpt |", "score": 0.3545, "match_basis": "verbatim_token+chapter_route:ch03"}, {"md_atom_id": "md_ch03_a078", "md_file": "knowledge_base/chapters/ch03_submitting_data.md", "md_atom_type": "TABLE_ROW", "md_parent_section": "§3.2.1 [Dataset-level Metadata]", "md_verbatim": "| TE | Trial Elements | Trial Design | One record per planned Element | Tabulation | STUDYID, ETCD | te.xpt |", "score": 0.3516, "match_basis": "verbatim_token+chapter_route:ch03"}, {"md_atom_id": "md_ch03_a038", "md_file": "knowledge_base/chapters/ch03_submitting_data.md", "md_atom_type": "TABLE_ROW", "md_parent_section": "§3.2.1 [Dataset-level Metadata]", "md_verbatim": "| BE | Biospecimen Events | Events | One record per instance per biospecimen event per biospecimen identifier per subject | Tabulation | STUDYID, USUBJID, BEREFID, BETERM, BESTDTC | be.xpt |", "score": 0.345, "match_basis": "verbatim_token+chapter_route:ch03"}], "candidate_count": 5, "zero_candidate": false}
{"pdf_atom_id": "sv20_p0015_a012", "pdf_atom_type": "TABLE_ROW", "pdf_source": "SDTM_v2.0", "pdf_page": 15, "pdf_parent_section": "§3.1.2 The Events Observation Class", "pdf_verbatim": "| 5 | --DECOD | Dictionary-Derived Term | Char | | Synonym Qualifier | --TERM | | C170991 | Standardized or dictionary-derived text for the description of an event or intervention. | Equivalent to the Preferred Term (\"PT\" in MedDRA). | |", "figure_ref": null, "candidates": [{"md_atom_id": "md_ch03_a031", "md_file": "knowledge_base/chapters/ch03_submitting_data.md", "md_atom_type": "TABLE_ROW", "md_parent_section": "§3.2.1 [Dataset-level Metadata]", "md_verbatim": "| CM | Concomitant/Prior Medications | Interventions | One record per recorded intervention occurrence or constant-dosing interval per subject | Tabulation | STUDYID, USUBJID, CMTRT, CMSTDTC | cm.xpt |", "score": 0.3694, "match_basis": "verbatim_token+chapter_route:ch03"}, {"md_atom_id": "md_ch03_a033", "md_file": "knowledge_base/chapters/ch03_submitting_data.md", "md_atom_type": "TABLE_ROW", "md_parent_section": "§3.2.1 [Dataset-level Metadata]", "md_verbatim": "| EX | Exposure | Interventions | One record per protocol-specified study treatment, constant-dosing interval, per subject | Tabulation | STUDYID, USUBJID, EXTRT, EXSTDTC | ex.xpt |", "score": 0.3689, "match_basis": "verbatim_token+chapter_route:ch03"}, {"md_atom_id": "md_ch03_a038", "md_file": "knowledge_base/chapters/ch03_submitting_data.md", "md_atom_type": "TABLE_ROW", "md_parent_section": "§3.2.1 [Dataset-level Metadata]", "md_verbatim": "| BE | Biospecimen Events | Events | One record per instance per biospecimen event per biospecimen identifier per subject | Tabulation | STUDYID, USUBJID, BEREFID, BETERM, BESTDTC | be.xpt |", "score": 0.3657, "match_basis": "verbatim_token+chapter_route:ch03"}, {"md_atom_id": "md_ch03_a034", "md_file": "knowledge_base/chapters/ch03_submitting_data.md", "md_atom_type": "TABLE_ROW", "md_parent_section": "§3.2.1 [Dataset-level Metadata]", "md_verbatim": "| ML | Meal Data | Interventions | One record per food product occurrence or constant intake interval per subject | Tabulation | STUDYID, USUBJID, MLTRT, MLSTDTC | ml.xpt |", "score": 0.3629, "match_basis": "verbatim_token+chapter_route:ch03"}, {"md_atom_id": "md_ch03_a036", "md_file": "knowledge_base/chapters/ch03_submitting_data.md", "md_atom_type": "TABLE_ROW", "md_parent_section": "§3.2.1 [Dataset-level Metadata]", "md_verbatim": "| SU | Substance Use | Interventions | One record per substance type per reported occurrence per subject | Tabulation | STUDYID, USUBJID, SUTRT, SUSTDTC | su.xpt |", "score": 0.3613, "match_basis": "verbatim_token+chapter_route:ch03"}], "candidate_count": 5, "zero_candidate": false}
{"pdf_atom_id": "sv20_p0015_a013", "pdf_atom_type": "TABLE_ROW", "pdf_source": "SDTM_v2.0", "pdf_page": 15, "pdf_parent_section": "§3.1.2 The Events Observation Class", "pdf_verbatim": "| 6 | --EVDTYP | Medical History Event Date Type | Char | | Variable Qualifier | --STDTC; --ENDTC | MH domain only | | Specifies the aspect of the medical condition or event by which MHSTDTC and/or the MHENDTC is defined. | | \"DIAGNOSIS\", \"SYMPTOM ONSET\", \"DISEASE RELAPSE\" |", "figure_ref": null, "candidates": [{"md_atom_id": "md_ch03_a086", "md_file": "knowledge_base/chapters/ch03_submitting_data.md", "md_atom_type": "TABLE_ROW", "md_parent_section": "§3.2.1 [Dataset-level Metadata]", "md_verbatim": "| SUPP-- | Supplemental Qualifiers for [domain name] | Relationship | One record per supplemental qualifier per related parent domain record(s) | Tabulation | STUDYID, RDOMAIN, USUBJID, IDVAR, IDVARVAL, QNAM | supp--.xpt |", "score": 0.3765, "match_basis": "verbatim_token+chapter_route:ch03"}, {"md_atom_id": "md_ch03_a043", "md_file": "knowledge_base/chapters/ch03_submitting_data.md", "md_atom_type": "TABLE_ROW", "md_parent_section": "§3.2.1 [Dataset-level Metadata]", "md_verbatim": "| MH | Medical History | Events | One record per medical history event per subject | Tabulation | STUDYID, USUBJID, MHDECOD | mh.xpt |", "score": 0.3744, "match_basis": "verbatim_token+chapter_route:ch03"}, {"md_atom_id": "md_ch03_a067", "md_file": "knowledge_base/chapters/ch03_submitting_data.md", "md_atom_type": "TABLE_ROW", "md_parent_section": "§3.2.1 [Dataset-level Metadata]", "md_verbatim": "| RS | Disease Response and Clin Classification | Findings | One record per response assessment or clinical classification assessment per time point per visit per subject per assessor per medical evaluator | Tabulation | STUDYID, USUBJID, RSTESTCD, VISITNUM, RSTPTREF, RSEVAL, RSPTPNUM, RSEVALID | rs.xpt |", "score": 0.3706, "match_basis": "verbatim_token+chapter_route:ch03"}, {"md_atom_id": "md_ch03_a084", "md_file": "knowledge_base/chapters/ch03_submitting_data.md", "md_atom_type": "TABLE_ROW", "md_parent_section": "§3.2.1 [Dataset-level Metadata]", "md_verbatim": "| RELSPEC | Related Specimens | Relationship | One record per specimen identifier per subject | Tabulation | STUDYID, USUBJID, REFID | relspec.xpt |", "score": 0.3643, "match_basis": "verbatim_token+chapter_route:ch03"}, {"md_atom_id": "md_ch03_a038", "md_file": "knowledge_base/chapters/ch03_submitting_data.md", "md_atom_type": "TABLE_ROW", "md_parent_section": "§3.2.1 [Dataset-level Metadata]", "md_verbatim": "| BE | Biospecimen Events | Events | One record per instance per biospecimen event per biospecimen identifier per subject | Tabulation | STUDYID, USUBJID, BEREFID, BETERM, BESTDTC | be.xpt |", "score": 0.3636, "match_basis": "verbatim_token+chapter_route:ch03"}], "candidate_count": 5, "zero_candidate": false}
{"pdf_atom_id": "sv20_p0015_a014", "pdf_atom_type": "TABLE_ROW", "pdf_source": "SDTM_v2.0", "pdf_page": 15, "pdf_parent_section": "§3.1.2 The Events Observation Class", "pdf_verbatim": "| 7 | --PTCD | Preferred Term Code | Num | | Variable Qualifier | --DECOD | Not in nonclinical trials | C117056 | The preferred term code assigned to the event from the MedDRA dictionary. | | |", "figure_ref": null, "candidates": [{"md_atom_id": "md_ch03_a039", "md_file": "knowledge_base/chapters/ch03_submitting_data.md", "md_atom_type": "TABLE_ROW", "md_parent_section": "§3.2.1 [Dataset-level Metadata]", "md_verbatim": "| CE | Clinical Events | Events | One record per event per subject | Tabulation | STUDYID, USUBJID, CETERM, CESTDTC | ce.xpt |", "score": 0.3808, "match_basis": "verbatim_token+chapter_route:ch03"}, {"md_atom_id": "md_ch03_a067", "md_file": "knowledge_base/chapters/ch03_submitting_data.md", "md_atom_type": "TABLE_ROW", "md_parent_section": "§3.2.1 [Dataset-level Metadata]", "md_verbatim": "| RS | Disease Response and Clin Classification | Findings | One record per response assessment or clinical classification assessment per time point per visit per subject per assessor per medical evaluator | Tabulation | STUDYID, USUBJID, RSTESTCD, VISITNUM, RSTPTREF, RSEVAL, RSPTPNUM, RSEVALID | rs.xpt |", "score": 0.3704, "match_basis": "verbatim_token+chapter_route:ch03"}, {"md_atom_id": "md_ch03_a043", "md_file": "knowledge_base/chapters/ch03_submitting_data.md", "md_atom_type": "TABLE_ROW", "md_parent_section": "§3.2.1 [Dataset-level Metadata]", "md_verbatim": "| MH | Medical History | Events | One record per medical history event per subject | Tabulation | STUDYID, USUBJID, MHDECOD | mh.xpt |", "score": 0.3686, "match_basis": "verbatim_token+chapter_route:ch03"}, {"md_atom_id": "md_ch03_a078", "md_file": "knowledge_base/chapters/ch03_submitting_data.md", "md_atom_type": "TABLE_ROW", "md_parent_section": "§3.2.1 [Dataset-level Metadata]", "md_verbatim": "| TE | Trial Elements | Trial Design | One record per planned Element | Tabulation | STUDYID, ETCD | te.xpt |", "score": 0.366, "match_basis": "verbatim_token+chapter_route:ch03"}, {"md_atom_id": "md_ch03_a079", "md_file": "knowledge_base/chapters/ch03_submitting_data.md", "md_atom_type": "TABLE_ROW", "md_parent_section": "§3.2.1 [Dataset-level Metadata]", "md_verbatim": "| TI | Trial Inclusion/Exclusion Criteria | Trial Design | One record per I/E criterion | Tabulation | STUDYID, IETESTCD | ti.xpt |", "score": 0.3617, "match_basis": "verbatim_token+chapter_route:ch03"}], "candidate_count": 5, "zero_candidate": false}
{"pdf_atom_id": "sv20_p0015_a015", "pdf_atom_type": "TABLE_ROW", "pdf_source": "SDTM_v2.0", "pdf_page": 15, "pdf_parent_section": "§3.1.2 The Events Observation Class", "pdf_verbatim": "| 8 | --HLT | High Level Term | Char | | Variable Qualifier | --TERM | Not in nonclinical trials | C71880 | The high-level term from the primary hierarchy assigned to the event from MedDRA. | | |", "figure_ref": null, "candidates": [{"md_atom_id": "md_ch03_a039", "md_file": "knowledge_base/chapters/ch03_submitting_data.md", "md_atom_type": "TABLE_ROW", "md_parent_section": "§3.2.1 [Dataset-level Metadata]", "md_verbatim": "| CE | Clinical Events | Events | One record per event per subject | Tabulation | STUDYID, USUBJID, CETERM, CESTDTC | ce.xpt |", "score": 0.3647, "match_basis": "verbatim_token+chapter_route:ch03"}, {"md_atom_id": "md_ch03_a081", "md_file": "knowledge_base/chapters/ch03_submitting_data.md", "md_atom_type": "TABLE_ROW", "md_parent_section": "§3.2.1 [Dataset-level Metadata]", "md_verbatim": "| TS | Trial Summary | Trial Design | One record per trial summary parameter value | Tabulation | STUDYID, TSPARMCD, TSSEQ | ts.xpt |", "score": 0.3444, "match_basis": "verbatim_token+chapter_route:ch03"}, {"md_atom_id": "md_ch03_a067", "md_file": "knowledge_base/chapters/ch03_submitting_data.md", "md_atom_type": "TABLE_ROW", "md_parent_section": "§3.2.1 [Dataset-level Metadata]", "md_verbatim": "| RS | Disease Response and Clin Classification | Findings | One record per response assessment or clinical classification assessment per time point per visit per subject per assessor per medical evaluator | Tabulation | STUDYID, USUBJID, RSTESTCD, VISITNUM, RSTPTREF, RSEVAL, RSPTPNUM, RSEVALID | rs.xpt |", "score": 0.3439, "match_basis": "verbatim_token+chapter_route:ch03"}, {"md_atom_id": "md_ch03_a086", "md_file": "knowledge_base/chapters/ch03_submitting_data.md", "md_atom_type": "TABLE_ROW", "md_parent_section": "§3.2.1 [Dataset-level Metadata]", "md_verbatim": "| SUPP-- | Supplemental Qualifiers for [domain name] | Relationship | One record per supplemental qualifier per related parent domain record(s) | Tabulation | STUDYID, RDOMAIN, USUBJID, IDVAR, IDVARVAL, QNAM | supp--.xpt |", "score": 0.3429, "match_basis": "verbatim_token+chapter_route:ch03"}, {"md_atom_id": "md_ch03_a078", "md_file": "knowledge_base/chapters/ch03_submitting_data.md", "md_atom_type": "TABLE_ROW", "md_parent_section": "§3.2.1 [Dataset-level Metadata]", "md_verbatim": "| TE | Trial Elements | Trial Design | One record per planned Element | Tabulation | STUDYID, ETCD | te.xpt |", "score": 0.3424, "match_basis": "verbatim_token+chapter_route:ch03"}], "candidate_count": 5, "zero_candidate": false}
{"pdf_atom_id": "sv20_p0016_a001", "pdf_atom_type": "TABLE_ROW", "pdf_source": "SDTM_v2.0", "pdf_page": 16, "pdf_parent_section": "§3.1.2 The Events Observation Class", "pdf_verbatim": "| 9 | --HLTCD | High Level Term Code | Num | | Variable Qualifier | --HLT | Not in nonclinical trials | C117047 | The high-level term code from the primary hierarchy assigned to the event from MedDRA. | | |", "figure_ref": null, "candidates": [{"md_atom_id": "md_ch03_a039", "md_file": "knowledge_base/chapters/ch03_submitting_data.md", "md_atom_type": "TABLE_ROW", "md_parent_section": "§3.2.1 [Dataset-level Metadata]", "md_verbatim": "| CE | Clinical Events | Events | One record per event per subject | Tabulation | STUDYID, USUBJID, CETERM, CESTDTC | ce.xpt |", "score": 0.3623, "match_basis": "verbatim_token+chapter_route:ch03"}, {"md_atom_id": "md_ch03_a067", "md_file": "knowledge_base/chapters/ch03_submitting_data.md", "md_atom_type": "TABLE_ROW", "md_parent_section": "§3.2.1 [Dataset-level Metadata]", "md_verbatim": "| RS | Disease Response and Clin Classification | Findings | One record per response assessment or clinical classification assessment per time point per visit per subject per assessor per medical evaluator | Tabulation | STUDYID, USUBJID, RSTESTCD, VISITNUM, RSTPTREF, RSEVAL, RSPTPNUM, RSEVALID | rs.xpt |", "score": 0.3506, "match_basis": "verbatim_token+chapter_route:ch03"}, {"md_atom_id": "md_ch03_a078", "md_file": "knowledge_base/chapters/ch03_submitting_data.md", "md_atom_type": "TABLE_ROW", "md_parent_section": "§3.2.1 [Dataset-level Metadata]", "md_verbatim": "| TE | Trial Elements | Trial Design | One record per planned Element | Tabulation | STUDYID, ETCD | te.xpt |", "score": 0.3471, "match_basis": "verbatim_token+chapter_route:ch03"}, {"md_atom_id": "md_ch03_a079", "md_file": "knowledge_base/chapters/ch03_submitting_data.md", "md_atom_type": "TABLE_ROW", "md_parent_section": "§3.2.1 [Dataset-level Metadata]", "md_verbatim": "| TI | Trial Inclusion/Exclusion Criteria | Trial Design | One record per I/E criterion | Tabulation | STUDYID, IETESTCD | ti.xpt |", "score": 0.344, "match_basis": "verbatim_token+chapter_route:ch03"}, {"md_atom_id": "md_ch03_a081", "md_file": "knowledge_base/chapters/ch03_submitting_data.md", "md_atom_type": "TABLE_ROW", "md_parent_section": "§3.2.1 [Dataset-level Metadata]", "md_verbatim": "| TS | Trial Summary | Trial Design | One record per trial summary parameter value | Tabulation | STUDYID, TSPARMCD, TSSEQ | ts.xpt |", "score": 0.3429, "match_basis": "verbatim_token+chapter_route:ch03"}], "candidate_count": 5, "zero_candidate": false}
{"pdf_atom_id": "sv20_p0016_a002", "pdf_atom_type": "TABLE_ROW", "pdf_source": "SDTM_v2.0", "pdf_page": 16, "pdf_parent_section": "§3.1.2 The Events Observation Class", "pdf_verbatim": "| 10 | --HLGT | High Level Group Term | Char | | Variable Qualifier | --TERM | Not in nonclinical trials | C71889 | The high-level group term from the primary hierarchy assigned to the event from MedDRA. | | |", "figure_ref": null, "candidates": [{"md_atom_id": "md_ch03_a039", "md_file": "knowledge_base/chapters/ch03_submitting_data.md", "md_atom_type": "TABLE_ROW", "md_parent_section": "§3.2.1 [Dataset-level Metadata]", "md_verbatim": "| CE | Clinical Events | Events | One record per event per subject | Tabulation | STUDYID, USUBJID, CETERM, CESTDTC | ce.xpt |", "score": 0.3623, "match_basis": "verbatim_token+chapter_route:ch03"}, {"md_atom_id": "md_ch03_a067", "md_file": "knowledge_base/chapters/ch03_submitting_data.md", "md_atom_type": "TABLE_ROW", "md_parent_section": "§3.2.1 [Dataset-level Metadata]", "md_verbatim": "| RS | Disease Response and Clin Classification | Findings | One record per response assessment or clinical classification assessment per time point per visit per subject per assessor per medical evaluator | Tabulation | STUDYID, USUBJID, RSTESTCD, VISITNUM, RSTPTREF, RSEVAL, RSPTPNUM, RSEVALID | rs.xpt |", "score": 0.3429, "match_basis": "verbatim_token+chapter_route:ch03"}, {"md_atom_id": "md_ch03_a081", "md_file": "knowledge_base/chapters/ch03_submitting_data.md", "md_atom_type": "TABLE_ROW", "md_parent_section": "§3.2.1 [Dataset-level Metadata]", "md_verbatim": "| TS | Trial Summary | Trial Design | One record per trial summary parameter value | Tabulation | STUDYID, TSPARMCD, TSSEQ | ts.xpt |", "score": 0.3429, "match_basis": "verbatim_token+chapter_route:ch03"}, {"md_atom_id": "md_ch03_a086", "md_file": "knowledge_base/chapters/ch03_submitting_data.md", "md_atom_type": "TABLE_ROW", "md_parent_section": "§3.2.1 [Dataset-level Metadata]", "md_verbatim": "| SUPP-- | Supplemental Qualifiers for [domain name] | Relationship | One record per supplemental qualifier per related parent domain record(s) | Tabulation | STUDYID, RDOMAIN, USUBJID, IDVAR, IDVARVAL, QNAM | supp--.xpt |", "score": 0.3415, "match_basis": "verbatim_token+chapter_route:ch03"}, {"md_atom_id": "md_ch03_a078", "md_file": "knowledge_base/chapters/ch03_submitting_data.md", "md_atom_type": "TABLE_ROW", "md_parent_section": "§3.2.1 [Dataset-level Metadata]", "md_verbatim": "| TE | Trial Elements | Trial Design | One record per planned Element | Tabulation | STUDYID, ETCD | te.xpt |", "score": 0.3408, "match_basis": "verbatim_token+chapter_route:ch03"}], "candidate_count": 5, "zero_candidate": false}
{"pdf_atom_id": "sv20_p0016_a003", "pdf_atom_type": "TABLE_ROW", "pdf_source": "SDTM_v2.0", "pdf_page": 16, "pdf_parent_section": "§3.1.2 The Events Observation Class", "pdf_verbatim": "| 11 | --HLGTCD | High Level Group Term Code | Num | | Variable Qualifier | --HLGT | Not in nonclinical trials | C117046 | The high-level group term code from the primary hierarchy assigned to the event from MedDRA. | | |", "figure_ref": null, "candidates": [{"md_atom_id": "md_ch03_a039", "md_file": "knowledge_base/chapters/ch03_submitting_data.md", "md_atom_type": "TABLE_ROW", "md_parent_section": "§3.2.1 [Dataset-level Metadata]", "md_verbatim": "| CE | Clinical Events | Events | One record per event per subject | Tabulation | STUDYID, USUBJID, CETERM, CESTDTC | ce.xpt |", "score": 0.36, "match_basis": "verbatim_token+chapter_route:ch03"}, {"md_atom_id": "md_ch03_a067", "md_file": "knowledge_base/chapters/ch03_submitting_data.md", "md_atom_type": "TABLE_ROW", "md_parent_section": "§3.2.1 [Dataset-level Metadata]", "md_verbatim": "| RS | Disease Response and Clin Classification | Findings | One record per response assessment or clinical classification assessment per time point per visit per subject per assessor per medical evaluator | Tabulation | STUDYID, USUBJID, RSTESTCD, VISITNUM, RSTPTREF, RSEVAL, RSPTPNUM, RSEVALID | rs.xpt |", "score": 0.3494, "match_basis": "verbatim_token+chapter_route:ch03"}, {"md_atom_id": "md_ch03_a078", "md_file": "knowledge_base/chapters/ch03_submitting_data.md", "md_atom_type": "TABLE_ROW", "md_parent_section": "§3.2.1 [Dataset-level Metadata]", "md_verbatim": "| TE | Trial Elements | Trial Design | One record per planned Element | Tabulation | STUDYID, ETCD | te.xpt |", "score": 0.3453, "match_basis": "verbatim_token+chapter_route:ch03"}, {"md_atom_id": "md_ch03_a079", "md_file": "knowledge_base/chapters/ch03_submitting_data.md", "md_atom_type": "TABLE_ROW", "md_parent_section": "§3.2.1 [Dataset-level Metadata]", "md_verbatim": "| TI | Trial Inclusion/Exclusion Criteria | Trial Design | One record per I/E criterion | Tabulation | STUDYID, IETESTCD | ti.xpt |", "score": 0.3425, "match_basis": "verbatim_token+chapter_route:ch03"}, {"md_atom_id": "md_ch03_a081", "md_file": "knowledge_base/chapters/ch03_submitting_data.md", "md_atom_type": "TABLE_ROW", "md_parent_section": "§3.2.1 [Dataset-level Metadata]", "md_verbatim": "| TS | Trial Summary | Trial Design | One record per trial summary parameter value | Tabulation | STUDYID, TSPARMCD, TSSEQ | ts.xpt |", "score": 0.3414, "match_basis": "verbatim_token+chapter_route:ch03"}], "candidate_count": 5, "zero_candidate": false}
{"pdf_atom_id": "sv20_p0016_a004", "pdf_atom_type": "TABLE_ROW", "pdf_source": "SDTM_v2.0", "pdf_page": 16, "pdf_parent_section": "§3.1.2 The Events Observation Class", "pdf_verbatim": "| 12 | --CAT | Category | Char | | Grouping Qualifier | | | C25372 | A grouping or classification of the topic of the finding, event, or intervention. | | |", "figure_ref": null, "candidates": [{"md_atom_id": "md_ch03_a074", "md_file": "knowledge_base/chapters/ch03_submitting_data.md", "md_atom_type": "TABLE_ROW", "md_parent_section": "§3.2.1 [Dataset-level Metadata]", "md_verbatim": "| FA | Findings About Events or Interventions | Findings About | One record per finding, per object, per time point, per visit per subject | Tabulation | STUDYID, USUBJID, FATESTCD, FAOBJ, VISITNUM, FATPTREF, FATPTNUM | fa.xpt |", "score": 0.4009, "match_basis": "verbatim_token+chapter_route:ch03"}, {"md_atom_id": "md_ch03_a071", "md_file": "knowledge_base/chapters/ch03_submitting_data.md", "md_atom_type": "TABLE_ROW", "md_parent_section": "§3.2.1 [Dataset-level Metadata]", "md_verbatim": "| TU | Tumor/Lesion Identification | Findings | One record per identified tumor per subject per assessor | Tabulation | STUDYID, USUBJID, TUEVALID, TULNKID | tu.xpt |", "score": 0.399, "match_basis": "verbatim_token+chapter_route:ch03"}, {"md_atom_id": "md_ch03_a067", "md_file": "knowledge_base/chapters/ch03_submitting_data.md", "md_atom_type": "TABLE_ROW", "md_parent_section": "§3.2.1 [Dataset-level Metadata]", "md_verbatim": "| RS | Disease Response and Clin Classification | Findings | One record per response assessment or clinical classification assessment per time point per visit per subject per assessor per medical evaluator | Tabulation | STUDYID, USUBJID, RSTESTCD, VISITNUM, RSTPTREF, RSEVAL, RSPTPNUM, RSEVALID | rs.xpt |", "score": 0.3845, "match_basis": "verbatim_token+chapter_route:ch03"}, {"md_atom_id": "md_ch03_a044", "md_file": "knowledge_base/chapters/ch03_submitting_data.md", "md_atom_type": "TABLE_ROW", "md_parent_section": "§3.2.1 [Dataset-level Metadata]", "md_verbatim": "| BS | Biospecimen Findings | Findings | One record per measurement per biospecimen identifier per subject | Tabulation | STUDYID, USUBJID, BSREFID, BSTESTCD | bs.xpt |", "score": 0.3722, "match_basis": "verbatim_token+chapter_route:ch03"}, {"md_atom_id": "md_ch03_a031", "md_file": "knowledge_base/chapters/ch03_submitting_data.md", "md_atom_type": "TABLE_ROW", "md_parent_section": "§3.2.1 [Dataset-level Metadata]", "md_verbatim": "| CM | Concomitant/Prior Medications | Interventions | One record per recorded intervention occurrence or constant-dosing interval per subject | Tabulation | STUDYID, USUBJID, CMTRT, CMSTDTC | cm.xpt |", "score": 0.3712, "match_basis": "verbatim_token+chapter_route:ch03"}], "candidate_count": 5, "zero_candidate": false}
{"pdf_atom_id": "sv20_p0016_a005", "pdf_atom_type": "TABLE_ROW", "pdf_source": "SDTM_v2.0", "pdf_page": 16, "pdf_parent_section": "§3.1.2 The Events Observation Class", "pdf_verbatim": "| 13 | --SCAT | Subcategory | Char | | Grouping Qualifier | | | | A further grouping or classification of the category for the topic of the finding, event, or intervention. | The category is in --CAT. | |", "figure_ref": null, "candidates": [{"md_atom_id": "md_ch03_a074", "md_file": "knowledge_base/chapters/ch03_submitting_data.md", "md_atom_type": "TABLE_ROW", "md_parent_section": "§3.2.1 [Dataset-level Metadata]", "md_verbatim": "| FA | Findings About Events or Interventions | Findings About | One record per finding, per object, per time point, per visit per subject | Tabulation | STUDYID, USUBJID, FATESTCD, FAOBJ, VISITNUM, FATPTREF, FATPTNUM | fa.xpt |", "score": 0.4027, "match_basis": "verbatim_token+chapter_route:ch03"}, {"md_atom_id": "md_ch03_a071", "md_file": "knowledge_base/chapters/ch03_submitting_data.md", "md_atom_type": "TABLE_ROW", "md_parent_section": "§3.2.1 [Dataset-level Metadata]", "md_verbatim": "| TU | Tumor/Lesion Identification | Findings | One record per identified tumor per subject per assessor | Tabulation | STUDYID, USUBJID, TUEVALID, TULNKID | tu.xpt |", "score": 0.4009, "match_basis": "verbatim_token+chapter_route:ch03"}, {"md_atom_id": "md_ch03_a067", "md_file": "knowledge_base/chapters/ch03_submitting_data.md", "md_atom_type": "TABLE_ROW", "md_parent_section": "§3.2.1 [Dataset-level Metadata]", "md_verbatim": "| RS | Disease Response and Clin Classification | Findings | One record per response assessment or clinical classification assessment per time point per visit per subject per assessor per medical evaluator | Tabulation | STUDYID, USUBJID, RSTESTCD, VISITNUM, RSTPTREF, RSEVAL, RSPTPNUM, RSEVALID | rs.xpt |", "score": 0.3863, "match_basis": "verbatim_token+chapter_route:ch03"}, {"md_atom_id": "md_ch03_a044", "md_file": "knowledge_base/chapters/ch03_submitting_data.md", "md_atom_type": "TABLE_ROW", "md_parent_section": "§3.2.1 [Dataset-level Metadata]", "md_verbatim": "| BS | Biospecimen Findings | Findings | One record per measurement per biospecimen identifier per subject | Tabulation | STUDYID, USUBJID, BSREFID, BSTESTCD | bs.xpt |", "score": 0.375, "match_basis": "verbatim_token+chapter_route:ch03"}, {"md_atom_id": "md_ch03_a086", "md_file": "knowledge_base/chapters/ch03_submitting_data.md", "md_atom_type": "TABLE_ROW", "md_parent_section": "§3.2.1 [Dataset-level Metadata]", "md_verbatim": "| SUPP-- | Supplemental Qualifiers for [domain name] | Relationship | One record per supplemental qualifier per related parent domain record(s) | Tabulation | STUDYID, RDOMAIN, USUBJID, IDVAR, IDVARVAL, QNAM | supp--.xpt |", "score": 0.375, "match_basis": "verbatim_token+chapter_route:ch03"}], "candidate_count": 5, "zero_candidate": false}
{"pdf_atom_id": "sv20_p0016_a006", "pdf_atom_type": "TABLE_ROW", "pdf_source": "SDTM_v2.0", "pdf_page": 16, "pdf_parent_section": "§3.1.2 The Events Observation Class", "pdf_verbatim": "| 14 | --PRESP | Pre-Specified | Char | | Variable Qualifier | --TERM | | C82510 | An indication that the event or intervention was prospectively stated or detailed on the CRF. | Value is \"Y\" for prespecified events, null for spontaneously reported events. | |", "figure_ref": null, "candidates": [{"md_atom_id": "md_ch03_a033", "md_file": "knowledge_base/chapters/ch03_submitting_data.md", "md_atom_type": "TABLE_ROW", "md_parent_section": "§3.2.1 [Dataset-level Metadata]", "md_verbatim": "| EX | Exposure | Interventions | One record per protocol-specified study treatment, constant-dosing interval, per subject | Tabulation | STUDYID, USUBJID, EXTRT, EXSTDTC | ex.xpt |", "score": 0.392, "match_basis": "verbatim_token+chapter_route:ch03"}, {"md_atom_id": "md_ch03_a036", "md_file": "knowledge_base/chapters/ch03_submitting_data.md", "md_atom_type": "TABLE_ROW", "md_parent_section": "§3.2.1 [Dataset-level Metadata]", "md_verbatim": "| SU | Substance Use | Interventions | One record per substance type per reported occurrence per subject | Tabulation | STUDYID, USUBJID, SUTRT, SUSTDTC | su.xpt |", "score": 0.3863, "match_basis": "verbatim_token+chapter_route:ch03"}, {"md_atom_id": "md_ch03_a032", "md_file": "knowledge_base/chapters/ch03_submitting_data.md", "md_atom_type": "TABLE_ROW", "md_parent_section": "§3.2.1 [Dataset-level Metadata]", "md_verbatim": "| EC | Exposure as Collected | Interventions | One record per protocol-specified study treatment, collected-dosing interval, per subject, per mood | Tabulation | STUDYID, USUBJID, ECTRT, ECSTDTC, ECMOOD | ec.xpt |", "score": 0.3857, "match_basis": "verbatim_token+chapter_route:ch03"}, {"md_atom_id": "md_ch03_a038", "md_file": "knowledge_base/chapters/ch03_submitting_data.md", "md_atom_type": "TABLE_ROW", "md_parent_section": "§3.2.1 [Dataset-level Metadata]", "md_verbatim": "| BE | Biospecimen Events | Events | One record per instance per biospecimen event per biospecimen identifier per subject | Tabulation | STUDYID, USUBJID, BEREFID, BETERM, BESTDTC | be.xpt |", "score": 0.3857, "match_basis": "verbatim_token+chapter_route:ch03"}, {"md_atom_id": "md_ch03_a086", "md_file": "knowledge_base/chapters/ch03_submitting_data.md", "md_atom_type": "TABLE_ROW", "md_parent_section": "§3.2.1 [Dataset-level Metadata]", "md_verbatim": "| SUPP-- | Supplemental Qualifiers for [domain name] | Relationship | One record per supplemental qualifier per related parent domain record(s) | Tabulation | STUDYID, RDOMAIN, USUBJID, IDVAR, IDVARVAL, QNAM | supp--.xpt |", "score": 0.3708, "match_basis": "verbatim_token+chapter_route:ch03"}], "candidate_count": 5, "zero_candidate": false}
{"pdf_atom_id": "sv20_p0016_a007", "pdf_atom_type": "TABLE_ROW", "pdf_source": "SDTM_v2.0", "pdf_page": 16, "pdf_parent_section": "§3.1.2 The Events Observation Class", "pdf_verbatim": "| 15 | --OCCUR | Occurrence Indicator | Char | | Record Qualifier | | Not in AE domain | C171000 | An indication as to whether a prespecified event or intervention has occurred. | | |", "figure_ref": null, "candidates": [{"md_atom_id": "md_ch03_a035", "md_file": "knowledge_base/chapters/ch03_submitting_data.md", "md_atom_type": "TABLE_ROW", "md_parent_section": "§3.2.1 [Dataset-level Metadata]", "md_verbatim": "| PR | Procedures | Interventions | One record per recorded procedure per occurrence per subject | Tabulation | STUDYID, USUBJID, PRTRT, PRSTDTC | pr.xpt |", "score": 0.4385, "match_basis": "verbatim_token+chapter_route:ch03"}, {"md_atom_id": "md_ch03_a031", "md_file": "knowledge_base/chapters/ch03_submitting_data.md", "md_atom_type": "TABLE_ROW", "md_parent_section": "§3.2.1 [Dataset-level Metadata]", "md_verbatim": "| CM | Concomitant/Prior Medications | Interventions | One record per recorded intervention occurrence or constant-dosing interval per subject | Tabulation | STUDYID, USUBJID, CMTRT, CMSTDTC | cm.xpt |", "score": 0.4311, "match_basis": "verbatim_token+chapter_route:ch03"}, {"md_atom_id": "md_ch03_a030", "md_file": "knowledge_base/chapters/ch03_submitting_data.md", "md_atom_type": "TABLE_ROW", "md_parent_section": "§3.2.1 [Dataset-level Metadata]", "md_verbatim": "| AG | Procedure Agents | Interventions | One record per recorded intervention occurrence per subject | Tabulation | STUDYID, USUBJID, AGTRT, AGSTDTC | ag.xpt |", "score": 0.429, "match_basis": "verbatim_token+chapter_route:ch03"}, {"md_atom_id": "md_ch03_a036", "md_file": "knowledge_base/chapters/ch03_submitting_data.md", "md_atom_type": "TABLE_ROW", "md_parent_section": "§3.2.1 [Dataset-level Metadata]", "md_verbatim": "| SU | Substance Use | Interventions | One record per substance type per reported occurrence per subject | Tabulation | STUDYID, USUBJID, SUTRT, SUSTDTC | su.xpt |", "score": 0.4266, "match_basis": "verbatim_token+chapter_route:ch03"}, {"md_atom_id": "md_ch03_a034", "md_file": "knowledge_base/chapters/ch03_submitting_data.md", "md_atom_type": "TABLE_ROW", "md_parent_section": "§3.2.1 [Dataset-level Metadata]", "md_verbatim": "| ML | Meal Data | Interventions | One record per food product occurrence or constant intake interval per subject | Tabulation | STUDYID, USUBJID, MLTRT, MLSTDTC | ml.xpt |", "score": 0.419, "match_basis": "verbatim_token+chapter_route:ch03"}], "candidate_count": 5, "zero_candidate": false}
{"pdf_atom_id": "sv20_p0016_a008", "pdf_atom_type": "TABLE_ROW", "pdf_source": "SDTM_v2.0", "pdf_page": 16, "pdf_parent_section": "§3.1.2 The Events Observation Class", "pdf_verbatim": "| 16 | --REASOC | Reason for Occur Value | Char | | Record Qualifier | | Not in AE domain | | | --REASOC is the reason the event did or did not occur, according to the value in --OCCUR. | |", "figure_ref": null, "candidates": [{"md_atom_id": "md_ch03_a086", "md_file": "knowledge_base/chapters/ch03_submitting_data.md", "md_atom_type": "TABLE_ROW", "md_parent_section": "§3.2.1 [Dataset-level Metadata]", "md_verbatim": "| SUPP-- | Supplemental Qualifiers for [domain name] | Relationship | One record per supplemental qualifier per related parent domain record(s) | Tabulation | STUDYID, RDOMAIN, USUBJID, IDVAR, IDVARVAL, QNAM | supp--.xpt |", "score": 0.4187, "match_basis": "verbatim_token+chapter_route:ch03"}, {"md_atom_id": "md_ch03_a071", "md_file": "knowledge_base/chapters/ch03_submitting_data.md", "md_atom_type": "TABLE_ROW", "md_parent_section": "§3.2.1 [Dataset-level Metadata]", "md_verbatim": "| TU | Tumor/Lesion Identification | Findings | One record per identified tumor per subject per assessor | Tabulation | STUDYID, USUBJID, TUEVALID, TULNKID | tu.xpt |", "score": 0.368, "match_basis": "verbatim_token+chapter_route:ch03"}, {"md_atom_id": "md_ch03_a044", "md_file": "knowledge_base/chapters/ch03_submitting_data.md", "md_atom_type": "TABLE_ROW", "md_parent_section": "§3.2.1 [Dataset-level Metadata]", "md_verbatim": "| BS | Biospecimen Findings | Findings | One record per measurement per biospecimen identifier per subject | Tabulation | STUDYID, USUBJID, BSREFID, BSTESTCD | bs.xpt |", "score": 0.3673, "match_basis": "verbatim_token+chapter_route:ch03"}, {"md_atom_id": "md_ch03_a083", "md_file": "knowledge_base/chapters/ch03_submitting_data.md", "md_atom_type": "TABLE_ROW", "md_parent_section": "§3.2.1 [Dataset-level Metadata]", "md_verbatim": "| RELREC | Related Records | Relationship | One record per related record, group of records or dataset | Tabulation | STUDYID, RDOMAIN, USUBJID, IDVAR, IDVARVAL, RELID | relrec.xpt |", "score": 0.3614, "match_basis": "verbatim_token+chapter_route:ch03"}, {"md_atom_id": "md_ch03_a038", "md_file": "knowledge_base/chapters/ch03_submitting_data.md", "md_atom_type": "TABLE_ROW", "md_parent_section": "§3.2.1 [Dataset-level Metadata]", "md_verbatim": "| BE | Biospecimen Events | Events | One record per instance per biospecimen event per biospecimen identifier per subject | Tabulation | STUDYID, USUBJID, BEREFID, BETERM, BESTDTC | be.xpt |", "score": 0.3612, "match_basis": "verbatim_token+chapter_route:ch03"}], "candidate_count": 5, "zero_candidate": false}
{"pdf_atom_id": "sv20_p0016_a009", "pdf_atom_type": "TABLE_ROW", "pdf_source": "SDTM_v2.0", "pdf_page": 16, "pdf_parent_section": "§3.1.2 The Events Observation Class", "pdf_verbatim": "| 17 | --STAT | Completion Status | Char | | Record Qualifier | | Not in AE domain | | | Used to indicate when a question about the occurrence of a prespecified event was not answered. Should be null or have a value of \"NOT DONE\". | |", "figure_ref": null, "candidates": [{"md_atom_id": "md_ch03_a086", "md_file": "knowledge_base/chapters/ch03_submitting_data.md", "md_atom_type": "TABLE_ROW", "md_parent_section": "§3.2.1 [Dataset-level Metadata]", "md_verbatim": "| SUPP-- | Supplemental Qualifiers for [domain name] | Relationship | One record per supplemental qualifier per related parent domain record(s) | Tabulation | STUDYID, RDOMAIN, USUBJID, IDVAR, IDVARVAL, QNAM | supp--.xpt |", "score": 0.4038, "match_basis": "verbatim_token+chapter_route:ch03"}, {"md_atom_id": "md_ch03_a031", "md_file": "knowledge_base/chapters/ch03_submitting_data.md", "md_atom_type": "TABLE_ROW", "md_parent_section": "§3.2.1 [Dataset-level Metadata]", "md_verbatim": "| CM | Concomitant/Prior Medications | Interventions | One record per recorded intervention occurrence or constant-dosing interval per subject | Tabulation | STUDYID, USUBJID, CMTRT, CMSTDTC | cm.xpt |", "score": 0.3958, "match_basis": "verbatim_token+chapter_route:ch03"}, {"md_atom_id": "md_ch03_a038", "md_file": "knowledge_base/chapters/ch03_submitting_data.md", "md_atom_type": "TABLE_ROW", "md_parent_section": "§3.2.1 [Dataset-level Metadata]", "md_verbatim": "| BE | Biospecimen Events | Events | One record per instance per biospecimen event per biospecimen identifier per subject | Tabulation | STUDYID, USUBJID, BEREFID, BETERM, BESTDTC | be.xpt |", "score": 0.3889, "match_basis": "verbatim_token+chapter_route:ch03"}, {"md_atom_id": "md_ch03_a036", "md_file": "knowledge_base/chapters/ch03_submitting_data.md", "md_atom_type": "TABLE_ROW", "md_parent_section": "§3.2.1 [Dataset-level Metadata]", "md_verbatim": "| SU | Substance Use | Interventions | One record per substance type per reported occurrence per subject | Tabulation | STUDYID, USUBJID, SUTRT, SUSTDTC | su.xpt |", "score": 0.3844, "match_basis": "verbatim_token+chapter_route:ch03"}, {"md_atom_id": "md_ch03_a035", "md_file": "knowledge_base/chapters/ch03_submitting_data.md", "md_atom_type": "TABLE_ROW", "md_parent_section": "§3.2.1 [Dataset-level Metadata]", "md_verbatim": "| PR | Procedures | Interventions | One record per recorded procedure per occurrence per subject | Tabulation | STUDYID, USUBJID, PRTRT, PRSTDTC | pr.xpt |", "score": 0.3818, "match_basis": "verbatim_token+chapter_route:ch03"}], "candidate_count": 5, "zero_candidate": false}
{"pdf_atom_id": "sv20_p0016_a010", "pdf_atom_type": "TABLE_ROW", "pdf_source": "SDTM_v2.0", "pdf_page": 16, "pdf_parent_section": "§3.1.2 The Events Observation Class", "pdf_verbatim": "| 18 | --REASND | Reason Not Done | Char | | Record Qualifier | | Not in AE domain | C82556 | The explanation for why requested information was not available. | Used in conjunction with --STAT when its value is \"NOT DONE\". | |", "figure_ref": null, "candidates": [{"md_atom_id": "md_ch03_a086", "md_file": "knowledge_base/chapters/ch03_submitting_data.md", "md_atom_type": "TABLE_ROW", "md_parent_section": "§3.2.1 [Dataset-level Metadata]", "md_verbatim": "| SUPP-- | Supplemental Qualifiers for [domain name] | Relationship | One record per supplemental qualifier per related parent domain record(s) | Tabulation | STUDYID, RDOMAIN, USUBJID, IDVAR, IDVARVAL, QNAM | supp--.xpt |", "score": 0.4031, "match_basis": "verbatim_token+chapter_route:ch03"}, {"md_atom_id": "md_ch03_a083", "md_file": "knowledge_base/chapters/ch03_submitting_data.md", "md_atom_type": "TABLE_ROW", "md_parent_section": "§3.2.1 [Dataset-level Metadata]", "md_verbatim": "| RELREC | Related Records | Relationship | One record per related record, group of records or dataset | Tabulation | STUDYID, RDOMAIN, USUBJID, IDVAR, IDVARVAL, RELID | relrec.xpt |", "score": 0.3677, "match_basis": "verbatim_token+chapter_route:ch03"}, {"md_atom_id": "md_ch03_a066", "md_file": "knowledge_base/chapters/ch03_submitting_data.md", "md_atom_type": "TABLE_ROW", "md_parent_section": "§3.2.1 [Dataset-level Metadata]", "md_verbatim": "| RP | Reproductive System Findings | Findings | One record per finding or result per time point per visit per subject | Tabulation | STUDYID, DOMAIN, USUBJID, RPTESTCD, VISITNUM | rp.xpt |", "score": 0.3647, "match_basis": "verbatim_token+chapter_route:ch03"}, {"md_atom_id": "md_ch03_a044", "md_file": "knowledge_base/chapters/ch03_submitting_data.md", "md_atom_type": "TABLE_ROW", "md_parent_section": "§3.2.1 [Dataset-level Metadata]", "md_verbatim": "| BS | Biospecimen Findings | Findings | One record per measurement per biospecimen identifier per subject | Tabulation | STUDYID, USUBJID, BSREFID, BSTESTCD | bs.xpt |", "score": 0.3618, "match_basis": "verbatim_token+chapter_route:ch03"}, {"md_atom_id": "md_ch03_a082", "md_file": "knowledge_base/chapters/ch03_submitting_data.md", "md_atom_type": "TABLE_ROW", "md_parent_section": "§3.2.1 [Dataset-level Metadata]", "md_verbatim": "| TV | Trial Visits | Trial Design | One record per planned Visit per Arm | Tabulation | STUDYID, ARM, VISIT | tv.xpt |", "score": 0.3617, "match_basis": "verbatim_token+chapter_route:ch03"}], "candidate_count": 5, "zero_candidate": false}
{"pdf_atom_id": "sv20_p0016_a011", "pdf_atom_type": "TABLE_ROW", "pdf_source": "SDTM_v2.0", "pdf_page": 16, "pdf_parent_section": "§3.1.2 The Events Observation Class", "pdf_verbatim": "| 19 | --BODSYS | Body System or Organ Class | Char | | Record Qualifier | | | C170986 | A standardized or dictionary-derived name for the body system or organ class. | Body system or system organ class assigned for analysis from a standard hierarchy (e.g., MedDRA) associated with an event. | \"GASTROINTESTINAL DISORDERS\" |", "figure_ref": null, "candidates": [{"md_atom_id": "md_ch03_a086", "md_file": "knowledge_base/chapters/ch03_submitting_data.md", "md_atom_type": "TABLE_ROW", "md_parent_section": "§3.2.1 [Dataset-level Metadata]", "md_verbatim": "| SUPP-- | Supplemental Qualifiers for [domain name] | Relationship | One record per supplemental qualifier per related parent domain record(s) | Tabulation | STUDYID, RDOMAIN, USUBJID, IDVAR, IDVARVAL, QNAM | supp--.xpt |", "score": 0.3745, "match_basis": "verbatim_token+chapter_route:ch03"}, {"md_atom_id": "md_ch03_a067", "md_file": "knowledge_base/chapters/ch03_submitting_data.md", "md_atom_type": "TABLE_ROW", "md_parent_section": "§3.2.1 [Dataset-level Metadata]", "md_verbatim": "| RS | Disease Response and Clin Classification | Findings | One record per response assessment or clinical classification assessment per time point per visit per subject per assessor per medical evaluator | Tabulation | STUDYID, USUBJID, RSTESTCD, VISITNUM, RSTPTREF, RSEVAL, RSPTPNUM, RSEVALID | rs.xpt |", "score": 0.3727, "match_basis": "verbatim_token+chapter_route:ch03"}, {"md_atom_id": "md_ch03_a077", "md_file": "knowledge_base/chapters/ch03_submitting_data.md", "md_atom_type": "TABLE_ROW", "md_parent_section": "§3.2.1 [Dataset-level Metadata]", "md_verbatim": "| TD | Trial Disease Assessments | Trial Design | One record per planned constant assessment period | Tabulation | STUDYID, TDORDER | td.xpt |", "score": 0.3662, "match_basis": "verbatim_token+chapter_route:ch03"}, {"md_atom_id": "md_ch03_a062", "md_file": "knowledge_base/chapters/ch03_submitting_data.md", "md_atom_type": "TABLE_ROW", "md_parent_section": "§3.2.1 [Dataset-level Metadata]", "md_verbatim": "| PE | Physical Examination | Findings | One record per body system or abnormality per visit per subject | Tabulation | STUDYID, USUBJID, PETESTCD, VISITNUM | pe.xpt |", "score": 0.3607, "match_basis": "verbatim_token+chapter_route:ch03"}, {"md_atom_id": "md_ch03_a072", "md_file": "knowledge_base/chapters/ch03_submitting_data.md", "md_atom_type": "TABLE_ROW", "md_parent_section": "§3.2.1 [Dataset-level Metadata]", "md_verbatim": "| UR | Urinary System Findings | Findings | One record per finding per location per visit per subject | Tabulation | STUDYID, USUBJID, VISITNUM, URTESTCD, URLOC, URLAT, URDIR | ur.xpt |", "score": 0.36, "match_basis": "verbatim_token+chapter_route:ch03"}], "candidate_count": 5, "zero_candidate": false}
{"pdf_atom_id": "sv20_p0016_a012", "pdf_atom_type": "TABLE_ROW", "pdf_source": "SDTM_v2.0", "pdf_page": 16, "pdf_parent_section": "§3.1.2 The Events Observation Class", "pdf_verbatim": "| 20 | --BDSYCD | Body System or Organ Class Code | Num | | Variable Qualifier | --BODSYS | Not in nonclinical trials | C170985 | A standardized or dictionary-derived short sequence of characters used to represent the body system or organ class. | MedDRA System Organ Class code corresponding to --BODSYS assigned for analysis. | |", "figure_ref": null, "candidates": [{"md_atom_id": "md_ch03_a067", "md_file": "knowledge_base/chapters/ch03_submitting_data.md", "md_atom_type": "TABLE_ROW", "md_parent_section": "§3.2.1 [Dataset-level Metadata]", "md_verbatim": "| RS | Disease Response and Clin Classification | Findings | One record per response assessment or clinical classification assessment per time point per visit per subject per assessor per medical evaluator | Tabulation | STUDYID, USUBJID, RSTESTCD, VISITNUM, RSTPTREF, RSEVAL, RSPTPNUM, RSEVALID | rs.xpt |", "score": 0.3804, "match_basis": "verbatim_token+chapter_route:ch03"}, {"md_atom_id": "md_ch03_a061", "md_file": "knowledge_base/chapters/ch03_submitting_data.md", "md_atom_type": "TABLE_ROW", "md_parent_section": "§3.2.1 [Dataset-level Metadata]", "md_verbatim": "| PC | Pharmacokinetics Concentrations | Findings | One record per sample characteristic or time-point concentration per reference time point or per analyte per subject | Tabulation | STUDYID, USUBJID, PCTESTCD, VISITNUM, PCTPTREF, PCTPTNUM | pc.xpt |", "score": 0.3635, "match_basis": "verbatim_token+chapter_route:ch03"}, {"md_atom_id": "md_ch03_a062", "md_file": "knowledge_base/chapters/ch03_submitting_data.md", "md_atom_type": "TABLE_ROW", "md_parent_section": "§3.2.1 [Dataset-level Metadata]", "md_verbatim": "| PE | Physical Examination | Findings | One record per body system or abnormality per visit per subject | Tabulation | STUDYID, USUBJID, PETESTCD, VISITNUM | pe.xpt |", "score": 0.3557, "match_basis": "verbatim_token+chapter_route:ch03"}, {"md_atom_id": "md_ch03_a087", "md_file": "knowledge_base/chapters/ch03_submitting_data.md", "md_atom_type": "TABLE_ROW", "md_parent_section": "§3.2.1 [Dataset-level Metadata]", "md_verbatim": "| OI | Non-host Organism Identifiers | Study Reference | One record per taxon per non-host organism | Tabulation | NHOID, OISEQ | oi.xpt |", "score": 0.3549, "match_basis": "verbatim_token+chapter_route:ch03"}, {"md_atom_id": "md_ch03_a068", "md_file": "knowledge_base/chapters/ch03_submitting_data.md", "md_atom_type": "TABLE_ROW", "md_parent_section": "§3.2.1 [Dataset-level Metadata]", "md_verbatim": "| SC | Subject Characteristics | Findings | One record per characteristic per visit per subject. | Tabulation | STUDYID, USUBJID, SCTESTCD, VISITNUM | sc.xpt |", "score": 0.3529, "match_basis": "verbatim_token+chapter_route:ch03"}], "candidate_count": 5, "zero_candidate": false}
{"pdf_atom_id": "sv20_p0016_a013", "pdf_atom_type": "TABLE_ROW", "pdf_source": "SDTM_v2.0", "pdf_page": 16, "pdf_parent_section": "§3.1.2 The Events Observation Class", "pdf_verbatim": "| 21 | --SOC | Primary System Organ Class | Char | | Variable Qualifier | --TERM | Not in nonclinical trials | C71888 | The system organ class from the primary hierarchy assigned in the MedDRA dictionary. | | |", "figure_ref": null, "candidates": [{"md_atom_id": "md_ch03_a067", "md_file": "knowledge_base/chapters/ch03_submitting_data.md", "md_atom_type": "TABLE_ROW", "md_parent_section": "§3.2.1 [Dataset-level Metadata]", "md_verbatim": "| RS | Disease Response and Clin Classification | Findings | One record per response assessment or clinical classification assessment per time point per visit per subject per assessor per medical evaluator | Tabulation | STUDYID, USUBJID, RSTESTCD, VISITNUM, RSTPTREF, RSEVAL, RSPTPNUM, RSEVALID | rs.xpt |", "score": 0.3607, "match_basis": "verbatim_token+chapter_route:ch03"}, {"md_atom_id": "md_ch03_a039", "md_file": "knowledge_base/chapters/ch03_submitting_data.md", "md_atom_type": "TABLE_ROW", "md_parent_section": "§3.2.1 [Dataset-level Metadata]", "md_verbatim": "| CE | Clinical Events | Events | One record per event per subject | Tabulation | STUDYID, USUBJID, CETERM, CESTDTC | ce.xpt |", "score": 0.3536, "match_basis": "verbatim_token+chapter_route:ch03"}, {"md_atom_id": "md_ch03_a081", "md_file": "knowledge_base/chapters/ch03_submitting_data.md", "md_atom_type": "TABLE_ROW", "md_parent_section": "§3.2.1 [Dataset-level Metadata]", "md_verbatim": "| TS | Trial Summary | Trial Design | One record per trial summary parameter value | Tabulation | STUDYID, TSPARMCD, TSSEQ | ts.xpt |", "score": 0.3522, "match_basis": "verbatim_token+chapter_route:ch03"}, {"md_atom_id": "md_ch03_a079", "md_file": "knowledge_base/chapters/ch03_submitting_data.md", "md_atom_type": "TABLE_ROW", "md_parent_section": "§3.2.1 [Dataset-level Metadata]", "md_verbatim": "| TI | Trial Inclusion/Exclusion Criteria | Trial Design | One record per I/E criterion | Tabulation | STUDYID, IETESTCD | ti.xpt |", "score": 0.3478, "match_basis": "verbatim_token+chapter_route:ch03"}, {"md_atom_id": "md_ch03_a082", "md_file": "knowledge_base/chapters/ch03_submitting_data.md", "md_atom_type": "TABLE_ROW", "md_parent_section": "§3.2.1 [Dataset-level Metadata]", "md_verbatim": "| TV | Trial Visits | Trial Design | One record per planned Visit per Arm | Tabulation | STUDYID, ARM, VISIT | tv.xpt |", "score": 0.3462, "match_basis": "verbatim_token+chapter_route:ch03"}], "candidate_count": 5, "zero_candidate": false}
{"pdf_atom_id": "sv20_p0017_a001", "pdf_atom_type": "TABLE_ROW", "pdf_source": "SDTM_v2.0", "pdf_page": 17, "pdf_parent_section": "§3.1.2 The Events Observation Class", "pdf_verbatim": "| 22 | --SOCCD | Primary System Organ Class Code | Num | | Variable Qualifier | --SOC | Not in nonclinical trials | C117059 | The system organ class code from the primary hierarchy assigned in the MedDRA dictionary. | | |", "figure_ref": null, "candidates": [{"md_atom_id": "md_ch03_a067", "md_file": "knowledge_base/chapters/ch03_submitting_data.md", "md_atom_type": "TABLE_ROW", "md_parent_section": "§3.2.1 [Dataset-level Metadata]", "md_verbatim": "| RS | Disease Response and Clin Classification | Findings | One record per response assessment or clinical classification assessment per time point per visit per subject per assessor per medical evaluator | Tabulation | STUDYID, USUBJID, RSTESTCD, VISITNUM, RSTPTREF, RSEVAL, RSPTPNUM, RSEVALID | rs.xpt |", "score": 0.3639, "match_basis": "verbatim_token+chapter_route:ch03"}, {"md_atom_id": "md_ch03_a081", "md_file": "knowledge_base/chapters/ch03_submitting_data.md", "md_atom_type": "TABLE_ROW", "md_parent_section": "§3.2.1 [Dataset-level Metadata]", "md_verbatim": "| TS | Trial Summary | Trial Design | One record per trial summary parameter value | Tabulation | STUDYID, TSPARMCD, TSSEQ | ts.xpt |", "score": 0.3458, "match_basis": "verbatim_token+chapter_route:ch03"}, {"md_atom_id": "md_ch03_a082", "md_file": "knowledge_base/chapters/ch03_submitting_data.md", "md_atom_type": "TABLE_ROW", "md_parent_section": "§3.2.1 [Dataset-level Metadata]", "md_verbatim": "| TV | Trial Visits | Trial Design | One record per planned Visit per Arm | Tabulation | STUDYID, ARM, VISIT | tv.xpt |", "score": 0.3453, "match_basis": "verbatim_token+chapter_route:ch03"}, {"md_atom_id": "md_ch03_a087", "md_file": "knowledge_base/chapters/ch03_submitting_data.md", "md_atom_type": "TABLE_ROW", "md_parent_section": "§3.2.1 [Dataset-level Metadata]", "md_verbatim": "| OI | Non-host Organism Identifiers | Study Reference | One record per taxon per non-host organism | Tabulation | NHOID, OISEQ | oi.xpt |", "score": 0.345, "match_basis": "verbatim_token+chapter_route:ch03"}, {"md_atom_id": "md_ch03_a086", "md_file": "knowledge_base/chapters/ch03_submitting_data.md", "md_atom_type": "TABLE_ROW", "md_parent_section": "§3.2.1 [Dataset-level Metadata]", "md_verbatim": "| SUPP-- | Supplemental Qualifiers for [domain name] | Relationship | One record per supplemental qualifier per related parent domain record(s) | Tabulation | STUDYID, RDOMAIN, USUBJID, IDVAR, IDVARVAL, QNAM | supp--.xpt |", "score": 0.3441, "match_basis": "verbatim_token+chapter_route:ch03"}], "candidate_count": 5, "zero_candidate": false}
{"pdf_atom_id": "sv20_p0017_a002", "pdf_atom_type": "TABLE_ROW", "pdf_source": "SDTM_v2.0", "pdf_page": 17, "pdf_parent_section": "§3.1.2 The Events Observation Class", "pdf_verbatim": "| 23 | --CNTMOD | Contact Mode | Char | | Record Qualifier | | | | | The way in which the event, visit, or contact was conducted. | \"IN PERSON\", \"TELEPHONE\", \"IVRS\" |", "figure_ref": null, "candidates": [{"md_atom_id": "md_ch03_a086", "md_file": "knowledge_base/chapters/ch03_submitting_data.md", "md_atom_type": "TABLE_ROW", "md_parent_section": "§3.2.1 [Dataset-level Metadata]", "md_verbatim": "| SUPP-- | Supplemental Qualifiers for [domain name] | Relationship | One record per supplemental qualifier per related parent domain record(s) | Tabulation | STUDYID, RDOMAIN, USUBJID, IDVAR, IDVARVAL, QNAM | supp--.xpt |", "score": 0.3962, "match_basis": "verbatim_token+chapter_route:ch03"}, {"md_atom_id": "md_ch03_a068", "md_file": "knowledge_base/chapters/ch03_submitting_data.md", "md_atom_type": "TABLE_ROW", "md_parent_section": "§3.2.1 [Dataset-level Metadata]", "md_verbatim": "| SC | Subject Characteristics | Findings | One record per characteristic per visit per subject. | Tabulation | STUDYID, USUBJID, SCTESTCD, VISITNUM | sc.xpt |", "score": 0.3788, "match_basis": "verbatim_token+chapter_route:ch03"}, {"md_atom_id": "md_ch03_a087", "md_file": "knowledge_base/chapters/ch03_submitting_data.md", "md_atom_type": "TABLE_ROW", "md_parent_section": "§3.2.1 [Dataset-level Metadata]", "md_verbatim": "| OI | Non-host Organism Identifiers | Study Reference | One record per taxon per non-host organism | Tabulation | NHOID, OISEQ | oi.xpt |", "score": 0.3695, "match_basis": "verbatim_token+chapter_route:ch03"}, {"md_atom_id": "md_ch03_a029", "md_file": "knowledge_base/chapters/ch03_submitting_data.md", "md_atom_type": "TABLE_ROW", "md_parent_section": "§3.2.1 [Dataset-level Metadata]", "md_verbatim": "| SV | Subject Visits | Special Purpose | One record per actual or planned visit per subject | Tabulation | STUDYID, USUBJID, SVTERM | sv.xpt |", "score": 0.3673, "match_basis": "verbatim_token+chapter_route:ch03"}, {"md_atom_id": "md_ch03_a037", "md_file": "knowledge_base/chapters/ch03_submitting_data.md", "md_atom_type": "TABLE_ROW", "md_parent_section": "§3.2.1 [Dataset-level Metadata]", "md_verbatim": "| AE | Adverse Events | Events | One record per adverse event per subject | Tabulation | STUDYID, USUBJID, AEDECOD, AESTDTC | ae.xpt |", "score": 0.3667, "match_basis": "verbatim_token+chapter_route:ch03"}], "candidate_count": 5, "zero_candidate": false}
{"pdf_atom_id": "sv20_p0017_a003", "pdf_atom_type": "TABLE_ROW", "pdf_source": "SDTM_v2.0", "pdf_page": 17, "pdf_parent_section": "§3.1.2 The Events Observation Class", "pdf_verbatim": "| 24 | --EPCHGI | Epi/Pandemic Related Change Indicator | Char | | Record Qualifier | | | | | Indicates whether the event was changed due to an epidemic or pandemic. Not the same as whether a medical condition was caused by an epidemic or pandemic. | |", "figure_ref": null, "candidates": [{"md_atom_id": "md_ch03_a086", "md_file": "knowledge_base/chapters/ch03_submitting_data.md", "md_atom_type": "TABLE_ROW", "md_parent_section": "§3.2.1 [Dataset-level Metadata]", "md_verbatim": "| SUPP-- | Supplemental Qualifiers for [domain name] | Relationship | One record per supplemental qualifier per related parent domain record(s) | Tabulation | STUDYID, RDOMAIN, USUBJID, IDVAR, IDVARVAL, QNAM | supp--.xpt |", "score": 0.4017, "match_basis": "verbatim_token+chapter_route:ch03"}, {"md_atom_id": "md_ch03_a043", "md_file": "knowledge_base/chapters/ch03_submitting_data.md", "md_atom_type": "TABLE_ROW", "md_parent_section": "§3.2.1 [Dataset-level Metadata]", "md_verbatim": "| MH | Medical History | Events | One record per medical history event per subject | Tabulation | STUDYID, USUBJID, MHDECOD | mh.xpt |", "score": 0.397, "match_basis": "verbatim_token+chapter_route:ch03"}, {"md_atom_id": "md_ch03_a084", "md_file": "knowledge_base/chapters/ch03_submitting_data.md", "md_atom_type": "TABLE_ROW", "md_parent_section": "§3.2.1 [Dataset-level Metadata]", "md_verbatim": "| RELSPEC | Related Specimens | Relationship | One record per specimen identifier per subject | Tabulation | STUDYID, USUBJID, REFID | relspec.xpt |", "score": 0.3881, "match_basis": "verbatim_token+chapter_route:ch03"}, {"md_atom_id": "md_ch03_a067", "md_file": "knowledge_base/chapters/ch03_submitting_data.md", "md_atom_type": "TABLE_ROW", "md_parent_section": "§3.2.1 [Dataset-level Metadata]", "md_verbatim": "| RS | Disease Response and Clin Classification | Findings | One record per response assessment or clinical classification assessment per time point per visit per subject per assessor per medical evaluator | Tabulation | STUDYID, USUBJID, RSTESTCD, VISITNUM, RSTPTREF, RSEVAL, RSPTPNUM, RSEVALID | rs.xpt |", "score": 0.3841, "match_basis": "verbatim_token+chapter_route:ch03"}, {"md_atom_id": "md_ch03_a071", "md_file": "knowledge_base/chapters/ch03_submitting_data.md", "md_atom_type": "TABLE_ROW", "md_parent_section": "§3.2.1 [Dataset-level Metadata]", "md_verbatim": "| TU | Tumor/Lesion Identification | Findings | One record per identified tumor per subject per assessor | Tabulation | STUDYID, USUBJID, TUEVALID, TULNKID | tu.xpt |", "score": 0.3793, "match_basis": "verbatim_token+chapter_route:ch03"}], "candidate_count": 5, "zero_candidate": false}
{"pdf_atom_id": "sv20_p0017_a004", "pdf_atom_type": "TABLE_ROW", "pdf_source": "SDTM_v2.0", "pdf_page": 17, "pdf_parent_section": "§3.1.2 The Events Observation Class", "pdf_verbatim": "| 25 | --LOC | Location of Event | Char | | Record Qualifier | | | | Describes anatomical location relevant for the event. | | \"ARM\" for skin rash |", "figure_ref": null, "candidates": [{"md_atom_id": "md_ch03_a086", "md_file": "knowledge_base/chapters/ch03_submitting_data.md", "md_atom_type": "TABLE_ROW", "md_parent_section": "§3.2.1 [Dataset-level Metadata]", "md_verbatim": "| SUPP-- | Supplemental Qualifiers for [domain name] | Relationship | One record per supplemental qualifier per related parent domain record(s) | Tabulation | STUDYID, RDOMAIN, USUBJID, IDVAR, IDVARVAL, QNAM | supp--.xpt |", "score": 0.4, "match_basis": "verbatim_token+chapter_route:ch03"}, {"md_atom_id": "md_ch03_a043", "md_file": "knowledge_base/chapters/ch03_submitting_data.md", "md_atom_type": "TABLE_ROW", "md_parent_section": "§3.2.1 [Dataset-level Metadata]", "md_verbatim": "| MH | Medical History | Events | One record per medical history event per subject | Tabulation | STUDYID, USUBJID, MHDECOD | mh.xpt |", "score": 0.3857, "match_basis": "verbatim_token+chapter_route:ch03"}, {"md_atom_id": "md_ch03_a039", "md_file": "knowledge_base/chapters/ch03_submitting_data.md", "md_atom_type": "TABLE_ROW", "md_parent_section": "§3.2.1 [Dataset-level Metadata]", "md_verbatim": "| CE | Clinical Events | Events | One record per event per subject | Tabulation | STUDYID, USUBJID, CETERM, CESTDTC | ce.xpt |", "score": 0.3847, "match_basis": "verbatim_token+chapter_route:ch03"}, {"md_atom_id": "md_ch03_a038", "md_file": "knowledge_base/chapters/ch03_submitting_data.md", "md_atom_type": "TABLE_ROW", "md_parent_section": "§3.2.1 [Dataset-level Metadata]", "md_verbatim": "| BE | Biospecimen Events | Events | One record per instance per biospecimen event per biospecimen identifier per subject | Tabulation | STUDYID, USUBJID, BEREFID, BETERM, BESTDTC | be.xpt |", "score": 0.3808, "match_basis": "verbatim_token+chapter_route:ch03"}, {"md_atom_id": "md_ch03_a071", "md_file": "knowledge_base/chapters/ch03_submitting_data.md", "md_atom_type": "TABLE_ROW", "md_parent_section": "§3.2.1 [Dataset-level Metadata]", "md_verbatim": "| TU | Tumor/Lesion Identification | Findings | One record per identified tumor per subject per assessor | Tabulation | STUDYID, USUBJID, TUEVALID, TULNKID | tu.xpt |", "score": 0.3808, "match_basis": "verbatim_token+chapter_route:ch03"}], "candidate_count": 5, "zero_candidate": false}
{"pdf_atom_id": "sv20_p0017_a005", "pdf_atom_type": "TABLE_ROW", "pdf_source": "SDTM_v2.0", "pdf_page": 17, "pdf_parent_section": "§3.1.2 The Events Observation Class", "pdf_verbatim": "| 26 | --LAT | Laterality | Char | | Variable Qualifier | --LOC | | | Qualifier for anatomical location, further detailing laterality. | | \"RIGHT\", \"LEFT\", \"BILATERAL\" |", "figure_ref": null, "candidates": [{"md_atom_id": "md_ch03_a086", "md_file": "knowledge_base/chapters/ch03_submitting_data.md", "md_atom_type": "TABLE_ROW", "md_parent_section": "§3.2.1 [Dataset-level Metadata]", "md_verbatim": "| SUPP-- | Supplemental Qualifiers for [domain name] | Relationship | One record per supplemental qualifier per related parent domain record(s) | Tabulation | STUDYID, RDOMAIN, USUBJID, IDVAR, IDVARVAL, QNAM | supp--.xpt |", "score": 0.3757, "match_basis": "verbatim_token+chapter_route:ch03"}, {"md_atom_id": "md_ch03_a058", "md_file": "knowledge_base/chapters/ch03_submitting_data.md", "md_atom_type": "TABLE_ROW", "md_parent_section": "§3.2.1 [Dataset-level Metadata]", "md_verbatim": "| MS | Microbiology Susceptibility | Findings | One record per microbiology susceptibility test (or other organism-related finding) per organism found in MB | Tabulation | STUDYID, USUBJID, MSTESTCD, VISITNUM, MSTPTREF, MSTPTNUM | ms.xpt |", "score": 0.36, "match_basis": "verbatim_token+chapter_route:ch03"}, {"md_atom_id": "md_ch03_a047", "md_file": "knowledge_base/chapters/ch03_submitting_data.md", "md_atom_type": "TABLE_ROW", "md_parent_section": "§3.2.1 [Dataset-level Metadata]", "md_verbatim": "| DA | Product Accountability | Findings | One record per product accountability finding per subject | Tabulation | STUDYID, USUBJID, DATESTCD, DADTC | da.xpt |", "score": 0.3571, "match_basis": "verbatim_token+chapter_route:ch03"}, {"md_atom_id": "md_ch03_a062", "md_file": "knowledge_base/chapters/ch03_submitting_data.md", "md_atom_type": "TABLE_ROW", "md_parent_section": "§3.2.1 [Dataset-level Metadata]", "md_verbatim": "| PE | Physical Examination | Findings | One record per body system or abnormality per visit per subject | Tabulation | STUDYID, USUBJID, PETESTCD, VISITNUM | pe.xpt |", "score": 0.3559, "match_basis": "verbatim_token+chapter_route:ch03"}, {"md_atom_id": "md_ch03_a048", "md_file": "knowledge_base/chapters/ch03_submitting_data.md", "md_atom_type": "TABLE_ROW", "md_parent_section": "§3.2.1 [Dataset-level Metadata]", "md_verbatim": "| DD | Death Details | Findings | One record per finding per subject | Tabulation | STUDYID, USUBJID, DDTESTCD, DDDTC | dd.xpt |", "score": 0.3557, "match_basis": "verbatim_token+chapter_route:ch03"}], "candidate_count": 5, "zero_candidate": false}
{"pdf_atom_id": "sv20_p0017_a006", "pdf_atom_type": "TABLE_ROW", "pdf_source": "SDTM_v2.0", "pdf_page": 17, "pdf_parent_section": "§3.1.2 The Events Observation Class", "pdf_verbatim": "| 27 | --DIR | Directionality | Char | | Variable Qualifier | --LOC | | | Qualifier for anatomical location, further detailing directionality. | | \"ANTERIOR\", \"LOWER\", \"PROXIMAL\" |", "figure_ref": null, "candidates": [{"md_atom_id": "md_ch03_a086", "md_file": "knowledge_base/chapters/ch03_submitting_data.md", "md_atom_type": "TABLE_ROW", "md_parent_section": "§3.2.1 [Dataset-level Metadata]", "md_verbatim": "| SUPP-- | Supplemental Qualifiers for [domain name] | Relationship | One record per supplemental qualifier per related parent domain record(s) | Tabulation | STUDYID, RDOMAIN, USUBJID, IDVAR, IDVARVAL, QNAM | supp--.xpt |", "score": 0.3639, "match_basis": "verbatim_token+chapter_route:ch03"}, {"md_atom_id": "md_ch03_a031", "md_file": "knowledge_base/chapters/ch03_submitting_data.md", "md_atom_type": "TABLE_ROW", "md_parent_section": "§3.2.1 [Dataset-level Metadata]", "md_verbatim": "| CM | Concomitant/Prior Medications | Interventions | One record per recorded intervention occurrence or constant-dosing interval per subject | Tabulation | STUDYID, USUBJID, CMTRT, CMSTDTC | cm.xpt |", "score": 0.3636, "match_basis": "verbatim_token+chapter_route:ch03"}, {"md_atom_id": "md_ch03_a062", "md_file": "knowledge_base/chapters/ch03_submitting_data.md", "md_atom_type": "TABLE_ROW", "md_parent_section": "§3.2.1 [Dataset-level Metadata]", "md_verbatim": "| PE | Physical Examination | Findings | One record per body system or abnormality per visit per subject | Tabulation | STUDYID, USUBJID, PETESTCD, VISITNUM | pe.xpt |", "score": 0.3619, "match_basis": "verbatim_token+chapter_route:ch03"}, {"md_atom_id": "md_ch03_a048", "md_file": "knowledge_base/chapters/ch03_submitting_data.md", "md_atom_type": "TABLE_ROW", "md_parent_section": "§3.2.1 [Dataset-level Metadata]", "md_verbatim": "| DD | Death Details | Findings | One record per finding per subject | Tabulation | STUDYID, USUBJID, DDTESTCD, DDDTC | dd.xpt |", "score": 0.3566, "match_basis": "verbatim_token+chapter_route:ch03"}, {"md_atom_id": "md_ch03_a072", "md_file": "knowledge_base/chapters/ch03_submitting_data.md", "md_atom_type": "TABLE_ROW", "md_parent_section": "§3.2.1 [Dataset-level Metadata]", "md_verbatim": "| UR | Urinary System Findings | Findings | One record per finding per location per visit per subject | Tabulation | STUDYID, USUBJID, VISITNUM, URTESTCD, URLOC, URLAT, URDIR | ur.xpt |", "score": 0.3555, "match_basis": "verbatim_token+chapter_route:ch03"}], "candidate_count": 5, "zero_candidate": false}
{"pdf_atom_id": "sv20_p0017_a007", "pdf_atom_type": "TABLE_ROW", "pdf_source": "SDTM_v2.0", "pdf_page": 17, "pdf_parent_section": "§3.1.2 The Events Observation Class", "pdf_verbatim": "| 28 | --PORTOT | Portion or Totality | Char | | Variable Qualifier | --LOC | | | Qualifier for anatomical location, further detailing the distribution (i.e., further detailing the distribution (i.e., arrangement of, apportioning of). | | \"ENTIRE\", \"SINGLE\", \"SEGMENT\", \"MANY\" |", "figure_ref": null, "candidates": [{"md_atom_id": "md_ch03_a086", "md_file": "knowledge_base/chapters/ch03_submitting_data.md", "md_atom_type": "TABLE_ROW", "md_parent_section": "§3.2.1 [Dataset-level Metadata]", "md_verbatim": "| SUPP-- | Supplemental Qualifiers for [domain name] | Relationship | One record per supplemental qualifier per related parent domain record(s) | Tabulation | STUDYID, RDOMAIN, USUBJID, IDVAR, IDVARVAL, QNAM | supp--.xpt |", "score": 0.3706, "match_basis": "verbatim_token+chapter_route:ch03"}, {"md_atom_id": "md_ch03_a071", "md_file": "knowledge_base/chapters/ch03_submitting_data.md", "md_atom_type": "TABLE_ROW", "md_parent_section": "§3.2.1 [Dataset-level Metadata]", "md_verbatim": "| TU | Tumor/Lesion Identification | Findings | One record per identified tumor per subject per assessor | Tabulation | STUDYID, USUBJID, TUEVALID, TULNKID | tu.xpt |", "score": 0.3471, "match_basis": "verbatim_token+chapter_route:ch03"}, {"md_atom_id": "md_ch03_a067", "md_file": "knowledge_base/chapters/ch03_submitting_data.md", "md_atom_type": "TABLE_ROW", "md_parent_section": "§3.2.1 [Dataset-level Metadata]", "md_verbatim": "| RS | Disease Response and Clin Classification | Findings | One record per response assessment or clinical classification assessment per time point per visit per subject per assessor per medical evaluator | Tabulation | STUDYID, USUBJID, RSTESTCD, VISITNUM, RSTPTREF, RSEVAL, RSPTPNUM, RSEVALID | rs.xpt |", "score": 0.3469, "match_basis": "verbatim_token+chapter_route:ch03"}, {"md_atom_id": "md_ch03_a044", "md_file": "knowledge_base/chapters/ch03_submitting_data.md", "md_atom_type": "TABLE_ROW", "md_parent_section": "§3.2.1 [Dataset-level Metadata]", "md_verbatim": "| BS | Biospecimen Findings | Findings | One record per measurement per biospecimen identifier per subject | Tabulation | STUDYID, USUBJID, BSREFID, BSTESTCD | bs.xpt |", "score": 0.3468, "match_basis": "verbatim_token+chapter_route:ch03"}, {"md_atom_id": "md_ch03_a078", "md_file": "knowledge_base/chapters/ch03_submitting_data.md", "md_atom_type": "TABLE_ROW", "md_parent_section": "§3.2.1 [Dataset-level Metadata]", "md_verbatim": "| TE | Trial Elements | Trial Design | One record per planned Element | Tabulation | STUDYID, ETCD | te.xpt |", "score": 0.3417, "match_basis": "verbatim_token+chapter_route:ch03"}], "candidate_count": 5, "zero_candidate": false}
{"pdf_atom_id": "sv20_p0017_a008", "pdf_atom_type": "TABLE_ROW", "pdf_source": "SDTM_v2.0", "pdf_page": 17, "pdf_parent_section": "§3.1.2 The Events Observation Class", "pdf_verbatim": "| 29 | --PARTY | Accountable Party | Char | | Record Qualifier | | Not in nonclinical trials | C117052 | The role of the individual or entity responsible for the receipt of the transferred object (e.g., device, specimen). | The party could be an individual (e.g., subject), an organization (e.g., sponsor), or a location that is a proxy for an individual or organization (e.g., site). It is usually a somewhat general term that is further identified in the --PRTYID variable. | |", "figure_ref": null, "candidates": [{"md_atom_id": "md_ch03_a084", "md_file": "knowledge_base/chapters/ch03_submitting_data.md", "md_atom_type": "TABLE_ROW", "md_parent_section": "§3.2.1 [Dataset-level Metadata]", "md_verbatim": "| RELSPEC | Related Specimens | Relationship | One record per specimen identifier per subject | Tabulation | STUDYID, USUBJID, REFID | relspec.xpt |", "score": 0.4023, "match_basis": "verbatim_token+chapter_route:ch03"}, {"md_atom_id": "md_ch03_a038", "md_file": "knowledge_base/chapters/ch03_submitting_data.md", "md_atom_type": "TABLE_ROW", "md_parent_section": "§3.2.1 [Dataset-level Metadata]", "md_verbatim": "| BE | Biospecimen Events | Events | One record per instance per biospecimen event per biospecimen identifier per subject | Tabulation | STUDYID, USUBJID, BEREFID, BETERM, BESTDTC | be.xpt |", "score": 0.3995, "match_basis": "verbatim_token+chapter_route:ch03"}, {"md_atom_id": "md_ch03_a044", "md_file": "knowledge_base/chapters/ch03_submitting_data.md", "md_atom_type": "TABLE_ROW", "md_parent_section": "§3.2.1 [Dataset-level Metadata]", "md_verbatim": "| BS | Biospecimen Findings | Findings | One record per measurement per biospecimen identifier per subject | Tabulation | STUDYID, USUBJID, BSREFID, BSTESTCD | bs.xpt |", "score": 0.3989, "match_basis": "verbatim_token+chapter_route:ch03"}, {"md_atom_id": "md_ch03_a067", "md_file": "knowledge_base/chapters/ch03_submitting_data.md", "md_atom_type": "TABLE_ROW", "md_parent_section": "§3.2.1 [Dataset-level Metadata]", "md_verbatim": "| RS | Disease Response and Clin Classification | Findings | One record per response assessment or clinical classification assessment per time point per visit per subject per assessor per medical evaluator | Tabulation | STUDYID, USUBJID, RSTESTCD, VISITNUM, RSTPTREF, RSEVAL, RSPTPNUM, RSEVALID | rs.xpt |", "score": 0.3964, "match_basis": "verbatim_token+chapter_route:ch03"}, {"md_atom_id": "md_ch03_a071", "md_file": "knowledge_base/chapters/ch03_submitting_data.md", "md_atom_type": "TABLE_ROW", "md_parent_section": "§3.2.1 [Dataset-level Metadata]", "md_verbatim": "| TU | Tumor/Lesion Identification | Findings | One record per identified tumor per subject per assessor | Tabulation | STUDYID, USUBJID, TUEVALID, TULNKID | tu.xpt |", "score": 0.3921, "match_basis": "verbatim_token+chapter_route:ch03"}], "candidate_count": 5, "zero_candidate": false}
{"pdf_atom_id": "sv20_p0017_a009", "pdf_atom_type": "TABLE_ROW", "pdf_source": "SDTM_v2.0", "pdf_page": 17, "pdf_parent_section": "§3.1.2 The Events Observation Class", "pdf_verbatim": "| 30 | --PRTYID | Identification of Accountable Party | Char | | Variable Qualifier | --PARTY | Not in nonclinical trials | C117054 | A sequence of characters used to uniquely identify the individual or entity responsible for the receipt of the transferred object (e.g., device, specimen). | Used in conjunction with --PARTY. | |", "figure_ref": null, "candidates": [{"md_atom_id": "md_ch03_a084", "md_file": "knowledge_base/chapters/ch03_submitting_data.md", "md_atom_type": "TABLE_ROW", "md_parent_section": "§3.2.1 [Dataset-level Metadata]", "md_verbatim": "| RELSPEC | Related Specimens | Relationship | One record per specimen identifier per subject | Tabulation | STUDYID, USUBJID, REFID | relspec.xpt |", "score": 0.3878, "match_basis": "verbatim_token+chapter_route:ch03"}, {"md_atom_id": "md_ch03_a038", "md_file": "knowledge_base/chapters/ch03_submitting_data.md", "md_atom_type": "TABLE_ROW", "md_parent_section": "§3.2.1 [Dataset-level Metadata]", "md_verbatim": "| BE | Biospecimen Events | Events | One record per instance per biospecimen event per biospecimen identifier per subject | Tabulation | STUDYID, USUBJID, BEREFID, BETERM, BESTDTC | be.xpt |", "score": 0.3857, "match_basis": "verbatim_token+chapter_route:ch03"}, {"md_atom_id": "md_ch03_a044", "md_file": "knowledge_base/chapters/ch03_submitting_data.md", "md_atom_type": "TABLE_ROW", "md_parent_section": "§3.2.1 [Dataset-level Metadata]", "md_verbatim": "| BS | Biospecimen Findings | Findings | One record per measurement per biospecimen identifier per subject | Tabulation | STUDYID, USUBJID, BSREFID, BSTESTCD | bs.xpt |", "score": 0.3852, "match_basis": "verbatim_token+chapter_route:ch03"}, {"md_atom_id": "md_ch03_a067", "md_file": "knowledge_base/chapters/ch03_submitting_data.md", "md_atom_type": "TABLE_ROW", "md_parent_section": "§3.2.1 [Dataset-level Metadata]", "md_verbatim": "| RS | Disease Response and Clin Classification | Findings | One record per response assessment or clinical classification assessment per time point per visit per subject per assessor per medical evaluator | Tabulation | STUDYID, USUBJID, RSTESTCD, VISITNUM, RSTPTREF, RSEVAL, RSPTPNUM, RSEVALID | rs.xpt |", "score": 0.3817, "match_basis": "verbatim_token+chapter_route:ch03"}, {"md_atom_id": "md_ch03_a061", "md_file": "knowledge_base/chapters/ch03_submitting_data.md", "md_atom_type": "TABLE_ROW", "md_parent_section": "§3.2.1 [Dataset-level Metadata]", "md_verbatim": "| PC | Pharmacokinetics Concentrations | Findings | One record per sample characteristic or time-point concentration per reference time point or per analyte per subject | Tabulation | STUDYID, USUBJID, PCTESTCD, VISITNUM, PCTPTREF, PCTPTNUM | pc.xpt |", "score": 0.3779, "match_basis": "verbatim_token+chapter_route:ch03"}], "candidate_count": 5, "zero_candidate": false}
{"pdf_atom_id": "sv20_p0017_a010", "pdf_atom_type": "TABLE_ROW", "pdf_source": "SDTM_v2.0", "pdf_page": 17, "pdf_parent_section": "§3.1.2 The Events Observation Class", "pdf_verbatim": "| 31 | --SEV | Severity/Intensity | Char | | Record Qualifier | | | C25676 | The quality or degree of harm associated with a finding or event, as collected. | | \"MILD\", \"MODERATE\", \"SEVERE\" |", "figure_ref": null, "candidates": [{"md_atom_id": "md_ch03_a074", "md_file": "knowledge_base/chapters/ch03_submitting_data.md", "md_atom_type": "TABLE_ROW", "md_parent_section": "§3.2.1 [Dataset-level Metadata]", "md_verbatim": "| FA | Findings About Events or Interventions | Findings About | One record per finding, per object, per time point, per visit per subject | Tabulation | STUDYID, USUBJID, FATESTCD, FAOBJ, VISITNUM, FATPTREF, FATPTNUM | fa.xpt |", "score": 0.3829, "match_basis": "verbatim_token+chapter_route:ch03"}, {"md_atom_id": "md_ch03_a068", "md_file": "knowledge_base/chapters/ch03_submitting_data.md", "md_atom_type": "TABLE_ROW", "md_parent_section": "§3.2.1 [Dataset-level Metadata]", "md_verbatim": "| SC | Subject Characteristics | Findings | One record per characteristic per visit per subject. | Tabulation | STUDYID, USUBJID, SCTESTCD, VISITNUM | sc.xpt |", "score": 0.3818, "match_basis": "verbatim_token+chapter_route:ch03"}, {"md_atom_id": "md_ch03_a032", "md_file": "knowledge_base/chapters/ch03_submitting_data.md", "md_atom_type": "TABLE_ROW", "md_parent_section": "§3.2.1 [Dataset-level Metadata]", "md_verbatim": "| EC | Exposure as Collected | Interventions | One record per protocol-specified study treatment, collected-dosing interval, per subject, per mood | Tabulation | STUDYID, USUBJID, ECTRT, ECSTDTC, ECMOOD | ec.xpt |", "score": 0.3812, "match_basis": "verbatim_token+chapter_route:ch03"}, {"md_atom_id": "md_ch03_a071", "md_file": "knowledge_base/chapters/ch03_submitting_data.md", "md_atom_type": "TABLE_ROW", "md_parent_section": "§3.2.1 [Dataset-level Metadata]", "md_verbatim": "| TU | Tumor/Lesion Identification | Findings | One record per identified tumor per subject per assessor | Tabulation | STUDYID, USUBJID, TUEVALID, TULNKID | tu.xpt |", "score": 0.3807, "match_basis": "verbatim_token+chapter_route:ch03"}, {"md_atom_id": "md_ch03_a061", "md_file": "knowledge_base/chapters/ch03_submitting_data.md", "md_atom_type": "TABLE_ROW", "md_parent_section": "§3.2.1 [Dataset-level Metadata]", "md_verbatim": "| PC | Pharmacokinetics Concentrations | Findings | One record per sample characteristic or time-point concentration per reference time point or per analyte per subject | Tabulation | STUDYID, USUBJID, PCTESTCD, VISITNUM, PCTPTREF, PCTPTNUM | pc.xpt |", "score": 0.38, "match_basis": "verbatim_token+chapter_route:ch03"}], "candidate_count": 5, "zero_candidate": false}
{"pdf_atom_id": "sv20_p0017_a011", "pdf_atom_type": "TABLE_ROW", "pdf_source": "SDTM_v2.0", "pdf_page": 17, "pdf_parent_section": "§3.1.2 The Events Observation Class", "pdf_verbatim": "| 32 | --SER | Serious Event | Char | | Record Qualifier | | | C82578 | A collected indication as to whether an event meets regulatory criteria for seriousness. | Valid values are \"Y\" and \"N\". | |", "figure_ref": null, "candidates": [{"md_atom_id": "md_ch03_a071", "md_file": "knowledge_base/chapters/ch03_submitting_data.md", "md_atom_type": "TABLE_ROW", "md_parent_section": "§3.2.1 [Dataset-level Metadata]", "md_verbatim": "| TU | Tumor/Lesion Identification | Findings | One record per identified tumor per subject per assessor | Tabulation | STUDYID, USUBJID, TUEVALID, TULNKID | tu.xpt |", "score": 0.405, "match_basis": "verbatim_token+chapter_route:ch03"}, {"md_atom_id": "md_ch03_a086", "md_file": "knowledge_base/chapters/ch03_submitting_data.md", "md_atom_type": "TABLE_ROW", "md_parent_section": "§3.2.1 [Dataset-level Metadata]", "md_verbatim": "| SUPP-- | Supplemental Qualifiers for [domain name] | Relationship | One record per supplemental qualifier per related parent domain record(s) | Tabulation | STUDYID, RDOMAIN, USUBJID, IDVAR, IDVARVAL, QNAM | supp--.xpt |", "score": 0.4041, "match_basis": "verbatim_token+chapter_route:ch03"}, {"md_atom_id": "md_ch03_a052", "md_file": "knowledge_base/chapters/ch03_submitting_data.md", "md_atom_type": "TABLE_ROW", "md_parent_section": "§3.2.1 [Dataset-level Metadata]", "md_verbatim": "| IE | Inclusion/Exclusion Criteria Not Met | Findings | One record per inclusion/exclusion criterion not met per subject | Tabulation | STUDYID, USUBJID, IETESTCD | ie.xpt |", "score": 0.4027, "match_basis": "verbatim_token+chapter_route:ch03"}, {"md_atom_id": "md_ch03_a043", "md_file": "knowledge_base/chapters/ch03_submitting_data.md", "md_atom_type": "TABLE_ROW", "md_parent_section": "§3.2.1 [Dataset-level Metadata]", "md_verbatim": "| MH | Medical History | Events | One record per medical history event per subject | Tabulation | STUDYID, USUBJID, MHDECOD | mh.xpt |", "score": 0.4, "match_basis": "verbatim_token+chapter_route:ch03"}, {"md_atom_id": "md_ch03_a032", "md_file": "knowledge_base/chapters/ch03_submitting_data.md", "md_atom_type": "TABLE_ROW", "md_parent_section": "§3.2.1 [Dataset-level Metadata]", "md_verbatim": "| EC | Exposure as Collected | Interventions | One record per protocol-specified study treatment, collected-dosing interval, per subject, per mood | Tabulation | STUDYID, USUBJID, ECTRT, ECSTDTC, ECMOOD | ec.xpt |", "score": 0.3978, "match_basis": "verbatim_token+chapter_route:ch03"}], "candidate_count": 5, "zero_candidate": false}
{"pdf_atom_id": "sv20_p0017_a012", "pdf_atom_type": "TABLE_ROW", "pdf_source": "SDTM_v2.0", "pdf_page": 17, "pdf_parent_section": "§3.1.2 The Events Observation Class", "pdf_verbatim": "| 33 | --ACN | Action Taken with Study Treatment | Char | | Record Qualifier | | | C49499 | An action taken with study treatment as the result of the event. | | \"DOSE INCREASED\", \"DOSE NOT CHANGED\" |", "figure_ref": null, "candidates": [{"md_atom_id": "md_ch03_a033", "md_file": "knowledge_base/chapters/ch03_submitting_data.md", "md_atom_type": "TABLE_ROW", "md_parent_section": "§3.2.1 [Dataset-level Metadata]", "md_verbatim": "| EX | Exposure | Interventions | One record per protocol-specified study treatment, constant-dosing interval, per subject | Tabulation | STUDYID, USUBJID, EXTRT, EXSTDTC | ex.xpt |", "score": 0.4017, "match_basis": "verbatim_token+chapter_route:ch03"}, {"md_atom_id": "md_ch03_a086", "md_file": "knowledge_base/chapters/ch03_submitting_data.md", "md_atom_type": "TABLE_ROW", "md_parent_section": "§3.2.1 [Dataset-level Metadata]", "md_verbatim": "| SUPP-- | Supplemental Qualifiers for [domain name] | Relationship | One record per supplemental qualifier per related parent domain record(s) | Tabulation | STUDYID, RDOMAIN, USUBJID, IDVAR, IDVARVAL, QNAM | supp--.xpt |", "score": 0.4, "match_basis": "verbatim_token+chapter_route:ch03"}, {"md_atom_id": "md_ch03_a032", "md_file": "knowledge_base/chapters/ch03_submitting_data.md", "md_atom_type": "TABLE_ROW", "md_parent_section": "§3.2.1 [Dataset-level Metadata]", "md_verbatim": "| EC | Exposure as Collected | Interventions | One record per protocol-specified study treatment, collected-dosing interval, per subject, per mood | Tabulation | STUDYID, USUBJID, ECTRT, ECSTDTC, ECMOOD | ec.xpt |", "score": 0.3992, "match_basis": "verbatim_token+chapter_route:ch03"}, {"md_atom_id": "md_ch03_a070", "md_file": "knowledge_base/chapters/ch03_submitting_data.md", "md_atom_type": "TABLE_ROW", "md_parent_section": "§3.2.1 [Dataset-level Metadata]", "md_verbatim": "| TR | Tumor/Lesion Results | Findings | One record per tumor measurement/assessment per visit per subject per assessor | Tabulation | STUDYID, USUBJID, TRTESTCD, TREVALID, VISITNUM | tr.xpt |", "score": 0.3908, "match_basis": "verbatim_token+chapter_route:ch03"}, {"md_atom_id": "md_ch03_a038", "md_file": "knowledge_base/chapters/ch03_submitting_data.md", "md_atom_type": "TABLE_ROW", "md_parent_section": "§3.2.1 [Dataset-level Metadata]", "md_verbatim": "| BE | Biospecimen Events | Events | One record per instance per biospecimen event per biospecimen identifier per subject | Tabulation | STUDYID, USUBJID, BEREFID, BETERM, BESTDTC | be.xpt |", "score": 0.3881, "match_basis": "verbatim_token+chapter_route:ch03"}], "candidate_count": 5, "zero_candidate": false}
