{"pdf_atom_id": "ig34_p0322_a003", "pdf_atom_type": "LIST_ITEM", "pdf_source": "SDTMIG_v3.4", "pdf_page": 322, "pdf_parent_section": "§6.3.9.1 Functional Tests (FT) — FT-Assumptions — QRS Shared Assumptions", "pdf_verbatim": "iii.\tQRS subtotal, total, etc. scores not listed on the CRF, but known to be included in eData by sponsors are considered as captured data, are included in the instrument's controlled terminology. The QRS instrument's CT is considered extensible for this case and the subtotal or total score should be requested to be added.", "figure_ref": null, "candidates": [{"md_atom_id": "md_dmFT_assn_a021", "md_file": "knowledge_base/domains/FT/assumptions.md", "md_atom_type": "LIST_ITEM", "md_parent_section": "§FT [FT — Assumptions]", "md_verbatim": "      iii. QRS subtotal, total, etc. scores not listed on the CRF, but known to be included in eData by sponsors are considered as captured data, are included in the instrument's controlled terminology. The QRS instrument's CT is considered extensible for this case and the subtotal or total score should be requested to be added.", "score": 1.0, "match_basis": "verbatim_token+domain_route:FT"}, {"md_atom_id": "md_dmFT_assn_a019", "md_file": "knowledge_base/domains/FT/assumptions.md", "md_atom_type": "LIST_ITEM", "md_parent_section": "§FT [FT — Assumptions]", "md_verbatim": "      i. QRS subtotal, total, etc. scores listed on the CRF are considered captured data and are included in the instrument's controlled terminology.", "score": 0.79, "match_basis": "verbatim_token+domain_route:FT"}, {"md_atom_id": "md_dmFT_assn_a020", "md_file": "knowledge_base/domains/FT/assumptions.md", "md_atom_type": "LIST_ITEM", "md_parent_section": "§FT [FT — Assumptions]", "md_verbatim": "      ii. QRS subtotal, total, etc. scores not listed on the CRF but documented in an associated instrument manual or reference paper are considered captured data and are included in the instrument's controlled terminology.", "score": 0.7242, "match_basis": "verbatim_token+domain_route:FT"}, {"md_atom_id": "md_dmFT_assn_a023", "md_file": "knowledge_base/domains/FT/assumptions.md", "md_atom_type": "LIST_ITEM", "md_parent_section": "§FT [FT — Assumptions]", "md_verbatim": "   b. The QRS instrument subtotal or total score, which is the sum of the numeric responses for an instrument, is populated in --ORRES, --STRESC, and --STRESN. It is considered a captured subtotal or total score without any knowledge of the sponsor-data management processes related to the score.", "score": 0.5903, "match_basis": "verbatim_token+domain_route:FT"}, {"md_atom_id": "md_dmFT_assn_a009", "md_file": "knowledge_base/domains/FT/assumptions.md", "md_atom_type": "LIST_ITEM", "md_parent_section": "§FT [FT — Assumptions]", "md_verbatim": "   b. Refer to the following CDISC Controlled Terminology codelists for QRS instrument --CAT terminology:", "score": 0.5525, "match_basis": "verbatim_token+domain_route:FT"}], "candidate_count": 5, "zero_candidate": false}
{"pdf_atom_id": "ig34_p0322_a004", "pdf_atom_type": "LIST_ITEM", "pdf_source": "SDTMIG_v3.4", "pdf_page": 322, "pdf_parent_section": "§6.3.9.1 Functional Tests (FT) — FT-Assumptions — QRS Shared Assumptions", "pdf_verbatim": "1.\tAny imputations/calculations done to numeric \"standardized responses\" to produce the total score via transforming numeric \"standardized responses\" in any way would be done as ADaM derivations.", "figure_ref": null, "candidates": [{"md_atom_id": "md_dmFT_assn_a022", "md_file": "knowledge_base/domains/FT/assumptions.md", "md_atom_type": "LIST_ITEM", "md_parent_section": "§FT [FT — Assumptions]", "md_verbatim": "         1. Any imputations/calculations done to numeric \"standardized responses\" to produce the total score via transforming numeric \"standardized responses\" in any way would be done as ADaM derivations.", "score": 1.0, "match_basis": "verbatim_token+domain_route:FT"}, {"md_atom_id": "md_dmFT_assn_a023", "md_file": "knowledge_base/domains/FT/assumptions.md", "md_atom_type": "LIST_ITEM", "md_parent_section": "§FT [FT — Assumptions]", "md_verbatim": "   b. The QRS instrument subtotal or total score, which is the sum of the numeric responses for an instrument, is populated in --ORRES, --STRESC, and --STRESN. It is considered a captured subtotal or total score without any knowledge of the sponsor-data management processes related to the score.", "score": 0.5139, "match_basis": "verbatim_token+domain_route:FT"}, {"md_atom_id": "md_dmFT_assn_a016", "md_file": "knowledge_base/domains/FT/assumptions.md", "md_atom_type": "LIST_ITEM", "md_parent_section": "§FT [FT — Assumptions]", "md_verbatim": "3. There are cases where QRS CRFs do not include numeric \"standardized responses\" assigned to text responses (e.g., mild, moderate, severe being 1, 2, 3). It is clearly in everyone's best interest to include the numeric \"standardized responses\" in the SDTMIG QRS dataset. This is only done when the numeric \"standardized responses\" are documented in the QRS CRF instructions, a user manual, a website specific to the QRS instrument, or another reference document that provides a clear explanation and rationale for providing them in the SDTMIG QRS dataset.", "score": 0.5005, "match_basis": "verbatim_token+domain_route:FT"}, {"md_atom_id": "md_dmFT_assn_a030", "md_file": "knowledge_base/domains/FT/assumptions.md", "md_atom_type": "LIST_ITEM", "md_parent_section": "§FT [FT — Assumptions]", "md_verbatim": "   d. The sponsor is expected to provide information about the scoring rules in the metadata.", "score": 0.4832, "match_basis": "verbatim_token+domain_route:FT"}, {"md_atom_id": "md_dmFT_assn_a024", "md_file": "knowledge_base/domains/FT/assumptions.md", "md_atom_type": "LIST_ITEM", "md_parent_section": "§FT [FT — Assumptions]", "md_verbatim": "      i. If operationally derived by the sponsor, it is the sponsor's responsibility to set the --DRVFL flag based on their eCRF process to derive subtotal and total scores. An investigator-derived score written on a CRF will be considered a captured score and not flagged. When subtotal and total scores are derived by the sponsor, the derived flag (--DRVFL) is set to \"Y\". However, when the subtotal and total scores are received from a central provider or vendor, the value would go into --ORRES and --DRVFL would be null (see Section 4.1.8.1, Origin Metadata for Variables).", "score": 0.4796, "match_basis": "verbatim_token+domain_route:FT"}], "candidate_count": 5, "zero_candidate": false}
{"pdf_atom_id": "ig34_p0322_a005", "pdf_atom_type": "LIST_ITEM", "pdf_source": "SDTMIG_v3.4", "pdf_page": 322, "pdf_parent_section": "§6.3.9.1 Functional Tests (FT) — FT-Assumptions — QRS Shared Assumptions", "pdf_verbatim": "b.\tThe QRS instrument subtotal or total score, which is the sum of the numeric responses for an instrument, is populated in --ORRES, --STRESC, and --STRESN. It is considered a captured subtotal or total score without any knowledge of the sponsor-data management processes related to the score.", "figure_ref": null, "candidates": [{"md_atom_id": "md_dmFT_assn_a023", "md_file": "knowledge_base/domains/FT/assumptions.md", "md_atom_type": "LIST_ITEM", "md_parent_section": "§FT [FT — Assumptions]", "md_verbatim": "   b. The QRS instrument subtotal or total score, which is the sum of the numeric responses for an instrument, is populated in --ORRES, --STRESC, and --STRESN. It is considered a captured subtotal or total score without any knowledge of the sponsor-data management processes related to the score.", "score": 1.0, "match_basis": "verbatim_token+domain_route:FT"}, {"md_atom_id": "md_dmFT_assn_a019", "md_file": "knowledge_base/domains/FT/assumptions.md", "md_atom_type": "LIST_ITEM", "md_parent_section": "§FT [FT — Assumptions]", "md_verbatim": "      i. QRS subtotal, total, etc. scores listed on the CRF are considered captured data and are included in the instrument's controlled terminology.", "score": 0.5932, "match_basis": "verbatim_token+domain_route:FT"}, {"md_atom_id": "md_dmFT_assn_a021", "md_file": "knowledge_base/domains/FT/assumptions.md", "md_atom_type": "LIST_ITEM", "md_parent_section": "§FT [FT — Assumptions]", "md_verbatim": "      iii. QRS subtotal, total, etc. scores not listed on the CRF, but known to be included in eData by sponsors are considered as captured data, are included in the instrument's controlled terminology. The QRS instrument's CT is considered extensible for this case and the subtotal or total score should be requested to be added.", "score": 0.5903, "match_basis": "verbatim_token+domain_route:FT"}, {"md_atom_id": "md_dmFT_assn_a020", "md_file": "knowledge_base/domains/FT/assumptions.md", "md_atom_type": "LIST_ITEM", "md_parent_section": "§FT [FT — Assumptions]", "md_verbatim": "      ii. QRS subtotal, total, etc. scores not listed on the CRF but documented in an associated instrument manual or reference paper are considered captured data and are included in the instrument's controlled terminology.", "score": 0.569, "match_basis": "verbatim_token+domain_route:FT"}, {"md_atom_id": "md_dmFT_assn_a024", "md_file": "knowledge_base/domains/FT/assumptions.md", "md_atom_type": "LIST_ITEM", "md_parent_section": "§FT [FT — Assumptions]", "md_verbatim": "      i. If operationally derived by the sponsor, it is the sponsor's responsibility to set the --DRVFL flag based on their eCRF process to derive subtotal and total scores. An investigator-derived score written on a CRF will be considered a captured score and not flagged. When subtotal and total scores are derived by the sponsor, the derived flag (--DRVFL) is set to \"Y\". However, when the subtotal and total scores are received from a central provider or vendor, the value would go into --ORRES and --DRVFL would be null (see Section 4.1.8.1, Origin Metadata for Variables).", "score": 0.5266, "match_basis": "verbatim_token+domain_route:FT"}], "candidate_count": 5, "zero_candidate": false}
{"pdf_atom_id": "ig34_p0322_a006", "pdf_atom_type": "LIST_ITEM", "pdf_source": "SDTMIG_v3.4", "pdf_page": 322, "pdf_parent_section": "§6.3.9.1 Functional Tests (FT) — FT-Assumptions — QRS Shared Assumptions", "pdf_verbatim": "i.\tIf operationally derived by the sponsor, it is the sponsor's responsibility to set the --DRVFL flag based on their eCRF process to derive subtotal and total scores. An investigator-derived score written on a CRF will be considered a captured score and not flagged. When subtotal and total scores are derived by the sponsor, the derived flag (--DRVFL) is set to \"Y\". However, when the subtotal and total scores are received from a central provider or vendor, the value would go into --ORRES and --DRVFL would be null (see Section 4.1.8.1, Origin Metadata for Variables).", "figure_ref": null, "candidates": [{"md_atom_id": "md_dmFT_assn_a024", "md_file": "knowledge_base/domains/FT/assumptions.md", "md_atom_type": "LIST_ITEM", "md_parent_section": "§FT [FT — Assumptions]", "md_verbatim": "      i. If operationally derived by the sponsor, it is the sponsor's responsibility to set the --DRVFL flag based on their eCRF process to derive subtotal and total scores. An investigator-derived score written on a CRF will be considered a captured score and not flagged. When subtotal and total scores are derived by the sponsor, the derived flag (--DRVFL) is set to \"Y\". However, when the subtotal and total scores are received from a central provider or vendor, the value would go into --ORRES and --DRVFL would be null (see Section 4.1.8.1, Origin Metadata for Variables).", "score": 1.0, "match_basis": "verbatim_token+domain_route:FT"}, {"md_atom_id": "md_dmFT_assn_a017", "md_file": "knowledge_base/domains/FT/assumptions.md", "md_atom_type": "LIST_ITEM", "md_parent_section": "§FT [FT — Assumptions]", "md_verbatim": "4. Sponsors should always consult published QRS supplements for guidance on submitting derived information in a SDTMIG QRS domain. Derived variable results in QRS are usually considered captured data. If sponsors operationally derive variable results, then the derived records that are submitted in a QRS domain should be flagged by --DRVFL.", "score": 0.5726, "match_basis": "verbatim_token+domain_route:FT"}, {"md_atom_id": "md_dmFT_assn_a021", "md_file": "knowledge_base/domains/FT/assumptions.md", "md_atom_type": "LIST_ITEM", "md_parent_section": "§FT [FT — Assumptions]", "md_verbatim": "      iii. QRS subtotal, total, etc. scores not listed on the CRF, but known to be included in eData by sponsors are considered as captured data, are included in the instrument's controlled terminology. The QRS instrument's CT is considered extensible for this case and the subtotal or total score should be requested to be added.", "score": 0.5282, "match_basis": "verbatim_token+domain_route:FT"}, {"md_atom_id": "md_dmFT_assn_a023", "md_file": "knowledge_base/domains/FT/assumptions.md", "md_atom_type": "LIST_ITEM", "md_parent_section": "§FT [FT — Assumptions]", "md_verbatim": "   b. The QRS instrument subtotal or total score, which is the sum of the numeric responses for an instrument, is populated in --ORRES, --STRESC, and --STRESN. It is considered a captured subtotal or total score without any knowledge of the sponsor-data management processes related to the score.", "score": 0.5266, "match_basis": "verbatim_token+domain_route:FT"}, {"md_atom_id": "md_dmFT_assn_a019", "md_file": "knowledge_base/domains/FT/assumptions.md", "md_atom_type": "LIST_ITEM", "md_parent_section": "§FT [FT — Assumptions]", "md_verbatim": "      i. QRS subtotal, total, etc. scores listed on the CRF are considered captured data and are included in the instrument's controlled terminology.", "score": 0.5011, "match_basis": "verbatim_token+domain_route:FT"}], "candidate_count": 5, "zero_candidate": false}
{"pdf_atom_id": "ig34_p0322_a007", "pdf_atom_type": "LIST_ITEM", "pdf_source": "SDTMIG_v3.4", "pdf_page": 322, "pdf_parent_section": "§6.3.9.1 Functional Tests (FT) — FT-Assumptions — QRS Shared Assumptions", "pdf_verbatim": "5.\tThe variable --REPNUM variable is populated when there are multiple repeats of the same question. When records are related to the first trial of the question, the variable --REPNUM should be set to \"1\". When records are related to the second trial of the same question, --REPNUM should be set to \"2\", and so forth.", "figure_ref": null, "candidates": [{"md_atom_id": "md_dmFT_assn_a025", "md_file": "knowledge_base/domains/FT/assumptions.md", "md_atom_type": "LIST_ITEM", "md_parent_section": "§FT [FT — Assumptions]", "md_verbatim": "5. The variable --REPNUM variable is populated when there are multiple repeats of the same question. When records are related to the first trial of the question, the variable --REPNUM should be set to \"1\". When records are related to the second trial of the same question, --REPNUM should be set to \"2\", and so forth.", "score": 1.0, "match_basis": "verbatim_token+domain_route:FT"}, {"md_atom_id": "md_dmFT_assn_a014", "md_file": "knowledge_base/domains/FT/assumptions.md", "md_atom_type": "LIST_ITEM", "md_parent_section": "§FT [FT — Assumptions]", "md_verbatim": "2. Names of subcategories for groups of items/questions are described under the --SCAT variable.", "score": 0.5062, "match_basis": "verbatim_token+domain_route:FT"}, {"md_atom_id": "md_dmFT_assn_a017", "md_file": "knowledge_base/domains/FT/assumptions.md", "md_atom_type": "LIST_ITEM", "md_parent_section": "§FT [FT — Assumptions]", "md_verbatim": "4. Sponsors should always consult published QRS supplements for guidance on submitting derived information in a SDTMIG QRS domain. Derived variable results in QRS are usually considered captured data. If sponsors operationally derive variable results, then the derived records that are submitted in a QRS domain should be flagged by --DRVFL.", "score": 0.4963, "match_basis": "verbatim_token+domain_route:FT"}, {"md_atom_id": "md_dmFT_assn_a007", "md_file": "knowledge_base/domains/FT/assumptions.md", "md_atom_type": "LIST_ITEM", "md_parent_section": "§FT [FT — Assumptions]", "md_verbatim": "1. The name of a QRS instrument is described under the variable --CAT in the relevant QRS domain (i.e., FT, QS, RS), and may be either abbreviations or longer names. For example, \"ADAS-COG\", \"BPI SHORT FORM\", and \"APACHE II\" are all --CATs which are shortened names for the instruments they represent, whereas \"4 STAIR ASCEND\" is the FTCAT for the instrument of the same name. Sponsors should always reference CDISC Controlled Terminology.", "score": 0.4871, "match_basis": "verbatim_token+domain_route:FT"}, {"md_atom_id": "md_dmFT_assn_a024", "md_file": "knowledge_base/domains/FT/assumptions.md", "md_atom_type": "LIST_ITEM", "md_parent_section": "§FT [FT — Assumptions]", "md_verbatim": "      i. If operationally derived by the sponsor, it is the sponsor's responsibility to set the --DRVFL flag based on their eCRF process to derive subtotal and total scores. An investigator-derived score written on a CRF will be considered a captured score and not flagged. When subtotal and total scores are derived by the sponsor, the derived flag (--DRVFL) is set to \"Y\". However, when the subtotal and total scores are received from a central provider or vendor, the value would go into --ORRES and --DRVFL would be null (see Section 4.1.8.1, Origin Metadata for Variables).", "score": 0.4754, "match_basis": "verbatim_token+domain_route:FT"}], "candidate_count": 5, "zero_candidate": false}
{"pdf_atom_id": "ig34_p0322_a008", "pdf_atom_type": "LIST_ITEM", "pdf_source": "SDTMIG_v3.4", "pdf_page": 322, "pdf_parent_section": "§6.3.9.1 Functional Tests (FT) — FT-Assumptions — QRS Shared Assumptions", "pdf_verbatim": "6.\tThe actual version number of an instrument is represented in the --CAT value as designated by the QRS Terminology Team. If it is determined that this is not the case for an instrument:", "figure_ref": null, "candidates": [{"md_atom_id": "md_dmFT_assn_a026", "md_file": "knowledge_base/domains/FT/assumptions.md", "md_atom_type": "LIST_ITEM", "md_parent_section": "§FT [FT — Assumptions]", "md_verbatim": "6. The actual version number of an instrument is represented in the --CAT value as designated by the QRS Terminology Team. If it is determined that this is not the case for an instrument:", "score": 1.0, "match_basis": "verbatim_token+domain_route:FT"}, {"md_atom_id": "md_dmFT_assn_a028", "md_file": "knowledge_base/domains/FT/assumptions.md", "md_atom_type": "LIST_ITEM", "md_parent_section": "§FT [FT — Assumptions]", "md_verbatim": "   b. Consider the use of the --GRPID variable to indicate the instrument's version number prior to a decision by the QRS Terminology Team.", "score": 0.6087, "match_basis": "verbatim_token+domain_route:FT"}, {"md_atom_id": "md_dmFT_assn_a027", "md_file": "knowledge_base/domains/FT/assumptions.md", "md_atom_type": "LIST_ITEM", "md_parent_section": "§FT [FT — Assumptions]", "md_verbatim": "   a. Notify the QRS Terminology Team that the instrument has a specific or multiple version numbers. This team will assist in providing a resolution on how the situation will be handled.", "score": 0.6018, "match_basis": "verbatim_token+domain_route:FT"}, {"md_atom_id": "md_dmFT_assn_a013", "md_file": "knowledge_base/domains/FT/assumptions.md", "md_atom_type": "LIST_ITEM", "md_parent_section": "§FT [FT — Assumptions]", "md_verbatim": "   c. QRS --TESTCD/--TEST terminology codelists are listed separately by instrument name.", "score": 0.5379, "match_basis": "verbatim_token+domain_route:FT"}, {"md_atom_id": "md_dmFT_assn_a009", "md_file": "knowledge_base/domains/FT/assumptions.md", "md_atom_type": "LIST_ITEM", "md_parent_section": "§FT [FT — Assumptions]", "md_verbatim": "   b. Refer to the following CDISC Controlled Terminology codelists for QRS instrument --CAT terminology:", "score": 0.537, "match_basis": "verbatim_token+domain_route:FT"}], "candidate_count": 5, "zero_candidate": false}
{"pdf_atom_id": "ig34_p0322_a009", "pdf_atom_type": "LIST_ITEM", "pdf_source": "SDTMIG_v3.4", "pdf_page": 322, "pdf_parent_section": "§6.3.9.1 Functional Tests (FT) — FT-Assumptions — QRS Shared Assumptions", "pdf_verbatim": "a.\tNotify the QRS Terminology Team that the instrument has a specific or multiple version numbers. This team will assist in providing an resolution on how the situation will be handled.", "figure_ref": null, "candidates": [{"md_atom_id": "md_dmFT_assn_a027", "md_file": "knowledge_base/domains/FT/assumptions.md", "md_atom_type": "LIST_ITEM", "md_parent_section": "§FT [FT — Assumptions]", "md_verbatim": "   a. Notify the QRS Terminology Team that the instrument has a specific or multiple version numbers. This team will assist in providing a resolution on how the situation will be handled.", "score": 1.0, "match_basis": "verbatim_token+domain_route:FT"}, {"md_atom_id": "md_dmFT_assn_a026", "md_file": "knowledge_base/domains/FT/assumptions.md", "md_atom_type": "LIST_ITEM", "md_parent_section": "§FT [FT — Assumptions]", "md_verbatim": "6. The actual version number of an instrument is represented in the --CAT value as designated by the QRS Terminology Team. If it is determined that this is not the case for an instrument:", "score": 0.6018, "match_basis": "verbatim_token+domain_route:FT"}, {"md_atom_id": "md_dmFT_assn_a028", "md_file": "knowledge_base/domains/FT/assumptions.md", "md_atom_type": "LIST_ITEM", "md_parent_section": "§FT [FT — Assumptions]", "md_verbatim": "   b. Consider the use of the --GRPID variable to indicate the instrument's version number prior to a decision by the QRS Terminology Team.", "score": 0.5691, "match_basis": "verbatim_token+domain_route:FT"}, {"md_atom_id": "md_dmFT_assn_a009", "md_file": "knowledge_base/domains/FT/assumptions.md", "md_atom_type": "LIST_ITEM", "md_parent_section": "§FT [FT — Assumptions]", "md_verbatim": "   b. Refer to the following CDISC Controlled Terminology codelists for QRS instrument --CAT terminology:", "score": 0.5222, "match_basis": "verbatim_token+domain_route:FT"}, {"md_atom_id": "md_dmFT_assn_a016", "md_file": "knowledge_base/domains/FT/assumptions.md", "md_atom_type": "LIST_ITEM", "md_parent_section": "§FT [FT — Assumptions]", "md_verbatim": "3. There are cases where QRS CRFs do not include numeric \"standardized responses\" assigned to text responses (e.g., mild, moderate, severe being 1, 2, 3). It is clearly in everyone's best interest to include the numeric \"standardized responses\" in the SDTMIG QRS dataset. This is only done when the numeric \"standardized responses\" are documented in the QRS CRF instructions, a user manual, a website specific to the QRS instrument, or another reference document that provides a clear explanation and rationale for providing them in the SDTMIG QRS dataset.", "score": 0.5206, "match_basis": "verbatim_token+domain_route:FT"}], "candidate_count": 5, "zero_candidate": false}
{"pdf_atom_id": "ig34_p0322_a010", "pdf_atom_type": "LIST_ITEM", "pdf_source": "SDTMIG_v3.4", "pdf_page": 322, "pdf_parent_section": "§6.3.9.1 Functional Tests (FT) — FT-Assumptions — QRS Shared Assumptions", "pdf_verbatim": "b.\tConsider the use of the --GRPID variable to indicate the instrument's version number prior to a decision by the QRS Terminology Team.", "figure_ref": null, "candidates": [{"md_atom_id": "md_dmFT_assn_a028", "md_file": "knowledge_base/domains/FT/assumptions.md", "md_atom_type": "LIST_ITEM", "md_parent_section": "§FT [FT — Assumptions]", "md_verbatim": "   b. Consider the use of the --GRPID variable to indicate the instrument's version number prior to a decision by the QRS Terminology Team.", "score": 1.0, "match_basis": "verbatim_token+domain_route:FT"}, {"md_atom_id": "md_dmFT_assn_a026", "md_file": "knowledge_base/domains/FT/assumptions.md", "md_atom_type": "LIST_ITEM", "md_parent_section": "§FT [FT — Assumptions]", "md_verbatim": "6. The actual version number of an instrument is represented in the --CAT value as designated by the QRS Terminology Team. If it is determined that this is not the case for an instrument:", "score": 0.6087, "match_basis": "verbatim_token+domain_route:FT"}, {"md_atom_id": "md_dmFT_assn_a027", "md_file": "knowledge_base/domains/FT/assumptions.md", "md_atom_type": "LIST_ITEM", "md_parent_section": "§FT [FT — Assumptions]", "md_verbatim": "   a. Notify the QRS Terminology Team that the instrument has a specific or multiple version numbers. This team will assist in providing a resolution on how the situation will be handled.", "score": 0.5691, "match_basis": "verbatim_token+domain_route:FT"}, {"md_atom_id": "md_dmFT_assn_a019", "md_file": "knowledge_base/domains/FT/assumptions.md", "md_atom_type": "LIST_ITEM", "md_parent_section": "§FT [FT — Assumptions]", "md_verbatim": "      i. QRS subtotal, total, etc. scores listed on the CRF are considered captured data and are included in the instrument's controlled terminology.", "score": 0.5515, "match_basis": "verbatim_token+domain_route:FT"}, {"md_atom_id": "md_dmFT_assn_a009", "md_file": "knowledge_base/domains/FT/assumptions.md", "md_atom_type": "LIST_ITEM", "md_parent_section": "§FT [FT — Assumptions]", "md_verbatim": "   b. Refer to the following CDISC Controlled Terminology codelists for QRS instrument --CAT terminology:", "score": 0.5465, "match_basis": "verbatim_token+domain_route:FT"}], "candidate_count": 5, "zero_candidate": false}
{"pdf_atom_id": "ig34_p0322_a011", "pdf_atom_type": "LIST_ITEM", "pdf_source": "SDTMIG_v3.4", "pdf_page": 322, "pdf_parent_section": "§6.3.9.1 Functional Tests (FT) — FT-Assumptions — QRS Shared Assumptions", "pdf_verbatim": "c.\tThe sponsor is expected to provide information about the version used for each QRS instrument in the metadata (using the Comments column in the Define-XML document). This could be provided as value-level metadata for --CAT.", "figure_ref": null, "candidates": [{"md_atom_id": "md_dmFT_assn_a029", "md_file": "knowledge_base/domains/FT/assumptions.md", "md_atom_type": "LIST_ITEM", "md_parent_section": "§FT [FT — Assumptions]", "md_verbatim": "   c. The sponsor is expected to provide information about the version used for each QRS instrument in the metadata (using the Comments column in the Define-XML document). This could be provided as value-level metadata for --CAT.", "score": 1.0, "match_basis": "verbatim_token+domain_route:FT"}, {"md_atom_id": "md_dmFT_assn_a030", "md_file": "knowledge_base/domains/FT/assumptions.md", "md_atom_type": "LIST_ITEM", "md_parent_section": "§FT [FT — Assumptions]", "md_verbatim": "   d. The sponsor is expected to provide information about the scoring rules in the metadata.", "score": 0.6374, "match_basis": "verbatim_token+domain_route:FT"}, {"md_atom_id": "md_dmFT_assn_a026", "md_file": "knowledge_base/domains/FT/assumptions.md", "md_atom_type": "LIST_ITEM", "md_parent_section": "§FT [FT — Assumptions]", "md_verbatim": "6. The actual version number of an instrument is represented in the --CAT value as designated by the QRS Terminology Team. If it is determined that this is not the case for an instrument:", "score": 0.5152, "match_basis": "verbatim_token+domain_route:FT"}, {"md_atom_id": "md_dmFT_assn_a027", "md_file": "knowledge_base/domains/FT/assumptions.md", "md_atom_type": "LIST_ITEM", "md_parent_section": "§FT [FT — Assumptions]", "md_verbatim": "   a. Notify the QRS Terminology Team that the instrument has a specific or multiple version numbers. This team will assist in providing a resolution on how the situation will be handled.", "score": 0.5114, "match_basis": "verbatim_token+domain_route:FT"}, {"md_atom_id": "md_dmFT_assn_a016", "md_file": "knowledge_base/domains/FT/assumptions.md", "md_atom_type": "LIST_ITEM", "md_parent_section": "§FT [FT — Assumptions]", "md_verbatim": "3. There are cases where QRS CRFs do not include numeric \"standardized responses\" assigned to text responses (e.g., mild, moderate, severe being 1, 2, 3). It is clearly in everyone's best interest to include the numeric \"standardized responses\" in the SDTMIG QRS dataset. This is only done when the numeric \"standardized responses\" are documented in the QRS CRF instructions, a user manual, a website specific to the QRS instrument, or another reference document that provides a clear explanation and rationale for providing them in the SDTMIG QRS dataset.", "score": 0.5085, "match_basis": "verbatim_token+domain_route:FT"}], "candidate_count": 5, "zero_candidate": false}
{"pdf_atom_id": "ig34_p0322_a012", "pdf_atom_type": "LIST_ITEM", "pdf_source": "SDTMIG_v3.4", "pdf_page": 322, "pdf_parent_section": "§6.3.9.1 Functional Tests (FT) — FT-Assumptions — QRS Shared Assumptions", "pdf_verbatim": "d.\tThe sponsor is expected to provide information about the scoring rules in the metadata.", "figure_ref": null, "candidates": [{"md_atom_id": "md_dmFT_assn_a030", "md_file": "knowledge_base/domains/FT/assumptions.md", "md_atom_type": "LIST_ITEM", "md_parent_section": "§FT [FT — Assumptions]", "md_verbatim": "   d. The sponsor is expected to provide information about the scoring rules in the metadata.", "score": 1.0, "match_basis": "verbatim_token+domain_route:FT"}, {"md_atom_id": "md_dmFT_assn_a029", "md_file": "knowledge_base/domains/FT/assumptions.md", "md_atom_type": "LIST_ITEM", "md_parent_section": "§FT [FT — Assumptions]", "md_verbatim": "   c. The sponsor is expected to provide information about the version used for each QRS instrument in the metadata (using the Comments column in the Define-XML document). This could be provided as value-level metadata for --CAT.", "score": 0.6374, "match_basis": "verbatim_token+domain_route:FT"}, {"md_atom_id": "md_dmFT_assn_a031", "md_file": "knowledge_base/domains/FT/assumptions.md", "md_atom_type": "LIST_ITEM", "md_parent_section": "§FT [FT — Assumptions]", "md_verbatim": "7. If the variable --TEST is represented with verbatim text >40 characters, represent the abbreviated meaningful text in --TEST within 40 characters and describe the full text of the item in the study metadata. If the verbatim item response (e.g., --QSORRES) is >200 characters, represent the abbreviated meaningful text in QSORRES within the 200 characters and describe the full text in the study metadata; see Section 4 of the QRS supplement. See Section 4.5.3, Text Strings that Exceed the Maximum Length for General Observation-class Domain Variables, for further information.", "score": 0.4963, "match_basis": "verbatim_token+domain_route:FT"}, {"md_atom_id": "md_dmFT_assn_a018", "md_file": "knowledge_base/domains/FT/assumptions.md", "md_atom_type": "LIST_ITEM", "md_parent_section": "§FT [FT — Assumptions]", "md_verbatim": "   a. The following rules apply for \"total\"-type scores in QRS datasets.", "score": 0.4938, "match_basis": "verbatim_token+domain_route:FT"}, {"md_atom_id": "md_dmFT_assn_a024", "md_file": "knowledge_base/domains/FT/assumptions.md", "md_atom_type": "LIST_ITEM", "md_parent_section": "§FT [FT — Assumptions]", "md_verbatim": "      i. If operationally derived by the sponsor, it is the sponsor's responsibility to set the --DRVFL flag based on their eCRF process to derive subtotal and total scores. An investigator-derived score written on a CRF will be considered a captured score and not flagged. When subtotal and total scores are derived by the sponsor, the derived flag (--DRVFL) is set to \"Y\". However, when the subtotal and total scores are received from a central provider or vendor, the value would go into --ORRES and --DRVFL would be null (see Section 4.1.8.1, Origin Metadata for Variables).", "score": 0.4934, "match_basis": "verbatim_token+domain_route:FT"}], "candidate_count": 5, "zero_candidate": false}
{"pdf_atom_id": "ig34_p0322_a013", "pdf_atom_type": "LIST_ITEM", "pdf_source": "SDTMIG_v3.4", "pdf_page": 322, "pdf_parent_section": "§6.3.9.1 Functional Tests (FT) — FT-Assumptions — QRS Shared Assumptions", "pdf_verbatim": "7.\tIf the variable --TEST is represented with verbatim text >40 characters, represent the abbreviated meaningful text in --TEST within 40 characters and describe the full text of the item in the study metadata. If the verbatim item response (e.g., --QSORRES) is >200 characters, represent the abbreviated meaningful text in QSORRES within the 200 characters and describe the full text in the study metadata; see Section 4.5.3, Text Strings that Exceed the Maximum Length for General Observation-class Domain Variables, for further information.", "figure_ref": null, "candidates": [{"md_atom_id": "md_dmFT_assn_a031", "md_file": "knowledge_base/domains/FT/assumptions.md", "md_atom_type": "LIST_ITEM", "md_parent_section": "§FT [FT — Assumptions]", "md_verbatim": "7. If the variable --TEST is represented with verbatim text >40 characters, represent the abbreviated meaningful text in --TEST within 40 characters and describe the full text of the item in the study metadata. If the verbatim item response (e.g., --QSORRES) is >200 characters, represent the abbreviated meaningful text in QSORRES within the 200 characters and describe the full text in the study metadata; see Section 4 of the QRS supplement. See Section 4.5.3, Text Strings that Exceed the Maximum Length for General Observation-class Domain Variables, for further information.", "score": 0.9669, "match_basis": "verbatim_token+domain_route:FT"}, {"md_atom_id": "md_dmFT_assn_a007", "md_file": "knowledge_base/domains/FT/assumptions.md", "md_atom_type": "LIST_ITEM", "md_parent_section": "§FT [FT — Assumptions]", "md_verbatim": "1. The name of a QRS instrument is described under the variable --CAT in the relevant QRS domain (i.e., FT, QS, RS), and may be either abbreviations or longer names. For example, \"ADAS-COG\", \"BPI SHORT FORM\", and \"APACHE II\" are all --CATs which are shortened names for the instruments they represent, whereas \"4 STAIR ASCEND\" is the FTCAT for the instrument of the same name. Sponsors should always reference CDISC Controlled Terminology.", "score": 0.5185, "match_basis": "verbatim_token+domain_route:FT"}, {"md_atom_id": "md_dmFT_assn_a038", "md_file": "knowledge_base/domains/FT/assumptions.md", "md_atom_type": "LIST_ITEM", "md_parent_section": "§FT [FT — Assumptions]", "md_verbatim": "10. Any identifiers, timing variables, or findings general observation class qualifiers may be added to a QRS domain, but the following qualifiers would generally not be used: --POS, --BODSYS, --ORNRLO, --ORNRHI, --STNRLO, --STNRHI, --STNRC, --NRIND, --XFN, --LOINC, --SPEC, --SPCCND, --LOC, --FAST, --TOX, --TOXGR, --SEV.", "score": 0.5014, "match_basis": "verbatim_token+domain_route:FT"}, {"md_atom_id": "md_dmFT_assn_a030", "md_file": "knowledge_base/domains/FT/assumptions.md", "md_atom_type": "LIST_ITEM", "md_parent_section": "§FT [FT — Assumptions]", "md_verbatim": "   d. The sponsor is expected to provide information about the scoring rules in the metadata.", "score": 0.5013, "match_basis": "verbatim_token+domain_route:FT"}, {"md_atom_id": "md_dmFT_assn_a029", "md_file": "knowledge_base/domains/FT/assumptions.md", "md_atom_type": "LIST_ITEM", "md_parent_section": "§FT [FT — Assumptions]", "md_verbatim": "   c. The sponsor is expected to provide information about the version used for each QRS instrument in the metadata (using the Comments column in the Define-XML document). This could be provided as value-level metadata for --CAT.", "score": 0.4906, "match_basis": "verbatim_token+domain_route:FT"}], "candidate_count": 5, "zero_candidate": false}
{"pdf_atom_id": "ig34_p0322_a014", "pdf_atom_type": "LIST_ITEM", "pdf_source": "SDTMIG_v3.4", "pdf_page": 322, "pdf_parent_section": "§6.3.9.1 Functional Tests (FT) — FT-Assumptions — QRS Shared Assumptions", "pdf_verbatim": "a.\tThe instrument's annotated CRF can also be used as a reference for the full text in both of these situations.", "figure_ref": null, "candidates": [{"md_atom_id": "md_dmFT_assn_a032", "md_file": "knowledge_base/domains/FT/assumptions.md", "md_atom_type": "LIST_ITEM", "md_parent_section": "§FT [FT — Assumptions]", "md_verbatim": "   a. The instrument's annotated CRF can also be used as a reference for the full text in both of these situations.", "score": 1.0, "match_basis": "verbatim_token+domain_route:FT"}, {"md_atom_id": "md_dmFT_assn_a020", "md_file": "knowledge_base/domains/FT/assumptions.md", "md_atom_type": "LIST_ITEM", "md_parent_section": "§FT [FT — Assumptions]", "md_verbatim": "      ii. QRS subtotal, total, etc. scores not listed on the CRF but documented in an associated instrument manual or reference paper are considered captured data and are included in the instrument's controlled terminology.", "score": 0.5148, "match_basis": "verbatim_token+domain_route:FT"}, {"md_atom_id": "md_dmFT_assn_a016", "md_file": "knowledge_base/domains/FT/assumptions.md", "md_atom_type": "LIST_ITEM", "md_parent_section": "§FT [FT — Assumptions]", "md_verbatim": "3. There are cases where QRS CRFs do not include numeric \"standardized responses\" assigned to text responses (e.g., mild, moderate, severe being 1, 2, 3). It is clearly in everyone's best interest to include the numeric \"standardized responses\" in the SDTMIG QRS dataset. This is only done when the numeric \"standardized responses\" are documented in the QRS CRF instructions, a user manual, a website specific to the QRS instrument, or another reference document that provides a clear explanation and rationale for providing them in the SDTMIG QRS dataset.", "score": 0.5078, "match_basis": "verbatim_token+domain_route:FT"}, {"md_atom_id": "md_dmFT_assn_a026", "md_file": "knowledge_base/domains/FT/assumptions.md", "md_atom_type": "LIST_ITEM", "md_parent_section": "§FT [FT — Assumptions]", "md_verbatim": "6. The actual version number of an instrument is represented in the --CAT value as designated by the QRS Terminology Team. If it is determined that this is not the case for an instrument:", "score": 0.5011, "match_basis": "verbatim_token+domain_route:FT"}, {"md_atom_id": "md_dmFT_assn_a009", "md_file": "knowledge_base/domains/FT/assumptions.md", "md_atom_type": "LIST_ITEM", "md_parent_section": "§FT [FT — Assumptions]", "md_verbatim": "   b. Refer to the following CDISC Controlled Terminology codelists for QRS instrument --CAT terminology:", "score": 0.4963, "match_basis": "verbatim_token+domain_route:FT"}], "candidate_count": 5, "zero_candidate": false}
{"pdf_atom_id": "ig34_p0322_a015", "pdf_atom_type": "LIST_ITEM", "pdf_source": "SDTMIG_v3.4", "pdf_page": 322, "pdf_parent_section": "§6.3.9.1 Functional Tests (FT) — FT-Assumptions — QRS Shared Assumptions", "pdf_verbatim": "8.\t--EVAL and --EVALID must not be used to model QRS data in SDTM. These variables have had various interpretations on QRS CRFs and were used to represent a multitude of evaluator information about QRS instruments. This has made it more difficult for users of SDTM QRS data to interpret this", "figure_ref": null, "candidates": [{"md_atom_id": "md_dmFT_assn_a033", "md_file": "knowledge_base/domains/FT/assumptions.md", "md_atom_type": "LIST_ITEM", "md_parent_section": "§FT [FT — Assumptions]", "md_verbatim": "8. --EVAL and --EVALID must not be used to model QRS data in SDTM. These variables have had various interpretations on QRS CRFs and were used to represent a multitude of evaluator information about QRS instruments. This has made it more difficult for users of SDTM QRS data to interpret this data and more difficult to pool data for analyses. If needed, supplemental qualifiers may be used to represent this data. Updated information on a proposed solution to this issue will be posted on the CDISC QRS webpage (https://www.cdisc.org/standards/foundational/qrs).", "score": 0.7529, "match_basis": "verbatim_token+domain_route:FT"}, {"md_atom_id": "md_dmFT_assn_a029", "md_file": "knowledge_base/domains/FT/assumptions.md", "md_atom_type": "LIST_ITEM", "md_parent_section": "§FT [FT — Assumptions]", "md_verbatim": "   c. The sponsor is expected to provide information about the version used for each QRS instrument in the metadata (using the Comments column in the Define-XML document). This could be provided as value-level metadata for --CAT.", "score": 0.536, "match_basis": "verbatim_token+domain_route:FT"}, {"md_atom_id": "md_dmFT_assn_a032", "md_file": "knowledge_base/domains/FT/assumptions.md", "md_atom_type": "LIST_ITEM", "md_parent_section": "§FT [FT — Assumptions]", "md_verbatim": "   a. The instrument's annotated CRF can also be used as a reference for the full text in both of these situations.", "score": 0.518, "match_basis": "verbatim_token+domain_route:FT"}, {"md_atom_id": "md_dmFT_assn_a026", "md_file": "knowledge_base/domains/FT/assumptions.md", "md_atom_type": "LIST_ITEM", "md_parent_section": "§FT [FT — Assumptions]", "md_verbatim": "6. The actual version number of an instrument is represented in the --CAT value as designated by the QRS Terminology Team. If it is determined that this is not the case for an instrument:", "score": 0.5122, "match_basis": "verbatim_token+domain_route:FT"}, {"md_atom_id": "md_dmFT_assn_a031", "md_file": "knowledge_base/domains/FT/assumptions.md", "md_atom_type": "LIST_ITEM", "md_parent_section": "§FT [FT — Assumptions]", "md_verbatim": "7. If the variable --TEST is represented with verbatim text >40 characters, represent the abbreviated meaningful text in --TEST within 40 characters and describe the full text of the item in the study metadata. If the verbatim item response (e.g., --QSORRES) is >200 characters, represent the abbreviated meaningful text in QSORRES within the 200 characters and describe the full text in the study metadata; see Section 4 of the QRS supplement. See Section 4.5.3, Text Strings that Exceed the Maximum Length for General Observation-class Domain Variables, for further information.", "score": 0.5101, "match_basis": "verbatim_token+domain_route:FT"}], "candidate_count": 5, "zero_candidate": false}
{"pdf_atom_id": "ig34_p0323_a001", "pdf_atom_type": "SENTENCE", "pdf_source": "SDTMIG_v3.4", "pdf_page": 323, "pdf_parent_section": "§6.3.9.1 Functional Tests (FT) — FT-Assumptions — QRS Shared Assumptions", "pdf_verbatim": "data and more difficult to pool data for analyses. If needed, supplemental qualifiers may be used to represent this data. Updated information on a proposed solution to this issue will be posted on the CDISC QRS webpage (https://www.cdisc.org/standards/foundational/qrs).", "figure_ref": null, "candidates": [{"md_atom_id": "md_dmFT_assn_a033", "md_file": "knowledge_base/domains/FT/assumptions.md", "md_atom_type": "LIST_ITEM", "md_parent_section": "§FT [FT — Assumptions]", "md_verbatim": "8. --EVAL and --EVALID must not be used to model QRS data in SDTM. These variables have had various interpretations on QRS CRFs and were used to represent a multitude of evaluator information about QRS instruments. This has made it more difficult for users of SDTM QRS data to interpret this data and more difficult to pool data for analyses. If needed, supplemental qualifiers may be used to represent this data. Updated information on a proposed solution to this issue will be posted on the CDISC QRS webpage (https://www.cdisc.org/standards/foundational/qrs).", "score": 0.6876, "match_basis": "verbatim_token+domain_route:FT"}, {"md_atom_id": "md_dmFT_ex_a002", "md_file": "knowledge_base/domains/FT/examples.md", "md_atom_type": "SENTENCE", "md_parent_section": "§FT [FT — Examples]", "md_verbatim": "CDISC publishes supplements for individual functional tests (at https://www.cdisc.org/standards/foundational/qrs). Additional FT examples can be found in supplements on that webpage.", "score": 0.5702, "match_basis": "verbatim_token+domain_route:FT"}, {"md_atom_id": "md_dmFT_assn_a036", "md_file": "knowledge_base/domains/FT/assumptions.md", "md_atom_type": "LIST_ITEM", "md_parent_section": "§FT [FT — Assumptions]", "md_verbatim": "      i. Once generated, the QRS supplement is posted on the CDISC website (https://www.cdisc.org/standards/foundational/qrs).", "score": 0.5134, "match_basis": "verbatim_token+domain_route:FT"}, {"md_atom_id": "md_dmFT_ex_a005", "md_file": "knowledge_base/domains/FT/examples.md", "md_atom_type": "SENTENCE", "md_parent_section": "§FT.1 [Example 1]", "md_verbatim": "The example represents the distance (in meters) that were walked at each minute of the 6-Minute Walk Test. The assistive device the subject used during the test is represented in the SUPPFT dataset.", "score": 0.4755, "match_basis": "verbatim_token+domain_route:FT"}, {"md_atom_id": "md_dmFT_ex_a014", "md_file": "knowledge_base/domains/FT/examples.md", "md_atom_type": "SENTENCE", "md_parent_section": "§FT.1 [Example 1]", "md_verbatim": "The suppft.xpt dataset represents that the subject used a cane while performing the 6 Minute Walk Test. In this example, FTGRPID is used to link this SUPPFT record to the 6 result records in FT. FTGRPID groups the FT records together by FTCAT and VISITNUM for an USUBJID.", "score": 0.4746, "match_basis": "verbatim_token+domain_route:FT"}], "candidate_count": 5, "zero_candidate": false}
{"pdf_atom_id": "ig34_p0323_a002", "pdf_atom_type": "LIST_ITEM", "pdf_source": "SDTMIG_v3.4", "pdf_page": 323, "pdf_parent_section": "§6.3.9.1 Functional Tests (FT) — FT-Assumptions — QRS Shared Assumptions", "pdf_verbatim": "9.\tAll standard QRS supplement development is coordinated with the CDISC SDS QRS Subteam as the governing body. The process involves drafting the controlled terminology and defining instrument-specific standardized values for qualifier, timing, and result variables to populate the SDTMIG FT, QS, and RS domains. These supplements are developed based on user demand and therapeutic area standards development needs. Sponsors should always consult the CDISC website to review the terminology and supplements prior to modeling any QRS instrument.", "figure_ref": null, "candidates": [{"md_atom_id": "md_dmFT_assn_a034", "md_file": "knowledge_base/domains/FT/assumptions.md", "md_atom_type": "LIST_ITEM", "md_parent_section": "§FT [FT — Assumptions]", "md_verbatim": "9. All standard QRS supplement development is coordinated with the CDISC SDS QRS Subteam as the governing body. The process involves drafting the controlled terminology and defining instrument-specific standardized values for qualifier, timing, and result variables to populate the SDTMIG FT, QS, and RS domains. These supplements are developed based on user demand and therapeutic area standards development needs. Sponsors should always consult the CDISC website to review the terminology and supplements prior to modeling any QRS instrument.", "score": 1.0, "match_basis": "verbatim_token+domain_route:FT"}, {"md_atom_id": "md_dmFT_assn_a007", "md_file": "knowledge_base/domains/FT/assumptions.md", "md_atom_type": "LIST_ITEM", "md_parent_section": "§FT [FT — Assumptions]", "md_verbatim": "1. The name of a QRS instrument is described under the variable --CAT in the relevant QRS domain (i.e., FT, QS, RS), and may be either abbreviations or longer names. For example, \"ADAS-COG\", \"BPI SHORT FORM\", and \"APACHE II\" are all --CATs which are shortened names for the instruments they represent, whereas \"4 STAIR ASCEND\" is the FTCAT for the instrument of the same name. Sponsors should always reference CDISC Controlled Terminology.", "score": 0.5447, "match_basis": "verbatim_token+domain_route:FT"}, {"md_atom_id": "md_dmFT_assn_a035", "md_file": "knowledge_base/domains/FT/assumptions.md", "md_atom_type": "LIST_ITEM", "md_parent_section": "§FT [FT — Assumptions]", "md_verbatim": "   a. Sponsors may participate and/or request the development of additional QRS supplements and terminology through the CDISC SDS QRS subteam and the Controlled Terminology QRS subteam.", "score": 0.5427, "match_basis": "verbatim_token+domain_route:FT"}, {"md_atom_id": "md_dmFT_assn_a033", "md_file": "knowledge_base/domains/FT/assumptions.md", "md_atom_type": "LIST_ITEM", "md_parent_section": "§FT [FT — Assumptions]", "md_verbatim": "8. --EVAL and --EVALID must not be used to model QRS data in SDTM. These variables have had various interpretations on QRS CRFs and were used to represent a multitude of evaluator information about QRS instruments. This has made it more difficult for users of SDTM QRS data to interpret this data and more difficult to pool data for analyses. If needed, supplemental qualifiers may be used to represent this data. Updated information on a proposed solution to this issue will be posted on the CDISC QRS webpage (https://www.cdisc.org/standards/foundational/qrs).", "score": 0.5318, "match_basis": "verbatim_token+domain_route:FT"}, {"md_atom_id": "md_dmFT_assn_a017", "md_file": "knowledge_base/domains/FT/assumptions.md", "md_atom_type": "LIST_ITEM", "md_parent_section": "§FT [FT — Assumptions]", "md_verbatim": "4. Sponsors should always consult published QRS supplements for guidance on submitting derived information in a SDTMIG QRS domain. Derived variable results in QRS are usually considered captured data. If sponsors operationally derive variable results, then the derived records that are submitted in a QRS domain should be flagged by --DRVFL.", "score": 0.5276, "match_basis": "verbatim_token+domain_route:FT"}], "candidate_count": 5, "zero_candidate": false}
{"pdf_atom_id": "ig34_p0323_a003", "pdf_atom_type": "LIST_ITEM", "pdf_source": "SDTMIG_v3.4", "pdf_page": 323, "pdf_parent_section": "§6.3.9.1 Functional Tests (FT) — FT-Assumptions — QRS Shared Assumptions", "pdf_verbatim": "a.\tSponsors may participate and/or request the development of additional QRS supplements and terminology through the CDISC SDS QRS subteam and the Controlled Terminology QRS subteam.", "figure_ref": null, "candidates": [{"md_atom_id": "md_dmFT_assn_a035", "md_file": "knowledge_base/domains/FT/assumptions.md", "md_atom_type": "LIST_ITEM", "md_parent_section": "§FT [FT — Assumptions]", "md_verbatim": "   a. Sponsors may participate and/or request the development of additional QRS supplements and terminology through the CDISC SDS QRS subteam and the Controlled Terminology QRS subteam.", "score": 1.0, "match_basis": "verbatim_token+domain_route:FT"}, {"md_atom_id": "md_dmFT_assn_a015", "md_file": "knowledge_base/domains/FT/assumptions.md", "md_atom_type": "LIST_ITEM", "md_parent_section": "§FT [FT — Assumptions]", "md_verbatim": "   a. --SCAT values are not included in the CDISC Controlled Terminology system but rather controlled as described in the QRS supplements in which they are used.", "score": 0.5699, "match_basis": "verbatim_token+domain_route:FT"}, {"md_atom_id": "md_dmFT_assn_a021", "md_file": "knowledge_base/domains/FT/assumptions.md", "md_atom_type": "LIST_ITEM", "md_parent_section": "§FT [FT — Assumptions]", "md_verbatim": "      iii. QRS subtotal, total, etc. scores not listed on the CRF, but known to be included in eData by sponsors are considered as captured data, are included in the instrument's controlled terminology. The QRS instrument's CT is considered extensible for this case and the subtotal or total score should be requested to be added.", "score": 0.551, "match_basis": "verbatim_token+domain_route:FT"}, {"md_atom_id": "md_dmFT_assn_a034", "md_file": "knowledge_base/domains/FT/assumptions.md", "md_atom_type": "LIST_ITEM", "md_parent_section": "§FT [FT — Assumptions]", "md_verbatim": "9. All standard QRS supplement development is coordinated with the CDISC SDS QRS Subteam as the governing body. The process involves drafting the controlled terminology and defining instrument-specific standardized values for qualifier, timing, and result variables to populate the SDTMIG FT, QS, and RS domains. These supplements are developed based on user demand and therapeutic area standards development needs. Sponsors should always consult the CDISC website to review the terminology and supplements prior to modeling any QRS instrument.", "score": 0.5427, "match_basis": "verbatim_token+domain_route:FT"}, {"md_atom_id": "md_dmFT_assn_a009", "md_file": "knowledge_base/domains/FT/assumptions.md", "md_atom_type": "LIST_ITEM", "md_parent_section": "§FT [FT — Assumptions]", "md_verbatim": "   b. Refer to the following CDISC Controlled Terminology codelists for QRS instrument --CAT terminology:", "score": 0.5398, "match_basis": "verbatim_token+domain_route:FT"}], "candidate_count": 5, "zero_candidate": false}
{"pdf_atom_id": "ig34_p0323_a004", "pdf_atom_type": "LIST_ITEM", "pdf_source": "SDTMIG_v3.4", "pdf_page": 323, "pdf_parent_section": "§6.3.9.1 Functional Tests (FT) — FT-Assumptions — QRS Shared Assumptions", "pdf_verbatim": "i.\tOnce generated, the QRS supplement is posted on the CDISC website (https://www.cdisc.org/standards/foundational/qrs).", "figure_ref": null, "candidates": [{"md_atom_id": "md_dmFT_assn_a036", "md_file": "knowledge_base/domains/FT/assumptions.md", "md_atom_type": "LIST_ITEM", "md_parent_section": "§FT [FT — Assumptions]", "md_verbatim": "      i. Once generated, the QRS supplement is posted on the CDISC website (https://www.cdisc.org/standards/foundational/qrs).", "score": 1.0, "match_basis": "verbatim_token+domain_route:FT"}, {"md_atom_id": "md_dmFT_ex_a002", "md_file": "knowledge_base/domains/FT/examples.md", "md_atom_type": "SENTENCE", "md_parent_section": "§FT [FT — Examples]", "md_verbatim": "CDISC publishes supplements for individual functional tests (at https://www.cdisc.org/standards/foundational/qrs). Additional FT examples can be found in supplements on that webpage.", "score": 0.5342, "match_basis": "verbatim_token+domain_route:FT"}, {"md_atom_id": "md_dmFT_assn_a033", "md_file": "knowledge_base/domains/FT/assumptions.md", "md_atom_type": "LIST_ITEM", "md_parent_section": "§FT [FT — Assumptions]", "md_verbatim": "8. --EVAL and --EVALID must not be used to model QRS data in SDTM. These variables have had various interpretations on QRS CRFs and were used to represent a multitude of evaluator information about QRS instruments. This has made it more difficult for users of SDTM QRS data to interpret this data and more difficult to pool data for analyses. If needed, supplemental qualifiers may be used to represent this data. Updated information on a proposed solution to this issue will be posted on the CDISC QRS webpage (https://www.cdisc.org/standards/foundational/qrs).", "score": 0.5326, "match_basis": "verbatim_token+domain_route:FT"}, {"md_atom_id": "md_dmFT_assn_a008", "md_file": "knowledge_base/domains/FT/assumptions.md", "md_atom_type": "LIST_ITEM", "md_parent_section": "§FT [FT — Assumptions]", "md_verbatim": "   a. The QRS Naming Rules for --CAT, --TEST, and --TESTCD and the list of QRS instruments that have published CDISC Controlled Terminology with NCI/EVS are available at: https://www.cdisc.org/standards/terminology/controlled-terminology.", "score": 0.5027, "match_basis": "verbatim_token+domain_route:FT"}, {"md_atom_id": "md_dmFT_assn_a035", "md_file": "knowledge_base/domains/FT/assumptions.md", "md_atom_type": "LIST_ITEM", "md_parent_section": "§FT [FT — Assumptions]", "md_verbatim": "   a. Sponsors may participate and/or request the development of additional QRS supplements and terminology through the CDISC SDS QRS subteam and the Controlled Terminology QRS subteam.", "score": 0.5027, "match_basis": "verbatim_token+domain_route:FT"}], "candidate_count": 5, "zero_candidate": false}
{"pdf_atom_id": "ig34_p0323_a005", "pdf_atom_type": "LIST_ITEM", "pdf_source": "SDTMIG_v3.4", "pdf_page": 323, "pdf_parent_section": "§6.3.9.1 Functional Tests (FT) — FT-Assumptions — QRS Shared Assumptions", "pdf_verbatim": "ii.\tSponsors should always consult the published QRS supplements for guidance on submitting derived information in SDTMIG-based domains.", "figure_ref": null, "candidates": [{"md_atom_id": "md_dmFT_assn_a037", "md_file": "knowledge_base/domains/FT/assumptions.md", "md_atom_type": "LIST_ITEM", "md_parent_section": "§FT [FT — Assumptions]", "md_verbatim": "      ii. Sponsors should always consult the published QRS supplements for guidance on submitting derived information in SDTMIG-based domains.", "score": 1.0, "match_basis": "verbatim_token+domain_route:FT"}, {"md_atom_id": "md_dmFT_assn_a017", "md_file": "knowledge_base/domains/FT/assumptions.md", "md_atom_type": "LIST_ITEM", "md_parent_section": "§FT [FT — Assumptions]", "md_verbatim": "4. Sponsors should always consult published QRS supplements for guidance on submitting derived information in a SDTMIG QRS domain. Derived variable results in QRS are usually considered captured data. If sponsors operationally derive variable results, then the derived records that are submitted in a QRS domain should be flagged by --DRVFL.", "score": 0.7402, "match_basis": "verbatim_token+domain_route:FT"}, {"md_atom_id": "md_dmFT_assn_a034", "md_file": "knowledge_base/domains/FT/assumptions.md", "md_atom_type": "LIST_ITEM", "md_parent_section": "§FT [FT — Assumptions]", "md_verbatim": "9. All standard QRS supplement development is coordinated with the CDISC SDS QRS Subteam as the governing body. The process involves drafting the controlled terminology and defining instrument-specific standardized values for qualifier, timing, and result variables to populate the SDTMIG FT, QS, and RS domains. These supplements are developed based on user demand and therapeutic area standards development needs. Sponsors should always consult the CDISC website to review the terminology and supplements prior to modeling any QRS instrument.", "score": 0.5159, "match_basis": "verbatim_token+domain_route:FT"}, {"md_atom_id": "md_dmFT_assn_a029", "md_file": "knowledge_base/domains/FT/assumptions.md", "md_atom_type": "LIST_ITEM", "md_parent_section": "§FT [FT — Assumptions]", "md_verbatim": "   c. The sponsor is expected to provide information about the version used for each QRS instrument in the metadata (using the Comments column in the Define-XML document). This could be provided as value-level metadata for --CAT.", "score": 0.5059, "match_basis": "verbatim_token+domain_route:FT"}, {"md_atom_id": "md_dmFT_assn_a007", "md_file": "knowledge_base/domains/FT/assumptions.md", "md_atom_type": "LIST_ITEM", "md_parent_section": "§FT [FT — Assumptions]", "md_verbatim": "1. The name of a QRS instrument is described under the variable --CAT in the relevant QRS domain (i.e., FT, QS, RS), and may be either abbreviations or longer names. For example, \"ADAS-COG\", \"BPI SHORT FORM\", and \"APACHE II\" are all --CATs which are shortened names for the instruments they represent, whereas \"4 STAIR ASCEND\" is the FTCAT for the instrument of the same name. Sponsors should always reference CDISC Controlled Terminology.", "score": 0.5037, "match_basis": "verbatim_token+domain_route:FT"}], "candidate_count": 5, "zero_candidate": false}
{"pdf_atom_id": "ig34_p0323_a006", "pdf_atom_type": "LIST_ITEM", "pdf_source": "SDTMIG_v3.4", "pdf_page": 323, "pdf_parent_section": "§6.3.9.1 Functional Tests (FT) — FT-Assumptions — QRS Shared Assumptions", "pdf_verbatim": "10.\tAny identifiers, timing variables, or findings general observation class qualifiers may be added to a QRS domain, but the following qualifiers would generally not be used: --POS, --BODSYS, --ORNRLO, --ORNRHI, --STNRLO, --STNRHI, --STRNC, --NRIND, --XFN, --LOINC, --SPEC, --SPCCND, --LOC, --FAST, --TOX, --TOXGR, --SEV.", "figure_ref": null, "candidates": [{"md_atom_id": "md_dmFT_assn_a038", "md_file": "knowledge_base/domains/FT/assumptions.md", "md_atom_type": "LIST_ITEM", "md_parent_section": "§FT [FT — Assumptions]", "md_verbatim": "10. Any identifiers, timing variables, or findings general observation class qualifiers may be added to a QRS domain, but the following qualifiers would generally not be used: --POS, --BODSYS, --ORNRLO, --ORNRHI, --STNRLO, --STNRHI, --STNRC, --NRIND, --XFN, --LOINC, --SPEC, --SPCCND, --LOC, --FAST, --TOX, --TOXGR, --SEV.", "score": 0.9778, "match_basis": "verbatim_token+domain_route:FT"}, {"md_atom_id": "md_dmFT_assn_a031", "md_file": "knowledge_base/domains/FT/assumptions.md", "md_atom_type": "LIST_ITEM", "md_parent_section": "§FT [FT — Assumptions]", "md_verbatim": "7. If the variable --TEST is represented with verbatim text >40 characters, represent the abbreviated meaningful text in --TEST within 40 characters and describe the full text of the item in the study metadata. If the verbatim item response (e.g., --QSORRES) is >200 characters, represent the abbreviated meaningful text in QSORRES within the 200 characters and describe the full text in the study metadata; see Section 4 of the QRS supplement. See Section 4.5.3, Text Strings that Exceed the Maximum Length for General Observation-class Domain Variables, for further information.", "score": 0.5033, "match_basis": "verbatim_token+domain_route:FT"}, {"md_atom_id": "md_dmFT_assn_a034", "md_file": "knowledge_base/domains/FT/assumptions.md", "md_atom_type": "LIST_ITEM", "md_parent_section": "§FT [FT — Assumptions]", "md_verbatim": "9. All standard QRS supplement development is coordinated with the CDISC SDS QRS Subteam as the governing body. The process involves drafting the controlled terminology and defining instrument-specific standardized values for qualifier, timing, and result variables to populate the SDTMIG FT, QS, and RS domains. These supplements are developed based on user demand and therapeutic area standards development needs. Sponsors should always consult the CDISC website to review the terminology and supplements prior to modeling any QRS instrument.", "score": 0.4892, "match_basis": "verbatim_token+domain_route:FT"}, {"md_atom_id": "md_dmFT_assn_a033", "md_file": "knowledge_base/domains/FT/assumptions.md", "md_atom_type": "LIST_ITEM", "md_parent_section": "§FT [FT — Assumptions]", "md_verbatim": "8. --EVAL and --EVALID must not be used to model QRS data in SDTM. These variables have had various interpretations on QRS CRFs and were used to represent a multitude of evaluator information about QRS instruments. This has made it more difficult for users of SDTM QRS data to interpret this data and more difficult to pool data for analyses. If needed, supplemental qualifiers may be used to represent this data. Updated information on a proposed solution to this issue will be posted on the CDISC QRS webpage (https://www.cdisc.org/standards/foundational/qrs).", "score": 0.4702, "match_basis": "verbatim_token+domain_route:FT"}, {"md_atom_id": "md_dmFT_assn_a017", "md_file": "knowledge_base/domains/FT/assumptions.md", "md_atom_type": "LIST_ITEM", "md_parent_section": "§FT [FT — Assumptions]", "md_verbatim": "4. Sponsors should always consult published QRS supplements for guidance on submitting derived information in a SDTMIG QRS domain. Derived variable results in QRS are usually considered captured data. If sponsors operationally derive variable results, then the derived records that are submitted in a QRS domain should be flagged by --DRVFL.", "score": 0.4699, "match_basis": "verbatim_token+domain_route:FT"}], "candidate_count": 5, "zero_candidate": false}
{"pdf_atom_id": "ig34_p0323_a007", "pdf_atom_type": "HEADING", "pdf_source": "SDTMIG_v3.4", "pdf_page": 323, "pdf_parent_section": "§6.3.9.1 Functional Tests (FT)", "pdf_verbatim": "FT – Examples", "figure_ref": null, "candidates": [{"md_atom_id": "md_dmFT_ex_a001", "md_file": "knowledge_base/domains/FT/examples.md", "md_atom_type": "HEADING", "md_parent_section": "§FT [FT — Examples]", "md_verbatim": "# FT — Examples", "score": 1.0, "match_basis": "verbatim_token+domain_route:FT"}, {"md_atom_id": "md_dmFT_ex_a003", "md_file": "knowledge_base/domains/FT/examples.md", "md_atom_type": "HEADING", "md_parent_section": "§FT [FT — Examples]", "md_verbatim": "## Example 1", "score": 0.9, "match_basis": "verbatim_token+domain_route:FT"}, {"md_atom_id": "md_dmFT_assn_a001", "md_file": "knowledge_base/domains/FT/assumptions.md", "md_atom_type": "HEADING", "md_parent_section": "§FT [FT — Assumptions]", "md_verbatim": "# FT — Assumptions", "score": 0.4, "match_basis": "verbatim_token+domain_route:FT"}, {"md_atom_id": "md_dmFT_assn_a005", "md_file": "knowledge_base/domains/FT/assumptions.md", "md_atom_type": "HEADING", "md_parent_section": "§FT [FT — Assumptions]", "md_verbatim": "## QRS Shared Assumptions", "score": 0.4, "match_basis": "verbatim_token+domain_route:FT"}], "candidate_count": 4, "zero_candidate": false}
{"pdf_atom_id": "ig34_p0323_a008", "pdf_atom_type": "SENTENCE", "pdf_source": "SDTMIG_v3.4", "pdf_page": 323, "pdf_parent_section": "§6.3.9.1 Functional Tests (FT) — FT-Examples", "pdf_verbatim": "CDISC publishes supplements for individual functional tests (at https://www.cdisc.org/standards/foundational/qrs Additional FT examples can be found in supplements on that webpage.", "figure_ref": null, "candidates": [{"md_atom_id": "md_dmFT_ex_a002", "md_file": "knowledge_base/domains/FT/examples.md", "md_atom_type": "SENTENCE", "md_parent_section": "§FT [FT — Examples]", "md_verbatim": "CDISC publishes supplements for individual functional tests (at https://www.cdisc.org/standards/foundational/qrs). Additional FT examples can be found in supplements on that webpage.", "score": 1.0, "match_basis": "verbatim_token+domain_route:FT"}, {"md_atom_id": "md_dmFT_assn_a036", "md_file": "knowledge_base/domains/FT/assumptions.md", "md_atom_type": "LIST_ITEM", "md_parent_section": "§FT [FT — Assumptions]", "md_verbatim": "      i. Once generated, the QRS supplement is posted on the CDISC website (https://www.cdisc.org/standards/foundational/qrs).", "score": 0.5342, "match_basis": "verbatim_token+domain_route:FT"}, {"md_atom_id": "md_dmFT_ex_a005", "md_file": "knowledge_base/domains/FT/examples.md", "md_atom_type": "SENTENCE", "md_parent_section": "§FT.1 [Example 1]", "md_verbatim": "The example represents the distance (in meters) that were walked at each minute of the 6-Minute Walk Test. The assistive device the subject used during the test is represented in the SUPPFT dataset.", "score": 0.4791, "match_basis": "verbatim_token+domain_route:FT"}, {"md_atom_id": "md_dmFT_ex_a014", "md_file": "knowledge_base/domains/FT/examples.md", "md_atom_type": "SENTENCE", "md_parent_section": "§FT.1 [Example 1]", "md_verbatim": "The suppft.xpt dataset represents that the subject used a cane while performing the 6 Minute Walk Test. In this example, FTGRPID is used to link this SUPPFT record to the 6 result records in FT. FTGRPID groups the FT records together by FTCAT and VISITNUM for an USUBJID.", "score": 0.473, "match_basis": "verbatim_token+domain_route:FT"}, {"md_atom_id": "md_dmFT_assn_a008", "md_file": "knowledge_base/domains/FT/assumptions.md", "md_atom_type": "LIST_ITEM", "md_parent_section": "§FT [FT — Assumptions]", "md_verbatim": "   a. The QRS Naming Rules for --CAT, --TEST, and --TESTCD and the list of QRS instruments that have published CDISC Controlled Terminology with NCI/EVS are available at: https://www.cdisc.org/standards/terminology/controlled-terminology.", "score": 0.4625, "match_basis": "verbatim_token+domain_route:FT"}], "candidate_count": 5, "zero_candidate": false}
{"pdf_atom_id": "ig34_p0323_a009", "pdf_atom_type": "HEADING", "pdf_source": "SDTMIG_v3.4", "pdf_page": 323, "pdf_parent_section": "§6.3.9.1 Functional Tests (FT) — FT-Examples", "pdf_verbatim": "Example 1", "figure_ref": null, "candidates": [{"md_atom_id": "md_dmFT_ex_a003", "md_file": "knowledge_base/domains/FT/examples.md", "md_atom_type": "HEADING", "md_parent_section": "§FT [FT — Examples]", "md_verbatim": "## Example 1", "score": 1.0, "match_basis": "verbatim_token+domain_route:FT"}, {"md_atom_id": "md_dmFT_ex_a001", "md_file": "knowledge_base/domains/FT/examples.md", "md_atom_type": "HEADING", "md_parent_section": "§FT [FT — Examples]", "md_verbatim": "# FT — Examples", "score": 0.9, "match_basis": "verbatim_token+domain_route:FT"}, {"md_atom_id": "md_dmFT_assn_a001", "md_file": "knowledge_base/domains/FT/assumptions.md", "md_atom_type": "HEADING", "md_parent_section": "§FT [FT — Assumptions]", "md_verbatim": "# FT — Assumptions", "score": 0.4, "match_basis": "verbatim_token+domain_route:FT"}, {"md_atom_id": "md_dmFT_assn_a005", "md_file": "knowledge_base/domains/FT/assumptions.md", "md_atom_type": "HEADING", "md_parent_section": "§FT [FT — Assumptions]", "md_verbatim": "## QRS Shared Assumptions", "score": 0.4, "match_basis": "verbatim_token+domain_route:FT"}], "candidate_count": 4, "zero_candidate": false}
{"pdf_atom_id": "ig34_p0323_a010", "pdf_atom_type": "HEADING", "pdf_source": "SDTMIG_v3.4", "pdf_page": 323, "pdf_parent_section": "§6.3.9.1 Functional Tests (FT) — FT-Examples — Example 1", "pdf_verbatim": "6-Minute Walk Test (SIX MINUTE WALK)", "figure_ref": null, "candidates": [{"md_atom_id": "md_dmFT_assn_a001", "md_file": "knowledge_base/domains/FT/assumptions.md", "md_atom_type": "HEADING", "md_parent_section": "§FT [FT — Assumptions]", "md_verbatim": "# FT — Assumptions", "score": 0.4, "match_basis": "verbatim_token+domain_route:FT"}, {"md_atom_id": "md_dmFT_assn_a005", "md_file": "knowledge_base/domains/FT/assumptions.md", "md_atom_type": "HEADING", "md_parent_section": "§FT [FT — Assumptions]", "md_verbatim": "## QRS Shared Assumptions", "score": 0.4, "match_basis": "verbatim_token+domain_route:FT"}, {"md_atom_id": "md_dmFT_ex_a001", "md_file": "knowledge_base/domains/FT/examples.md", "md_atom_type": "HEADING", "md_parent_section": "§FT [FT — Examples]", "md_verbatim": "# FT — Examples", "score": 0.4, "match_basis": "verbatim_token+domain_route:FT"}, {"md_atom_id": "md_dmFT_ex_a003", "md_file": "knowledge_base/domains/FT/examples.md", "md_atom_type": "HEADING", "md_parent_section": "§FT [FT — Examples]", "md_verbatim": "## Example 1", "score": 0.4, "match_basis": "verbatim_token+domain_route:FT"}], "candidate_count": 4, "zero_candidate": false}
{"pdf_atom_id": "ig34_p0323_a011", "pdf_atom_type": "SENTENCE", "pdf_source": "SDTMIG_v3.4", "pdf_page": 323, "pdf_parent_section": "§6.3.9.1 Functional Tests (FT) — FT-Examples — Example 1 — 6-Minute Walk Test (SIX MINUTE WALK)", "pdf_verbatim": "The example represents the distance (in meters) that were walked at each minute of the 6-Minute Walk Test. The assistive device the subject used during the test is represented in the SUPPFT dataset.", "figure_ref": null, "candidates": [{"md_atom_id": "md_dmFT_ex_a005", "md_file": "knowledge_base/domains/FT/examples.md", "md_atom_type": "SENTENCE", "md_parent_section": "§FT.1 [Example 1]", "md_verbatim": "The example represents the distance (in meters) that were walked at each minute of the 6-Minute Walk Test. The assistive device the subject used during the test is represented in the SUPPFT dataset.", "score": 1.0, "match_basis": "verbatim_token+domain_route:FT"}, {"md_atom_id": "md_dmFT_ex_a014", "md_file": "knowledge_base/domains/FT/examples.md", "md_atom_type": "SENTENCE", "md_parent_section": "§FT.1 [Example 1]", "md_verbatim": "The suppft.xpt dataset represents that the subject used a cane while performing the 6 Minute Walk Test. In this example, FTGRPID is used to link this SUPPFT record to the 6 result records in FT. FTGRPID groups the FT records together by FTCAT and VISITNUM for an USUBJID.", "score": 0.6, "match_basis": "verbatim_token+domain_route:FT"}, {"md_atom_id": "md_dmFT_ex_a002", "md_file": "knowledge_base/domains/FT/examples.md", "md_atom_type": "SENTENCE", "md_parent_section": "§FT [FT — Examples]", "md_verbatim": "CDISC publishes supplements for individual functional tests (at https://www.cdisc.org/standards/foundational/qrs). Additional FT examples can be found in supplements on that webpage.", "score": 0.4791, "match_basis": "verbatim_token+domain_route:FT"}, {"md_atom_id": "md_dmFT_ex_a004", "md_file": "knowledge_base/domains/FT/examples.md", "md_atom_type": "SENTENCE", "md_parent_section": "§FT.1 [Example 1]", "md_verbatim": "**6-Minute Walk Test (SIX MINUTE WALK)**", "score": 0.4658, "match_basis": "verbatim_token+domain_route:FT"}, {"md_atom_id": "md_dmFT_assn_a006", "md_file": "knowledge_base/domains/FT/assumptions.md", "md_atom_type": "SENTENCE", "md_parent_section": "§FT [FT — Assumptions]", "md_verbatim": "The following assumptions are common to the FT and QS domains as well as the Clinical Classifications use case of the RS domain (not the Disease Response use case of RS):", "score": 0.4397, "match_basis": "verbatim_token+domain_route:FT"}], "candidate_count": 5, "zero_candidate": false}
{"pdf_atom_id": "ig34_p0323_a012", "pdf_atom_type": "CODE_LITERAL", "pdf_source": "SDTMIG_v3.4", "pdf_page": 323, "pdf_parent_section": "§6.3.9.1 Functional Tests (FT) — FT-Examples — Example 1 — 6-Minute Walk Test (SIX MINUTE WALK)", "pdf_verbatim": "ft.xpt", "figure_ref": null, "candidates": [{"md_atom_id": "md_dmFT_ex_a006", "md_file": "knowledge_base/domains/FT/examples.md", "md_atom_type": "SENTENCE", "md_parent_section": "§FT.1 [Example 1]", "md_verbatim": "**ft.xpt**", "score": 0.79, "match_basis": "verbatim_token+domain_route:FT"}, {"md_atom_id": "md_dmFT_ex_a015", "md_file": "knowledge_base/domains/FT/examples.md", "md_atom_type": "SENTENCE", "md_parent_section": "§FT.1 [Example 1]", "md_verbatim": "**suppft.xpt**", "score": 0.31, "match_basis": "verbatim_token+domain_route:FT"}, {"md_atom_id": "md_dmFT_ex_a014", "md_file": "knowledge_base/domains/FT/examples.md", "md_atom_type": "SENTENCE", "md_parent_section": "§FT.1 [Example 1]", "md_verbatim": "The suppft.xpt dataset represents that the subject used a cane while performing the 6 Minute Walk Test. In this example, FTGRPID is used to link this SUPPFT record to the 6 result records in FT. FTGRPID groups the FT records together by FTCAT and VISITNUM for an USUBJID.", "score": 0.1965, "match_basis": "verbatim_token+domain_route:FT"}, {"md_atom_id": "md_dmFT_assn_a001", "md_file": "knowledge_base/domains/FT/assumptions.md", "md_atom_type": "HEADING", "md_parent_section": "§FT [FT — Assumptions]", "md_verbatim": "# FT — Assumptions", "score": 0.19, "match_basis": "verbatim_token+domain_route:FT"}, {"md_atom_id": "md_dmFT_assn_a002", "md_file": "knowledge_base/domains/FT/assumptions.md", "md_atom_type": "SENTENCE", "md_parent_section": "§FT [FT — Assumptions]", "md_verbatim": "The following assumptions are unique to the FT domain:", "score": 0.19, "match_basis": "verbatim_token+domain_route:FT"}, {"md_atom_id": "md_dmFT_assn_a003", "md_file": "knowledge_base/domains/FT/assumptions.md", "md_atom_type": "LIST_ITEM", "md_parent_section": "§FT [FT — Assumptions]", "md_verbatim": "1. A functional test is not a subjective assessment of how the subject generally performs a task, but rather an objective measurement of the performance of the task by the subject in a specific instance.", "score": 0.19, "match_basis": "verbatim_token+domain_route:FT"}, {"md_atom_id": "md_dmFT_assn_a004", "md_file": "knowledge_base/domains/FT/assumptions.md", "md_atom_type": "LIST_ITEM", "md_parent_section": "§FT [FT — Assumptions]", "md_verbatim": "2. Functional tests have documented methods for administration and analysis and require a subject to perform specific activities that are evaluated and recorded. Most often, functional tests are direct quantitative measurements. Examples of functional tests include the Timed 25-Foot Walk, 9-Hole Peg Test, and the Hauser Ambulation Index.", "score": 0.19, "match_basis": "verbatim_token+domain_route:FT"}, {"md_atom_id": "md_dmFT_assn_a005", "md_file": "knowledge_base/domains/FT/assumptions.md", "md_atom_type": "HEADING", "md_parent_section": "§FT [FT — Assumptions]", "md_verbatim": "## QRS Shared Assumptions", "score": 0.19, "match_basis": "verbatim_token+domain_route:FT"}, {"md_atom_id": "md_dmFT_assn_a006", "md_file": "knowledge_base/domains/FT/assumptions.md", "md_atom_type": "SENTENCE", "md_parent_section": "§FT [FT — Assumptions]", "md_verbatim": "The following assumptions are common to the FT and QS domains as well as the Clinical Classifications use case of the RS domain (not the Disease Response use case of RS):", "score": 0.19, "match_basis": "verbatim_token+domain_route:FT"}, {"md_atom_id": "md_dmFT_assn_a007", "md_file": "knowledge_base/domains/FT/assumptions.md", "md_atom_type": "LIST_ITEM", "md_parent_section": "§FT [FT — Assumptions]", "md_verbatim": "1. The name of a QRS instrument is described under the variable --CAT in the relevant QRS domain (i.e., FT, QS, RS), and may be either abbreviations or longer names. For example, \"ADAS-COG\", \"BPI SHORT FORM\", and \"APACHE II\" are all --CATs which are shortened names for the instruments they represent, whereas \"4 STAIR ASCEND\" is the FTCAT for the instrument of the same name. Sponsors should always reference CDISC Controlled Terminology.", "score": 0.19, "match_basis": "verbatim_token+domain_route:FT"}], "candidate_count": 10, "zero_candidate": false}
{"pdf_atom_id": "ig34_p0323_a013", "pdf_atom_type": "TABLE_HEADER", "pdf_source": "SDTMIG_v3.4", "pdf_page": 323, "pdf_parent_section": "§6.3.9.1 Functional Tests (FT) — FT-Examples — Example 1 — 6-Minute Walk Test (SIX MINUTE WALK)", "pdf_verbatim": "| Row | STUDYID | DOMAIN | USUBJID | FTSEQ | FTGRPID | FTTESTCD | FTTEST | FTCAT | FTORRES | FTORRESU | FTSTRESC | FTSTRESN | FTSTRESU | FTBLFL | VISITNUM | FTDTC |", "figure_ref": null, "candidates": [{"md_atom_id": "md_dmFT_ex_a007", "md_file": "knowledge_base/domains/FT/examples.md", "md_atom_type": "TABLE_HEADER", "md_parent_section": "§FT.1 [Example 1]", "md_verbatim": "| Row | STUDYID | DOMAIN | USUBJID | FTSEQ | FTGRPID | FTTESTCD | FTTEST | FTCAT | FTORRES | FTORRESU | FTSTRESC | FTSTRESN | FTSTRESU | FTBLFL | VISITNUM | FTDTC |\n|-----|---------|--------|---------|-------|---------|----------|--------|-------|---------|----------|----------|----------|----------|--------|----------|-------|", "score": 1.0, "match_basis": "verbatim_token+domain_route:FT"}, {"md_atom_id": "md_dmFT_ex_a016", "md_file": "knowledge_base/domains/FT/examples.md", "md_atom_type": "TABLE_HEADER", "md_parent_section": "§FT.1 [Example 1]", "md_verbatim": "| Row | STUDYID | RDOMAIN | USUBJID | IDVAR | IDVARVAL | QNAM | QLABEL | QVAL | QORIG | QEVAL |\n|-----|---------|---------|---------|-------|----------|------|--------|------|-------|-------|", "score": 0.52, "match_basis": "verbatim_token+domain_route:FT"}, {"md_atom_id": "md_dmFT_ex_a017", "md_file": "knowledge_base/domains/FT/examples.md", "md_atom_type": "TABLE_ROW", "md_parent_section": "§FT.1 [Example 1]", "md_verbatim": "| 1 | STUDYX | FT | MS01-01 | FTGRPID | 1 | FTASSTDV | Assistance Device | CANE | CRF | INVESTIGATOR |", "score": 0.409, "match_basis": "verbatim_token+domain_route:FT"}, {"md_atom_id": "md_dmFT_ex_a009", "md_file": "knowledge_base/domains/FT/examples.md", "md_atom_type": "TABLE_ROW", "md_parent_section": "§FT.1 [Example 1]", "md_verbatim": "| 2 | STUDYX | FT | MS01-01 | 2 | 1 | SIXMW102 | SIXMW1-Distance at 2 Minutes | SIX MINUTE WALK | 201 | m | 201 | 201 | m | Y | 1 | 2014-03-10 |", "score": 0.3704, "match_basis": "verbatim_token+domain_route:FT"}, {"md_atom_id": "md_dmFT_ex_a010", "md_file": "knowledge_base/domains/FT/examples.md", "md_atom_type": "TABLE_ROW", "md_parent_section": "§FT.1 [Example 1]", "md_verbatim": "| 3 | STUDYX | FT | MS01-01 | 3 | 1 | SIXMW103 | SIXMW1-Distance at 3 Minutes | SIX MINUTE WALK | 299 | m | 299 | 299 | m | Y | 1 | 2014-03-10 |", "score": 0.37, "match_basis": "verbatim_token+domain_route:FT"}], "candidate_count": 5, "zero_candidate": false}
{"pdf_atom_id": "ig34_p0323_a014", "pdf_atom_type": "TABLE_ROW", "pdf_source": "SDTMIG_v3.4", "pdf_page": 323, "pdf_parent_section": "§6.3.9.1 Functional Tests (FT) — FT-Examples — Example 1 — 6-Minute Walk Test (SIX MINUTE WALK)", "pdf_verbatim": "| 1 | STUDYX | FT | MS01-01 | 1 | 1 | SIXMW101 | SIXMW1- Distance at 1 Minute | SIX MINUTE WALK | 101 | m | 101 | 101 | m | Y | 1 | 2014-03-10 |", "figure_ref": null, "candidates": [{"md_atom_id": "md_dmFT_ex_a008", "md_file": "knowledge_base/domains/FT/examples.md", "md_atom_type": "TABLE_ROW", "md_parent_section": "§FT.1 [Example 1]", "md_verbatim": "| 1 | STUDYX | FT | MS01-01 | 1 | 1 | SIXMW101 | SIXMW1-Distance at 1 Minute | SIX MINUTE WALK | 101 | m | 101 | 101 | m | Y | 1 | 2014-03-10 |", "score": 1.0, "match_basis": "verbatim_token+domain_route:FT"}, {"md_atom_id": "md_dmFT_ex_a009", "md_file": "knowledge_base/domains/FT/examples.md", "md_atom_type": "TABLE_ROW", "md_parent_section": "§FT.1 [Example 1]", "md_verbatim": "| 2 | STUDYX | FT | MS01-01 | 2 | 1 | SIXMW102 | SIXMW1-Distance at 2 Minutes | SIX MINUTE WALK | 201 | m | 201 | 201 | m | Y | 1 | 2014-03-10 |", "score": 0.9357, "match_basis": "verbatim_token+domain_route:FT"}, {"md_atom_id": "md_dmFT_ex_a010", "md_file": "knowledge_base/domains/FT/examples.md", "md_atom_type": "TABLE_ROW", "md_parent_section": "§FT.1 [Example 1]", "md_verbatim": "| 3 | STUDYX | FT | MS01-01 | 3 | 1 | SIXMW103 | SIXMW1-Distance at 3 Minutes | SIX MINUTE WALK | 299 | m | 299 | 299 | m | Y | 1 | 2014-03-10 |", "score": 0.9172, "match_basis": "verbatim_token+domain_route:FT"}, {"md_atom_id": "md_dmFT_ex_a011", "md_file": "knowledge_base/domains/FT/examples.md", "md_atom_type": "TABLE_ROW", "md_parent_section": "§FT.1 [Example 1]", "md_verbatim": "| 4 | STUDYX | FT | MS01-01 | 4 | 1 | SIXMW104 | SIXMW1-Distance at 4 Minutes | SIX MINUTE WALK | 396 | m | 396 | 396 | m | Y | 1 | 2014-03-10 |", "score": 0.9172, "match_basis": "verbatim_token+domain_route:FT"}, {"md_atom_id": "md_dmFT_ex_a012", "md_file": "knowledge_base/domains/FT/examples.md", "md_atom_type": "TABLE_ROW", "md_parent_section": "§FT.1 [Example 1]", "md_verbatim": "| 5 | STUDYX | FT | MS01-01 | 5 | 1 | SIXMW105 | SIXMW1-Distance at 5 Minutes | SIX MINUTE WALK | 493 | m | 493 | 493 | m | Y | 1 | 2014-03-10 |", "score": 0.9172, "match_basis": "verbatim_token+domain_route:FT"}], "candidate_count": 5, "zero_candidate": false}
{"pdf_atom_id": "ig34_p0323_a015", "pdf_atom_type": "TABLE_ROW", "pdf_source": "SDTMIG_v3.4", "pdf_page": 323, "pdf_parent_section": "§6.3.9.1 Functional Tests (FT) — FT-Examples — Example 1 — 6-Minute Walk Test (SIX MINUTE WALK)", "pdf_verbatim": "| 2 | STUDYX | FT | MS01-01 | 2 | 1 | SIXMW102 | SIXMW1- Distance at 2 Minutes | SIX MINUTE WALK | 201 | m | 201 | 201 | m | Y | 1 | 2014-03-10 |", "figure_ref": null, "candidates": [{"md_atom_id": "md_dmFT_ex_a009", "md_file": "knowledge_base/domains/FT/examples.md", "md_atom_type": "TABLE_ROW", "md_parent_section": "§FT.1 [Example 1]", "md_verbatim": "| 2 | STUDYX | FT | MS01-01 | 2 | 1 | SIXMW102 | SIXMW1-Distance at 2 Minutes | SIX MINUTE WALK | 201 | m | 201 | 201 | m | Y | 1 | 2014-03-10 |", "score": 1.0, "match_basis": "verbatim_token+domain_route:FT"}, {"md_atom_id": "md_dmFT_ex_a010", "md_file": "knowledge_base/domains/FT/examples.md", "md_atom_type": "TABLE_ROW", "md_parent_section": "§FT.1 [Example 1]", "md_verbatim": "| 3 | STUDYX | FT | MS01-01 | 3 | 1 | SIXMW103 | SIXMW1-Distance at 3 Minutes | SIX MINUTE WALK | 299 | m | 299 | 299 | m | Y | 1 | 2014-03-10 |", "score": 0.9379, "match_basis": "verbatim_token+domain_route:FT"}, {"md_atom_id": "md_dmFT_ex_a011", "md_file": "knowledge_base/domains/FT/examples.md", "md_atom_type": "TABLE_ROW", "md_parent_section": "§FT.1 [Example 1]", "md_verbatim": "| 4 | STUDYX | FT | MS01-01 | 4 | 1 | SIXMW104 | SIXMW1-Distance at 4 Minutes | SIX MINUTE WALK | 396 | m | 396 | 396 | m | Y | 1 | 2014-03-10 |", "score": 0.9379, "match_basis": "verbatim_token+domain_route:FT"}, {"md_atom_id": "md_dmFT_ex_a012", "md_file": "knowledge_base/domains/FT/examples.md", "md_atom_type": "TABLE_ROW", "md_parent_section": "§FT.1 [Example 1]", "md_verbatim": "| 5 | STUDYX | FT | MS01-01 | 5 | 1 | SIXMW105 | SIXMW1-Distance at 5 Minutes | SIX MINUTE WALK | 493 | m | 493 | 493 | m | Y | 1 | 2014-03-10 |", "score": 0.9379, "match_basis": "verbatim_token+domain_route:FT"}, {"md_atom_id": "md_dmFT_ex_a013", "md_file": "knowledge_base/domains/FT/examples.md", "md_atom_type": "TABLE_ROW", "md_parent_section": "§FT.1 [Example 1]", "md_verbatim": "| 6 | STUDYX | FT | MS01-01 | 6 | 1 | SIXMW106 | SIXMW1-Distance at 6 Minutes | SIX MINUTE WALK | 597 | m | 597 | 597 | m | Y | 1 | 2014-03-10 |", "score": 0.9379, "match_basis": "verbatim_token+domain_route:FT"}], "candidate_count": 5, "zero_candidate": false}
{"pdf_atom_id": "ig34_p0323_a016", "pdf_atom_type": "TABLE_ROW", "pdf_source": "SDTMIG_v3.4", "pdf_page": 323, "pdf_parent_section": "§6.3.9.1 Functional Tests (FT) — FT-Examples — Example 1 — 6-Minute Walk Test (SIX MINUTE WALK)", "pdf_verbatim": "| 3 | STUDYX | FT | MS01-01 | 3 | 1 | SIXMW103 | SIXMW1- Distance at 3 Minutes | SIX MINUTE WALK | 299 | m | 299 | 299 | m | Y | 1 | 2014-03-10 |", "figure_ref": null, "candidates": [{"md_atom_id": "md_dmFT_ex_a010", "md_file": "knowledge_base/domains/FT/examples.md", "md_atom_type": "TABLE_ROW", "md_parent_section": "§FT.1 [Example 1]", "md_verbatim": "| 3 | STUDYX | FT | MS01-01 | 3 | 1 | SIXMW103 | SIXMW1-Distance at 3 Minutes | SIX MINUTE WALK | 299 | m | 299 | 299 | m | Y | 1 | 2014-03-10 |", "score": 1.0, "match_basis": "verbatim_token+domain_route:FT"}, {"md_atom_id": "md_dmFT_ex_a009", "md_file": "knowledge_base/domains/FT/examples.md", "md_atom_type": "TABLE_ROW", "md_parent_section": "§FT.1 [Example 1]", "md_verbatim": "| 2 | STUDYX | FT | MS01-01 | 2 | 1 | SIXMW102 | SIXMW1-Distance at 2 Minutes | SIX MINUTE WALK | 201 | m | 201 | 201 | m | Y | 1 | 2014-03-10 |", "score": 0.9379, "match_basis": "verbatim_token+domain_route:FT"}, {"md_atom_id": "md_dmFT_ex_a011", "md_file": "knowledge_base/domains/FT/examples.md", "md_atom_type": "TABLE_ROW", "md_parent_section": "§FT.1 [Example 1]", "md_verbatim": "| 4 | STUDYX | FT | MS01-01 | 4 | 1 | SIXMW104 | SIXMW1-Distance at 4 Minutes | SIX MINUTE WALK | 396 | m | 396 | 396 | m | Y | 1 | 2014-03-10 |", "score": 0.92, "match_basis": "verbatim_token+domain_route:FT"}, {"md_atom_id": "md_dmFT_ex_a012", "md_file": "knowledge_base/domains/FT/examples.md", "md_atom_type": "TABLE_ROW", "md_parent_section": "§FT.1 [Example 1]", "md_verbatim": "| 5 | STUDYX | FT | MS01-01 | 5 | 1 | SIXMW105 | SIXMW1-Distance at 5 Minutes | SIX MINUTE WALK | 493 | m | 493 | 493 | m | Y | 1 | 2014-03-10 |", "score": 0.92, "match_basis": "verbatim_token+domain_route:FT"}, {"md_atom_id": "md_dmFT_ex_a013", "md_file": "knowledge_base/domains/FT/examples.md", "md_atom_type": "TABLE_ROW", "md_parent_section": "§FT.1 [Example 1]", "md_verbatim": "| 6 | STUDYX | FT | MS01-01 | 6 | 1 | SIXMW106 | SIXMW1-Distance at 6 Minutes | SIX MINUTE WALK | 597 | m | 597 | 597 | m | Y | 1 | 2014-03-10 |", "score": 0.92, "match_basis": "verbatim_token+domain_route:FT"}], "candidate_count": 5, "zero_candidate": false}
{"pdf_atom_id": "ig34_p0323_a017", "pdf_atom_type": "TABLE_ROW", "pdf_source": "SDTMIG_v3.4", "pdf_page": 323, "pdf_parent_section": "§6.3.9.1 Functional Tests (FT) — FT-Examples — Example 1 — 6-Minute Walk Test (SIX MINUTE WALK)", "pdf_verbatim": "| 4 | STUDYX | FT | MS01-01 | 4 | 1 | SIXMW104 | SIXMW1- Distance at 4 Minutes | SIX MINUTE WALK | 396 | m | 396 | 396 | m | Y | 1 | 2014-03-10 |", "figure_ref": null, "candidates": [{"md_atom_id": "md_dmFT_ex_a011", "md_file": "knowledge_base/domains/FT/examples.md", "md_atom_type": "TABLE_ROW", "md_parent_section": "§FT.1 [Example 1]", "md_verbatim": "| 4 | STUDYX | FT | MS01-01 | 4 | 1 | SIXMW104 | SIXMW1-Distance at 4 Minutes | SIX MINUTE WALK | 396 | m | 396 | 396 | m | Y | 1 | 2014-03-10 |", "score": 1.0, "match_basis": "verbatim_token+domain_route:FT"}, {"md_atom_id": "md_dmFT_ex_a009", "md_file": "knowledge_base/domains/FT/examples.md", "md_atom_type": "TABLE_ROW", "md_parent_section": "§FT.1 [Example 1]", "md_verbatim": "| 2 | STUDYX | FT | MS01-01 | 2 | 1 | SIXMW102 | SIXMW1-Distance at 2 Minutes | SIX MINUTE WALK | 201 | m | 201 | 201 | m | Y | 1 | 2014-03-10 |", "score": 0.9379, "match_basis": "verbatim_token+domain_route:FT"}, {"md_atom_id": "md_dmFT_ex_a010", "md_file": "knowledge_base/domains/FT/examples.md", "md_atom_type": "TABLE_ROW", "md_parent_section": "§FT.1 [Example 1]", "md_verbatim": "| 3 | STUDYX | FT | MS01-01 | 3 | 1 | SIXMW103 | SIXMW1-Distance at 3 Minutes | SIX MINUTE WALK | 299 | m | 299 | 299 | m | Y | 1 | 2014-03-10 |", "score": 0.92, "match_basis": "verbatim_token+domain_route:FT"}, {"md_atom_id": "md_dmFT_ex_a012", "md_file": "knowledge_base/domains/FT/examples.md", "md_atom_type": "TABLE_ROW", "md_parent_section": "§FT.1 [Example 1]", "md_verbatim": "| 5 | STUDYX | FT | MS01-01 | 5 | 1 | SIXMW105 | SIXMW1-Distance at 5 Minutes | SIX MINUTE WALK | 493 | m | 493 | 493 | m | Y | 1 | 2014-03-10 |", "score": 0.92, "match_basis": "verbatim_token+domain_route:FT"}, {"md_atom_id": "md_dmFT_ex_a013", "md_file": "knowledge_base/domains/FT/examples.md", "md_atom_type": "TABLE_ROW", "md_parent_section": "§FT.1 [Example 1]", "md_verbatim": "| 6 | STUDYX | FT | MS01-01 | 6 | 1 | SIXMW106 | SIXMW1-Distance at 6 Minutes | SIX MINUTE WALK | 597 | m | 597 | 597 | m | Y | 1 | 2014-03-10 |", "score": 0.92, "match_basis": "verbatim_token+domain_route:FT"}], "candidate_count": 5, "zero_candidate": false}
{"pdf_atom_id": "ig34_p0323_a018", "pdf_atom_type": "TABLE_ROW", "pdf_source": "SDTMIG_v3.4", "pdf_page": 323, "pdf_parent_section": "§6.3.9.1 Functional Tests (FT) — FT-Examples — Example 1 — 6-Minute Walk Test (SIX MINUTE WALK)", "pdf_verbatim": "| 5 | STUDYX | FT | MS01-01 | 5 | 1 | SIXMW105 | SIXMW1- Distance at 5 Minutes | SIX MINUTE WALK | 493 | m | 493 | 493 | m | Y | 1 | 2014-03-10 |", "figure_ref": null, "candidates": [{"md_atom_id": "md_dmFT_ex_a012", "md_file": "knowledge_base/domains/FT/examples.md", "md_atom_type": "TABLE_ROW", "md_parent_section": "§FT.1 [Example 1]", "md_verbatim": "| 5 | STUDYX | FT | MS01-01 | 5 | 1 | SIXMW105 | SIXMW1-Distance at 5 Minutes | SIX MINUTE WALK | 493 | m | 493 | 493 | m | Y | 1 | 2014-03-10 |", "score": 1.0, "match_basis": "verbatim_token+domain_route:FT"}, {"md_atom_id": "md_dmFT_ex_a009", "md_file": "knowledge_base/domains/FT/examples.md", "md_atom_type": "TABLE_ROW", "md_parent_section": "§FT.1 [Example 1]", "md_verbatim": "| 2 | STUDYX | FT | MS01-01 | 2 | 1 | SIXMW102 | SIXMW1-Distance at 2 Minutes | SIX MINUTE WALK | 201 | m | 201 | 201 | m | Y | 1 | 2014-03-10 |", "score": 0.9379, "match_basis": "verbatim_token+domain_route:FT"}, {"md_atom_id": "md_dmFT_ex_a010", "md_file": "knowledge_base/domains/FT/examples.md", "md_atom_type": "TABLE_ROW", "md_parent_section": "§FT.1 [Example 1]", "md_verbatim": "| 3 | STUDYX | FT | MS01-01 | 3 | 1 | SIXMW103 | SIXMW1-Distance at 3 Minutes | SIX MINUTE WALK | 299 | m | 299 | 299 | m | Y | 1 | 2014-03-10 |", "score": 0.92, "match_basis": "verbatim_token+domain_route:FT"}, {"md_atom_id": "md_dmFT_ex_a011", "md_file": "knowledge_base/domains/FT/examples.md", "md_atom_type": "TABLE_ROW", "md_parent_section": "§FT.1 [Example 1]", "md_verbatim": "| 4 | STUDYX | FT | MS01-01 | 4 | 1 | SIXMW104 | SIXMW1-Distance at 4 Minutes | SIX MINUTE WALK | 396 | m | 396 | 396 | m | Y | 1 | 2014-03-10 |", "score": 0.92, "match_basis": "verbatim_token+domain_route:FT"}, {"md_atom_id": "md_dmFT_ex_a013", "md_file": "knowledge_base/domains/FT/examples.md", "md_atom_type": "TABLE_ROW", "md_parent_section": "§FT.1 [Example 1]", "md_verbatim": "| 6 | STUDYX | FT | MS01-01 | 6 | 1 | SIXMW106 | SIXMW1-Distance at 6 Minutes | SIX MINUTE WALK | 597 | m | 597 | 597 | m | Y | 1 | 2014-03-10 |", "score": 0.92, "match_basis": "verbatim_token+domain_route:FT"}], "candidate_count": 5, "zero_candidate": false}
{"pdf_atom_id": "ig34_p0323_a019", "pdf_atom_type": "TABLE_ROW", "pdf_source": "SDTMIG_v3.4", "pdf_page": 323, "pdf_parent_section": "§6.3.9.1 Functional Tests (FT) — FT-Examples — Example 1 — 6-Minute Walk Test (SIX MINUTE WALK)", "pdf_verbatim": "| 6 | STUDYX | FT | MS01-01 | 6 | 1 | SIXMW106 | SIXMW1- Distance at 6 Minutes | SIX MINUTE WALK | 597 | m | 597 | 597 | m | Y | 1 | 2014-03-10 |", "figure_ref": null, "candidates": [{"md_atom_id": "md_dmFT_ex_a013", "md_file": "knowledge_base/domains/FT/examples.md", "md_atom_type": "TABLE_ROW", "md_parent_section": "§FT.1 [Example 1]", "md_verbatim": "| 6 | STUDYX | FT | MS01-01 | 6 | 1 | SIXMW106 | SIXMW1-Distance at 6 Minutes | SIX MINUTE WALK | 597 | m | 597 | 597 | m | Y | 1 | 2014-03-10 |", "score": 1.0, "match_basis": "verbatim_token+domain_route:FT"}, {"md_atom_id": "md_dmFT_ex_a009", "md_file": "knowledge_base/domains/FT/examples.md", "md_atom_type": "TABLE_ROW", "md_parent_section": "§FT.1 [Example 1]", "md_verbatim": "| 2 | STUDYX | FT | MS01-01 | 2 | 1 | SIXMW102 | SIXMW1-Distance at 2 Minutes | SIX MINUTE WALK | 201 | m | 201 | 201 | m | Y | 1 | 2014-03-10 |", "score": 0.9379, "match_basis": "verbatim_token+domain_route:FT"}, {"md_atom_id": "md_dmFT_ex_a010", "md_file": "knowledge_base/domains/FT/examples.md", "md_atom_type": "TABLE_ROW", "md_parent_section": "§FT.1 [Example 1]", "md_verbatim": "| 3 | STUDYX | FT | MS01-01 | 3 | 1 | SIXMW103 | SIXMW1-Distance at 3 Minutes | SIX MINUTE WALK | 299 | m | 299 | 299 | m | Y | 1 | 2014-03-10 |", "score": 0.92, "match_basis": "verbatim_token+domain_route:FT"}, {"md_atom_id": "md_dmFT_ex_a011", "md_file": "knowledge_base/domains/FT/examples.md", "md_atom_type": "TABLE_ROW", "md_parent_section": "§FT.1 [Example 1]", "md_verbatim": "| 4 | STUDYX | FT | MS01-01 | 4 | 1 | SIXMW104 | SIXMW1-Distance at 4 Minutes | SIX MINUTE WALK | 396 | m | 396 | 396 | m | Y | 1 | 2014-03-10 |", "score": 0.92, "match_basis": "verbatim_token+domain_route:FT"}, {"md_atom_id": "md_dmFT_ex_a012", "md_file": "knowledge_base/domains/FT/examples.md", "md_atom_type": "TABLE_ROW", "md_parent_section": "§FT.1 [Example 1]", "md_verbatim": "| 5 | STUDYX | FT | MS01-01 | 5 | 1 | SIXMW105 | SIXMW1-Distance at 5 Minutes | SIX MINUTE WALK | 493 | m | 493 | 493 | m | Y | 1 | 2014-03-10 |", "score": 0.92, "match_basis": "verbatim_token+domain_route:FT"}], "candidate_count": 5, "zero_candidate": false}
{"pdf_atom_id": "ig34_p0324_a001", "pdf_atom_type": "SENTENCE", "pdf_source": "SDTMIG_v3.4", "pdf_page": 324, "pdf_parent_section": "§6.3.9.1 Functional Tests (FT) — FT-Examples — Example 1 — 6-Minute Walk Test (SIX MINUTE WALK)", "pdf_verbatim": "The suppft.xpt dataset represents that the subject used a cane while performing the 6 Minute Walk Test. In this example, FTGRPID is used to link this SUPPFT record to the 6 result records in FT. FTGRPID groups the FT records together by FTCAT and VISITNUM for an USUBJID.", "figure_ref": null, "candidates": [{"md_atom_id": "md_dmFT_ex_a014", "md_file": "knowledge_base/domains/FT/examples.md", "md_atom_type": "SENTENCE", "md_parent_section": "§FT.1 [Example 1]", "md_verbatim": "The suppft.xpt dataset represents that the subject used a cane while performing the 6 Minute Walk Test. In this example, FTGRPID is used to link this SUPPFT record to the 6 result records in FT. FTGRPID groups the FT records together by FTCAT and VISITNUM for an USUBJID.", "score": 1.0, "match_basis": "verbatim_token+domain_route:FT"}, {"md_atom_id": "md_dmFT_ex_a005", "md_file": "knowledge_base/domains/FT/examples.md", "md_atom_type": "SENTENCE", "md_parent_section": "§FT.1 [Example 1]", "md_verbatim": "The example represents the distance (in meters) that were walked at each minute of the 6-Minute Walk Test. The assistive device the subject used during the test is represented in the SUPPFT dataset.", "score": 0.6, "match_basis": "verbatim_token+domain_route:FT"}, {"md_atom_id": "md_dmFT_ex_a002", "md_file": "knowledge_base/domains/FT/examples.md", "md_atom_type": "SENTENCE", "md_parent_section": "§FT [FT — Examples]", "md_verbatim": "CDISC publishes supplements for individual functional tests (at https://www.cdisc.org/standards/foundational/qrs). Additional FT examples can be found in supplements on that webpage.", "score": 0.473, "match_basis": "verbatim_token+domain_route:FT"}, {"md_atom_id": "md_dmFT_ex_a004", "md_file": "knowledge_base/domains/FT/examples.md", "md_atom_type": "SENTENCE", "md_parent_section": "§FT.1 [Example 1]", "md_verbatim": "**6-Minute Walk Test (SIX MINUTE WALK)**", "score": 0.4516, "match_basis": "verbatim_token+domain_route:FT"}, {"md_atom_id": "md_dmFT_assn_a006", "md_file": "knowledge_base/domains/FT/assumptions.md", "md_atom_type": "SENTENCE", "md_parent_section": "§FT [FT — Assumptions]", "md_verbatim": "The following assumptions are common to the FT and QS domains as well as the Clinical Classifications use case of the RS domain (not the Disease Response use case of RS):", "score": 0.434, "match_basis": "verbatim_token+domain_route:FT"}], "candidate_count": 5, "zero_candidate": false}
{"pdf_atom_id": "ig34_p0324_a002", "pdf_atom_type": "CODE_LITERAL", "pdf_source": "SDTMIG_v3.4", "pdf_page": 324, "pdf_parent_section": "§6.3.9.1 Functional Tests (FT) — FT-Examples — Example 1 — 6-Minute Walk Test (SIX MINUTE WALK)", "pdf_verbatim": "suppft.xpt", "figure_ref": null, "candidates": [{"md_atom_id": "md_dmFT_ex_a015", "md_file": "knowledge_base/domains/FT/examples.md", "md_atom_type": "SENTENCE", "md_parent_section": "§FT.1 [Example 1]", "md_verbatim": "**suppft.xpt**", "score": 0.79, "match_basis": "verbatim_token+domain_route:FT"}, {"md_atom_id": "md_dmFT_ex_a006", "md_file": "knowledge_base/domains/FT/examples.md", "md_atom_type": "SENTENCE", "md_parent_section": "§FT.1 [Example 1]", "md_verbatim": "**ft.xpt**", "score": 0.31, "match_basis": "verbatim_token+domain_route:FT"}, {"md_atom_id": "md_dmFT_ex_a005", "md_file": "knowledge_base/domains/FT/examples.md", "md_atom_type": "SENTENCE", "md_parent_section": "§FT.1 [Example 1]", "md_verbatim": "The example represents the distance (in meters) that were walked at each minute of the 6-Minute Walk Test. The assistive device the subject used during the test is represented in the SUPPFT dataset.", "score": 0.2229, "match_basis": "verbatim_token+domain_route:FT"}, {"md_atom_id": "md_dmFT_ex_a014", "md_file": "knowledge_base/domains/FT/examples.md", "md_atom_type": "SENTENCE", "md_parent_section": "§FT.1 [Example 1]", "md_verbatim": "The suppft.xpt dataset represents that the subject used a cane while performing the 6 Minute Walk Test. In this example, FTGRPID is used to link this SUPPFT record to the 6 result records in FT. FTGRPID groups the FT records together by FTCAT and VISITNUM for an USUBJID.", "score": 0.2226, "match_basis": "verbatim_token+domain_route:FT"}, {"md_atom_id": "md_dmFT_assn_a036", "md_file": "knowledge_base/domains/FT/assumptions.md", "md_atom_type": "LIST_ITEM", "md_parent_section": "§FT [FT — Assumptions]", "md_verbatim": "      i. Once generated, the QRS supplement is posted on the CDISC website (https://www.cdisc.org/standards/foundational/qrs).", "score": 0.2122, "match_basis": "verbatim_token+domain_route:FT"}, {"md_atom_id": "md_dmFT_assn_a015", "md_file": "knowledge_base/domains/FT/assumptions.md", "md_atom_type": "LIST_ITEM", "md_parent_section": "§FT [FT — Assumptions]", "md_verbatim": "   a. --SCAT values are not included in the CDISC Controlled Terminology system but rather controlled as described in the QRS supplements in which they are used.", "score": 0.2074, "match_basis": "verbatim_token+domain_route:FT"}, {"md_atom_id": "md_dmFT_ex_a002", "md_file": "knowledge_base/domains/FT/examples.md", "md_atom_type": "SENTENCE", "md_parent_section": "§FT [FT — Examples]", "md_verbatim": "CDISC publishes supplements for individual functional tests (at https://www.cdisc.org/standards/foundational/qrs). Additional FT examples can be found in supplements on that webpage.", "score": 0.2056, "match_basis": "verbatim_token+domain_route:FT"}, {"md_atom_id": "md_dmFT_assn_a037", "md_file": "knowledge_base/domains/FT/assumptions.md", "md_atom_type": "LIST_ITEM", "md_parent_section": "§FT [FT — Assumptions]", "md_verbatim": "      ii. Sponsors should always consult the published QRS supplements for guidance on submitting derived information in SDTMIG-based domains.", "score": 0.2052, "match_basis": "verbatim_token+domain_route:FT"}, {"md_atom_id": "md_dmFT_assn_a035", "md_file": "knowledge_base/domains/FT/assumptions.md", "md_atom_type": "LIST_ITEM", "md_parent_section": "§FT [FT — Assumptions]", "md_verbatim": "   a. Sponsors may participate and/or request the development of additional QRS supplements and terminology through the CDISC SDS QRS subteam and the Controlled Terminology QRS subteam.", "score": 0.2046, "match_basis": "verbatim_token+domain_route:FT"}, {"md_atom_id": "md_dmFT_assn_a017", "md_file": "knowledge_base/domains/FT/assumptions.md", "md_atom_type": "LIST_ITEM", "md_parent_section": "§FT [FT — Assumptions]", "md_verbatim": "4. Sponsors should always consult published QRS supplements for guidance on submitting derived information in a SDTMIG QRS domain. Derived variable results in QRS are usually considered captured data. If sponsors operationally derive variable results, then the derived records that are submitted in a QRS domain should be flagged by --DRVFL.", "score": 0.1995, "match_basis": "verbatim_token+domain_route:FT"}], "candidate_count": 10, "zero_candidate": false}
{"pdf_atom_id": "ig34_p0324_a003", "pdf_atom_type": "TABLE_HEADER", "pdf_source": "SDTMIG_v3.4", "pdf_page": 324, "pdf_parent_section": "§6.3.9.1 Functional Tests (FT) — FT-Examples — Example 1 — 6-Minute Walk Test (SIX MINUTE WALK)", "pdf_verbatim": "| Row | STUDYID | RDOMAIN | USUBJID | IDVAR | IDVARVAL | QNAM | QLABEL | QVAL | QORIG | QEVAL |", "figure_ref": null, "candidates": [{"md_atom_id": "md_dmFT_ex_a016", "md_file": "knowledge_base/domains/FT/examples.md", "md_atom_type": "TABLE_HEADER", "md_parent_section": "§FT.1 [Example 1]", "md_verbatim": "| Row | STUDYID | RDOMAIN | USUBJID | IDVAR | IDVARVAL | QNAM | QLABEL | QVAL | QORIG | QEVAL |\n|-----|---------|---------|---------|-------|----------|------|--------|------|-------|-------|", "score": 1.0, "match_basis": "verbatim_token+domain_route:FT"}, {"md_atom_id": "md_dmFT_ex_a007", "md_file": "knowledge_base/domains/FT/examples.md", "md_atom_type": "TABLE_HEADER", "md_parent_section": "§FT.1 [Example 1]", "md_verbatim": "| Row | STUDYID | DOMAIN | USUBJID | FTSEQ | FTGRPID | FTTESTCD | FTTEST | FTCAT | FTORRES | FTORRESU | FTSTRESC | FTSTRESN | FTSTRESU | FTBLFL | VISITNUM | FTDTC |\n|-----|---------|--------|---------|-------|---------|----------|--------|-------|---------|----------|----------|----------|----------|--------|----------|-------|", "score": 0.52, "match_basis": "verbatim_token+domain_route:FT"}, {"md_atom_id": "md_dmFT_ex_a008", "md_file": "knowledge_base/domains/FT/examples.md", "md_atom_type": "TABLE_ROW", "md_parent_section": "§FT.1 [Example 1]", "md_verbatim": "| 1 | STUDYX | FT | MS01-01 | 1 | 1 | SIXMW101 | SIXMW1-Distance at 1 Minute | SIX MINUTE WALK | 101 | m | 101 | 101 | m | Y | 1 | 2014-03-10 |", "score": 0.3716, "match_basis": "verbatim_token+domain_route:FT"}, {"md_atom_id": "md_dmFT_ex_a009", "md_file": "knowledge_base/domains/FT/examples.md", "md_atom_type": "TABLE_ROW", "md_parent_section": "§FT.1 [Example 1]", "md_verbatim": "| 2 | STUDYX | FT | MS01-01 | 2 | 1 | SIXMW102 | SIXMW1-Distance at 2 Minutes | SIX MINUTE WALK | 201 | m | 201 | 201 | m | Y | 1 | 2014-03-10 |", "score": 0.371, "match_basis": "verbatim_token+domain_route:FT"}, {"md_atom_id": "md_dmFT_ex_a010", "md_file": "knowledge_base/domains/FT/examples.md", "md_atom_type": "TABLE_ROW", "md_parent_section": "§FT.1 [Example 1]", "md_verbatim": "| 3 | STUDYX | FT | MS01-01 | 3 | 1 | SIXMW103 | SIXMW1-Distance at 3 Minutes | SIX MINUTE WALK | 299 | m | 299 | 299 | m | Y | 1 | 2014-03-10 |", "score": 0.3705, "match_basis": "verbatim_token+domain_route:FT"}], "candidate_count": 5, "zero_candidate": false}
{"pdf_atom_id": "ig34_p0324_a004", "pdf_atom_type": "TABLE_ROW", "pdf_source": "SDTMIG_v3.4", "pdf_page": 324, "pdf_parent_section": "§6.3.9.1 Functional Tests (FT) — FT-Examples — Example 1 — 6-Minute Walk Test (SIX MINUTE WALK)", "pdf_verbatim": "| 1 | STUDYX | FT | MS01-01 | FTGRPID | 1 | FTASSTDV | Assistance Device | CANE | CRF | INVESTIGATOR |", "figure_ref": null, "candidates": [{"md_atom_id": "md_dmFT_ex_a017", "md_file": "knowledge_base/domains/FT/examples.md", "md_atom_type": "TABLE_ROW", "md_parent_section": "§FT.1 [Example 1]", "md_verbatim": "| 1 | STUDYX | FT | MS01-01 | FTGRPID | 1 | FTASSTDV | Assistance Device | CANE | CRF | INVESTIGATOR |", "score": 1.0, "match_basis": "verbatim_token+domain_route:FT"}, {"md_atom_id": "md_dmFT_ex_a008", "md_file": "knowledge_base/domains/FT/examples.md", "md_atom_type": "TABLE_ROW", "md_parent_section": "§FT.1 [Example 1]", "md_verbatim": "| 1 | STUDYX | FT | MS01-01 | 1 | 1 | SIXMW101 | SIXMW1-Distance at 1 Minute | SIX MINUTE WALK | 101 | m | 101 | 101 | m | Y | 1 | 2014-03-10 |", "score": 0.5179, "match_basis": "verbatim_token+domain_route:FT"}, {"md_atom_id": "md_dmFT_ex_a009", "md_file": "knowledge_base/domains/FT/examples.md", "md_atom_type": "TABLE_ROW", "md_parent_section": "§FT.1 [Example 1]", "md_verbatim": "| 2 | STUDYX | FT | MS01-01 | 2 | 1 | SIXMW102 | SIXMW1-Distance at 2 Minutes | SIX MINUTE WALK | 201 | m | 201 | 201 | m | Y | 1 | 2014-03-10 |", "score": 0.5158, "match_basis": "verbatim_token+domain_route:FT"}, {"md_atom_id": "md_dmFT_ex_a010", "md_file": "knowledge_base/domains/FT/examples.md", "md_atom_type": "TABLE_ROW", "md_parent_section": "§FT.1 [Example 1]", "md_verbatim": "| 3 | STUDYX | FT | MS01-01 | 3 | 1 | SIXMW103 | SIXMW1-Distance at 3 Minutes | SIX MINUTE WALK | 299 | m | 299 | 299 | m | Y | 1 | 2014-03-10 |", "score": 0.5138, "match_basis": "verbatim_token+domain_route:FT"}, {"md_atom_id": "md_dmFT_ex_a011", "md_file": "knowledge_base/domains/FT/examples.md", "md_atom_type": "TABLE_ROW", "md_parent_section": "§FT.1 [Example 1]", "md_verbatim": "| 4 | STUDYX | FT | MS01-01 | 4 | 1 | SIXMW104 | SIXMW1-Distance at 4 Minutes | SIX MINUTE WALK | 396 | m | 396 | 396 | m | Y | 1 | 2014-03-10 |", "score": 0.5138, "match_basis": "verbatim_token+domain_route:FT"}], "candidate_count": 5, "zero_candidate": false}
{"pdf_atom_id": "ig34_p0324_a005", "pdf_atom_type": "HEADING", "pdf_source": "SDTMIG_v3.4", "pdf_page": 324, "pdf_parent_section": "§6.3.9 Questionnaires, Ratings, and Scales (QRS) Domains (FT, QS, RS)", "pdf_verbatim": "6.3.9.2 Questionnaires (QS)", "figure_ref": null, "candidates": [{"md_atom_id": "md_dmFT_assn_a001", "md_file": "knowledge_base/domains/FT/assumptions.md", "md_atom_type": "HEADING", "md_parent_section": "§FT [FT — Assumptions]", "md_verbatim": "# FT — Assumptions", "score": 0.4632, "match_basis": "verbatim_token+domain_route:FT"}, {"md_atom_id": "md_dmFT_assn_a005", "md_file": "knowledge_base/domains/FT/assumptions.md", "md_atom_type": "HEADING", "md_parent_section": "§FT [FT — Assumptions]", "md_verbatim": "## QRS Shared Assumptions", "score": 0.45, "match_basis": "verbatim_token+domain_route:FT"}, {"md_atom_id": "md_dmFT_ex_a001", "md_file": "knowledge_base/domains/FT/examples.md", "md_atom_type": "HEADING", "md_parent_section": "§FT [FT — Examples]", "md_verbatim": "# FT — Examples", "score": 0.4, "match_basis": "verbatim_token+domain_route:FT"}, {"md_atom_id": "md_dmFT_ex_a003", "md_file": "knowledge_base/domains/FT/examples.md", "md_atom_type": "HEADING", "md_parent_section": "§FT [FT — Examples]", "md_verbatim": "## Example 1", "score": 0.4, "match_basis": "verbatim_token+domain_route:FT"}], "candidate_count": 4, "zero_candidate": false}
{"pdf_atom_id": "ig34_p0324_a006", "pdf_atom_type": "HEADING", "pdf_source": "SDTMIG_v3.4", "pdf_page": 324, "pdf_parent_section": "§6.3.9.2 Questionnaires (QS)", "pdf_verbatim": "QS – Description/Overview", "figure_ref": null, "candidates": [{"md_atom_id": "md_dmQS_assn_a001", "md_file": "knowledge_base/domains/QS/assumptions.md", "md_atom_type": "HEADING", "md_parent_section": "§QS [QS — Assumptions]", "md_verbatim": "# QS — Assumptions", "score": 0.4857, "match_basis": "verbatim_token+domain_route:QS"}, {"md_atom_id": "md_dmQS_assn_a003", "md_file": "knowledge_base/domains/QS/assumptions.md", "md_atom_type": "HEADING", "md_parent_section": "§QS [QS — Assumptions]", "md_verbatim": "## QRS Shared Assumptions", "score": 0.4692, "match_basis": "verbatim_token+domain_route:QS"}, {"md_atom_id": "md_dmQS_ex_a001", "md_file": "knowledge_base/domains/QS/examples.md", "md_atom_type": "HEADING", "md_parent_section": "§QS [QS — Examples]", "md_verbatim": "# QS — Examples", "score": 0.4, "match_basis": "verbatim_token+domain_route:QS"}, {"md_atom_id": "md_dmQS_ex_a003", "md_file": "knowledge_base/domains/QS/examples.md", "md_atom_type": "HEADING", "md_parent_section": "§QS [QS — Examples]", "md_verbatim": "## Example 1", "score": 0.4, "match_basis": "verbatim_token+domain_route:QS"}], "candidate_count": 4, "zero_candidate": false}
{"pdf_atom_id": "ig34_p0324_a007", "pdf_atom_type": "SENTENCE", "pdf_source": "SDTMIG_v3.4", "pdf_page": 324, "pdf_parent_section": "§6.3.9.2 Questionnaires (QS) — QS-Description/Overview", "pdf_verbatim": "A findings domain that contains data for named, stand-alone instruments designed to provide an assessment of a concept. Questionnaires have a defined standard structure, format, and content; consist of conceptually related items that are typically scored; and have documented methods for administration and analysis.", "figure_ref": null, "candidates": [{"md_atom_id": "md_dmQS_ex_a002", "md_file": "knowledge_base/domains/QS/examples.md", "md_atom_type": "SENTENCE", "md_parent_section": "§QS [QS — Examples]", "md_verbatim": "CDISC publishes supplements for individual questionnaires (at https://www.cdisc.org/standards/foundational/qrs). Additional QS examples can be found in supplements on that webpage.", "score": 0.5022, "match_basis": "verbatim_token+domain_route:QS"}, {"md_atom_id": "md_dmQS_assn_a004", "md_file": "knowledge_base/domains/QS/assumptions.md", "md_atom_type": "SENTENCE", "md_parent_section": "§QS [QS — Assumptions]", "md_verbatim": "The following assumptions are common to the FT and QS domains as well as the Clinical Classifications use case of the RS domain (not the Disease Response use case of RS):", "score": 0.458, "match_basis": "verbatim_token+domain_route:QS"}, {"md_atom_id": "md_dmQS_assn_a007", "md_file": "knowledge_base/domains/QS/assumptions.md", "md_atom_type": "LIST_ITEM", "md_parent_section": "§QS [QS — Assumptions]", "md_verbatim": "3. There are cases where QRS CRFs do not include numeric \"standardized responses\" assigned to text responses (e.g., mild, moderate, severe being 1, 2, 3). It is clearly in everyone's best interest to include the numeric \"standardized responses\" in the SDTMIG QRS dataset. This is only done when the numeric \"standardized responses\" are documented in the QRS CRF instructions, a user manual, a website specific to the QRS instrument, or another reference document that provides a clear explanation and rationale for providing them in the SDTMIG QRS dataset.", "score": 0.4522, "match_basis": "verbatim_token+domain_route:QS"}, {"md_atom_id": "md_dmQS_ex_a005", "md_file": "knowledge_base/domains/QS/examples.md", "md_atom_type": "SENTENCE", "md_parent_section": "§QS.1 [Example 1]", "md_verbatim": "The example represents the items from the SWLS instrument.", "score": 0.4517, "match_basis": "verbatim_token+domain_route:QS"}, {"md_atom_id": "md_dmQS_assn_a010", "md_file": "knowledge_base/domains/QS/assumptions.md", "md_atom_type": "LIST_ITEM", "md_parent_section": "§QS [QS — Assumptions]", "md_verbatim": "6. The actual version number of an instrument is represented in the --CAT value as designated by the QRS Terminology Team. If it is determined that this is not the case for an instrument:\n   a. Notify the QRS Terminology Team that the instrument has a specific or multiple version numbers. This team will assist in providing a resolution on how the situation will be handled.\n   b. Consider the use of the --GRPID variable to indicate the instrument's version number prior to a decision by the QRS Terminology Team.\n   c. The sponsor is expected to provide information about the version used for each QRS instrument in the metadata (using the Comments column in the Define-XML document). This could be provided as value-level metadata for --CAT.\n   d. The sponsor is expected to provide information about the scoring rules in the metadata.", "score": 0.4448, "match_basis": "verbatim_token+domain_route:QS"}], "candidate_count": 5, "zero_candidate": false}
{"pdf_atom_id": "ig34_p0324_a008", "pdf_atom_type": "HEADING", "pdf_source": "SDTMIG_v3.4", "pdf_page": 324, "pdf_parent_section": "§6.3.9.2 Questionnaires (QS)", "pdf_verbatim": "QS – Specification", "figure_ref": null, "candidates": [{"md_atom_id": "md_dmQS_assn_a001", "md_file": "knowledge_base/domains/QS/assumptions.md", "md_atom_type": "HEADING", "md_parent_section": "§QS [QS — Assumptions]", "md_verbatim": "# QS — Assumptions", "score": 0.4667, "match_basis": "verbatim_token+domain_route:QS"}, {"md_atom_id": "md_dmQS_assn_a003", "md_file": "knowledge_base/domains/QS/assumptions.md", "md_atom_type": "HEADING", "md_parent_section": "§QS [QS — Assumptions]", "md_verbatim": "## QRS Shared Assumptions", "score": 0.4522, "match_basis": "verbatim_token+domain_route:QS"}, {"md_atom_id": "md_dmQS_ex_a001", "md_file": "knowledge_base/domains/QS/examples.md", "md_atom_type": "HEADING", "md_parent_section": "§QS [QS — Examples]", "md_verbatim": "# QS — Examples", "score": 0.4, "match_basis": "verbatim_token+domain_route:QS"}, {"md_atom_id": "md_dmQS_ex_a003", "md_file": "knowledge_base/domains/QS/examples.md", "md_atom_type": "HEADING", "md_parent_section": "§QS [QS — Examples]", "md_verbatim": "## Example 1", "score": 0.4, "match_basis": "verbatim_token+domain_route:QS"}], "candidate_count": 4, "zero_candidate": false}
{"pdf_atom_id": "ig34_p0324_a009", "pdf_atom_type": "CODE_LITERAL", "pdf_source": "SDTMIG_v3.4", "pdf_page": 324, "pdf_parent_section": "§6.3.9.2 Questionnaires (QS) — QS-Specification", "pdf_verbatim": "qs.xpt, Questionnaires — Findings. One record per questionnaire per question per time point per visit per subject, Tabulation.", "figure_ref": null, "candidates": [{"md_atom_id": "md_dmQS_ex_a002", "md_file": "knowledge_base/domains/QS/examples.md", "md_atom_type": "SENTENCE", "md_parent_section": "§QS [QS — Examples]", "md_verbatim": "CDISC publishes supplements for individual questionnaires (at https://www.cdisc.org/standards/foundational/qrs). Additional QS examples can be found in supplements on that webpage.", "score": 0.2749, "match_basis": "verbatim_token+domain_route:QS"}, {"md_atom_id": "md_dmQS_assn_a009", "md_file": "knowledge_base/domains/QS/assumptions.md", "md_atom_type": "LIST_ITEM", "md_parent_section": "§QS [QS — Assumptions]", "md_verbatim": "5. The variable --REPNUM variable is populated when there are multiple repeats of the same question. When records are related to the first trial of the question, the variable --REPNUM should be set to \"1\". When records are related to the second trial of the same question, --REPNUM should be set to \"2\", and so forth.", "score": 0.2642, "match_basis": "verbatim_token+domain_route:QS"}, {"md_atom_id": "md_dmQS_assn_a014", "md_file": "knowledge_base/domains/QS/assumptions.md", "md_atom_type": "LIST_ITEM", "md_parent_section": "§QS [QS — Assumptions]", "md_verbatim": "10. Any identifiers, timing variables, or findings general observation class qualifiers may be added to a QRS domain, but the following qualifiers would generally not be used: --POS, --BODSYS, --ORNRLO, --ORNRHI, --STNRLO, --STNRHI, --STNRC, --NRIND, --XFN, --LOINC, --SPEC, --SPCCND, --LOC, --FAST, --TOX, --TOXGR, --SEV.", "score": 0.2378, "match_basis": "verbatim_token+domain_route:QS"}, {"md_atom_id": "md_dmQS_ex_a007", "md_file": "knowledge_base/domains/QS/examples.md", "md_atom_type": "TABLE_HEADER", "md_parent_section": "§QS.1 [Example 1]", "md_verbatim": "| Row | STUDYID | DOMAIN | USUBJID | QSSEQ | QSTESTCD | QSTEST | QSCAT | QSORRES | QSSTRESC | QSSTRESN | QSLOBXFL | VISITNUM | QSDTC | QSDY |\n|-----|---------|--------|---------|-------|----------|--------|-------|---------|----------|----------|----------|----------|-------|------|", "score": 0.2367, "match_basis": "verbatim_token+domain_route:QS"}, {"md_atom_id": "md_dmQS_assn_a010", "md_file": "knowledge_base/domains/QS/assumptions.md", "md_atom_type": "LIST_ITEM", "md_parent_section": "§QS [QS — Assumptions]", "md_verbatim": "6. The actual version number of an instrument is represented in the --CAT value as designated by the QRS Terminology Team. If it is determined that this is not the case for an instrument:\n   a. Notify the QRS Terminology Team that the instrument has a specific or multiple version numbers. This team will assist in providing a resolution on how the situation will be handled.\n   b. Consider the use of the --GRPID variable to indicate the instrument's version number prior to a decision by the QRS Terminology Team.\n   c. The sponsor is expected to provide information about the version used for each QRS instrument in the metadata (using the Comments column in the Define-XML document). This could be provided as value-level metadata for --CAT.\n   d. The sponsor is expected to provide information about the scoring rules in the metadata.", "score": 0.2251, "match_basis": "verbatim_token+domain_route:QS"}], "candidate_count": 5, "zero_candidate": false}
{"pdf_atom_id": "ig34_p0324_a010", "pdf_atom_type": "TABLE_HEADER", "pdf_source": "SDTMIG_v3.4", "pdf_page": 324, "pdf_parent_section": "§6.3.9.2 Questionnaires (QS) — QS-Specification", "pdf_verbatim": "| Variable Name | Variable Label | Type | Controlled Terms, Codelist or Format¹ | Role | CDISC Notes | Core |", "figure_ref": null, "candidates": [{"md_atom_id": "md_dmQS_ex_a007", "md_file": "knowledge_base/domains/QS/examples.md", "md_atom_type": "TABLE_HEADER", "md_parent_section": "§QS.1 [Example 1]", "md_verbatim": "| Row | STUDYID | DOMAIN | USUBJID | QSSEQ | QSTESTCD | QSTEST | QSCAT | QSORRES | QSSTRESC | QSSTRESN | QSLOBXFL | VISITNUM | QSDTC | QSDY |\n|-----|---------|--------|---------|-------|----------|--------|-------|---------|----------|----------|----------|----------|-------|------|", "score": 0.4063, "match_basis": "verbatim_token+domain_route:QS"}, {"md_atom_id": "md_dmQS_ex_a009", "md_file": "knowledge_base/domains/QS/examples.md", "md_atom_type": "TABLE_ROW", "md_parent_section": "§QS.1 [Example 1]", "md_verbatim": "| 2 | CDISC01 | QS | CDISC01.100008 | 2 | SWLS0102 | SWLS01-My Life Conditions are Excellent | SWLS | Neither agree nor disagree | 4 | 4 | Y | 1 | 2003-04-15 | 1 |", "score": 0.3761, "match_basis": "verbatim_token+domain_route:QS"}, {"md_atom_id": "md_dmQS_ex_a014", "md_file": "knowledge_base/domains/QS/examples.md", "md_atom_type": "TABLE_ROW", "md_parent_section": "§QS.1 [Example 1]", "md_verbatim": "| 7 | CDISC01 | QS | CDISC01.100014 | 7 | SWLS0102 | SWLS01-My Life Conditions are Excellent | SWLS | Neither agree nor disagree | 4 | 4 | Y | 1 | 2003-04-15 | 1 |", "score": 0.3757, "match_basis": "verbatim_token+domain_route:QS"}, {"md_atom_id": "md_dmQS_ex_a012", "md_file": "knowledge_base/domains/QS/examples.md", "md_atom_type": "TABLE_ROW", "md_parent_section": "§QS.1 [Example 1]", "md_verbatim": "| 5 | CDISC01 | QS | CDISC01.100008 | 5 | SWLS0105 | SWLS01-Live Life Over Change | SWLS | Strongly disagree | 1 | 1 | Y | 1 | 2003-04-15 | 1 |", "score": 0.3716, "match_basis": "verbatim_token+domain_route:QS"}, {"md_atom_id": "md_dmQS_ex_a017", "md_file": "knowledge_base/domains/QS/examples.md", "md_atom_type": "TABLE_ROW", "md_parent_section": "§QS.1 [Example 1]", "md_verbatim": "| 10 | CDISC01 | QS | CDISC01.100014 | 10 | SWLS0105 | SWLS01-Live Life Over Change | SWLS | Strongly disagree | 1 | 1 | Y | 1 | 2003-04-15 | 1 |", "score": 0.3712, "match_basis": "verbatim_token+domain_route:QS"}], "candidate_count": 5, "zero_candidate": false}
{"pdf_atom_id": "ig34_p0324_a011", "pdf_atom_type": "TABLE_ROW", "pdf_source": "SDTMIG_v3.4", "pdf_page": 324, "pdf_parent_section": "§6.3.9.2 Questionnaires (QS) — QS-Specification", "pdf_verbatim": "| STUDYID | Study Identifier | Char | | Identifier | Unique identifier for a study. | Req |", "figure_ref": null, "candidates": [{"md_atom_id": "md_dmQS_ex_a010", "md_file": "knowledge_base/domains/QS/examples.md", "md_atom_type": "TABLE_ROW", "md_parent_section": "§QS.1 [Example 1]", "md_verbatim": "| 3 | CDISC01 | QS | CDISC01.100008 | 3 | SWLS0103 | SWLS01-I Am Satisfied with My Life | SWLS | Agree | 6 | 6 | Y | 1 | 2003-04-15 | 1 |", "score": 0.412, "match_basis": "verbatim_token+domain_route:QS"}, {"md_atom_id": "md_dmQS_ex_a015", "md_file": "knowledge_base/domains/QS/examples.md", "md_atom_type": "TABLE_ROW", "md_parent_section": "§QS.1 [Example 1]", "md_verbatim": "| 8 | CDISC01 | QS | CDISC01.100014 | 8 | SWLS0103 | SWLS01-I Am Satisfied with My Life | SWLS | Agree | 6 | 6 | Y | 1 | 2003-04-15 | 1 |", "score": 0.4118, "match_basis": "verbatim_token+domain_route:QS"}, {"md_atom_id": "md_dmQS_ex_a008", "md_file": "knowledge_base/domains/QS/examples.md", "md_atom_type": "TABLE_ROW", "md_parent_section": "§QS.1 [Example 1]", "md_verbatim": "| 1 | CDISC01 | QS | CDISC01.100008 | 1 | SWLS0101 | SWLS01-My Life is Close to Ideal | SWLS | Slightly agree | 5 | 5 | Y | 1 | 2003-04-15 | 1 |", "score": 0.4113, "match_basis": "verbatim_token+domain_route:QS"}, {"md_atom_id": "md_dmQS_ex_a013", "md_file": "knowledge_base/domains/QS/examples.md", "md_atom_type": "TABLE_ROW", "md_parent_section": "§QS.1 [Example 1]", "md_verbatim": "| 6 | CDISC01 | QS | CDISC01.100014 | 6 | SWLS0101 | SWLS01-My Life is Close to Ideal | SWLS | Slightly agree | 5 | 5 | Y | 1 | 2003-04-15 | 1 |", "score": 0.4111, "match_basis": "verbatim_token+domain_route:QS"}, {"md_atom_id": "md_dmQS_ex_a012", "md_file": "knowledge_base/domains/QS/examples.md", "md_atom_type": "TABLE_ROW", "md_parent_section": "§QS.1 [Example 1]", "md_verbatim": "| 5 | CDISC01 | QS | CDISC01.100008 | 5 | SWLS0105 | SWLS01-Live Life Over Change | SWLS | Strongly disagree | 1 | 1 | Y | 1 | 2003-04-15 | 1 |", "score": 0.4105, "match_basis": "verbatim_token+domain_route:QS"}], "candidate_count": 5, "zero_candidate": false}
{"pdf_atom_id": "ig34_p0324_a012", "pdf_atom_type": "TABLE_ROW", "pdf_source": "SDTMIG_v3.4", "pdf_page": 324, "pdf_parent_section": "§6.3.9.2 Questionnaires (QS) — QS-Specification", "pdf_verbatim": "| DOMAIN | Domain Abbreviation | Char | QS | Identifier | Two-character abbreviation for the domain. | Req |", "figure_ref": null, "candidates": [{"md_atom_id": "md_dmQS_ex_a009", "md_file": "knowledge_base/domains/QS/examples.md", "md_atom_type": "TABLE_ROW", "md_parent_section": "§QS.1 [Example 1]", "md_verbatim": "| 2 | CDISC01 | QS | CDISC01.100008 | 2 | SWLS0102 | SWLS01-My Life Conditions are Excellent | SWLS | Neither agree nor disagree | 4 | 4 | Y | 1 | 2003-04-15 | 1 |", "score": 0.4324, "match_basis": "verbatim_token+domain_route:QS"}, {"md_atom_id": "md_dmQS_ex_a014", "md_file": "knowledge_base/domains/QS/examples.md", "md_atom_type": "TABLE_ROW", "md_parent_section": "§QS.1 [Example 1]", "md_verbatim": "| 7 | CDISC01 | QS | CDISC01.100014 | 7 | SWLS0102 | SWLS01-My Life Conditions are Excellent | SWLS | Neither agree nor disagree | 4 | 4 | Y | 1 | 2003-04-15 | 1 |", "score": 0.432, "match_basis": "verbatim_token+domain_route:QS"}, {"md_atom_id": "md_dmQS_ex_a010", "md_file": "knowledge_base/domains/QS/examples.md", "md_atom_type": "TABLE_ROW", "md_parent_section": "§QS.1 [Example 1]", "md_verbatim": "| 3 | CDISC01 | QS | CDISC01.100008 | 3 | SWLS0103 | SWLS01-I Am Satisfied with My Life | SWLS | Agree | 6 | 6 | Y | 1 | 2003-04-15 | 1 |", "score": 0.4197, "match_basis": "verbatim_token+domain_route:QS"}, {"md_atom_id": "md_dmQS_ex_a015", "md_file": "knowledge_base/domains/QS/examples.md", "md_atom_type": "TABLE_ROW", "md_parent_section": "§QS.1 [Example 1]", "md_verbatim": "| 8 | CDISC01 | QS | CDISC01.100014 | 8 | SWLS0103 | SWLS01-I Am Satisfied with My Life | SWLS | Agree | 6 | 6 | Y | 1 | 2003-04-15 | 1 |", "score": 0.4194, "match_basis": "verbatim_token+domain_route:QS"}, {"md_atom_id": "md_dmQS_ex_a008", "md_file": "knowledge_base/domains/QS/examples.md", "md_atom_type": "TABLE_ROW", "md_parent_section": "§QS.1 [Example 1]", "md_verbatim": "| 1 | CDISC01 | QS | CDISC01.100008 | 1 | SWLS0101 | SWLS01-My Life is Close to Ideal | SWLS | Slightly agree | 5 | 5 | Y | 1 | 2003-04-15 | 1 |", "score": 0.4092, "match_basis": "verbatim_token+domain_route:QS"}], "candidate_count": 5, "zero_candidate": false}
{"pdf_atom_id": "ig34_p0324_a013", "pdf_atom_type": "TABLE_ROW", "pdf_source": "SDTMIG_v3.4", "pdf_page": 324, "pdf_parent_section": "§6.3.9.2 Questionnaires (QS) — QS-Specification", "pdf_verbatim": "| USUBJID | Unique Subject Identifier | Char | | Identifier | Identifier used to uniquely identify a subject across all studies for all applications or submissions involving the product. | Req |", "figure_ref": null, "candidates": [{"md_atom_id": "md_dmQS_ex_a009", "md_file": "knowledge_base/domains/QS/examples.md", "md_atom_type": "TABLE_ROW", "md_parent_section": "§QS.1 [Example 1]", "md_verbatim": "| 2 | CDISC01 | QS | CDISC01.100008 | 2 | SWLS0102 | SWLS01-My Life Conditions are Excellent | SWLS | Neither agree nor disagree | 4 | 4 | Y | 1 | 2003-04-15 | 1 |", "score": 0.4278, "match_basis": "verbatim_token+domain_route:QS"}, {"md_atom_id": "md_dmQS_ex_a014", "md_file": "knowledge_base/domains/QS/examples.md", "md_atom_type": "TABLE_ROW", "md_parent_section": "§QS.1 [Example 1]", "md_verbatim": "| 7 | CDISC01 | QS | CDISC01.100014 | 7 | SWLS0102 | SWLS01-My Life Conditions are Excellent | SWLS | Neither agree nor disagree | 4 | 4 | Y | 1 | 2003-04-15 | 1 |", "score": 0.4275, "match_basis": "verbatim_token+domain_route:QS"}, {"md_atom_id": "md_dmQS_ex_a010", "md_file": "knowledge_base/domains/QS/examples.md", "md_atom_type": "TABLE_ROW", "md_parent_section": "§QS.1 [Example 1]", "md_verbatim": "| 3 | CDISC01 | QS | CDISC01.100008 | 3 | SWLS0103 | SWLS01-I Am Satisfied with My Life | SWLS | Agree | 6 | 6 | Y | 1 | 2003-04-15 | 1 |", "score": 0.4125, "match_basis": "verbatim_token+domain_route:QS"}, {"md_atom_id": "md_dmQS_ex_a015", "md_file": "knowledge_base/domains/QS/examples.md", "md_atom_type": "TABLE_ROW", "md_parent_section": "§QS.1 [Example 1]", "md_verbatim": "| 8 | CDISC01 | QS | CDISC01.100014 | 8 | SWLS0103 | SWLS01-I Am Satisfied with My Life | SWLS | Agree | 6 | 6 | Y | 1 | 2003-04-15 | 1 |", "score": 0.4124, "match_basis": "verbatim_token+domain_route:QS"}, {"md_atom_id": "md_dmQS_ex_a008", "md_file": "knowledge_base/domains/QS/examples.md", "md_atom_type": "TABLE_ROW", "md_parent_section": "§QS.1 [Example 1]", "md_verbatim": "| 1 | CDISC01 | QS | CDISC01.100008 | 1 | SWLS0101 | SWLS01-My Life is Close to Ideal | SWLS | Slightly agree | 5 | 5 | Y | 1 | 2003-04-15 | 1 |", "score": 0.406, "match_basis": "verbatim_token+domain_route:QS"}], "candidate_count": 5, "zero_candidate": false}
{"pdf_atom_id": "ig34_p0324_a014", "pdf_atom_type": "TABLE_ROW", "pdf_source": "SDTMIG_v3.4", "pdf_page": 324, "pdf_parent_section": "§6.3.9.2 Questionnaires (QS) — QS-Specification", "pdf_verbatim": "| QSSEQ | Sequence Number | Num | | Identifier | Sequence number given to ensure uniqueness of subject records within a domain. May be any valid number. | Req |", "figure_ref": null, "candidates": [{"md_atom_id": "md_dmQS_ex_a010", "md_file": "knowledge_base/domains/QS/examples.md", "md_atom_type": "TABLE_ROW", "md_parent_section": "§QS.1 [Example 1]", "md_verbatim": "| 3 | CDISC01 | QS | CDISC01.100008 | 3 | SWLS0103 | SWLS01-I Am Satisfied with My Life | SWLS | Agree | 6 | 6 | Y | 1 | 2003-04-15 | 1 |", "score": 0.4214, "match_basis": "verbatim_token+domain_route:QS"}, {"md_atom_id": "md_dmQS_ex_a015", "md_file": "knowledge_base/domains/QS/examples.md", "md_atom_type": "TABLE_ROW", "md_parent_section": "§QS.1 [Example 1]", "md_verbatim": "| 8 | CDISC01 | QS | CDISC01.100014 | 8 | SWLS0103 | SWLS01-I Am Satisfied with My Life | SWLS | Agree | 6 | 6 | Y | 1 | 2003-04-15 | 1 |", "score": 0.4212, "match_basis": "verbatim_token+domain_route:QS"}, {"md_atom_id": "md_dmQS_ex_a011", "md_file": "knowledge_base/domains/QS/examples.md", "md_atom_type": "TABLE_ROW", "md_parent_section": "§QS.1 [Example 1]", "md_verbatim": "| 4 | CDISC01 | QS | CDISC01.100008 | 4 | SWLS0104 | SWLS01-Have Gotten Important Things | SWLS | Disagree | 2 | 2 | Y | 1 | 2003-04-15 | 1 |", "score": 0.4129, "match_basis": "verbatim_token+domain_route:QS"}, {"md_atom_id": "md_dmQS_ex_a016", "md_file": "knowledge_base/domains/QS/examples.md", "md_atom_type": "TABLE_ROW", "md_parent_section": "§QS.1 [Example 1]", "md_verbatim": "| 9 | CDISC01 | QS | CDISC01.100014 | 9 | SWLS0104 | SWLS01-Have Gotten Important Things | SWLS | Disagree | 2 | 2 | Y | 1 | 2003-04-15 | 1 |", "score": 0.4128, "match_basis": "verbatim_token+domain_route:QS"}, {"md_atom_id": "md_dmQS_ex_a009", "md_file": "knowledge_base/domains/QS/examples.md", "md_atom_type": "TABLE_ROW", "md_parent_section": "§QS.1 [Example 1]", "md_verbatim": "| 2 | CDISC01 | QS | CDISC01.100008 | 2 | SWLS0102 | SWLS01-My Life Conditions are Excellent | SWLS | Neither agree nor disagree | 4 | 4 | Y | 1 | 2003-04-15 | 1 |", "score": 0.412, "match_basis": "verbatim_token+domain_route:QS"}], "candidate_count": 5, "zero_candidate": false}
{"pdf_atom_id": "ig34_p0324_a015", "pdf_atom_type": "TABLE_ROW", "pdf_source": "SDTMIG_v3.4", "pdf_page": 324, "pdf_parent_section": "§6.3.9.2 Questionnaires (QS) — QS-Specification", "pdf_verbatim": "| QSGRPID | Group ID | Char | | Identifier | Used to tie together a block of related records in a single domain for a subject. | Perm |", "figure_ref": null, "candidates": [{"md_atom_id": "md_dmQS_ex_a009", "md_file": "knowledge_base/domains/QS/examples.md", "md_atom_type": "TABLE_ROW", "md_parent_section": "§QS.1 [Example 1]", "md_verbatim": "| 2 | CDISC01 | QS | CDISC01.100008 | 2 | SWLS0102 | SWLS01-My Life Conditions are Excellent | SWLS | Neither agree nor disagree | 4 | 4 | Y | 1 | 2003-04-15 | 1 |", "score": 0.4184, "match_basis": "verbatim_token+domain_route:QS"}, {"md_atom_id": "md_dmQS_ex_a014", "md_file": "knowledge_base/domains/QS/examples.md", "md_atom_type": "TABLE_ROW", "md_parent_section": "§QS.1 [Example 1]", "md_verbatim": "| 7 | CDISC01 | QS | CDISC01.100014 | 7 | SWLS0102 | SWLS01-My Life Conditions are Excellent | SWLS | Neither agree nor disagree | 4 | 4 | Y | 1 | 2003-04-15 | 1 |", "score": 0.4182, "match_basis": "verbatim_token+domain_route:QS"}, {"md_atom_id": "md_dmQS_ex_a012", "md_file": "knowledge_base/domains/QS/examples.md", "md_atom_type": "TABLE_ROW", "md_parent_section": "§QS.1 [Example 1]", "md_verbatim": "| 5 | CDISC01 | QS | CDISC01.100008 | 5 | SWLS0105 | SWLS01-Live Life Over Change | SWLS | Strongly disagree | 1 | 1 | Y | 1 | 2003-04-15 | 1 |", "score": 0.4132, "match_basis": "verbatim_token+domain_route:QS"}, {"md_atom_id": "md_dmQS_ex_a017", "md_file": "knowledge_base/domains/QS/examples.md", "md_atom_type": "TABLE_ROW", "md_parent_section": "§QS.1 [Example 1]", "md_verbatim": "| 10 | CDISC01 | QS | CDISC01.100014 | 10 | SWLS0105 | SWLS01-Live Life Over Change | SWLS | Strongly disagree | 1 | 1 | Y | 1 | 2003-04-15 | 1 |", "score": 0.413, "match_basis": "verbatim_token+domain_route:QS"}, {"md_atom_id": "md_dmQS_ex_a010", "md_file": "knowledge_base/domains/QS/examples.md", "md_atom_type": "TABLE_ROW", "md_parent_section": "§QS.1 [Example 1]", "md_verbatim": "| 3 | CDISC01 | QS | CDISC01.100008 | 3 | SWLS0103 | SWLS01-I Am Satisfied with My Life | SWLS | Agree | 6 | 6 | Y | 1 | 2003-04-15 | 1 |", "score": 0.4071, "match_basis": "verbatim_token+domain_route:QS"}], "candidate_count": 5, "zero_candidate": false}
{"pdf_atom_id": "ig34_p0324_a016", "pdf_atom_type": "TABLE_ROW", "pdf_source": "SDTMIG_v3.4", "pdf_page": 324, "pdf_parent_section": "§6.3.9.2 Questionnaires (QS) — QS-Specification", "pdf_verbatim": "| QSSPID | Sponsor-Defined Identifier | Char | | Identifier | Sponsor-defined reference number. May be preprinted on the CRF as an explicit line identifier or defined in the sponsor's operational database. Example: Question number on a questionnaire. | Perm |", "figure_ref": null, "candidates": [{"md_atom_id": "md_dmQS_ex_a009", "md_file": "knowledge_base/domains/QS/examples.md", "md_atom_type": "TABLE_ROW", "md_parent_section": "§QS.1 [Example 1]", "md_verbatim": "| 2 | CDISC01 | QS | CDISC01.100008 | 2 | SWLS0102 | SWLS01-My Life Conditions are Excellent | SWLS | Neither agree nor disagree | 4 | 4 | Y | 1 | 2003-04-15 | 1 |", "score": 0.4244, "match_basis": "verbatim_token+domain_route:QS"}, {"md_atom_id": "md_dmQS_ex_a014", "md_file": "knowledge_base/domains/QS/examples.md", "md_atom_type": "TABLE_ROW", "md_parent_section": "§QS.1 [Example 1]", "md_verbatim": "| 7 | CDISC01 | QS | CDISC01.100014 | 7 | SWLS0102 | SWLS01-My Life Conditions are Excellent | SWLS | Neither agree nor disagree | 4 | 4 | Y | 1 | 2003-04-15 | 1 |", "score": 0.4242, "match_basis": "verbatim_token+domain_route:QS"}, {"md_atom_id": "md_dmQS_ex_a010", "md_file": "knowledge_base/domains/QS/examples.md", "md_atom_type": "TABLE_ROW", "md_parent_section": "§QS.1 [Example 1]", "md_verbatim": "| 3 | CDISC01 | QS | CDISC01.100008 | 3 | SWLS0103 | SWLS01-I Am Satisfied with My Life | SWLS | Agree | 6 | 6 | Y | 1 | 2003-04-15 | 1 |", "score": 0.4108, "match_basis": "verbatim_token+domain_route:QS"}, {"md_atom_id": "md_dmQS_ex_a015", "md_file": "knowledge_base/domains/QS/examples.md", "md_atom_type": "TABLE_ROW", "md_parent_section": "§QS.1 [Example 1]", "md_verbatim": "| 8 | CDISC01 | QS | CDISC01.100014 | 8 | SWLS0103 | SWLS01-I Am Satisfied with My Life | SWLS | Agree | 6 | 6 | Y | 1 | 2003-04-15 | 1 |", "score": 0.4107, "match_basis": "verbatim_token+domain_route:QS"}, {"md_atom_id": "md_dmQS_ex_a008", "md_file": "knowledge_base/domains/QS/examples.md", "md_atom_type": "TABLE_ROW", "md_parent_section": "§QS.1 [Example 1]", "md_verbatim": "| 1 | CDISC01 | QS | CDISC01.100008 | 1 | SWLS0101 | SWLS01-My Life is Close to Ideal | SWLS | Slightly agree | 5 | 5 | Y | 1 | 2003-04-15 | 1 |", "score": 0.4052, "match_basis": "verbatim_token+domain_route:QS"}], "candidate_count": 5, "zero_candidate": false}
{"pdf_atom_id": "ig34_p0324_a017", "pdf_atom_type": "TABLE_ROW", "pdf_source": "SDTMIG_v3.4", "pdf_page": 324, "pdf_parent_section": "§6.3.9.2 Questionnaires (QS) — QS-Specification", "pdf_verbatim": "| QSTESTCD | Question Short Name | Char | * | Topic | Topic variable for QS. Short name for the value in QSTEST, which can be used as a column name when converting the dataset from a vertical format to a horizontal format. The value in QSTESTCD cannot be longer than 8 characters, nor can it start with a number (e.g., \"1TEST\" is not valid). QSTESTCD cannot contain characters other than letters, numbers, or underscores. Controlled terminology for QSTESTCD is published in separate codelists for each questionnaire. See https://www.cdisc.org/standards/semantics/terminology for values for QSTESTCD. Examples: \"ADCCMD01\", \"BPR0103\". | Req |", "figure_ref": null, "candidates": [{"md_atom_id": "md_dmQS_ex_a009", "md_file": "knowledge_base/domains/QS/examples.md", "md_atom_type": "TABLE_ROW", "md_parent_section": "§QS.1 [Example 1]", "md_verbatim": "| 2 | CDISC01 | QS | CDISC01.100008 | 2 | SWLS0102 | SWLS01-My Life Conditions are Excellent | SWLS | Neither agree nor disagree | 4 | 4 | Y | 1 | 2003-04-15 | 1 |", "score": 0.4319, "match_basis": "verbatim_token+domain_route:QS"}, {"md_atom_id": "md_dmQS_ex_a014", "md_file": "knowledge_base/domains/QS/examples.md", "md_atom_type": "TABLE_ROW", "md_parent_section": "§QS.1 [Example 1]", "md_verbatim": "| 7 | CDISC01 | QS | CDISC01.100014 | 7 | SWLS0102 | SWLS01-My Life Conditions are Excellent | SWLS | Neither agree nor disagree | 4 | 4 | Y | 1 | 2003-04-15 | 1 |", "score": 0.4317, "match_basis": "verbatim_token+domain_route:QS"}, {"md_atom_id": "md_dmQS_ex_a012", "md_file": "knowledge_base/domains/QS/examples.md", "md_atom_type": "TABLE_ROW", "md_parent_section": "§QS.1 [Example 1]", "md_verbatim": "| 5 | CDISC01 | QS | CDISC01.100008 | 5 | SWLS0105 | SWLS01-Live Life Over Change | SWLS | Strongly disagree | 1 | 1 | Y | 1 | 2003-04-15 | 1 |", "score": 0.4273, "match_basis": "verbatim_token+domain_route:QS"}, {"md_atom_id": "md_dmQS_ex_a017", "md_file": "knowledge_base/domains/QS/examples.md", "md_atom_type": "TABLE_ROW", "md_parent_section": "§QS.1 [Example 1]", "md_verbatim": "| 10 | CDISC01 | QS | CDISC01.100014 | 10 | SWLS0105 | SWLS01-Live Life Over Change | SWLS | Strongly disagree | 1 | 1 | Y | 1 | 2003-04-15 | 1 |", "score": 0.4271, "match_basis": "verbatim_token+domain_route:QS"}, {"md_atom_id": "md_dmQS_ex_a011", "md_file": "knowledge_base/domains/QS/examples.md", "md_atom_type": "TABLE_ROW", "md_parent_section": "§QS.1 [Example 1]", "md_verbatim": "| 4 | CDISC01 | QS | CDISC01.100008 | 4 | SWLS0104 | SWLS01-Have Gotten Important Things | SWLS | Disagree | 2 | 2 | Y | 1 | 2003-04-15 | 1 |", "score": 0.4243, "match_basis": "verbatim_token+domain_route:QS"}], "candidate_count": 5, "zero_candidate": false}
{"pdf_atom_id": "ig34_p0324_a018", "pdf_atom_type": "TABLE_ROW", "pdf_source": "SDTMIG_v3.4", "pdf_page": 324, "pdf_parent_section": "§6.3.9.2 Questionnaires (QS) — QS-Specification", "pdf_verbatim": "| QSTEST | Question Name | Char | * | Synonym Qualifier | Verbatim name of the question or group of questions used to obtain the measurement or finding. The value in QSTEST cannot be longer than 40 characters. Controlled terminology for QSTEST is published in separate codelists for each questionnaire. See https://www.cdisc.org/standards/semantics/terminology for values for QSTEST. Example: \"BPR01 - Emotional Withdrawal\". | Req |", "figure_ref": null, "candidates": [{"md_atom_id": "md_dmQS_ex_a009", "md_file": "knowledge_base/domains/QS/examples.md", "md_atom_type": "TABLE_ROW", "md_parent_section": "§QS.1 [Example 1]", "md_verbatim": "| 2 | CDISC01 | QS | CDISC01.100008 | 2 | SWLS0102 | SWLS01-My Life Conditions are Excellent | SWLS | Neither agree nor disagree | 4 | 4 | Y | 1 | 2003-04-15 | 1 |", "score": 0.4402, "match_basis": "verbatim_token+domain_route:QS"}, {"md_atom_id": "md_dmQS_ex_a014", "md_file": "knowledge_base/domains/QS/examples.md", "md_atom_type": "TABLE_ROW", "md_parent_section": "§QS.1 [Example 1]", "md_verbatim": "| 7 | CDISC01 | QS | CDISC01.100014 | 7 | SWLS0102 | SWLS01-My Life Conditions are Excellent | SWLS | Neither agree nor disagree | 4 | 4 | Y | 1 | 2003-04-15 | 1 |", "score": 0.44, "match_basis": "verbatim_token+domain_route:QS"}, {"md_atom_id": "md_dmQS_ex_a012", "md_file": "knowledge_base/domains/QS/examples.md", "md_atom_type": "TABLE_ROW", "md_parent_section": "§QS.1 [Example 1]", "md_verbatim": "| 5 | CDISC01 | QS | CDISC01.100008 | 5 | SWLS0105 | SWLS01-Live Life Over Change | SWLS | Strongly disagree | 1 | 1 | Y | 1 | 2003-04-15 | 1 |", "score": 0.4317, "match_basis": "verbatim_token+domain_route:QS"}, {"md_atom_id": "md_dmQS_ex_a017", "md_file": "knowledge_base/domains/QS/examples.md", "md_atom_type": "TABLE_ROW", "md_parent_section": "§QS.1 [Example 1]", "md_verbatim": "| 10 | CDISC01 | QS | CDISC01.100014 | 10 | SWLS0105 | SWLS01-Live Life Over Change | SWLS | Strongly disagree | 1 | 1 | Y | 1 | 2003-04-15 | 1 |", "score": 0.4316, "match_basis": "verbatim_token+domain_route:QS"}, {"md_atom_id": "md_dmQS_ex_a010", "md_file": "knowledge_base/domains/QS/examples.md", "md_atom_type": "TABLE_ROW", "md_parent_section": "§QS.1 [Example 1]", "md_verbatim": "| 3 | CDISC01 | QS | CDISC01.100008 | 3 | SWLS0103 | SWLS01-I Am Satisfied with My Life | SWLS | Agree | 6 | 6 | Y | 1 | 2003-04-15 | 1 |", "score": 0.4261, "match_basis": "verbatim_token+domain_route:QS"}], "candidate_count": 5, "zero_candidate": false}
{"pdf_atom_id": "ig34_p0324_a019", "pdf_atom_type": "TABLE_ROW", "pdf_source": "SDTMIG_v3.4", "pdf_page": 324, "pdf_parent_section": "§6.3.9.2 Questionnaires (QS) — QS-Specification", "pdf_verbatim": "| QSCAT | Category of Question | Char | (QSCAT) | Grouping Qualifier | Used to specify the questionnaire in which the question identified by QSTEST and QSTESTCD was included. Examples: \"ADAS-COG\", \"MDS-UPDRS\". | Req |", "figure_ref": null, "candidates": [{"md_atom_id": "md_dmQS_ex_a009", "md_file": "knowledge_base/domains/QS/examples.md", "md_atom_type": "TABLE_ROW", "md_parent_section": "§QS.1 [Example 1]", "md_verbatim": "| 2 | CDISC01 | QS | CDISC01.100008 | 2 | SWLS0102 | SWLS01-My Life Conditions are Excellent | SWLS | Neither agree nor disagree | 4 | 4 | Y | 1 | 2003-04-15 | 1 |", "score": 0.4254, "match_basis": "verbatim_token+domain_route:QS"}, {"md_atom_id": "md_dmQS_ex_a014", "md_file": "knowledge_base/domains/QS/examples.md", "md_atom_type": "TABLE_ROW", "md_parent_section": "§QS.1 [Example 1]", "md_verbatim": "| 7 | CDISC01 | QS | CDISC01.100014 | 7 | SWLS0102 | SWLS01-My Life Conditions are Excellent | SWLS | Neither agree nor disagree | 4 | 4 | Y | 1 | 2003-04-15 | 1 |", "score": 0.4252, "match_basis": "verbatim_token+domain_route:QS"}, {"md_atom_id": "md_dmQS_ex_a010", "md_file": "knowledge_base/domains/QS/examples.md", "md_atom_type": "TABLE_ROW", "md_parent_section": "§QS.1 [Example 1]", "md_verbatim": "| 3 | CDISC01 | QS | CDISC01.100008 | 3 | SWLS0103 | SWLS01-I Am Satisfied with My Life | SWLS | Agree | 6 | 6 | Y | 1 | 2003-04-15 | 1 |", "score": 0.4171, "match_basis": "verbatim_token+domain_route:QS"}, {"md_atom_id": "md_dmQS_ex_a015", "md_file": "knowledge_base/domains/QS/examples.md", "md_atom_type": "TABLE_ROW", "md_parent_section": "§QS.1 [Example 1]", "md_verbatim": "| 8 | CDISC01 | QS | CDISC01.100014 | 8 | SWLS0103 | SWLS01-I Am Satisfied with My Life | SWLS | Agree | 6 | 6 | Y | 1 | 2003-04-15 | 1 |", "score": 0.417, "match_basis": "verbatim_token+domain_route:QS"}, {"md_atom_id": "md_dmQS_ex_a008", "md_file": "knowledge_base/domains/QS/examples.md", "md_atom_type": "TABLE_ROW", "md_parent_section": "§QS.1 [Example 1]", "md_verbatim": "| 1 | CDISC01 | QS | CDISC01.100008 | 1 | SWLS0101 | SWLS01-My Life is Close to Ideal | SWLS | Slightly agree | 5 | 5 | Y | 1 | 2003-04-15 | 1 |", "score": 0.411, "match_basis": "verbatim_token+domain_route:QS"}], "candidate_count": 5, "zero_candidate": false}
{"pdf_atom_id": "ig34_p0324_a020", "pdf_atom_type": "TABLE_ROW", "pdf_source": "SDTMIG_v3.4", "pdf_page": 324, "pdf_parent_section": "§6.3.9.2 Questionnaires (QS) — QS-Specification", "pdf_verbatim": "| QSSCAT | Subcategory for Question | Char | * | Grouping Qualifier | A further categorization of the questions within the category. Examples: \"MENTAL HEALTH\" , \"DEPRESSION\", \"WORD RECALL\". | Perm |", "figure_ref": null, "candidates": [{"md_atom_id": "md_dmQS_ex_a009", "md_file": "knowledge_base/domains/QS/examples.md", "md_atom_type": "TABLE_ROW", "md_parent_section": "§QS.1 [Example 1]", "md_verbatim": "| 2 | CDISC01 | QS | CDISC01.100008 | 2 | SWLS0102 | SWLS01-My Life Conditions are Excellent | SWLS | Neither agree nor disagree | 4 | 4 | Y | 1 | 2003-04-15 | 1 |", "score": 0.4417, "match_basis": "verbatim_token+domain_route:QS"}, {"md_atom_id": "md_dmQS_ex_a014", "md_file": "knowledge_base/domains/QS/examples.md", "md_atom_type": "TABLE_ROW", "md_parent_section": "§QS.1 [Example 1]", "md_verbatim": "| 7 | CDISC01 | QS | CDISC01.100014 | 7 | SWLS0102 | SWLS01-My Life Conditions are Excellent | SWLS | Neither agree nor disagree | 4 | 4 | Y | 1 | 2003-04-15 | 1 |", "score": 0.4414, "match_basis": "verbatim_token+domain_route:QS"}, {"md_atom_id": "md_dmQS_ex_a010", "md_file": "knowledge_base/domains/QS/examples.md", "md_atom_type": "TABLE_ROW", "md_parent_section": "§QS.1 [Example 1]", "md_verbatim": "| 3 | CDISC01 | QS | CDISC01.100008 | 3 | SWLS0103 | SWLS01-I Am Satisfied with My Life | SWLS | Agree | 6 | 6 | Y | 1 | 2003-04-15 | 1 |", "score": 0.4291, "match_basis": "verbatim_token+domain_route:QS"}, {"md_atom_id": "md_dmQS_ex_a015", "md_file": "knowledge_base/domains/QS/examples.md", "md_atom_type": "TABLE_ROW", "md_parent_section": "§QS.1 [Example 1]", "md_verbatim": "| 8 | CDISC01 | QS | CDISC01.100014 | 8 | SWLS0103 | SWLS01-I Am Satisfied with My Life | SWLS | Agree | 6 | 6 | Y | 1 | 2003-04-15 | 1 |", "score": 0.4288, "match_basis": "verbatim_token+domain_route:QS"}, {"md_atom_id": "md_dmQS_ex_a011", "md_file": "knowledge_base/domains/QS/examples.md", "md_atom_type": "TABLE_ROW", "md_parent_section": "§QS.1 [Example 1]", "md_verbatim": "| 4 | CDISC01 | QS | CDISC01.100008 | 4 | SWLS0104 | SWLS01-Have Gotten Important Things | SWLS | Disagree | 2 | 2 | Y | 1 | 2003-04-15 | 1 |", "score": 0.4159, "match_basis": "verbatim_token+domain_route:QS"}], "candidate_count": 5, "zero_candidate": false}
{"pdf_atom_id": "ig34_p0324_a021", "pdf_atom_type": "TABLE_ROW", "pdf_source": "SDTMIG_v3.4", "pdf_page": 324, "pdf_parent_section": "§6.3.9.2 Questionnaires (QS) — QS-Specification", "pdf_verbatim": "| QSORRES | Finding in Original Units | Char | | Result Qualifier | Finding as originally received or collected (e.g., \"RARELY\", \"SOMETIMES\"). When sponsors apply codelist to indicate that code values are statistically meaningful standardized scores (which are defined by sponsors or by valid methodologies, e.g., SF36 questionnaires), QSORRES will contain the decode format; QSSTRESC and QSSTRESN may contain the standardized code values or scores. | Exp |", "figure_ref": null, "candidates": [{"md_atom_id": "md_dmQS_ex_a009", "md_file": "knowledge_base/domains/QS/examples.md", "md_atom_type": "TABLE_ROW", "md_parent_section": "§QS.1 [Example 1]", "md_verbatim": "| 2 | CDISC01 | QS | CDISC01.100008 | 2 | SWLS0102 | SWLS01-My Life Conditions are Excellent | SWLS | Neither agree nor disagree | 4 | 4 | Y | 1 | 2003-04-15 | 1 |", "score": 0.4276, "match_basis": "verbatim_token+domain_route:QS"}, {"md_atom_id": "md_dmQS_ex_a014", "md_file": "knowledge_base/domains/QS/examples.md", "md_atom_type": "TABLE_ROW", "md_parent_section": "§QS.1 [Example 1]", "md_verbatim": "| 7 | CDISC01 | QS | CDISC01.100014 | 7 | SWLS0102 | SWLS01-My Life Conditions are Excellent | SWLS | Neither agree nor disagree | 4 | 4 | Y | 1 | 2003-04-15 | 1 |", "score": 0.4274, "match_basis": "verbatim_token+domain_route:QS"}, {"md_atom_id": "md_dmQS_ex_a010", "md_file": "knowledge_base/domains/QS/examples.md", "md_atom_type": "TABLE_ROW", "md_parent_section": "§QS.1 [Example 1]", "md_verbatim": "| 3 | CDISC01 | QS | CDISC01.100008 | 3 | SWLS0103 | SWLS01-I Am Satisfied with My Life | SWLS | Agree | 6 | 6 | Y | 1 | 2003-04-15 | 1 |", "score": 0.4129, "match_basis": "verbatim_token+domain_route:QS"}, {"md_atom_id": "md_dmQS_ex_a015", "md_file": "knowledge_base/domains/QS/examples.md", "md_atom_type": "TABLE_ROW", "md_parent_section": "§QS.1 [Example 1]", "md_verbatim": "| 8 | CDISC01 | QS | CDISC01.100014 | 8 | SWLS0103 | SWLS01-I Am Satisfied with My Life | SWLS | Agree | 6 | 6 | Y | 1 | 2003-04-15 | 1 |", "score": 0.4128, "match_basis": "verbatim_token+domain_route:QS"}, {"md_atom_id": "md_dmQS_ex_a012", "md_file": "knowledge_base/domains/QS/examples.md", "md_atom_type": "TABLE_ROW", "md_parent_section": "§QS.1 [Example 1]", "md_verbatim": "| 5 | CDISC01 | QS | CDISC01.100008 | 5 | SWLS0105 | SWLS01-Live Life Over Change | SWLS | Strongly disagree | 1 | 1 | Y | 1 | 2003-04-15 | 1 |", "score": 0.4124, "match_basis": "verbatim_token+domain_route:QS"}], "candidate_count": 5, "zero_candidate": false}
{"pdf_atom_id": "ig34_p0325_a001", "pdf_atom_type": "TABLE_ROW", "pdf_source": "SDTMIG_v3.4", "pdf_page": 325, "pdf_parent_section": "§6.3.9.2 Questionnaires (QS) — QS-Specification", "pdf_verbatim": "| QSORRESU | Original Units | Char | (UNIT) | Variable Qualifier | Original units in which the data were collected. The unit for QSORRES, such as minutes or seconds or the units associated with a visual analog scale. | Perm |", "figure_ref": null, "candidates": [{"md_atom_id": "md_dmQS_ex_a009", "md_file": "knowledge_base/domains/QS/examples.md", "md_atom_type": "TABLE_ROW", "md_parent_section": "§QS.1 [Example 1]", "md_verbatim": "| 2 | CDISC01 | QS | CDISC01.100008 | 2 | SWLS0102 | SWLS01-My Life Conditions are Excellent | SWLS | Neither agree nor disagree | 4 | 4 | Y | 1 | 2003-04-15 | 1 |", "score": 0.4308, "match_basis": "verbatim_token+domain_route:QS"}, {"md_atom_id": "md_dmQS_ex_a014", "md_file": "knowledge_base/domains/QS/examples.md", "md_atom_type": "TABLE_ROW", "md_parent_section": "§QS.1 [Example 1]", "md_verbatim": "| 7 | CDISC01 | QS | CDISC01.100014 | 7 | SWLS0102 | SWLS01-My Life Conditions are Excellent | SWLS | Neither agree nor disagree | 4 | 4 | Y | 1 | 2003-04-15 | 1 |", "score": 0.4305, "match_basis": "verbatim_token+domain_route:QS"}, {"md_atom_id": "md_dmQS_ex_a010", "md_file": "knowledge_base/domains/QS/examples.md", "md_atom_type": "TABLE_ROW", "md_parent_section": "§QS.1 [Example 1]", "md_verbatim": "| 3 | CDISC01 | QS | CDISC01.100008 | 3 | SWLS0103 | SWLS01-I Am Satisfied with My Life | SWLS | Agree | 6 | 6 | Y | 1 | 2003-04-15 | 1 |", "score": 0.4231, "match_basis": "verbatim_token+domain_route:QS"}, {"md_atom_id": "md_dmQS_ex_a015", "md_file": "knowledge_base/domains/QS/examples.md", "md_atom_type": "TABLE_ROW", "md_parent_section": "§QS.1 [Example 1]", "md_verbatim": "| 8 | CDISC01 | QS | CDISC01.100014 | 8 | SWLS0103 | SWLS01-I Am Satisfied with My Life | SWLS | Agree | 6 | 6 | Y | 1 | 2003-04-15 | 1 |", "score": 0.4229, "match_basis": "verbatim_token+domain_route:QS"}, {"md_atom_id": "md_dmQS_ex_a012", "md_file": "knowledge_base/domains/QS/examples.md", "md_atom_type": "TABLE_ROW", "md_parent_section": "§QS.1 [Example 1]", "md_verbatim": "| 5 | CDISC01 | QS | CDISC01.100008 | 5 | SWLS0105 | SWLS01-Live Life Over Change | SWLS | Strongly disagree | 1 | 1 | Y | 1 | 2003-04-15 | 1 |", "score": 0.4106, "match_basis": "verbatim_token+domain_route:QS"}], "candidate_count": 5, "zero_candidate": false}
{"pdf_atom_id": "ig34_p0325_a002", "pdf_atom_type": "TABLE_ROW", "pdf_source": "SDTMIG_v3.4", "pdf_page": 325, "pdf_parent_section": "§6.3.9.2 Questionnaires (QS) — QS-Specification", "pdf_verbatim": "| QSSTRESC | Character Result/Finding in Std Format | Char | | Result Qualifier | Contains the finding for all questions or subscores copied or derived from QSORRES, in a standard format or standard units. QSSTRESC should store all findings in character format; if findings are numeric, they should also be stored in numeric format in QSSTRESN. If question scores are derived from the original finding, then the standard format is the score. Examples: \"0\", \"1\". When sponsors apply codelist to indicate the code values are statistically meaningful standardized scores (which are defined by sponsors or by valid methodologies, e.g., SF36 questionnaires), QSORRES will contain the decode format; QSSTRESC and QSSTRESN may contain the standardized code values or scores. | Exp |", "figure_ref": null, "candidates": [{"md_atom_id": "md_dmQS_ex_a009", "md_file": "knowledge_base/domains/QS/examples.md", "md_atom_type": "TABLE_ROW", "md_parent_section": "§QS.1 [Example 1]", "md_verbatim": "| 2 | CDISC01 | QS | CDISC01.100008 | 2 | SWLS0102 | SWLS01-My Life Conditions are Excellent | SWLS | Neither agree nor disagree | 4 | 4 | Y | 1 | 2003-04-15 | 1 |", "score": 0.4223, "match_basis": "verbatim_token+domain_route:QS"}, {"md_atom_id": "md_dmQS_ex_a014", "md_file": "knowledge_base/domains/QS/examples.md", "md_atom_type": "TABLE_ROW", "md_parent_section": "§QS.1 [Example 1]", "md_verbatim": "| 7 | CDISC01 | QS | CDISC01.100014 | 7 | SWLS0102 | SWLS01-My Life Conditions are Excellent | SWLS | Neither agree nor disagree | 4 | 4 | Y | 1 | 2003-04-15 | 1 |", "score": 0.4222, "match_basis": "verbatim_token+domain_route:QS"}, {"md_atom_id": "md_dmQS_ex_a010", "md_file": "knowledge_base/domains/QS/examples.md", "md_atom_type": "TABLE_ROW", "md_parent_section": "§QS.1 [Example 1]", "md_verbatim": "| 3 | CDISC01 | QS | CDISC01.100008 | 3 | SWLS0103 | SWLS01-I Am Satisfied with My Life | SWLS | Agree | 6 | 6 | Y | 1 | 2003-04-15 | 1 |", "score": 0.4148, "match_basis": "verbatim_token+domain_route:QS"}, {"md_atom_id": "md_dmQS_ex_a015", "md_file": "knowledge_base/domains/QS/examples.md", "md_atom_type": "TABLE_ROW", "md_parent_section": "§QS.1 [Example 1]", "md_verbatim": "| 8 | CDISC01 | QS | CDISC01.100014 | 8 | SWLS0103 | SWLS01-I Am Satisfied with My Life | SWLS | Agree | 6 | 6 | Y | 1 | 2003-04-15 | 1 |", "score": 0.4147, "match_basis": "verbatim_token+domain_route:QS"}, {"md_atom_id": "md_dmQS_ex_a012", "md_file": "knowledge_base/domains/QS/examples.md", "md_atom_type": "TABLE_ROW", "md_parent_section": "§QS.1 [Example 1]", "md_verbatim": "| 5 | CDISC01 | QS | CDISC01.100008 | 5 | SWLS0105 | SWLS01-Live Life Over Change | SWLS | Strongly disagree | 1 | 1 | Y | 1 | 2003-04-15 | 1 |", "score": 0.4114, "match_basis": "verbatim_token+domain_route:QS"}], "candidate_count": 5, "zero_candidate": false}
{"pdf_atom_id": "ig34_p0325_a003", "pdf_atom_type": "TABLE_ROW", "pdf_source": "SDTMIG_v3.4", "pdf_page": 325, "pdf_parent_section": "§6.3.9.2 Questionnaires (QS) — QS-Specification", "pdf_verbatim": "| QSSTRESN | Numeric Finding in Standard Units | Num | | Result Qualifier | Used for continuous or numeric findings in standard format; copied in numeric format from QSSTRESC. QSSTRESN should store all numeric results or findings. | Perm |", "figure_ref": null, "candidates": [{"md_atom_id": "md_dmQS_ex_a010", "md_file": "knowledge_base/domains/QS/examples.md", "md_atom_type": "TABLE_ROW", "md_parent_section": "§QS.1 [Example 1]", "md_verbatim": "| 3 | CDISC01 | QS | CDISC01.100008 | 3 | SWLS0103 | SWLS01-I Am Satisfied with My Life | SWLS | Agree | 6 | 6 | Y | 1 | 2003-04-15 | 1 |", "score": 0.4189, "match_basis": "verbatim_token+domain_route:QS"}, {"md_atom_id": "md_dmQS_ex_a015", "md_file": "knowledge_base/domains/QS/examples.md", "md_atom_type": "TABLE_ROW", "md_parent_section": "§QS.1 [Example 1]", "md_verbatim": "| 8 | CDISC01 | QS | CDISC01.100014 | 8 | SWLS0103 | SWLS01-I Am Satisfied with My Life | SWLS | Agree | 6 | 6 | Y | 1 | 2003-04-15 | 1 |", "score": 0.4187, "match_basis": "verbatim_token+domain_route:QS"}, {"md_atom_id": "md_dmQS_ex_a011", "md_file": "knowledge_base/domains/QS/examples.md", "md_atom_type": "TABLE_ROW", "md_parent_section": "§QS.1 [Example 1]", "md_verbatim": "| 4 | CDISC01 | QS | CDISC01.100008 | 4 | SWLS0104 | SWLS01-Have Gotten Important Things | SWLS | Disagree | 2 | 2 | Y | 1 | 2003-04-15 | 1 |", "score": 0.4175, "match_basis": "verbatim_token+domain_route:QS"}, {"md_atom_id": "md_dmQS_ex_a016", "md_file": "knowledge_base/domains/QS/examples.md", "md_atom_type": "TABLE_ROW", "md_parent_section": "§QS.1 [Example 1]", "md_verbatim": "| 9 | CDISC01 | QS | CDISC01.100014 | 9 | SWLS0104 | SWLS01-Have Gotten Important Things | SWLS | Disagree | 2 | 2 | Y | 1 | 2003-04-15 | 1 |", "score": 0.4173, "match_basis": "verbatim_token+domain_route:QS"}, {"md_atom_id": "md_dmQS_ex_a009", "md_file": "knowledge_base/domains/QS/examples.md", "md_atom_type": "TABLE_ROW", "md_parent_section": "§QS.1 [Example 1]", "md_verbatim": "| 2 | CDISC01 | QS | CDISC01.100008 | 2 | SWLS0102 | SWLS01-My Life Conditions are Excellent | SWLS | Neither agree nor disagree | 4 | 4 | Y | 1 | 2003-04-15 | 1 |", "score": 0.4164, "match_basis": "verbatim_token+domain_route:QS"}], "candidate_count": 5, "zero_candidate": false}
{"pdf_atom_id": "ig34_p0325_a004", "pdf_atom_type": "TABLE_ROW", "pdf_source": "SDTMIG_v3.4", "pdf_page": 325, "pdf_parent_section": "§6.3.9.2 Questionnaires (QS) — QS-Specification", "pdf_verbatim": "| QSSTRESU | Standard Units | Char | (UNIT) | Variable Qualifier | Standardized unit used for QSSTRESC or QSSTRESN. | Perm |", "figure_ref": null, "candidates": [{"md_atom_id": "md_dmQS_ex_a012", "md_file": "knowledge_base/domains/QS/examples.md", "md_atom_type": "TABLE_ROW", "md_parent_section": "§QS.1 [Example 1]", "md_verbatim": "| 5 | CDISC01 | QS | CDISC01.100008 | 5 | SWLS0105 | SWLS01-Live Life Over Change | SWLS | Strongly disagree | 1 | 1 | Y | 1 | 2003-04-15 | 1 |", "score": 0.424, "match_basis": "verbatim_token+domain_route:QS"}, {"md_atom_id": "md_dmQS_ex_a017", "md_file": "knowledge_base/domains/QS/examples.md", "md_atom_type": "TABLE_ROW", "md_parent_section": "§QS.1 [Example 1]", "md_verbatim": "| 10 | CDISC01 | QS | CDISC01.100014 | 10 | SWLS0105 | SWLS01-Live Life Over Change | SWLS | Strongly disagree | 1 | 1 | Y | 1 | 2003-04-15 | 1 |", "score": 0.4237, "match_basis": "verbatim_token+domain_route:QS"}, {"md_atom_id": "md_dmQS_ex_a010", "md_file": "knowledge_base/domains/QS/examples.md", "md_atom_type": "TABLE_ROW", "md_parent_section": "§QS.1 [Example 1]", "md_verbatim": "| 3 | CDISC01 | QS | CDISC01.100008 | 3 | SWLS0103 | SWLS01-I Am Satisfied with My Life | SWLS | Agree | 6 | 6 | Y | 1 | 2003-04-15 | 1 |", "score": 0.4174, "match_basis": "verbatim_token+domain_route:QS"}, {"md_atom_id": "md_dmQS_ex_a015", "md_file": "knowledge_base/domains/QS/examples.md", "md_atom_type": "TABLE_ROW", "md_parent_section": "§QS.1 [Example 1]", "md_verbatim": "| 8 | CDISC01 | QS | CDISC01.100014 | 8 | SWLS0103 | SWLS01-I Am Satisfied with My Life | SWLS | Agree | 6 | 6 | Y | 1 | 2003-04-15 | 1 |", "score": 0.4171, "match_basis": "verbatim_token+domain_route:QS"}, {"md_atom_id": "md_dmQS_ex_a008", "md_file": "knowledge_base/domains/QS/examples.md", "md_atom_type": "TABLE_ROW", "md_parent_section": "§QS.1 [Example 1]", "md_verbatim": "| 1 | CDISC01 | QS | CDISC01.100008 | 1 | SWLS0101 | SWLS01-My Life is Close to Ideal | SWLS | Slightly agree | 5 | 5 | Y | 1 | 2003-04-15 | 1 |", "score": 0.4082, "match_basis": "verbatim_token+domain_route:QS"}], "candidate_count": 5, "zero_candidate": false}
{"pdf_atom_id": "ig34_p0325_a005", "pdf_atom_type": "TABLE_ROW", "pdf_source": "SDTMIG_v3.4", "pdf_page": 325, "pdf_parent_section": "§6.3.9.2 Questionnaires (QS) — QS-Specification", "pdf_verbatim": "| QSSTAT | Completion Status | Char | (ND) | Record Qualifier | Used to indicate that a question was not done or was not answered. Should be null if a result exists in QSORRES. | Perm |", "figure_ref": null, "candidates": [{"md_atom_id": "md_dmQS_ex_a009", "md_file": "knowledge_base/domains/QS/examples.md", "md_atom_type": "TABLE_ROW", "md_parent_section": "§QS.1 [Example 1]", "md_verbatim": "| 2 | CDISC01 | QS | CDISC01.100008 | 2 | SWLS0102 | SWLS01-My Life Conditions are Excellent | SWLS | Neither agree nor disagree | 4 | 4 | Y | 1 | 2003-04-15 | 1 |", "score": 0.4214, "match_basis": "verbatim_token+domain_route:QS"}, {"md_atom_id": "md_dmQS_ex_a014", "md_file": "knowledge_base/domains/QS/examples.md", "md_atom_type": "TABLE_ROW", "md_parent_section": "§QS.1 [Example 1]", "md_verbatim": "| 7 | CDISC01 | QS | CDISC01.100014 | 7 | SWLS0102 | SWLS01-My Life Conditions are Excellent | SWLS | Neither agree nor disagree | 4 | 4 | Y | 1 | 2003-04-15 | 1 |", "score": 0.4212, "match_basis": "verbatim_token+domain_route:QS"}, {"md_atom_id": "md_dmQS_ex_a010", "md_file": "knowledge_base/domains/QS/examples.md", "md_atom_type": "TABLE_ROW", "md_parent_section": "§QS.1 [Example 1]", "md_verbatim": "| 3 | CDISC01 | QS | CDISC01.100008 | 3 | SWLS0103 | SWLS01-I Am Satisfied with My Life | SWLS | Agree | 6 | 6 | Y | 1 | 2003-04-15 | 1 |", "score": 0.4121, "match_basis": "verbatim_token+domain_route:QS"}, {"md_atom_id": "md_dmQS_ex_a015", "md_file": "knowledge_base/domains/QS/examples.md", "md_atom_type": "TABLE_ROW", "md_parent_section": "§QS.1 [Example 1]", "md_verbatim": "| 8 | CDISC01 | QS | CDISC01.100014 | 8 | SWLS0103 | SWLS01-I Am Satisfied with My Life | SWLS | Agree | 6 | 6 | Y | 1 | 2003-04-15 | 1 |", "score": 0.412, "match_basis": "verbatim_token+domain_route:QS"}, {"md_atom_id": "md_dmQS_ex_a012", "md_file": "knowledge_base/domains/QS/examples.md", "md_atom_type": "TABLE_ROW", "md_parent_section": "§QS.1 [Example 1]", "md_verbatim": "| 5 | CDISC01 | QS | CDISC01.100008 | 5 | SWLS0105 | SWLS01-Live Life Over Change | SWLS | Strongly disagree | 1 | 1 | Y | 1 | 2003-04-15 | 1 |", "score": 0.4113, "match_basis": "verbatim_token+domain_route:QS"}], "candidate_count": 5, "zero_candidate": false}
{"pdf_atom_id": "ig34_p0325_a006", "pdf_atom_type": "TABLE_ROW", "pdf_source": "SDTMIG_v3.4", "pdf_page": 325, "pdf_parent_section": "§6.3.9.2 Questionnaires (QS) — QS-Specification", "pdf_verbatim": "| QSREASND | Reason Not Performed | Char | | Record Qualifier | Describes why a question was not answered. Used in conjunction with QSSTAT when value is \"NOT DONE\". Example: \"SUBJECT REFUSED\". | Perm |", "figure_ref": null, "candidates": [{"md_atom_id": "md_dmQS_ex_a009", "md_file": "knowledge_base/domains/QS/examples.md", "md_atom_type": "TABLE_ROW", "md_parent_section": "§QS.1 [Example 1]", "md_verbatim": "| 2 | CDISC01 | QS | CDISC01.100008 | 2 | SWLS0102 | SWLS01-My Life Conditions are Excellent | SWLS | Neither agree nor disagree | 4 | 4 | Y | 1 | 2003-04-15 | 1 |", "score": 0.4238, "match_basis": "verbatim_token+domain_route:QS"}, {"md_atom_id": "md_dmQS_ex_a014", "md_file": "knowledge_base/domains/QS/examples.md", "md_atom_type": "TABLE_ROW", "md_parent_section": "§QS.1 [Example 1]", "md_verbatim": "| 7 | CDISC01 | QS | CDISC01.100014 | 7 | SWLS0102 | SWLS01-My Life Conditions are Excellent | SWLS | Neither agree nor disagree | 4 | 4 | Y | 1 | 2003-04-15 | 1 |", "score": 0.4236, "match_basis": "verbatim_token+domain_route:QS"}, {"md_atom_id": "md_dmQS_ex_a010", "md_file": "knowledge_base/domains/QS/examples.md", "md_atom_type": "TABLE_ROW", "md_parent_section": "§QS.1 [Example 1]", "md_verbatim": "| 3 | CDISC01 | QS | CDISC01.100008 | 3 | SWLS0103 | SWLS01-I Am Satisfied with My Life | SWLS | Agree | 6 | 6 | Y | 1 | 2003-04-15 | 1 |", "score": 0.4214, "match_basis": "verbatim_token+domain_route:QS"}, {"md_atom_id": "md_dmQS_ex_a015", "md_file": "knowledge_base/domains/QS/examples.md", "md_atom_type": "TABLE_ROW", "md_parent_section": "§QS.1 [Example 1]", "md_verbatim": "| 8 | CDISC01 | QS | CDISC01.100014 | 8 | SWLS0103 | SWLS01-I Am Satisfied with My Life | SWLS | Agree | 6 | 6 | Y | 1 | 2003-04-15 | 1 |", "score": 0.4212, "match_basis": "verbatim_token+domain_route:QS"}, {"md_atom_id": "md_dmQS_ex_a012", "md_file": "knowledge_base/domains/QS/examples.md", "md_atom_type": "TABLE_ROW", "md_parent_section": "§QS.1 [Example 1]", "md_verbatim": "| 5 | CDISC01 | QS | CDISC01.100008 | 5 | SWLS0105 | SWLS01-Live Life Over Change | SWLS | Strongly disagree | 1 | 1 | Y | 1 | 2003-04-15 | 1 |", "score": 0.4099, "match_basis": "verbatim_token+domain_route:QS"}], "candidate_count": 5, "zero_candidate": false}
{"pdf_atom_id": "ig34_p0325_a007", "pdf_atom_type": "TABLE_ROW", "pdf_source": "SDTMIG_v3.4", "pdf_page": 325, "pdf_parent_section": "§6.3.9.2 Questionnaires (QS) — QS-Specification", "pdf_verbatim": "| QSMETHOD | Method of Test or Examination | Char | (QRSMTHOD) | Record Qualifier | Method of the test or examination. | Perm |", "figure_ref": null, "candidates": [{"md_atom_id": "md_dmQS_ex_a009", "md_file": "knowledge_base/domains/QS/examples.md", "md_atom_type": "TABLE_ROW", "md_parent_section": "§QS.1 [Example 1]", "md_verbatim": "| 2 | CDISC01 | QS | CDISC01.100008 | 2 | SWLS0102 | SWLS01-My Life Conditions are Excellent | SWLS | Neither agree nor disagree | 4 | 4 | Y | 1 | 2003-04-15 | 1 |", "score": 0.4308, "match_basis": "verbatim_token+domain_route:QS"}, {"md_atom_id": "md_dmQS_ex_a014", "md_file": "knowledge_base/domains/QS/examples.md", "md_atom_type": "TABLE_ROW", "md_parent_section": "§QS.1 [Example 1]", "md_verbatim": "| 7 | CDISC01 | QS | CDISC01.100014 | 7 | SWLS0102 | SWLS01-My Life Conditions are Excellent | SWLS | Neither agree nor disagree | 4 | 4 | Y | 1 | 2003-04-15 | 1 |", "score": 0.4304, "match_basis": "verbatim_token+domain_route:QS"}, {"md_atom_id": "md_dmQS_ex_a010", "md_file": "knowledge_base/domains/QS/examples.md", "md_atom_type": "TABLE_ROW", "md_parent_section": "§QS.1 [Example 1]", "md_verbatim": "| 3 | CDISC01 | QS | CDISC01.100008 | 3 | SWLS0103 | SWLS01-I Am Satisfied with My Life | SWLS | Agree | 6 | 6 | Y | 1 | 2003-04-15 | 1 |", "score": 0.4281, "match_basis": "verbatim_token+domain_route:QS"}, {"md_atom_id": "md_dmQS_ex_a015", "md_file": "knowledge_base/domains/QS/examples.md", "md_atom_type": "TABLE_ROW", "md_parent_section": "§QS.1 [Example 1]", "md_verbatim": "| 8 | CDISC01 | QS | CDISC01.100014 | 8 | SWLS0103 | SWLS01-I Am Satisfied with My Life | SWLS | Agree | 6 | 6 | Y | 1 | 2003-04-15 | 1 |", "score": 0.4277, "match_basis": "verbatim_token+domain_route:QS"}, {"md_atom_id": "md_dmQS_ex_a012", "md_file": "knowledge_base/domains/QS/examples.md", "md_atom_type": "TABLE_ROW", "md_parent_section": "§QS.1 [Example 1]", "md_verbatim": "| 5 | CDISC01 | QS | CDISC01.100008 | 5 | SWLS0105 | SWLS01-Live Life Over Change | SWLS | Strongly disagree | 1 | 1 | Y | 1 | 2003-04-15 | 1 |", "score": 0.4167, "match_basis": "verbatim_token+domain_route:QS"}], "candidate_count": 5, "zero_candidate": false}
{"pdf_atom_id": "ig34_p0325_a008", "pdf_atom_type": "TABLE_ROW", "pdf_source": "SDTMIG_v3.4", "pdf_page": 325, "pdf_parent_section": "§6.3.9.2 Questionnaires (QS) — QS-Specification", "pdf_verbatim": "| QSLOBXFL | Last Observation Before Exposure Flag | Char | (NY) | Record Qualifier | Operationally derived indicator used to identify the last non-missing value prior to RFXSTDTC. Should be \"Y\" or null. | Exp |", "figure_ref": null, "candidates": [{"md_atom_id": "md_dmQS_ex_a009", "md_file": "knowledge_base/domains/QS/examples.md", "md_atom_type": "TABLE_ROW", "md_parent_section": "§QS.1 [Example 1]", "md_verbatim": "| 2 | CDISC01 | QS | CDISC01.100008 | 2 | SWLS0102 | SWLS01-My Life Conditions are Excellent | SWLS | Neither agree nor disagree | 4 | 4 | Y | 1 | 2003-04-15 | 1 |", "score": 0.4269, "match_basis": "verbatim_token+domain_route:QS"}, {"md_atom_id": "md_dmQS_ex_a014", "md_file": "knowledge_base/domains/QS/examples.md", "md_atom_type": "TABLE_ROW", "md_parent_section": "§QS.1 [Example 1]", "md_verbatim": "| 7 | CDISC01 | QS | CDISC01.100014 | 7 | SWLS0102 | SWLS01-My Life Conditions are Excellent | SWLS | Neither agree nor disagree | 4 | 4 | Y | 1 | 2003-04-15 | 1 |", "score": 0.4267, "match_basis": "verbatim_token+domain_route:QS"}, {"md_atom_id": "md_dmQS_ex_a010", "md_file": "knowledge_base/domains/QS/examples.md", "md_atom_type": "TABLE_ROW", "md_parent_section": "§QS.1 [Example 1]", "md_verbatim": "| 3 | CDISC01 | QS | CDISC01.100008 | 3 | SWLS0103 | SWLS01-I Am Satisfied with My Life | SWLS | Agree | 6 | 6 | Y | 1 | 2003-04-15 | 1 |", "score": 0.4148, "match_basis": "verbatim_token+domain_route:QS"}, {"md_atom_id": "md_dmQS_ex_a015", "md_file": "knowledge_base/domains/QS/examples.md", "md_atom_type": "TABLE_ROW", "md_parent_section": "§QS.1 [Example 1]", "md_verbatim": "| 8 | CDISC01 | QS | CDISC01.100014 | 8 | SWLS0103 | SWLS01-I Am Satisfied with My Life | SWLS | Agree | 6 | 6 | Y | 1 | 2003-04-15 | 1 |", "score": 0.4146, "match_basis": "verbatim_token+domain_route:QS"}, {"md_atom_id": "md_dmQS_ex_a012", "md_file": "knowledge_base/domains/QS/examples.md", "md_atom_type": "TABLE_ROW", "md_parent_section": "§QS.1 [Example 1]", "md_verbatim": "| 5 | CDISC01 | QS | CDISC01.100008 | 5 | SWLS0105 | SWLS01-Live Life Over Change | SWLS | Strongly disagree | 1 | 1 | Y | 1 | 2003-04-15 | 1 |", "score": 0.414, "match_basis": "verbatim_token+domain_route:QS"}], "candidate_count": 5, "zero_candidate": false}
{"pdf_atom_id": "ig34_p0325_a009", "pdf_atom_type": "TABLE_ROW", "pdf_source": "SDTMIG_v3.4", "pdf_page": 325, "pdf_parent_section": "§6.3.9.2 Questionnaires (QS) — QS-Specification", "pdf_verbatim": "| QSBLFL | Baseline Flag | Char | (NY) | Record Qualifier | Indicator used to identify a baseline value. Should be \"Y\" or null. Note that QSBLFL is retained for backward compatibility. The authoritative baseline for statistical analysis is in an ADaM dataset. | Perm |", "figure_ref": null, "candidates": [{"md_atom_id": "md_dmQS_ex_a010", "md_file": "knowledge_base/domains/QS/examples.md", "md_atom_type": "TABLE_ROW", "md_parent_section": "§QS.1 [Example 1]", "md_verbatim": "| 3 | CDISC01 | QS | CDISC01.100008 | 3 | SWLS0103 | SWLS01-I Am Satisfied with My Life | SWLS | Agree | 6 | 6 | Y | 1 | 2003-04-15 | 1 |", "score": 0.418, "match_basis": "verbatim_token+domain_route:QS"}, {"md_atom_id": "md_dmQS_ex_a015", "md_file": "knowledge_base/domains/QS/examples.md", "md_atom_type": "TABLE_ROW", "md_parent_section": "§QS.1 [Example 1]", "md_verbatim": "| 8 | CDISC01 | QS | CDISC01.100014 | 8 | SWLS0103 | SWLS01-I Am Satisfied with My Life | SWLS | Agree | 6 | 6 | Y | 1 | 2003-04-15 | 1 |", "score": 0.4179, "match_basis": "verbatim_token+domain_route:QS"}, {"md_atom_id": "md_dmQS_ex_a009", "md_file": "knowledge_base/domains/QS/examples.md", "md_atom_type": "TABLE_ROW", "md_parent_section": "§QS.1 [Example 1]", "md_verbatim": "| 2 | CDISC01 | QS | CDISC01.100008 | 2 | SWLS0102 | SWLS01-My Life Conditions are Excellent | SWLS | Neither agree nor disagree | 4 | 4 | Y | 1 | 2003-04-15 | 1 |", "score": 0.4162, "match_basis": "verbatim_token+domain_route:QS"}, {"md_atom_id": "md_dmQS_ex_a014", "md_file": "knowledge_base/domains/QS/examples.md", "md_atom_type": "TABLE_ROW", "md_parent_section": "§QS.1 [Example 1]", "md_verbatim": "| 7 | CDISC01 | QS | CDISC01.100014 | 7 | SWLS0102 | SWLS01-My Life Conditions are Excellent | SWLS | Neither agree nor disagree | 4 | 4 | Y | 1 | 2003-04-15 | 1 |", "score": 0.4161, "match_basis": "verbatim_token+domain_route:QS"}, {"md_atom_id": "md_dmQS_ex_a012", "md_file": "knowledge_base/domains/QS/examples.md", "md_atom_type": "TABLE_ROW", "md_parent_section": "§QS.1 [Example 1]", "md_verbatim": "| 5 | CDISC01 | QS | CDISC01.100008 | 5 | SWLS0105 | SWLS01-Live Life Over Change | SWLS | Strongly disagree | 1 | 1 | Y | 1 | 2003-04-15 | 1 |", "score": 0.4128, "match_basis": "verbatim_token+domain_route:QS"}], "candidate_count": 5, "zero_candidate": false}
{"pdf_atom_id": "ig34_p0325_a010", "pdf_atom_type": "TABLE_ROW", "pdf_source": "SDTMIG_v3.4", "pdf_page": 325, "pdf_parent_section": "§6.3.9.2 Questionnaires (QS) — QS-Specification", "pdf_verbatim": "| QSDRVFL | Derived Flag | Char | (NY) | Record Qualifier | Used to indicate a derived record. The value should be \"Y\" or null. Records that represent the average of other records or questionnaire subscores that do not come from the CRF are examples of records that would be derived for the submission datasets. If QSDRVFL = \"Y\", then QSORRES may be null with QSSTRESC and (if numeric) QSSTRESN having the derived value. | Perm |", "figure_ref": null, "candidates": [{"md_atom_id": "md_dmQS_ex_a009", "md_file": "knowledge_base/domains/QS/examples.md", "md_atom_type": "TABLE_ROW", "md_parent_section": "§QS.1 [Example 1]", "md_verbatim": "| 2 | CDISC01 | QS | CDISC01.100008 | 2 | SWLS0102 | SWLS01-My Life Conditions are Excellent | SWLS | Neither agree nor disagree | 4 | 4 | Y | 1 | 2003-04-15 | 1 |", "score": 0.4329, "match_basis": "verbatim_token+domain_route:QS"}, {"md_atom_id": "md_dmQS_ex_a014", "md_file": "knowledge_base/domains/QS/examples.md", "md_atom_type": "TABLE_ROW", "md_parent_section": "§QS.1 [Example 1]", "md_verbatim": "| 7 | CDISC01 | QS | CDISC01.100014 | 7 | SWLS0102 | SWLS01-My Life Conditions are Excellent | SWLS | Neither agree nor disagree | 4 | 4 | Y | 1 | 2003-04-15 | 1 |", "score": 0.4327, "match_basis": "verbatim_token+domain_route:QS"}, {"md_atom_id": "md_dmQS_ex_a012", "md_file": "knowledge_base/domains/QS/examples.md", "md_atom_type": "TABLE_ROW", "md_parent_section": "§QS.1 [Example 1]", "md_verbatim": "| 5 | CDISC01 | QS | CDISC01.100008 | 5 | SWLS0105 | SWLS01-Live Life Over Change | SWLS | Strongly disagree | 1 | 1 | Y | 1 | 2003-04-15 | 1 |", "score": 0.4187, "match_basis": "verbatim_token+domain_route:QS"}, {"md_atom_id": "md_dmQS_ex_a017", "md_file": "knowledge_base/domains/QS/examples.md", "md_atom_type": "TABLE_ROW", "md_parent_section": "§QS.1 [Example 1]", "md_verbatim": "| 10 | CDISC01 | QS | CDISC01.100014 | 10 | SWLS0105 | SWLS01-Live Life Over Change | SWLS | Strongly disagree | 1 | 1 | Y | 1 | 2003-04-15 | 1 |", "score": 0.4186, "match_basis": "verbatim_token+domain_route:QS"}, {"md_atom_id": "md_dmQS_ex_a010", "md_file": "knowledge_base/domains/QS/examples.md", "md_atom_type": "TABLE_ROW", "md_parent_section": "§QS.1 [Example 1]", "md_verbatim": "| 3 | CDISC01 | QS | CDISC01.100008 | 3 | SWLS0103 | SWLS01-I Am Satisfied with My Life | SWLS | Agree | 6 | 6 | Y | 1 | 2003-04-15 | 1 |", "score": 0.4156, "match_basis": "verbatim_token+domain_route:QS"}], "candidate_count": 5, "zero_candidate": false}
{"pdf_atom_id": "ig34_p0325_a011", "pdf_atom_type": "TABLE_ROW", "pdf_source": "SDTMIG_v3.4", "pdf_page": 325, "pdf_parent_section": "§6.3.9.2 Questionnaires (QS) — QS-Specification", "pdf_verbatim": "| VISITNUM | Visit Number | Num | | Timing | Clinical encounter number. Numeric version of VISIT, used for sorting. | Exp |", "figure_ref": null, "candidates": [{"md_atom_id": "md_dmQS_ex_a011", "md_file": "knowledge_base/domains/QS/examples.md", "md_atom_type": "TABLE_ROW", "md_parent_section": "§QS.1 [Example 1]", "md_verbatim": "| 4 | CDISC01 | QS | CDISC01.100008 | 4 | SWLS0104 | SWLS01-Have Gotten Important Things | SWLS | Disagree | 2 | 2 | Y | 1 | 2003-04-15 | 1 |", "score": 0.4152, "match_basis": "verbatim_token+domain_route:QS"}, {"md_atom_id": "md_dmQS_ex_a016", "md_file": "knowledge_base/domains/QS/examples.md", "md_atom_type": "TABLE_ROW", "md_parent_section": "§QS.1 [Example 1]", "md_verbatim": "| 9 | CDISC01 | QS | CDISC01.100014 | 9 | SWLS0104 | SWLS01-Have Gotten Important Things | SWLS | Disagree | 2 | 2 | Y | 1 | 2003-04-15 | 1 |", "score": 0.415, "match_basis": "verbatim_token+domain_route:QS"}, {"md_atom_id": "md_dmQS_ex_a012", "md_file": "knowledge_base/domains/QS/examples.md", "md_atom_type": "TABLE_ROW", "md_parent_section": "§QS.1 [Example 1]", "md_verbatim": "| 5 | CDISC01 | QS | CDISC01.100008 | 5 | SWLS0105 | SWLS01-Live Life Over Change | SWLS | Strongly disagree | 1 | 1 | Y | 1 | 2003-04-15 | 1 |", "score": 0.4076, "match_basis": "verbatim_token+domain_route:QS"}, {"md_atom_id": "md_dmQS_ex_a017", "md_file": "knowledge_base/domains/QS/examples.md", "md_atom_type": "TABLE_ROW", "md_parent_section": "§QS.1 [Example 1]", "md_verbatim": "| 10 | CDISC01 | QS | CDISC01.100014 | 10 | SWLS0105 | SWLS01-Live Life Over Change | SWLS | Strongly disagree | 1 | 1 | Y | 1 | 2003-04-15 | 1 |", "score": 0.4075, "match_basis": "verbatim_token+domain_route:QS"}, {"md_atom_id": "md_dmQS_ex_a009", "md_file": "knowledge_base/domains/QS/examples.md", "md_atom_type": "TABLE_ROW", "md_parent_section": "§QS.1 [Example 1]", "md_verbatim": "| 2 | CDISC01 | QS | CDISC01.100008 | 2 | SWLS0102 | SWLS01-My Life Conditions are Excellent | SWLS | Neither agree nor disagree | 4 | 4 | Y | 1 | 2003-04-15 | 1 |", "score": 0.4069, "match_basis": "verbatim_token+domain_route:QS"}], "candidate_count": 5, "zero_candidate": false}
{"pdf_atom_id": "ig34_p0325_a012", "pdf_atom_type": "TABLE_ROW", "pdf_source": "SDTMIG_v3.4", "pdf_page": 325, "pdf_parent_section": "§6.3.9.2 Questionnaires (QS) — QS-Specification", "pdf_verbatim": "| VISIT | Visit Name | Char | | Timing | Protocol-defined description of clinical encounter. May be used in addition to VISITNUM and/or VISITDY. | Perm |", "figure_ref": null, "candidates": [{"md_atom_id": "md_dmQS_ex_a009", "md_file": "knowledge_base/domains/QS/examples.md", "md_atom_type": "TABLE_ROW", "md_parent_section": "§QS.1 [Example 1]", "md_verbatim": "| 2 | CDISC01 | QS | CDISC01.100008 | 2 | SWLS0102 | SWLS01-My Life Conditions are Excellent | SWLS | Neither agree nor disagree | 4 | 4 | Y | 1 | 2003-04-15 | 1 |", "score": 0.424, "match_basis": "verbatim_token+domain_route:QS"}, {"md_atom_id": "md_dmQS_ex_a014", "md_file": "knowledge_base/domains/QS/examples.md", "md_atom_type": "TABLE_ROW", "md_parent_section": "§QS.1 [Example 1]", "md_verbatim": "| 7 | CDISC01 | QS | CDISC01.100014 | 7 | SWLS0102 | SWLS01-My Life Conditions are Excellent | SWLS | Neither agree nor disagree | 4 | 4 | Y | 1 | 2003-04-15 | 1 |", "score": 0.4238, "match_basis": "verbatim_token+domain_route:QS"}, {"md_atom_id": "md_dmQS_ex_a012", "md_file": "knowledge_base/domains/QS/examples.md", "md_atom_type": "TABLE_ROW", "md_parent_section": "§QS.1 [Example 1]", "md_verbatim": "| 5 | CDISC01 | QS | CDISC01.100008 | 5 | SWLS0105 | SWLS01-Live Life Over Change | SWLS | Strongly disagree | 1 | 1 | Y | 1 | 2003-04-15 | 1 |", "score": 0.4063, "match_basis": "verbatim_token+domain_route:QS"}, {"md_atom_id": "md_dmQS_ex_a011", "md_file": "knowledge_base/domains/QS/examples.md", "md_atom_type": "TABLE_ROW", "md_parent_section": "§QS.1 [Example 1]", "md_verbatim": "| 4 | CDISC01 | QS | CDISC01.100008 | 4 | SWLS0104 | SWLS01-Have Gotten Important Things | SWLS | Disagree | 2 | 2 | Y | 1 | 2003-04-15 | 1 |", "score": 0.4062, "match_basis": "verbatim_token+domain_route:QS"}, {"md_atom_id": "md_dmQS_ex_a017", "md_file": "knowledge_base/domains/QS/examples.md", "md_atom_type": "TABLE_ROW", "md_parent_section": "§QS.1 [Example 1]", "md_verbatim": "| 10 | CDISC01 | QS | CDISC01.100014 | 10 | SWLS0105 | SWLS01-Live Life Over Change | SWLS | Strongly disagree | 1 | 1 | Y | 1 | 2003-04-15 | 1 |", "score": 0.4062, "match_basis": "verbatim_token+domain_route:QS"}], "candidate_count": 5, "zero_candidate": false}
{"pdf_atom_id": "ig34_p0325_a013", "pdf_atom_type": "TABLE_ROW", "pdf_source": "SDTMIG_v3.4", "pdf_page": 325, "pdf_parent_section": "§6.3.9.2 Questionnaires (QS) — QS-Specification", "pdf_verbatim": "| VISITDY | Planned Study Day of Visit | Num | | Timing | Planned study day of the visit based upon RFSTDTC in Demographics. | Perm |", "figure_ref": null, "candidates": [{"md_atom_id": "md_dmQS_ex_a011", "md_file": "knowledge_base/domains/QS/examples.md", "md_atom_type": "TABLE_ROW", "md_parent_section": "§QS.1 [Example 1]", "md_verbatim": "| 4 | CDISC01 | QS | CDISC01.100008 | 4 | SWLS0104 | SWLS01-Have Gotten Important Things | SWLS | Disagree | 2 | 2 | Y | 1 | 2003-04-15 | 1 |", "score": 0.4076, "match_basis": "verbatim_token+domain_route:QS"}, {"md_atom_id": "md_dmQS_ex_a016", "md_file": "knowledge_base/domains/QS/examples.md", "md_atom_type": "TABLE_ROW", "md_parent_section": "§QS.1 [Example 1]", "md_verbatim": "| 9 | CDISC01 | QS | CDISC01.100014 | 9 | SWLS0104 | SWLS01-Have Gotten Important Things | SWLS | Disagree | 2 | 2 | Y | 1 | 2003-04-15 | 1 |", "score": 0.4075, "match_basis": "verbatim_token+domain_route:QS"}, {"md_atom_id": "md_dmQS_ex_a009", "md_file": "knowledge_base/domains/QS/examples.md", "md_atom_type": "TABLE_ROW", "md_parent_section": "§QS.1 [Example 1]", "md_verbatim": "| 2 | CDISC01 | QS | CDISC01.100008 | 2 | SWLS0102 | SWLS01-My Life Conditions are Excellent | SWLS | Neither agree nor disagree | 4 | 4 | Y | 1 | 2003-04-15 | 1 |", "score": 0.407, "match_basis": "verbatim_token+domain_route:QS"}, {"md_atom_id": "md_dmQS_ex_a014", "md_file": "knowledge_base/domains/QS/examples.md", "md_atom_type": "TABLE_ROW", "md_parent_section": "§QS.1 [Example 1]", "md_verbatim": "| 7 | CDISC01 | QS | CDISC01.100014 | 7 | SWLS0102 | SWLS01-My Life Conditions are Excellent | SWLS | Neither agree nor disagree | 4 | 4 | Y | 1 | 2003-04-15 | 1 |", "score": 0.4069, "match_basis": "verbatim_token+domain_route:QS"}, {"md_atom_id": "md_dmQS_ex_a008", "md_file": "knowledge_base/domains/QS/examples.md", "md_atom_type": "TABLE_ROW", "md_parent_section": "§QS.1 [Example 1]", "md_verbatim": "| 1 | CDISC01 | QS | CDISC01.100008 | 1 | SWLS0101 | SWLS01-My Life is Close to Ideal | SWLS | Slightly agree | 5 | 5 | Y | 1 | 2003-04-15 | 1 |", "score": 0.4, "match_basis": "verbatim_token+domain_route:QS"}], "candidate_count": 5, "zero_candidate": false}
{"pdf_atom_id": "ig34_p0325_a014", "pdf_atom_type": "TABLE_ROW", "pdf_source": "SDTMIG_v3.4", "pdf_page": 325, "pdf_parent_section": "§6.3.9.2 Questionnaires (QS) — QS-Specification", "pdf_verbatim": "| TAETORD | Planned Order of Element within Arm | Num | | Timing | Number that gives the planned order of the element within the arm for the element in which the assessment was made. | Perm |", "figure_ref": null, "candidates": [{"md_atom_id": "md_dmQS_ex_a011", "md_file": "knowledge_base/domains/QS/examples.md", "md_atom_type": "TABLE_ROW", "md_parent_section": "§QS.1 [Example 1]", "md_verbatim": "| 4 | CDISC01 | QS | CDISC01.100008 | 4 | SWLS0104 | SWLS01-Have Gotten Important Things | SWLS | Disagree | 2 | 2 | Y | 1 | 2003-04-15 | 1 |", "score": 0.4209, "match_basis": "verbatim_token+domain_route:QS"}, {"md_atom_id": "md_dmQS_ex_a016", "md_file": "knowledge_base/domains/QS/examples.md", "md_atom_type": "TABLE_ROW", "md_parent_section": "§QS.1 [Example 1]", "md_verbatim": "| 9 | CDISC01 | QS | CDISC01.100014 | 9 | SWLS0104 | SWLS01-Have Gotten Important Things | SWLS | Disagree | 2 | 2 | Y | 1 | 2003-04-15 | 1 |", "score": 0.4207, "match_basis": "verbatim_token+domain_route:QS"}, {"md_atom_id": "md_dmQS_ex_a009", "md_file": "knowledge_base/domains/QS/examples.md", "md_atom_type": "TABLE_ROW", "md_parent_section": "§QS.1 [Example 1]", "md_verbatim": "| 2 | CDISC01 | QS | CDISC01.100008 | 2 | SWLS0102 | SWLS01-My Life Conditions are Excellent | SWLS | Neither agree nor disagree | 4 | 4 | Y | 1 | 2003-04-15 | 1 |", "score": 0.4194, "match_basis": "verbatim_token+domain_route:QS"}, {"md_atom_id": "md_dmQS_ex_a014", "md_file": "knowledge_base/domains/QS/examples.md", "md_atom_type": "TABLE_ROW", "md_parent_section": "§QS.1 [Example 1]", "md_verbatim": "| 7 | CDISC01 | QS | CDISC01.100014 | 7 | SWLS0102 | SWLS01-My Life Conditions are Excellent | SWLS | Neither agree nor disagree | 4 | 4 | Y | 1 | 2003-04-15 | 1 |", "score": 0.4191, "match_basis": "verbatim_token+domain_route:QS"}, {"md_atom_id": "md_dmQS_ex_a010", "md_file": "knowledge_base/domains/QS/examples.md", "md_atom_type": "TABLE_ROW", "md_parent_section": "§QS.1 [Example 1]", "md_verbatim": "| 3 | CDISC01 | QS | CDISC01.100008 | 3 | SWLS0103 | SWLS01-I Am Satisfied with My Life | SWLS | Agree | 6 | 6 | Y | 1 | 2003-04-15 | 1 |", "score": 0.4152, "match_basis": "verbatim_token+domain_route:QS"}], "candidate_count": 5, "zero_candidate": false}
{"pdf_atom_id": "ig34_p0325_a015", "pdf_atom_type": "TABLE_ROW", "pdf_source": "SDTMIG_v3.4", "pdf_page": 325, "pdf_parent_section": "§6.3.9.2 Questionnaires (QS) — QS-Specification", "pdf_verbatim": "| EPOCH | Epoch | Char | (EPOCH) | Timing | Epoch associated with the observation date/time of the physical exam finding. | Perm |", "figure_ref": null, "candidates": [{"md_atom_id": "md_dmQS_ex_a009", "md_file": "knowledge_base/domains/QS/examples.md", "md_atom_type": "TABLE_ROW", "md_parent_section": "§QS.1 [Example 1]", "md_verbatim": "| 2 | CDISC01 | QS | CDISC01.100008 | 2 | SWLS0102 | SWLS01-My Life Conditions are Excellent | SWLS | Neither agree nor disagree | 4 | 4 | Y | 1 | 2003-04-15 | 1 |", "score": 0.4353, "match_basis": "verbatim_token+domain_route:QS"}, {"md_atom_id": "md_dmQS_ex_a014", "md_file": "knowledge_base/domains/QS/examples.md", "md_atom_type": "TABLE_ROW", "md_parent_section": "§QS.1 [Example 1]", "md_verbatim": "| 7 | CDISC01 | QS | CDISC01.100014 | 7 | SWLS0102 | SWLS01-My Life Conditions are Excellent | SWLS | Neither agree nor disagree | 4 | 4 | Y | 1 | 2003-04-15 | 1 |", "score": 0.4349, "match_basis": "verbatim_token+domain_route:QS"}, {"md_atom_id": "md_dmQS_ex_a010", "md_file": "knowledge_base/domains/QS/examples.md", "md_atom_type": "TABLE_ROW", "md_parent_section": "§QS.1 [Example 1]", "md_verbatim": "| 3 | CDISC01 | QS | CDISC01.100008 | 3 | SWLS0103 | SWLS01-I Am Satisfied with My Life | SWLS | Agree | 6 | 6 | Y | 1 | 2003-04-15 | 1 |", "score": 0.425, "match_basis": "verbatim_token+domain_route:QS"}, {"md_atom_id": "md_dmQS_ex_a015", "md_file": "knowledge_base/domains/QS/examples.md", "md_atom_type": "TABLE_ROW", "md_parent_section": "§QS.1 [Example 1]", "md_verbatim": "| 8 | CDISC01 | QS | CDISC01.100014 | 8 | SWLS0103 | SWLS01-I Am Satisfied with My Life | SWLS | Agree | 6 | 6 | Y | 1 | 2003-04-15 | 1 |", "score": 0.4247, "match_basis": "verbatim_token+domain_route:QS"}, {"md_atom_id": "md_dmQS_ex_a012", "md_file": "knowledge_base/domains/QS/examples.md", "md_atom_type": "TABLE_ROW", "md_parent_section": "§QS.1 [Example 1]", "md_verbatim": "| 5 | CDISC01 | QS | CDISC01.100008 | 5 | SWLS0105 | SWLS01-Live Life Over Change | SWLS | Strongly disagree | 1 | 1 | Y | 1 | 2003-04-15 | 1 |", "score": 0.4074, "match_basis": "verbatim_token+domain_route:QS"}], "candidate_count": 5, "zero_candidate": false}
{"pdf_atom_id": "ig34_p0325_a016", "pdf_atom_type": "TABLE_ROW", "pdf_source": "SDTMIG_v3.4", "pdf_page": 325, "pdf_parent_section": "§6.3.9.2 Questionnaires (QS) — QS-Specification", "pdf_verbatim": "| QSDTC | Date/Time of Finding | Char | ISO 8601 datetime or interval | Timing | Date of questionnaire. | Exp |", "figure_ref": null, "candidates": [{"md_atom_id": "md_dmQS_ex_a009", "md_file": "knowledge_base/domains/QS/examples.md", "md_atom_type": "TABLE_ROW", "md_parent_section": "§QS.1 [Example 1]", "md_verbatim": "| 2 | CDISC01 | QS | CDISC01.100008 | 2 | SWLS0102 | SWLS01-My Life Conditions are Excellent | SWLS | Neither agree nor disagree | 4 | 4 | Y | 1 | 2003-04-15 | 1 |", "score": 0.4222, "match_basis": "verbatim_token+domain_route:QS"}, {"md_atom_id": "md_dmQS_ex_a014", "md_file": "knowledge_base/domains/QS/examples.md", "md_atom_type": "TABLE_ROW", "md_parent_section": "§QS.1 [Example 1]", "md_verbatim": "| 7 | CDISC01 | QS | CDISC01.100014 | 7 | SWLS0102 | SWLS01-My Life Conditions are Excellent | SWLS | Neither agree nor disagree | 4 | 4 | Y | 1 | 2003-04-15 | 1 |", "score": 0.422, "match_basis": "verbatim_token+domain_route:QS"}, {"md_atom_id": "md_dmQS_ex_a012", "md_file": "knowledge_base/domains/QS/examples.md", "md_atom_type": "TABLE_ROW", "md_parent_section": "§QS.1 [Example 1]", "md_verbatim": "| 5 | CDISC01 | QS | CDISC01.100008 | 5 | SWLS0105 | SWLS01-Live Life Over Change | SWLS | Strongly disagree | 1 | 1 | Y | 1 | 2003-04-15 | 1 |", "score": 0.408, "match_basis": "verbatim_token+domain_route:QS"}, {"md_atom_id": "md_dmQS_ex_a011", "md_file": "knowledge_base/domains/QS/examples.md", "md_atom_type": "TABLE_ROW", "md_parent_section": "§QS.1 [Example 1]", "md_verbatim": "| 4 | CDISC01 | QS | CDISC01.100008 | 4 | SWLS0104 | SWLS01-Have Gotten Important Things | SWLS | Disagree | 2 | 2 | Y | 1 | 2003-04-15 | 1 |", "score": 0.4079, "match_basis": "verbatim_token+domain_route:QS"}, {"md_atom_id": "md_dmQS_ex_a017", "md_file": "knowledge_base/domains/QS/examples.md", "md_atom_type": "TABLE_ROW", "md_parent_section": "§QS.1 [Example 1]", "md_verbatim": "| 10 | CDISC01 | QS | CDISC01.100014 | 10 | SWLS0105 | SWLS01-Live Life Over Change | SWLS | Strongly disagree | 1 | 1 | Y | 1 | 2003-04-15 | 1 |", "score": 0.4079, "match_basis": "verbatim_token+domain_route:QS"}], "candidate_count": 5, "zero_candidate": false}
{"pdf_atom_id": "ig34_p0325_a017", "pdf_atom_type": "TABLE_ROW", "pdf_source": "SDTMIG_v3.4", "pdf_page": 325, "pdf_parent_section": "§6.3.9.2 Questionnaires (QS) — QS-Specification", "pdf_verbatim": "| QSDY | Study Day of Finding | Num | | Timing | Study day of finding collection, measured as integer days. Algorithm for calculations must be relative to the sponsor-defined RFSTDTC variable in Demographics. | Perm |", "figure_ref": null, "candidates": [{"md_atom_id": "md_dmQS_ex_a009", "md_file": "knowledge_base/domains/QS/examples.md", "md_atom_type": "TABLE_ROW", "md_parent_section": "§QS.1 [Example 1]", "md_verbatim": "| 2 | CDISC01 | QS | CDISC01.100008 | 2 | SWLS0102 | SWLS01-My Life Conditions are Excellent | SWLS | Neither agree nor disagree | 4 | 4 | Y | 1 | 2003-04-15 | 1 |", "score": 0.4331, "match_basis": "verbatim_token+domain_route:QS"}, {"md_atom_id": "md_dmQS_ex_a014", "md_file": "knowledge_base/domains/QS/examples.md", "md_atom_type": "TABLE_ROW", "md_parent_section": "§QS.1 [Example 1]", "md_verbatim": "| 7 | CDISC01 | QS | CDISC01.100014 | 7 | SWLS0102 | SWLS01-My Life Conditions are Excellent | SWLS | Neither agree nor disagree | 4 | 4 | Y | 1 | 2003-04-15 | 1 |", "score": 0.4328, "match_basis": "verbatim_token+domain_route:QS"}, {"md_atom_id": "md_dmQS_ex_a010", "md_file": "knowledge_base/domains/QS/examples.md", "md_atom_type": "TABLE_ROW", "md_parent_section": "§QS.1 [Example 1]", "md_verbatim": "| 3 | CDISC01 | QS | CDISC01.100008 | 3 | SWLS0103 | SWLS01-I Am Satisfied with My Life | SWLS | Agree | 6 | 6 | Y | 1 | 2003-04-15 | 1 |", "score": 0.4103, "match_basis": "verbatim_token+domain_route:QS"}, {"md_atom_id": "md_dmQS_ex_a015", "md_file": "knowledge_base/domains/QS/examples.md", "md_atom_type": "TABLE_ROW", "md_parent_section": "§QS.1 [Example 1]", "md_verbatim": "| 8 | CDISC01 | QS | CDISC01.100014 | 8 | SWLS0103 | SWLS01-I Am Satisfied with My Life | SWLS | Agree | 6 | 6 | Y | 1 | 2003-04-15 | 1 |", "score": 0.4102, "match_basis": "verbatim_token+domain_route:QS"}, {"md_atom_id": "md_dmQS_ex_a012", "md_file": "knowledge_base/domains/QS/examples.md", "md_atom_type": "TABLE_ROW", "md_parent_section": "§QS.1 [Example 1]", "md_verbatim": "| 5 | CDISC01 | QS | CDISC01.100008 | 5 | SWLS0105 | SWLS01-Live Life Over Change | SWLS | Strongly disagree | 1 | 1 | Y | 1 | 2003-04-15 | 1 |", "score": 0.4048, "match_basis": "verbatim_token+domain_route:QS"}], "candidate_count": 5, "zero_candidate": false}
{"pdf_atom_id": "ig34_p0325_a018", "pdf_atom_type": "TABLE_ROW", "pdf_source": "SDTMIG_v3.4", "pdf_page": 325, "pdf_parent_section": "§6.3.9.2 Questionnaires (QS) — QS-Specification", "pdf_verbatim": "| QSTPT | Planned Time Point Name | Char | | Timing | Text description of time when questionnaire should be administered. This may be represented as an elapsed time relative to a fixed reference point (e.g., \"TIME OF LAST DOSE\"). See QSTPTNUM and QSTPTREF. | Perm |", "figure_ref": null, "candidates": [{"md_atom_id": "md_dmQS_ex_a009", "md_file": "knowledge_base/domains/QS/examples.md", "md_atom_type": "TABLE_ROW", "md_parent_section": "§QS.1 [Example 1]", "md_verbatim": "| 2 | CDISC01 | QS | CDISC01.100008 | 2 | SWLS0102 | SWLS01-My Life Conditions are Excellent | SWLS | Neither agree nor disagree | 4 | 4 | Y | 1 | 2003-04-15 | 1 |", "score": 0.4128, "match_basis": "verbatim_token+domain_route:QS"}, {"md_atom_id": "md_dmQS_ex_a014", "md_file": "knowledge_base/domains/QS/examples.md", "md_atom_type": "TABLE_ROW", "md_parent_section": "§QS.1 [Example 1]", "md_verbatim": "| 7 | CDISC01 | QS | CDISC01.100014 | 7 | SWLS0102 | SWLS01-My Life Conditions are Excellent | SWLS | Neither agree nor disagree | 4 | 4 | Y | 1 | 2003-04-15 | 1 |", "score": 0.4127, "match_basis": "verbatim_token+domain_route:QS"}, {"md_atom_id": "md_dmQS_ex_a012", "md_file": "knowledge_base/domains/QS/examples.md", "md_atom_type": "TABLE_ROW", "md_parent_section": "§QS.1 [Example 1]", "md_verbatim": "| 5 | CDISC01 | QS | CDISC01.100008 | 5 | SWLS0105 | SWLS01-Live Life Over Change | SWLS | Strongly disagree | 1 | 1 | Y | 1 | 2003-04-15 | 1 |", "score": 0.409, "match_basis": "verbatim_token+domain_route:QS"}, {"md_atom_id": "md_dmQS_ex_a011", "md_file": "knowledge_base/domains/QS/examples.md", "md_atom_type": "TABLE_ROW", "md_parent_section": "§QS.1 [Example 1]", "md_verbatim": "| 4 | CDISC01 | QS | CDISC01.100008 | 4 | SWLS0104 | SWLS01-Have Gotten Important Things | SWLS | Disagree | 2 | 2 | Y | 1 | 2003-04-15 | 1 |", "score": 0.4089, "match_basis": "verbatim_token+domain_route:QS"}, {"md_atom_id": "md_dmQS_ex_a017", "md_file": "knowledge_base/domains/QS/examples.md", "md_atom_type": "TABLE_ROW", "md_parent_section": "§QS.1 [Example 1]", "md_verbatim": "| 10 | CDISC01 | QS | CDISC01.100014 | 10 | SWLS0105 | SWLS01-Live Life Over Change | SWLS | Strongly disagree | 1 | 1 | Y | 1 | 2003-04-15 | 1 |", "score": 0.4089, "match_basis": "verbatim_token+domain_route:QS"}], "candidate_count": 5, "zero_candidate": false}
{"pdf_atom_id": "ig34_p0325_a019", "pdf_atom_type": "TABLE_ROW", "pdf_source": "SDTMIG_v3.4", "pdf_page": 325, "pdf_parent_section": "§6.3.9.2 Questionnaires (QS) — QS-Specification", "pdf_verbatim": "| QSTPTNUM | Planned Time Point Number | Num | | Timing | Numerical version of QSTPT to aid in sorting. | Perm |", "figure_ref": null, "candidates": [{"md_atom_id": "md_dmQS_ex_a011", "md_file": "knowledge_base/domains/QS/examples.md", "md_atom_type": "TABLE_ROW", "md_parent_section": "§QS.1 [Example 1]", "md_verbatim": "| 4 | CDISC01 | QS | CDISC01.100008 | 4 | SWLS0104 | SWLS01-Have Gotten Important Things | SWLS | Disagree | 2 | 2 | Y | 1 | 2003-04-15 | 1 |", "score": 0.4158, "match_basis": "verbatim_token+domain_route:QS"}, {"md_atom_id": "md_dmQS_ex_a016", "md_file": "knowledge_base/domains/QS/examples.md", "md_atom_type": "TABLE_ROW", "md_parent_section": "§QS.1 [Example 1]", "md_verbatim": "| 9 | CDISC01 | QS | CDISC01.100014 | 9 | SWLS0104 | SWLS01-Have Gotten Important Things | SWLS | Disagree | 2 | 2 | Y | 1 | 2003-04-15 | 1 |", "score": 0.4156, "match_basis": "verbatim_token+domain_route:QS"}, {"md_atom_id": "md_dmQS_ex_a012", "md_file": "knowledge_base/domains/QS/examples.md", "md_atom_type": "TABLE_ROW", "md_parent_section": "§QS.1 [Example 1]", "md_verbatim": "| 5 | CDISC01 | QS | CDISC01.100008 | 5 | SWLS0105 | SWLS01-Live Life Over Change | SWLS | Strongly disagree | 1 | 1 | Y | 1 | 2003-04-15 | 1 |", "score": 0.4079, "match_basis": "verbatim_token+domain_route:QS"}, {"md_atom_id": "md_dmQS_ex_a017", "md_file": "knowledge_base/domains/QS/examples.md", "md_atom_type": "TABLE_ROW", "md_parent_section": "§QS.1 [Example 1]", "md_verbatim": "| 10 | CDISC01 | QS | CDISC01.100014 | 10 | SWLS0105 | SWLS01-Live Life Over Change | SWLS | Strongly disagree | 1 | 1 | Y | 1 | 2003-04-15 | 1 |", "score": 0.4078, "match_basis": "verbatim_token+domain_route:QS"}, {"md_atom_id": "md_dmQS_ex_a009", "md_file": "knowledge_base/domains/QS/examples.md", "md_atom_type": "TABLE_ROW", "md_parent_section": "§QS.1 [Example 1]", "md_verbatim": "| 2 | CDISC01 | QS | CDISC01.100008 | 2 | SWLS0102 | SWLS01-My Life Conditions are Excellent | SWLS | Neither agree nor disagree | 4 | 4 | Y | 1 | 2003-04-15 | 1 |", "score": 0.4071, "match_basis": "verbatim_token+domain_route:QS"}], "candidate_count": 5, "zero_candidate": false}
{"pdf_atom_id": "ig34_p0325_a020", "pdf_atom_type": "TABLE_ROW", "pdf_source": "SDTMIG_v3.4", "pdf_page": 325, "pdf_parent_section": "§6.3.9.2 Questionnaires (QS) — QS-Specification", "pdf_verbatim": "| QSELTM | Planned Elapsed Time from Time Point Ref | Char | ISO 8601 duration | Timing | Planned elapsed time (in ISO 8601) relative to a planned fixed reference (QSTPTREF). This variable is useful where there are repetitive measures. Not a clock time or a date time variable. Represented as an ISO 8601 duration. Examples: \"-PT15M\" to represent the period of 15 minutes prior to the reference point indicated by QSTPTREF, \"PT8H\" to represent the period of 8 hours after the reference point indicated by QSTPTREF. | Perm |", "figure_ref": null, "candidates": [{"md_atom_id": "md_dmQS_ex_a009", "md_file": "knowledge_base/domains/QS/examples.md", "md_atom_type": "TABLE_ROW", "md_parent_section": "§QS.1 [Example 1]", "md_verbatim": "| 2 | CDISC01 | QS | CDISC01.100008 | 2 | SWLS0102 | SWLS01-My Life Conditions are Excellent | SWLS | Neither agree nor disagree | 4 | 4 | Y | 1 | 2003-04-15 | 1 |", "score": 0.4291, "match_basis": "verbatim_token+domain_route:QS"}, {"md_atom_id": "md_dmQS_ex_a014", "md_file": "knowledge_base/domains/QS/examples.md", "md_atom_type": "TABLE_ROW", "md_parent_section": "§QS.1 [Example 1]", "md_verbatim": "| 7 | CDISC01 | QS | CDISC01.100014 | 7 | SWLS0102 | SWLS01-My Life Conditions are Excellent | SWLS | Neither agree nor disagree | 4 | 4 | Y | 1 | 2003-04-15 | 1 |", "score": 0.4289, "match_basis": "verbatim_token+domain_route:QS"}, {"md_atom_id": "md_dmQS_ex_a012", "md_file": "knowledge_base/domains/QS/examples.md", "md_atom_type": "TABLE_ROW", "md_parent_section": "§QS.1 [Example 1]", "md_verbatim": "| 5 | CDISC01 | QS | CDISC01.100008 | 5 | SWLS0105 | SWLS01-Live Life Over Change | SWLS | Strongly disagree | 1 | 1 | Y | 1 | 2003-04-15 | 1 |", "score": 0.4074, "match_basis": "verbatim_token+domain_route:QS"}, {"md_atom_id": "md_dmQS_ex_a011", "md_file": "knowledge_base/domains/QS/examples.md", "md_atom_type": "TABLE_ROW", "md_parent_section": "§QS.1 [Example 1]", "md_verbatim": "| 4 | CDISC01 | QS | CDISC01.100008 | 4 | SWLS0104 | SWLS01-Have Gotten Important Things | SWLS | Disagree | 2 | 2 | Y | 1 | 2003-04-15 | 1 |", "score": 0.4073, "match_basis": "verbatim_token+domain_route:QS"}, {"md_atom_id": "md_dmQS_ex_a017", "md_file": "knowledge_base/domains/QS/examples.md", "md_atom_type": "TABLE_ROW", "md_parent_section": "§QS.1 [Example 1]", "md_verbatim": "| 10 | CDISC01 | QS | CDISC01.100014 | 10 | SWLS0105 | SWLS01-Live Life Over Change | SWLS | Strongly disagree | 1 | 1 | Y | 1 | 2003-04-15 | 1 |", "score": 0.4073, "match_basis": "verbatim_token+domain_route:QS"}], "candidate_count": 5, "zero_candidate": false}
{"pdf_atom_id": "ig34_p0326_a001", "pdf_atom_type": "TABLE_ROW", "pdf_source": "SDTMIG_v3.4", "pdf_page": 326, "pdf_parent_section": "§6.3.9.2 Questionnaires (QS) — QS-Specification", "pdf_verbatim": "| QSTPTREF | Time Point Reference | Char | | Timing | Name of the fixed reference point referred to by QSELTM, QSTPTNUM, and QSTPT. Examples: \"PREVIOUS DOSE\", \"PREVIOUS MEAL\". | Perm |", "figure_ref": null, "candidates": [{"md_atom_id": "md_dmQS_ex_a008", "md_file": "knowledge_base/domains/QS/examples.md", "md_atom_type": "TABLE_ROW", "md_parent_section": "§QS.1 [Example 1]", "md_verbatim": "| 1 | CDISC01 | QS | CDISC01.100008 | 1 | SWLS0101 | SWLS01-My Life is Close to Ideal | SWLS | Slightly agree | 5 | 5 | Y | 1 | 2003-04-15 | 1 |", "score": 0.4136, "match_basis": "verbatim_token+domain_route:QS"}, {"md_atom_id": "md_dmQS_ex_a013", "md_file": "knowledge_base/domains/QS/examples.md", "md_atom_type": "TABLE_ROW", "md_parent_section": "§QS.1 [Example 1]", "md_verbatim": "| 6 | CDISC01 | QS | CDISC01.100014 | 6 | SWLS0101 | SWLS01-My Life is Close to Ideal | SWLS | Slightly agree | 5 | 5 | Y | 1 | 2003-04-15 | 1 |", "score": 0.4135, "match_basis": "verbatim_token+domain_route:QS"}, {"md_atom_id": "md_dmQS_ex_a012", "md_file": "knowledge_base/domains/QS/examples.md", "md_atom_type": "TABLE_ROW", "md_parent_section": "§QS.1 [Example 1]", "md_verbatim": "| 5 | CDISC01 | QS | CDISC01.100008 | 5 | SWLS0105 | SWLS01-Live Life Over Change | SWLS | Strongly disagree | 1 | 1 | Y | 1 | 2003-04-15 | 1 |", "score": 0.4065, "match_basis": "verbatim_token+domain_route:QS"}, {"md_atom_id": "md_dmQS_ex_a011", "md_file": "knowledge_base/domains/QS/examples.md", "md_atom_type": "TABLE_ROW", "md_parent_section": "§QS.1 [Example 1]", "md_verbatim": "| 4 | CDISC01 | QS | CDISC01.100008 | 4 | SWLS0104 | SWLS01-Have Gotten Important Things | SWLS | Disagree | 2 | 2 | Y | 1 | 2003-04-15 | 1 |", "score": 0.4064, "match_basis": "verbatim_token+domain_route:QS"}, {"md_atom_id": "md_dmQS_ex_a017", "md_file": "knowledge_base/domains/QS/examples.md", "md_atom_type": "TABLE_ROW", "md_parent_section": "§QS.1 [Example 1]", "md_verbatim": "| 10 | CDISC01 | QS | CDISC01.100014 | 10 | SWLS0105 | SWLS01-Live Life Over Change | SWLS | Strongly disagree | 1 | 1 | Y | 1 | 2003-04-15 | 1 |", "score": 0.4064, "match_basis": "verbatim_token+domain_route:QS"}], "candidate_count": 5, "zero_candidate": false}
